"trial_type","trial_index","time_elapsed","internal_node_id","task_version","subject_id","interactions","blur_events","focus_events","fullscreenenter_events","fullscreenexit_events","success","view_history","rt","responses","num_errors","age","subject","participantId","rune","rune_set","hex","correct","choice","accuracy","outcome","keys","total_keys","block","practice","value","sub","trial","stimulus","robot","valence","action","sham"
"pavlovia","0","14","0.0-0.0","battery-v0.2","","""event"",""trial"",""time""
""fullscreenenter"",""1"",""1851""
","
","
","""event"",""trial"",""time""
""fullscreenenter"",""1"",""1851""
","
","","","","","","","","","","","","","","","","","","","","","","","","","","",""
"fullscreen","1","2810","0.0-1.0","battery-v0.2","","""event"",""trial"",""time""
""fullscreenenter"",""1"",""1851""
","
","
","""event"",""trial"",""time""
""fullscreenenter"",""1"",""1851""
","
","true","","","","","","","","","","","","","","","","","","","","","","","","","",""
"pit-instructions","2","40938","0.0-2.0-0.0","battery-v0.2","","""event"",""trial"",""time""
""fullscreenenter"",""1"",""1851""
","
","
","""event"",""trial"",""time""
""fullscreenenter"",""1"",""1851""
","
","","[{""page_index"":0,""viewing_time"":38122}]","38122.60000002384","","","","","","","","","","","","","","","","","","","","","","","",""
"pit-comprehension","3","43945","0.0-2.0-1.0-0.0","battery-v0.2","","""event"",""trial"",""time""
""fullscreenenter"",""1"",""1851""
","
","
","""event"",""trial"",""time""
""fullscreenenter"",""1"",""1851""
","
","","","3002.5","[""shark""]","0","19","10833","1083","","","","","","","","","","","","","","","","","","",""
"pit-instructions","4","44978","0.0-2.0-1.0-1.0","battery-v0.2","","""event"",""trial"",""time""
""fullscreenenter"",""1"",""1851""
","
","
","""event"",""trial"",""time""
""fullscreenenter"",""1"",""1851""
","
","","[{""page_index"":0,""viewing_time"":1012.6999999284744}]","1013.0999999046326","","","","","","","","","","","","","","","","","","","","","","","",""
"pit-comprehension","5","48122","0.0-2.0-2.0-0.0","battery-v0.2","","""event"",""trial"",""time""
""fullscreenenter"",""1"",""1851""
","
","
","""event"",""trial"",""time""
""fullscreenenter"",""1"",""1851""
","
","","","3139.2000000476837","[""tiger""]","0","19","10833","1083","","","","","","","","","","","","","","","","","","",""
"pit-instructions","6","49100","0.0-2.0-2.0-1.0","battery-v0.2","","""event"",""trial"",""time""
""fullscreenenter"",""1"",""1851""
","
","
","""event"",""trial"",""time""
""fullscreenenter"",""1"",""1851""
","
","","[{""page_index"":0,""viewing_time"":973.5}]","973.7999999523163","","","","","","","","","","","","","","","","","","","","","","","",""
"pit-instructions","7","150282","0.0-2.0-3.0","battery-v0.2","","""event"",""trial"",""time""
""fullscreenenter"",""1"",""1851""
","
","
","""event"",""trial"",""time""
""fullscreenenter"",""1"",""1851""
","
","","[{""page_index"":0,""viewing_time"":9383.899999976158},{""page_index"":1,""viewing_time"":6046.899999976158},{""page_index"":2,""viewing_time"":8163.700000047684},{""page_index"":3,""viewing_time"":6905},{""page_index"":4,""viewing_time"":7408.200000047684},{""page_index"":5,""viewing_time"":6938},{""page_index"":6,""viewing_time"":8373.699999928474},{""page_index"":7,""viewing_time"":6359.5},{""page_index"":8,""viewing_time"":6931.5},{""page_index"":9,""viewing_time"":7857.100000023842},{""page_index"":10,""viewing_time"":7285.700000047684},{""page_index"":11,""viewing_time"":7047.399999976158},{""page_index"":12,""viewing_time"":6067.399999976158},{""page_index"":13,""viewing_time"":6410.200000047684}]","101178.5","","","","","","","","","","","","","","","","","","","","","","","",""
"pit-trial","8","153672","0.0-2.0-4.0-0.0","battery-v0.2","","""event"",""trial"",""time""
""fullscreenenter"",""1"",""1851""
","
","
","""event"",""trial"",""time""
""fullscreenenter"",""1"",""1851""
","
","","","511.10000002384186","","","19","10833","1083","&#9784;","elianto","#FFFFF080"," "," ","1","&#10004","[1370.6000000238419]","1","0","0","","","","","","","",""
"pit-trial","9","157291","0.0-2.0-4.1-0.1","battery-v0.2","","""event"",""trial"",""time""
""fullscreenenter"",""1"",""1851""
","
","
","""event"",""trial"",""time""
""fullscreenenter"",""1"",""1851""
","
","","","752.7999999523163","","","19","10833","1083","&#9784;","elianto","#FFFFF080"," "," ","1","&#10004","[1602.8999999761581]","1","0","0","","","","","","","",""
"pit-trial","10","160618","0.0-2.0-4.2-0.2","battery-v0.2","","""event"",""trial"",""time""
""fullscreenenter"",""1"",""1851""
","
","
","""event"",""trial"",""time""
""fullscreenenter"",""1"",""1851""
","
","","","453.60000002384186","","","19","10833","1083","&#9784;","elianto","#FFFFF080"," "," ","1","&#10004","[1313.2999999523163]","1","0","0","","","","","","","",""
"pit-trial","11","163883","0.0-2.0-4.3-0.3","battery-v0.2","","""event"",""trial"",""time""
""fullscreenenter"",""1"",""1851""
","
","
","""event"",""trial"",""time""
""fullscreenenter"",""1"",""1851""
","
","","","404.60000002384186","","","19","10833","1083","&#9784;","elianto","#FFFFF080"," "," ","1","&#10004","[1257.2999999523163]","1","0","0","","","","","","","",""
"pit-trial","12","167132","0.0-2.0-4.4-0.4","battery-v0.2","","""event"",""trial"",""time""
""fullscreenenter"",""1"",""1851""
","
","
","""event"",""trial"",""time""
""fullscreenenter"",""1"",""1851""
","
","","","386.10000002384186","","","19","10833","1083","&#9784;","elianto","#FFFFF080"," "," ","1","&#10004","[1237.2999999523163]","1","0","0","","","","","","","",""
"pit-instructions","13","191136","0.0-2.0-5.0","battery-v0.2","","""event"",""trial"",""time""
""fullscreenenter"",""1"",""1851""
","
","
","""event"",""trial"",""time""
""fullscreenenter"",""1"",""1851""
","
","","[{""page_index"":0,""viewing_time"":6150.299999952316},{""page_index"":1,""viewing_time"":6755.5},{""page_index"":2,""viewing_time"":5067.5},{""page_index"":3,""viewing_time"":6027.399999976158}]","24001.100000023842","","","","","","","","","","","","","","","","","","","","","","","",""
"pit-trial","14","196010","0.0-2.0-6.0-0.0","battery-v0.2","","""event"",""trial"",""time""
""fullscreenenter"",""1"",""1851""
","
","
","""event"",""trial"",""time""
""fullscreenenter"",""1"",""1851""
","
","","","-1","","","19","10833","1083","&#9854;","elianto","#FFFFF080","-1","-1","1","&#10004","[]","0","0","1","","","","","","","",""
"pit-trial","15","200889","0.0-2.0-6.1-0.1","battery-v0.2","","""event"",""trial"",""time""
""fullscreenenter"",""1"",""1851""
","
","
","""event"",""trial"",""time""
""fullscreenenter"",""1"",""1851""
","
","","","-1","","","19","10833","1083","&#9854;","elianto","#FFFFF080","-1","-1","1","&#10004","[]","0","0","1","","","","","","","",""
"pit-trial","16","205768","0.0-2.0-6.2-0.2","battery-v0.2","","""event"",""trial"",""time""
""fullscreenenter"",""1"",""1851""
","
","
","""event"",""trial"",""time""
""fullscreenenter"",""1"",""1851""
","
","","","-1","","","19","10833","1083","&#9854;","elianto","#FFFFF080","-1","-1","1","&#10004","[]","0","0","1","","","","","","","",""
"pit-trial","17","210647","0.0-2.0-6.3-0.3","battery-v0.2","","""event"",""trial"",""time""
""fullscreenenter"",""1"",""1851""
","
","
","""event"",""trial"",""time""
""fullscreenenter"",""1"",""1851""
","
","","","-1","","","19","10833","1083","&#9854;","elianto","#FFFFF080","-1","-1","1","&#10004","[]","0","0","1","","","","","","","",""
"pit-trial","18","215527","0.0-2.0-6.4-0.4","battery-v0.2","","""event"",""trial"",""time""
""fullscreenenter"",""1"",""1851""
","
","
","""event"",""trial"",""time""
""fullscreenenter"",""1"",""1851""
","
","","","-1","","","19","10833","1083","&#9854;","elianto","#FFFFF080","-1","-1","1","&#10004","[]","0","0","1","","","","","","","",""
"pit-instructions","19","347455","0.0-2.0-7.0","battery-v0.2","","""event"",""trial"",""time""
""fullscreenenter"",""1"",""1851""
","
","
","""event"",""trial"",""time""
""fullscreenenter"",""1"",""1851""
","
","","[{""page_index"":0,""viewing_time"":5552.5},{""page_index"":1,""viewing_time"":7156.199999928474},{""page_index"":2,""viewing_time"":9597.5},{""page_index"":3,""viewing_time"":7288.800000071526},{""page_index"":2,""viewing_time"":3258.1999999284744},{""page_index"":3,""viewing_time"":6576.700000047684},{""page_index"":4,""viewing_time"":5223.899999976158},{""page_index"":5,""viewing_time"":5149.200000047684},{""page_index"":6,""viewing_time"":4414.5},{""page_index"":7,""viewing_time"":9571},{""page_index"":8,""viewing_time"":7407.599999904633},{""page_index"":9,""viewing_time"":6217.700000047684},{""page_index"":10,""viewing_time"":6081.399999976158},{""page_index"":11,""viewing_time"":4285.700000047684},{""page_index"":12,""viewing_time"":7539},{""page_index"":13,""viewing_time"":7638.799999952316},{""page_index"":14,""viewing_time"":7673.200000047684},{""page_index"":15,""viewing_time"":6537.799999952316},{""page_index"":16,""viewing_time"":7211.200000047684},{""page_index"":17,""viewing_time"":7543.699999928474}]","131925.09999990463","","","","","","","","","","","","","","","","","","","","","","","",""
"pit-trial","20","351542","0.0-2.0-8.0-0.0","battery-v0.2","","""event"",""trial"",""time""
""fullscreenenter"",""1"",""1851""
","
","
","""event"",""trial"",""time""
""fullscreenenter"",""1"",""1851""
","
","","","1221.7999999523163","","","19","10833","1083","&#9776;","elianto","#3366ff99"," "," ","1","+10","[2079.5999999046326]","1","0","1","","","","","","","",""
"pit-trial","21","354992","0.0-2.0-8.0-1.0","battery-v0.2","","""event"",""trial"",""time""
""fullscreenenter"",""1"",""1851""
","
","
","""event"",""trial"",""time""
""fullscreenenter"",""1"",""1851""
","
","","","586.3000000715256","","","19","10833","1083","&#9776;","elianto","#3366ff99"," "," ","1","+10","[1440.3000000715256]","1","0","1","","","","","","","",""
"pit-trial","22","358392","0.0-2.0-8.0-2.0","battery-v0.2","","""event"",""trial"",""time""
""fullscreenenter"",""1"",""1851""
","
","
","""event"",""trial"",""time""
""fullscreenenter"",""1"",""1851""
","
","","","533.2000000476837","","","19","10833","1083","&#9776;","elianto","#3366ff99"," "," ","1","+10","[1384.1999999284744]","1","0","1","","","","","","","",""
"pit-trial","23","361674","0.0-2.0-8.0-3.0","battery-v0.2","","""event"",""trial"",""time""
""fullscreenenter"",""1"",""1851""
","
","
","""event"",""trial"",""time""
""fullscreenenter"",""1"",""1851""
","
","","","420.59999990463257","","","19","10833","1083","&#9776;","elianto","#3366ff99"," "," ","1","0","[1272.0999999046326]","1","0","1","","","","","","","",""
"pit-trial","24","365371","0.0-2.0-8.0-4.0","battery-v0.2","","""event"",""trial"",""time""
""fullscreenenter"",""1"",""1851""
","
","
","""event"",""trial"",""time""
""fullscreenenter"",""1"",""1851""
","
","","","842.7999999523163","","","19","10833","1083","&#9776;","elianto","#3366ff99"," "," ","1","+10","[1693.2999999523163]","1","0","1","","","","","","","",""
"pit-trial","25","370262","0.0-2.0-8.1-0.1","battery-v0.2","","""event"",""trial"",""time""
""fullscreenenter"",""1"",""1851""
","
","
","""event"",""trial"",""time""
""fullscreenenter"",""1"",""1851""
","
","","","-1","","","19","10833","1083","&#9776;","elianto","#3366ff99"," ","-1","0","0","[]","0","0","1","","","","","","","",""
"pit-trial","26","373742","0.0-2.0-8.1-1.1","battery-v0.2","","""event"",""trial"",""time""
""fullscreenenter"",""1"",""1851""
","
","
","""event"",""trial"",""time""
""fullscreenenter"",""1"",""1851""
","
","","","614.6000000238419","","","19","10833","1083","&#9776;","elianto","#3366ff99"," "," ","1","+10","[1466]","1","0","1","","","","","","","",""
"pit-trial","27","376982","0.0-2.0-8.1-2.1","battery-v0.2","","""event"",""trial"",""time""
""fullscreenenter"",""1"",""1851""
","
","
","""event"",""trial"",""time""
""fullscreenenter"",""1"",""1851""
","
","","","374.2999999523163","","","19","10833","1083","&#9776;","elianto","#3366ff99"," "," ","1","+10","[1225.7000000476837]","1","0","1","","","","","","","",""
"pit-trial","28","380162","0.0-2.0-8.1-3.1","battery-v0.2","","""event"",""trial"",""time""
""fullscreenenter"",""1"",""1851""
","
","
","""event"",""trial"",""time""
""fullscreenenter"",""1"",""1851""
","
","","","320.2999999523163","","","19","10833","1083","&#9776;","elianto","#3366ff99"," "," ","1","0","[1176.5999999046326]","1","0","1","","","","","","","",""
"pit-trial","29","383780","0.0-2.0-8.1-4.1","battery-v0.2","","""event"",""trial"",""time""
""fullscreenenter"",""1"",""1851""
","
","
","""event"",""trial"",""time""
""fullscreenenter"",""1"",""1851""
","
","","","750","","","19","10833","1083","&#9776;","elianto","#3366ff99"," "," ","1","+10","[1608.3000000715256]","1","0","1","","","","","","","",""
"pit-trial","30","387097","0.0-2.0-8.2-0.2","battery-v0.2","","""event"",""trial"",""time""
""fullscreenenter"",""1"",""1851""
","
","
","""event"",""trial"",""time""
""fullscreenenter"",""1"",""1851""
","
","","","453.2999999523163","","","19","10833","1083","&#9776;","elianto","#3366ff99"," "," ","1","+10","[1308.5]","1","0","1","","","","","","","",""
"pit-trial","31","390101","0.0-2.0-8.2-1.2","battery-v0.2","","""event"",""trial"",""time""
""fullscreenenter"",""1"",""1851""
","
","
","""event"",""trial"",""time""
""fullscreenenter"",""1"",""1851""
","
","","","146.19999992847443","","","19","10833","1083","&#9776;","elianto","#3366ff99"," "," ","1","+10","[998.7999999523163]","1","0","1","","","","","","","",""
"pit-trial","32","393598","0.0-2.0-8.2-2.2","battery-v0.2","","""event"",""trial"",""time""
""fullscreenenter"",""1"",""1851""
","
","
","""event"",""trial"",""time""
""fullscreenenter"",""1"",""1851""
","
","","","637.7999999523163","","","19","10833","1083","&#9776;","elianto","#3366ff99"," "," ","1","+10","[1488,3470.8000000715256]","2","0","1","","","","","","","",""
"pit-trial","33","397712","0.0-2.0-8.2-3.2","battery-v0.2","","""event"",""trial"",""time""
""fullscreenenter"",""1"",""1851""
","
","
","""event"",""trial"",""time""
""fullscreenenter"",""1"",""1851""
","
","","","1258.7000000476837","","","19","10833","1083","&#9776;","elianto","#3366ff99"," "," ","1","0","[2108.899999976158]","1","0","1","","","","","","","",""
"pit-trial","34","400818","0.0-2.0-8.2-4.2","battery-v0.2","","""event"",""trial"",""time""
""fullscreenenter"",""1"",""1851""
","
","
","""event"",""trial"",""time""
""fullscreenenter"",""1"",""1851""
","
","","","248.70000004768372","","","19","10833","1083","&#9776;","elianto","#3366ff99"," "," ","1","+10","[1101.8000000715256]","1","0","1","","","","","","","",""
"call-function","35","400820","0.0-2.0-9.0","battery-v0.2","","""event"",""trial"",""time""
""fullscreenenter"",""1"",""1851""
","
","
","""event"",""trial"",""time""
""fullscreenenter"",""1"",""1851""
","
","","","","","","","","","","","","","","","","","","","","","","","","","","",""
"pit-instructions","36","442566","0.0-2.0-10.0","battery-v0.2","","""event"",""trial"",""time""
""fullscreenenter"",""1"",""1851""
","
","
","""event"",""trial"",""time""
""fullscreenenter"",""1"",""1851""
","
","","[{""page_index"":0,""viewing_time"":5768.600000023842},{""page_index"":1,""viewing_time"":6592},{""page_index"":2,""viewing_time"":9195.300000071526},{""page_index"":3,""viewing_time"":9189.599999904633},{""page_index"":4,""viewing_time"":10998.800000071526}]","41744.800000071526","","","","","","","","","","","","","","","","","","","","","","","",""
"pit-trial","37","446637","0.0-2.0-11.0-0.0","battery-v0.2","","""event"",""trial"",""time""
""fullscreenenter"",""1"",""1851""
","
","
","""event"",""trial"",""time""
""fullscreenenter"",""1"",""1851""
","
","","","1213.3999999761581","","","19","10833","1083","&#9761;","elianto","#3366ff99","-1"," ","0","0","[2068.399999976158]","1","0","2","","","","","","","",""
"pit-trial","38","451516","0.0-2.0-11.0-1.0","battery-v0.2","","""event"",""trial"",""time""
""fullscreenenter"",""1"",""1851""
","
","
","""event"",""trial"",""time""
""fullscreenenter"",""1"",""1851""
","
","","","-1","","","19","10833","1083","&#9761;","elianto","#3366ff99","-1","-1","1","+10","[]","0","0","2","","","","","","","",""
"pit-trial","39","456393","0.0-2.0-11.0-2.0","battery-v0.2","","""event"",""trial"",""time""
""fullscreenenter"",""1"",""1851""
","
","
","""event"",""trial"",""time""
""fullscreenenter"",""1"",""1851""
","
","","","-1","","","19","10833","1083","&#9761;","elianto","#3366ff99","-1","-1","1","+10","[]","0","0","2","","","","","","","",""
"pit-trial","40","461258","0.0-2.0-11.0-3.0","battery-v0.2","","""event"",""trial"",""time""
""fullscreenenter"",""1"",""1851""
","
","
","""event"",""trial"",""time""
""fullscreenenter"",""1"",""1851""
","
","","","-1","","","19","10833","1083","&#9761;","elianto","#3366ff99","-1","-1","1","0","[]","0","0","2","","","","","","","",""
"pit-trial","41","466129","0.0-2.0-11.0-4.0","battery-v0.2","","""event"",""trial"",""time""
""fullscreenenter"",""1"",""1851""
","
","
","""event"",""trial"",""time""
""fullscreenenter"",""1"",""1851""
","
","","","-1","","","19","10833","1083","&#9761;","elianto","#3366ff99","-1","-1","1","+10","[]","0","0","2","","","","","","","",""
"pit-trial","42","471002","0.0-2.0-11.1-0.1","battery-v0.2","","""event"",""trial"",""time""
""fullscreenenter"",""1"",""1851""
","
","
","""event"",""trial"",""time""
""fullscreenenter"",""1"",""1851""
","
","","","-1","","","19","10833","1083","&#9761;","elianto","#3366ff99","-1","-1","1","+10","[]","0","0","2","","","","","","","",""
"pit-trial","43","475865","0.0-2.0-11.1-1.1","battery-v0.2","","""event"",""trial"",""time""
""fullscreenenter"",""1"",""1851""
","
","
","""event"",""trial"",""time""
""fullscreenenter"",""1"",""1851""
","
","","","-1","","","19","10833","1083","&#9761;","elianto","#3366ff99","-1","-1","1","+10","[]","0","0","2","","","","","","","",""
"pit-trial","44","480728","0.0-2.0-11.1-2.1","battery-v0.2","","""event"",""trial"",""time""
""fullscreenenter"",""1"",""1851""
","
","
","""event"",""trial"",""time""
""fullscreenenter"",""1"",""1851""
","
","","","-1","","","19","10833","1083","&#9761;","elianto","#3366ff99","-1","-1","1","+10","[]","0","0","2","","","","","","","",""
"pit-trial","45","485586","0.0-2.0-11.1-3.1","battery-v0.2","","""event"",""trial"",""time""
""fullscreenenter"",""1"",""1851""
","
","
","""event"",""trial"",""time""
""fullscreenenter"",""1"",""1851""
","
","","","-1","","","19","10833","1083","&#9761;","elianto","#3366ff99","-1","-1","1","0","[]","0","0","2","","","","","","","",""
"pit-trial","46","490457","0.0-2.0-11.1-4.1","battery-v0.2","","""event"",""trial"",""time""
""fullscreenenter"",""1"",""1851""
","
","
","""event"",""trial"",""time""
""fullscreenenter"",""1"",""1851""
","
","","","-1","","","19","10833","1083","&#9761;","elianto","#3366ff99","-1","-1","1","+10","[]","0","0","2","","","","","","","",""
"pit-trial","47","495320","0.0-2.0-11.2-0.2","battery-v0.2","","""event"",""trial"",""time""
""fullscreenenter"",""1"",""1851""
","
","
","""event"",""trial"",""time""
""fullscreenenter"",""1"",""1851""
","
","","","-1","","","19","10833","1083","&#9761;","elianto","#3366ff99","-1","-1","1","+10","[]","0","0","2","","","","","","","",""
"pit-trial","48","500195","0.0-2.0-11.2-1.2","battery-v0.2","","""event"",""trial"",""time""
""fullscreenenter"",""1"",""1851""
","
","
","""event"",""trial"",""time""
""fullscreenenter"",""1"",""1851""
","
","","","-1","","","19","10833","1083","&#9761;","elianto","#3366ff99","-1","-1","1","+10","[]","0","0","2","","","","","","","",""
"pit-trial","49","505054","0.0-2.0-11.2-2.2","battery-v0.2","","""event"",""trial"",""time""
""fullscreenenter"",""1"",""1851""
","
","
","""event"",""trial"",""time""
""fullscreenenter"",""1"",""1851""
","
","","","-1","","","19","10833","1083","&#9761;","elianto","#3366ff99","-1","-1","1","+10","[]","0","0","2","","","","","","","",""
"pit-trial","50","509920","0.0-2.0-11.2-3.2","battery-v0.2","","""event"",""trial"",""time""
""fullscreenenter"",""1"",""1851""
","
","
","""event"",""trial"",""time""
""fullscreenenter"",""1"",""1851""
","
","","","-1","","","19","10833","1083","&#9761;","elianto","#3366ff99","-1","-1","1","0","[]","0","0","2","","","","","","","",""
"pit-trial","51","514791","0.0-2.0-11.2-4.2","battery-v0.2","","""event"",""trial"",""time""
""fullscreenenter"",""1"",""1851""
","
","
","""event"",""trial"",""time""
""fullscreenenter"",""1"",""1851""
","
","","","-1","","","19","10833","1083","&#9761;","elianto","#3366ff99","-1","-1","1","+10","[]","0","0","2","","","","","","","",""
"pit-trial","52","519657","0.0-2.0-11.3-0.3","battery-v0.2","","""event"",""trial"",""time""
""fullscreenenter"",""1"",""1851""
","
","
","""event"",""trial"",""time""
""fullscreenenter"",""1"",""1851""
","
","","","-1","","","19","10833","1083","&#9761;","elianto","#3366ff99","-1","-1","1","+10","[]","0","0","2","","","","","","","",""
"pit-trial","53","524526","0.0-2.0-11.3-1.3","battery-v0.2","","""event"",""trial"",""time""
""fullscreenenter"",""1"",""1851""
","
","
","""event"",""trial"",""time""
""fullscreenenter"",""1"",""1851""
","
","","","-1","","","19","10833","1083","&#9761;","elianto","#3366ff99","-1","-1","1","+10","[]","0","0","2","","","","","","","",""
"pit-trial","54","529395","0.0-2.0-11.3-2.3","battery-v0.2","","""event"",""trial"",""time""
""fullscreenenter"",""1"",""1851""
","
","
","""event"",""trial"",""time""
""fullscreenenter"",""1"",""1851""
","
","","","-1","","","19","10833","1083","&#9761;","elianto","#3366ff99","-1","-1","1","+10","[]","0","0","2","","","","","","","",""
"pit-trial","55","534267","0.0-2.0-11.3-3.3","battery-v0.2","","""event"",""trial"",""time""
""fullscreenenter"",""1"",""1851""
","
","
","""event"",""trial"",""time""
""fullscreenenter"",""1"",""1851""
","
","","","-1","","","19","10833","1083","&#9761;","elianto","#3366ff99","-1","-1","1","0","[]","0","0","2","","","","","","","",""
"pit-trial","56","539137","0.0-2.0-11.3-4.3","battery-v0.2","","""event"",""trial"",""time""
""fullscreenenter"",""1"",""1851""
","
","
","""event"",""trial"",""time""
""fullscreenenter"",""1"",""1851""
","
","","","-1","","","19","10833","1083","&#9761;","elianto","#3366ff99","-1","-1","1","+10","[]","0","0","2","","","","","","","",""
"call-function","57","539138","0.0-2.0-12.0","battery-v0.2","","""event"",""trial"",""time""
""fullscreenenter"",""1"",""1851""
","
","
","""event"",""trial"",""time""
""fullscreenenter"",""1"",""1851""
","
","","","","","","","","","","","","","","","","","","","","","","","","","","",""
"pit-instructions","58","568862","0.0-2.0-13.0","battery-v0.2","","""event"",""trial"",""time""
""fullscreenenter"",""1"",""1851""
","
","
","""event"",""trial"",""time""
""fullscreenenter"",""1"",""1851""
","
","","[{""page_index"":0,""viewing_time"":4579.700000047684},{""page_index"":1,""viewing_time"":6476.100000023842},{""page_index"":2,""viewing_time"":3170},{""page_index"":3,""viewing_time"":11251.799999952316},{""page_index"":4,""viewing_time"":4244.899999976158}]","29722.700000047684","","","","","","","","","","","","","","","","","","","","","","","",""
"pit-trial","59","572068","0.0-2.0-14.0-0.0","battery-v0.2","","""event"",""trial"",""time""
""fullscreenenter"",""1"",""1851""
","
","
","""event"",""trial"",""time""
""fullscreenenter"",""1"",""1851""
","
","","","345.10000002384186","","","19","10833","1083","&#9826;","elianto","#f73b6a7A","-1"," ","0","-10","[1198.7999999523163]","1","0","3","","","","","","","",""
"pit-trial","60","576947","0.0-2.0-14.0-1.0","battery-v0.2","","""event"",""trial"",""time""
""fullscreenenter"",""1"",""1851""
","
","
","""event"",""trial"",""time""
""fullscreenenter"",""1"",""1851""
","
","","","-1","","","19","10833","1083","&#9826;","elianto","#f73b6a7A","-1","-1","1","0","[]","0","0","3","","","","","","","",""
"pit-trial","61","581827","0.0-2.0-14.0-2.0","battery-v0.2","","""event"",""trial"",""time""
""fullscreenenter"",""1"",""1851""
","
","
","""event"",""trial"",""time""
""fullscreenenter"",""1"",""1851""
","
","","","-1","","","19","10833","1083","&#9826;","elianto","#f73b6a7A","-1","-1","1","0","[]","0","0","3","","","","","","","",""
"pit-trial","62","586707","0.0-2.0-14.0-3.0","battery-v0.2","","""event"",""trial"",""time""
""fullscreenenter"",""1"",""1851""
","
","
","""event"",""trial"",""time""
""fullscreenenter"",""1"",""1851""
","
","","","-1","","","19","10833","1083","&#9826;","elianto","#f73b6a7A","-1","-1","1","-10","[]","0","0","3","","","","","","","",""
"pit-trial","63","591587","0.0-2.0-14.0-4.0","battery-v0.2","","""event"",""trial"",""time""
""fullscreenenter"",""1"",""1851""
","
","
","""event"",""trial"",""time""
""fullscreenenter"",""1"",""1851""
","
","","","-1","","","19","10833","1083","&#9826;","elianto","#f73b6a7A","-1","-1","1","0","[]","0","0","3","","","","","","","",""
"pit-trial","64","596467","0.0-2.0-14.1-0.1","battery-v0.2","","""event"",""trial"",""time""
""fullscreenenter"",""1"",""1851""
","
","
","""event"",""trial"",""time""
""fullscreenenter"",""1"",""1851""
","
","","","-1","","","19","10833","1083","&#9826;","elianto","#f73b6a7A","-1","-1","1","0","[]","0","0","3","","","","","","","",""
"pit-trial","65","601332","0.0-2.0-14.1-1.1","battery-v0.2","","""event"",""trial"",""time""
""fullscreenenter"",""1"",""1851""
","
","
","""event"",""trial"",""time""
""fullscreenenter"",""1"",""1851""
","
","","","-1","","","19","10833","1083","&#9826;","elianto","#f73b6a7A","-1","-1","1","0","[]","0","0","3","","","","","","","",""
"pit-trial","66","606192","0.0-2.0-14.1-2.1","battery-v0.2","","""event"",""trial"",""time""
""fullscreenenter"",""1"",""1851""
","
","
","""event"",""trial"",""time""
""fullscreenenter"",""1"",""1851""
","
","","","-1","","","19","10833","1083","&#9826;","elianto","#f73b6a7A","-1","-1","1","0","[]","0","0","3","","","","","","","",""
"pit-trial","67","611054","0.0-2.0-14.1-3.1","battery-v0.2","","""event"",""trial"",""time""
""fullscreenenter"",""1"",""1851""
","
","
","""event"",""trial"",""time""
""fullscreenenter"",""1"",""1851""
","
","","","-1","","","19","10833","1083","&#9826;","elianto","#f73b6a7A","-1","-1","1","-10","[]","0","0","3","","","","","","","",""
"pit-trial","68","615914","0.0-2.0-14.1-4.1","battery-v0.2","","""event"",""trial"",""time""
""fullscreenenter"",""1"",""1851""
","
","
","""event"",""trial"",""time""
""fullscreenenter"",""1"",""1851""
","
","","","-1","","","19","10833","1083","&#9826;","elianto","#f73b6a7A","-1","-1","1","0","[]","0","0","3","","","","","","","",""
"pit-trial","69","620780","0.0-2.0-14.2-0.2","battery-v0.2","","""event"",""trial"",""time""
""fullscreenenter"",""1"",""1851""
","
","
","""event"",""trial"",""time""
""fullscreenenter"",""1"",""1851""
","
","","","-1","","","19","10833","1083","&#9826;","elianto","#f73b6a7A","-1","-1","1","0","[]","0","0","3","","","","","","","",""
"pit-trial","70","625655","0.0-2.0-14.2-1.2","battery-v0.2","","""event"",""trial"",""time""
""fullscreenenter"",""1"",""1851""
","
","
","""event"",""trial"",""time""
""fullscreenenter"",""1"",""1851""
","
","","","-1","","","19","10833","1083","&#9826;","elianto","#f73b6a7A","-1","-1","1","0","[]","0","0","3","","","","","","","",""
"pit-trial","71","630523","0.0-2.0-14.2-2.2","battery-v0.2","","""event"",""trial"",""time""
""fullscreenenter"",""1"",""1851""
","
","
","""event"",""trial"",""time""
""fullscreenenter"",""1"",""1851""
","
","","","-1","","","19","10833","1083","&#9826;","elianto","#f73b6a7A","-1","-1","1","0","[]","0","0","3","","","","","","","",""
"pit-trial","72","635380","0.0-2.0-14.2-3.2","battery-v0.2","","""event"",""trial"",""time""
""fullscreenenter"",""1"",""1851""
","
","
","""event"",""trial"",""time""
""fullscreenenter"",""1"",""1851""
","
","","","-1","","","19","10833","1083","&#9826;","elianto","#f73b6a7A","-1","-1","1","-10","[]","0","0","3","","","","","","","",""
"pit-trial","73","640247","0.0-2.0-14.2-4.2","battery-v0.2","","""event"",""trial"",""time""
""fullscreenenter"",""1"",""1851""
","
","
","""event"",""trial"",""time""
""fullscreenenter"",""1"",""1851""
","
","","","-1","","","19","10833","1083","&#9826;","elianto","#f73b6a7A","-1","-1","1","0","[]","0","0","3","","","","","","","",""
"pit-trial","74","645119","0.0-2.0-14.3-0.3","battery-v0.2","","""event"",""trial"",""time""
""fullscreenenter"",""1"",""1851""
","
","
","""event"",""trial"",""time""
""fullscreenenter"",""1"",""1851""
","
","","","-1","","","19","10833","1083","&#9826;","elianto","#f73b6a7A","-1","-1","1","0","[]","0","0","3","","","","","","","",""
"pit-trial","75","649999","0.0-2.0-14.3-1.3","battery-v0.2","","""event"",""trial"",""time""
""fullscreenenter"",""1"",""1851""
","
","
","""event"",""trial"",""time""
""fullscreenenter"",""1"",""1851""
","
","","","-1","","","19","10833","1083","&#9826;","elianto","#f73b6a7A","-1","-1","1","0","[]","0","0","3","","","","","","","",""
"pit-trial","76","654869","0.0-2.0-14.3-2.3","battery-v0.2","","""event"",""trial"",""time""
""fullscreenenter"",""1"",""1851""
","
","
","""event"",""trial"",""time""
""fullscreenenter"",""1"",""1851""
","
","","","-1","","","19","10833","1083","&#9826;","elianto","#f73b6a7A","-1","-1","1","0","[]","0","0","3","","","","","","","",""
"pit-trial","77","659725","0.0-2.0-14.3-3.3","battery-v0.2","","""event"",""trial"",""time""
""fullscreenenter"",""1"",""1851""
","
","
","""event"",""trial"",""time""
""fullscreenenter"",""1"",""1851""
","
","","","-1","","","19","10833","1083","&#9826;","elianto","#f73b6a7A","-1","-1","1","-10","[]","0","0","3","","","","","","","",""
"pit-trial","78","664594","0.0-2.0-14.3-4.3","battery-v0.2","","""event"",""trial"",""time""
""fullscreenenter"",""1"",""1851""
","
","
","""event"",""trial"",""time""
""fullscreenenter"",""1"",""1851""
","
","","","-1","","","19","10833","1083","&#9826;","elianto","#f73b6a7A","-1","-1","1","0","[]","0","0","3","","","","","","","",""
"call-function","79","664596","0.0-2.0-15.0","battery-v0.2","","""event"",""trial"",""time""
""fullscreenenter"",""1"",""1851""
","
","
","""event"",""trial"",""time""
""fullscreenenter"",""1"",""1851""
","
","","","","","","","","","","","","","","","","","","","","","","","","","","",""
"pit-instructions","80","690431","0.0-2.0-16.0","battery-v0.2","","""event"",""trial"",""time""
""fullscreenenter"",""1"",""1851""
","
","
","""event"",""trial"",""time""
""fullscreenenter"",""1"",""1851""
","
","","[{""page_index"":0,""viewing_time"":6530.600000023842},{""page_index"":1,""viewing_time"":10692.799999952316},{""page_index"":2,""viewing_time"":4318},{""page_index"":3,""viewing_time"":4292.700000047684}]","25834.5","","","","","","","","","","","","","","","","","","","","","","","",""
"pit-trial","81","694420","0.0-2.0-17.0-0.0","battery-v0.2","","""event"",""trial"",""time""
""fullscreenenter"",""1"",""1851""
","
","
","""event"",""trial"",""time""
""fullscreenenter"",""1"",""1851""
","
","","","1114.9000000953674","","","19","10833","1083","&#9789;","elianto","#f73b6a7A"," "," ","1","0","[1970.7000000476837,3566.2000000476837]","2","0","4","","","","","","","",""
"pit-trial","82","697501","0.0-2.0-17.0-1.0","battery-v0.2","","""event"",""trial"",""time""
""fullscreenenter"",""1"",""1851""
","
","
","""event"",""trial"",""time""
""fullscreenenter"",""1"",""1851""
","
","","","215.10000002384186","","","19","10833","1083","&#9789;","elianto","#f73b6a7A"," "," ","1","0","[743.6000000238419,1065.5,1285.6000000238419,1505.3999999761581,1720.8999999761581,2043.1999999284744,2529.899999976158,2926.399999976158]","8","0","4","","","","","","","",""
"pit-trial","83","700582","0.0-2.0-17.0-2.0","battery-v0.2","","""event"",""trial"",""time""
""fullscreenenter"",""1"",""1851""
","
","
","""event"",""trial"",""time""
""fullscreenenter"",""1"",""1851""
","
","","","216.80000007152557","","","19","10833","1083","&#9789;","elianto","#f73b6a7A"," "," ","1","0","[143.29999995231628,433.7999999523163,789.2999999523163,1075,1359.5999999046326,1717.8999999761581,2046.2999999523163,2385.2999999523163,2699.1999999284744,2990.6999999284744]","10","0","4","","","","","","","",""
"pit-trial","84","703743","0.0-2.0-17.0-3.0","battery-v0.2","","""event"",""trial"",""time""
""fullscreenenter"",""1"",""1851""
","
","
","""event"",""trial"",""time""
""fullscreenenter"",""1"",""1851""
","
","","","297.7000000476837","","","19","10833","1083","&#9789;","elianto","#f73b6a7A"," "," ","1","-10","[212.60000002384186,552.5,577.7999999523163,1148,1470,1810.6999999284744,2144.1999999284744,2456.1999999284744,2739.399999976158,3125.600000023842]","10","0","4","","","","","","","",""
"pit-trial","85","706910","0.0-2.0-17.0-4.0","battery-v0.2","","""event"",""trial"",""time""
""fullscreenenter"",""1"",""1851""
","
","
","""event"",""trial"",""time""
""fullscreenenter"",""1"",""1851""
","
","","","309.6999999284744","","","19","10833","1083","&#9789;","elianto","#f73b6a7A"," "," ","1","0","[263.8000000715256,569.8999999761581,829.8000000715256,1162,1463.8999999761581,1815.6000000238419,2103.100000023842,2602.8000000715256,2953.100000023842]","9","0","4","","","","","","","",""
"pit-trial","86","710307","0.0-2.0-17.1-0.1","battery-v0.2","","""event"",""trial"",""time""
""fullscreenenter"",""1"",""1851""
","
","
","""event"",""trial"",""time""
""fullscreenenter"",""1"",""1851""
","
","","","529.2000000476837","","","19","10833","1083","&#9789;","elianto","#f73b6a7A"," "," ","1","0","[126.79999995231628,650.2000000476837,1390,1860.8999999761581,2081.899999976158,2723.600000023842,3366.7000000476837]","7","0","4","","","","","","","",""
"pit-trial","87","713588","0.0-2.0-17.1-1.1","battery-v0.2","","""event"",""trial"",""time""
""fullscreenenter"",""1"",""1851""
","
","
","""event"",""trial"",""time""
""fullscreenenter"",""1"",""1851""
","
","","","418.40000009536743","","","19","10833","1083","&#9789;","elianto","#f73b6a7A"," "," ","1","0","[363.5,1269.1000000238419]","2","0","4","","","","","","","",""
"pit-trial","88","716649","0.0-2.0-17.1-2.1","battery-v0.2","","""event"",""trial"",""time""
""fullscreenenter"",""1"",""1851""
","
","
","""event"",""trial"",""time""
""fullscreenenter"",""1"",""1851""
","
","","","196.29999995231628","","","19","10833","1083","&#9789;","elianto","#f73b6a7A"," "," ","1","0","[1046.5]","1","0","4","","","","","","","",""
"pit-trial","89","719733","0.0-2.0-17.1-3.1","battery-v0.2","","""event"",""trial"",""time""
""fullscreenenter"",""1"",""1851""
","
","
","""event"",""trial"",""time""
""fullscreenenter"",""1"",""1851""
","
","","","224.70000004768372","","","19","10833","1083","&#9789;","elianto","#f73b6a7A"," "," ","1","-10","[765.8999999761581,1074.6999999284744]","2","0","4","","","","","","","",""
"pit-trial","90","722890","0.0-2.0-17.1-4.1","battery-v0.2","","""event"",""trial"",""time""
""fullscreenenter"",""1"",""1851""
","
","
","""event"",""trial"",""time""
""fullscreenenter"",""1"",""1851""
","
","","","295.2999999523163","","","19","10833","1083","&#9789;","elianto","#f73b6a7A"," "," ","1","0","[1145.6999999284744]","1","0","4","","","","","","","",""
"pit-trial","91","725970","0.0-2.0-17.2-0.2","battery-v0.2","","""event"",""trial"",""time""
""fullscreenenter"",""1"",""1851""
","
","
","""event"",""trial"",""time""
""fullscreenenter"",""1"",""1851""
","
","","","213.39999997615814","","","19","10833","1083","&#9789;","elianto","#f73b6a7A"," "," ","1","0","[1065.6000000238419]","1","0","4","","","","","","","",""
"pit-trial","92","728884","0.0-2.0-17.2-1.2","battery-v0.2","","""event"",""trial"",""time""
""fullscreenenter"",""1"",""1851""
","
","
","""event"",""trial"",""time""
""fullscreenenter"",""1"",""1851""
","
","","","59.300000071525574","","","19","10833","1083","&#9789;","elianto","#f73b6a7A"," "," ","1","0","[909.9000000953674]","1","0","4","","","","","","","",""
"pit-trial","93","731820","0.0-2.0-17.2-2.2","battery-v0.2","","""event"",""trial"",""time""
""fullscreenenter"",""1"",""1851""
","
","
","""event"",""trial"",""time""
""fullscreenenter"",""1"",""1851""
","
","","","77.19999992847443","","","19","10833","1083","&#9789;","elianto","#f73b6a7A"," "," ","1","0","[928.2999999523163]","1","0","4","","","","","","","",""
"pit-trial","94","734748","0.0-2.0-17.2-3.2","battery-v0.2","","""event"",""trial"",""time""
""fullscreenenter"",""1"",""1851""
","
","
","""event"",""trial"",""time""
""fullscreenenter"",""1"",""1851""
","
","","","75.20000004768372","","","19","10833","1083","&#9789;","elianto","#f73b6a7A"," "," ","1","-10","[925.2000000476837]","1","0","4","","","","","","","",""
"pit-trial","95","737770","0.0-2.0-17.2-4.2","battery-v0.2","","""event"",""trial"",""time""
""fullscreenenter"",""1"",""1851""
","
","
","""event"",""trial"",""time""
""fullscreenenter"",""1"",""1851""
","
","","","162.60000002384186","","","19","10833","1083","&#9789;","elianto","#f73b6a7A"," "," ","1","0","[1015.2999999523163]","1","0","4","","","","","","","",""
"pit-trial","96","740876","0.0-2.0-17.3-0.3","battery-v0.2","","""event"",""trial"",""time""
""fullscreenenter"",""1"",""1851""
","
","
","""event"",""trial"",""time""
""fullscreenenter"",""1"",""1851""
","
","","","234.5","","","19","10833","1083","&#9789;","elianto","#f73b6a7A"," "," ","1","0","[1092.6000000238419]","1","0","4","","","","","","","",""
"pit-trial","97","743989","0.0-2.0-17.3-1.3","battery-v0.2","","""event"",""trial"",""time""
""fullscreenenter"",""1"",""1851""
","
","
","""event"",""trial"",""time""
""fullscreenenter"",""1"",""1851""
","
","","","254.69999992847443","","","19","10833","1083","&#9789;","elianto","#f73b6a7A"," "," ","1","0","[354.89999997615814,1106.5999999046326]","2","0","4","","","","","","","",""
"pit-trial","98","746969","0.0-2.0-17.3-2.3","battery-v0.2","","""event"",""trial"",""time""
""fullscreenenter"",""1"",""1851""
","
","
","""event"",""trial"",""time""
""fullscreenenter"",""1"",""1851""
","
","","","119.89999997615814","","","19","10833","1083","&#9789;","elianto","#f73b6a7A"," "," ","1","0","[973.2999999523163]","1","0","4","","","","","","","",""
"pit-trial","99","750017","0.0-2.0-17.3-3.3","battery-v0.2","","""event"",""trial"",""time""
""fullscreenenter"",""1"",""1851""
","
","
","""event"",""trial"",""time""
""fullscreenenter"",""1"",""1851""
","
","","","194.20000004768372","","","19","10833","1083","&#9789;","elianto","#f73b6a7A"," "," ","1","-10","[1045.7000000476837]","1","0","4","","","","","","","",""
"pit-trial","100","753405","0.0-2.0-17.3-4.3","battery-v0.2","","""event"",""trial"",""time""
""fullscreenenter"",""1"",""1851""
","
","
","""event"",""trial"",""time""
""fullscreenenter"",""1"",""1851""
","
","","","531.6999999284744","","","19","10833","1083","&#9789;","elianto","#f73b6a7A"," "," ","1","0","[1383.6000000238419]","1","0","4","","","","","","","",""
"call-function","101","753407","0.0-2.0-18.0","battery-v0.2","","""event"",""trial"",""time""
""fullscreenenter"",""1"",""1851""
","
","
","""event"",""trial"",""time""
""fullscreenenter"",""1"",""1851""
","
","","","","","","","","","","","","","","","","","","","","","","","","","","",""
"pit-instructions","102","833386","0.0-2.0-19.0","battery-v0.2","","""event"",""trial"",""time""
""fullscreenenter"",""1"",""1851""
","
","
","""event"",""trial"",""time""
""fullscreenenter"",""1"",""1851""
","
","","[{""page_index"":0,""viewing_time"":6580.5},{""page_index"":1,""viewing_time"":17448.899999976158},{""page_index"":2,""viewing_time"":8742.200000047684},{""page_index"":3,""viewing_time"":6864.100000023842},{""page_index"":4,""viewing_time"":6475.199999928474},{""page_index"":5,""viewing_time"":8027.400000095367},{""page_index"":6,""viewing_time"":9332.099999904633},{""page_index"":7,""viewing_time"":7353.300000071526},{""page_index"":8,""viewing_time"":9154.299999952316}]","79978.39999997616","","","","","","","","","","","","","","","","","","","","","","","",""
"pit-comprehension","103","838326","0.0-2.0-20.0-0.0","battery-v0.2","","""event"",""trial"",""time""
""fullscreenenter"",""1"",""1851""
","
","
","""event"",""trial"",""time""
""fullscreenenter"",""1"",""1851""
","
","","","4935.400000095367","[""SPACE""]","0","19","10833","1083","","","","","","","","","","","","","","","","","","",""
"pit-instructions","104","846657","0.0-2.0-20.0-1.0","battery-v0.2","","""event"",""trial"",""time""
""fullscreenenter"",""1"",""1851""
","
","
","""event"",""trial"",""time""
""fullscreenenter"",""1"",""1851""
","
","","[{""page_index"":0,""viewing_time"":8278.599999904633}]","8278.899999976158","","","","","","","","","","","","","","","","","","","","","","","",""
"pit-comprehension","105","856976","0.0-2.0-21.0-0.0","battery-v0.2","","""event"",""trial"",""time""
""fullscreenenter"",""1"",""1851""
","
","
","""event"",""trial"",""time""
""fullscreenenter"",""1"",""1851""
","
","","","10314.599999904633","[""10""]","0","19","10833","1083","","","","","","","","","","","","","","","","","","",""
"pit-instructions","106","859070","0.0-2.0-21.0-1.0","battery-v0.2","","""event"",""trial"",""time""
""fullscreenenter"",""1"",""1851""
","
","
","""event"",""trial"",""time""
""fullscreenenter"",""1"",""1851""
","
","","[{""page_index"":0,""viewing_time"":2043.5}]","2043.7999999523163","","","","","","","","","","","","","","","","","","","","","","","",""
"pit-comprehension","107","865655","0.0-2.0-22.0-0.0","battery-v0.2","","""event"",""trial"",""time""
""fullscreenenter"",""1"",""1851""
","
","
","""event"",""trial"",""time""
""fullscreenenter"",""1"",""1851""
","
","","","6581.100000023842","[""0""]","0","19","10833","1083","","","","","","","","","","","","","","","","","","",""
"pit-instructions","108","867246","0.0-2.0-22.0-1.0","battery-v0.2","","""event"",""trial"",""time""
""fullscreenenter"",""1"",""1851""
","
","
","""event"",""trial"",""time""
""fullscreenenter"",""1"",""1851""
","
","","[{""page_index"":0,""viewing_time"":1538.2999999523163}]","1538.6000000238419","","","","","","","","","","","","","","","","","","","","","","","",""
"pit-comprehension","109","875695","0.0-2.0-23.0-0.0","battery-v0.2","","""event"",""trial"",""time""
""fullscreenenter"",""1"",""1851""
","
","
","""event"",""trial"",""time""
""fullscreenenter"",""1"",""1851""
","
","","","8447.099999904633","[""True""]","0","19","10833","1083","","","","","","","","","","","","","","","","","","",""
"pit-instructions","110","877389","0.0-2.0-23.0-1.0","battery-v0.2","","""event"",""trial"",""time""
""fullscreenenter"",""1"",""1851""
","
","
","""event"",""trial"",""time""
""fullscreenenter"",""1"",""1851""
","
","","[{""page_index"":0,""viewing_time"":1643.7000000476837}]","1644.1000000238419","","","","","","","","","","","","","","","","","","","","","","","",""
"pit-comprehension","111","885001","0.0-2.0-24.0-0.0","battery-v0.2","","""event"",""trial"",""time""
""fullscreenenter"",""1"",""1851""
","
","
","""event"",""trial"",""time""
""fullscreenenter"",""1"",""1851""
","
","","","7608.599999904633","[""True""]","0","19","10833","1083","","","","","","","","","","","","","","","","","","",""
"pit-instructions","112","886870","0.0-2.0-24.0-1.0","battery-v0.2","","""event"",""trial"",""time""
""fullscreenenter"",""1"",""1851""
","
","
","""event"",""trial"",""time""
""fullscreenenter"",""1"",""1851""
","
","","[{""page_index"":0,""viewing_time"":1828}]","1828.3999999761581","","","","","","","","","","","","","","","","","","","","","","","",""
"pit-comprehension","113","900138","0.0-2.0-25.0-0.0","battery-v0.2","","""event"",""trial"",""time""
""fullscreenenter"",""1"",""1851""
","
","
","""event"",""trial"",""time""
""fullscreenenter"",""1"",""1851""
","
","","","13265","[""True""]","0","19","10833","1083","","","","","","","","","","","","","","","","","","",""
"pit-instructions","114","901285","0.0-2.0-25.0-1.0","battery-v0.2","","""event"",""trial"",""time""
""fullscreenenter"",""1"",""1851""
","
","
","""event"",""trial"",""time""
""fullscreenenter"",""1"",""1851""
","
","","[{""page_index"":0,""viewing_time"":1104.8999999761581}]","1105.1000000238419","","","","","","","","","","","","","","","","","","","","","","","",""
"pit-comprehension","115","907705","0.0-2.0-26.0-0.0","battery-v0.2","","""event"",""trial"",""time""
""fullscreenenter"",""1"",""1851""
","
","
","""event"",""trial"",""time""
""fullscreenenter"",""1"",""1851""
","
","","","6417.299999952316","[""False""]","0","19","10833","1083","","","","","","","","","","","","","","","","","","",""
"pit-instructions","116","909270","0.0-2.0-26.0-1.0","battery-v0.2","","""event"",""trial"",""time""
""fullscreenenter"",""1"",""1851""
","
","
","""event"",""trial"",""time""
""fullscreenenter"",""1"",""1851""
","
","","[{""page_index"":0,""viewing_time"":1520.5}]","1520.8999999761581","","","","","","","","","","","","","","","","","","","","","","","",""
"pit-instructions","117","925544","0.0-3.0","battery-v0.2","","""event"",""trial"",""time""
""fullscreenenter"",""1"",""1851""
","
","
","""event"",""trial"",""time""
""fullscreenenter"",""1"",""1851""
","
","","[{""page_index"":0,""viewing_time"":3975.7000000476837},{""page_index"":1,""viewing_time"":5889.599999904633},{""page_index"":2,""viewing_time"":6406.200000047684}]","16271.799999952316","","","","","","","","","","","","","","","","","","","","","","","",""
"pit-trial","118","929060","0.0-4.0","battery-v0.2","","""event"",""trial"",""time""
""fullscreenenter"",""1"",""1851""
","
","
","""event"",""trial"",""time""
""fullscreenenter"",""1"",""1851""
","
","","","632.6000000238419","","","19","10833","1083","&#9728;","elianto","#f73b6a7A","-1"," ","0","-10","[1494.5]","1","1","","","10833","1","0","4","lose","no-go","0"
"pit-trial","119","933941","0.0-5.0","battery-v0.2","","""event"",""trial"",""time""
""fullscreenenter"",""1"",""1851""
","
","
","""event"",""trial"",""time""
""fullscreenenter"",""1"",""1851""
","
","","","-1","","","19","10833","1083","&#9752;","elianto","#f73b6a7A"," ","-1","0","-10","[2929.5]","1","1","","","10833","2","3","3","lose","go","0"
"pit-trial","120","937972","0.0-6.0","battery-v0.2","","""event"",""trial"",""time""
""fullscreenenter"",""1"",""1851""
","
","
","""event"",""trial"",""time""
""fullscreenenter"",""1"",""1851""
","
","","","1171.8999999761581","","","19","10833","1083","&#9733;","elianto","#3366ff99","-1"," ","0","0","[2021.8999999761581]","1","1","","","10833","3","2","2","win","no-go","0"
"pit-trial","121","941534","0.0-7.0","battery-v0.2","","""event"",""trial"",""time""
""fullscreenenter"",""1"",""1851""
","
","
","""event"",""trial"",""time""
""fullscreenenter"",""1"",""1851""
","
","","","701.7000000476837","","","19","10833","1083","&#9730;","elianto","#3366ff99"," "," ","1","+10","[1552]","1","1","","","10833","4","1","1","win","go","0"
"pit-trial","122","945199","0.0-8.0","battery-v0.2","","""event"",""trial"",""time""
""fullscreenenter"",""1"",""1851""
","
","
","""event"",""trial"",""time""
""fullscreenenter"",""1"",""1851""
","
","","","811.8999999761581","","","19","10833","1083","&#9730;","elianto","#3366ff99"," "," ","1","+10","[1662.2000000476837]","1","1","","","10833","5","1","1","win","go","0"
"pit-trial","123","950078","0.0-9.0","battery-v0.2","","""event"",""trial"",""time""
""fullscreenenter"",""1"",""1851""
","
","
","""event"",""trial"",""time""
""fullscreenenter"",""1"",""1851""
","
","","","-1","","","19","10833","1083","&#9733;","elianto","#3366ff99","-1","-1","1","+10","[]","0","1","","","10833","6","2","2","win","no-go","0"
"pit-trial","124","954956","0.0-10.0","battery-v0.2","","""event"",""trial"",""time""
""fullscreenenter"",""1"",""1851""
","
","
","""event"",""trial"",""time""
""fullscreenenter"",""1"",""1851""
","
","","","-1","","","19","10833","1083","&#9728;","elianto","#f73b6a7A","-1","-1","1","0","[2864.600000023842]","1","1","","","10833","7","0","4","lose","no-go","0"
"pit-trial","125","959825","0.0-11.0","battery-v0.2","","""event"",""trial"",""time""
""fullscreenenter"",""1"",""1851""
","
","
","""event"",""trial"",""time""
""fullscreenenter"",""1"",""1851""
","
","","","-1","","","19","10833","1083","&#9752;","elianto","#f73b6a7A"," ","-1","0","-10","[]","0","1","","","10833","8","3","3","lose","go","0"
"pit-trial","126","963311","0.0-12.0","battery-v0.2","","""event"",""trial"",""time""
""fullscreenenter"",""1"",""1851""
","
","
","""event"",""trial"",""time""
""fullscreenenter"",""1"",""1851""
","
","","","624.6999999284744","","","19","10833","1083","&#9752;","elianto","#f73b6a7A"," "," ","1","0","[1482.1999999284744]","1","1","","","10833","9","3","3","lose","go","0"
"pit-trial","127","968177","0.0-13.0","battery-v0.2","","""event"",""trial"",""time""
""fullscreenenter"",""1"",""1851""
","
","
","""event"",""trial"",""time""
""fullscreenenter"",""1"",""1851""
","
","","","-1","","","19","10833","1083","&#9728;","elianto","#f73b6a7A","-1","-1","1","-10","[]","0","1","","","10833","10","0","4","lose","no-go","1"
"pit-trial","128","973043","0.0-14.0","battery-v0.2","","""event"",""trial"",""time""
""fullscreenenter"",""1"",""1851""
","
","
","""event"",""trial"",""time""
""fullscreenenter"",""1"",""1851""
","
","","","-1","","","19","10833","1083","&#9733;","elianto","#3366ff99","-1","-1","1","+10","[]","0","1","","","10833","11","2","2","win","no-go","0"
"pit-trial","129","976335","0.0-15.0","battery-v0.2","","""event"",""trial"",""time""
""fullscreenenter"",""1"",""1851""
","
","
","""event"",""trial"",""time""
""fullscreenenter"",""1"",""1851""
","
","","","427.39999997615814","","","19","10833","1083","&#9730;","elianto","#3366ff99"," "," ","1","+10","[1288.1000000238419]","1","1","","","10833","12","1","1","win","go","0"
"pit-trial","130","981211","0.0-16.0","battery-v0.2","","""event"",""trial"",""time""
""fullscreenenter"",""1"",""1851""
","
","
","""event"",""trial"",""time""
""fullscreenenter"",""1"",""1851""
","
","","","-1","","","19","10833","1083","&#9733;","elianto","#3366ff99","-1","-1","1","0","[]","0","1","","","10833","13","2","2","win","no-go","1"
"pit-trial","131","984498","0.0-17.0","battery-v0.2","","""event"",""trial"",""time""
""fullscreenenter"",""1"",""1851""
","
","
","""event"",""trial"",""time""
""fullscreenenter"",""1"",""1851""
","
","","","424.40000009536743","","","19","10833","1083","&#9728;","elianto","#f73b6a7A","-1"," ","0","0","[1277.5]","1","1","","","10833","14","0","4","lose","no-go","1"
"pit-trial","132","987824","0.0-18.0","battery-v0.2","","""event"",""trial"",""time""
""fullscreenenter"",""1"",""1851""
","
","
","""event"",""trial"",""time""
""fullscreenenter"",""1"",""1851""
","
","","","461","","","19","10833","1083","&#9752;","elianto","#f73b6a7A"," "," ","1","0","[1311.7000000476837]","1","1","","","10833","15","3","3","lose","go","0"
"pit-trial","133","991611","0.0-19.0","battery-v0.2","","""event"",""trial"",""time""
""fullscreenenter"",""1"",""1851""
","
","
","""event"",""trial"",""time""
""fullscreenenter"",""1"",""1851""
","
","","","926.2999999523163","","","19","10833","1083","&#9730;","elianto","#3366ff99"," "," ","1","+10","[1777.1999999284744]","1","1","","","10833","16","1","1","win","go","0"
"pit-trial","134","996482","0.0-20.0","battery-v0.2","","""event"",""trial"",""time""
""fullscreenenter"",""1"",""1851""
","
","
","""event"",""trial"",""time""
""fullscreenenter"",""1"",""1851""
","
","","","-1","","","19","10833","1083","&#9733;","elianto","#3366ff99","-1","-1","1","0","[]","0","1","","","10833","17","2","2","win","no-go","1"
"pit-trial","135","1000114","0.0-21.0","battery-v0.2","","""event"",""trial"",""time""
""fullscreenenter"",""1"",""1851""
","
","
","""event"",""trial"",""time""
""fullscreenenter"",""1"",""1851""
","
","","","771.6000000238419","","","19","10833","1083","&#9752;","elianto","#f73b6a7A"," "," ","1","-10","[1623.5]","1","1","","","10833","18","3","3","lose","go","1"
"pit-trial","136","1003563","0.0-22.0","battery-v0.2","","""event"",""trial"",""time""
""fullscreenenter"",""1"",""1851""
","
","
","""event"",""trial"",""time""
""fullscreenenter"",""1"",""1851""
","
","","","593.3999999761581","","","19","10833","1083","&#9728;","elianto","#f73b6a7A","-1"," ","0","0","[1446.5999999046326]","1","1","","","10833","19","0","4","lose","no-go","1"
"pit-trial","137","1007058","0.0-23.0","battery-v0.2","","""event"",""trial"",""time""
""fullscreenenter"",""1"",""1851""
","
","
","""event"",""trial"",""time""
""fullscreenenter"",""1"",""1851""
","
","","","633.1999999284744","","","19","10833","1083","&#9730;","elianto","#3366ff99"," "," ","1","+10","[1484.7999999523163]","1","1","","","10833","20","1","1","win","go","0"
"pit-instructions","138","1019485","0.0-24.0","battery-v0.2","","""event"",""trial"",""time""
""fullscreenenter"",""1"",""1851""
","
","
","""event"",""trial"",""time""
""fullscreenenter"",""1"",""1851""
","
","","[{""page_index"":0,""viewing_time"":5676.300000071526},{""page_index"":1,""viewing_time"":6748.199999928474}]","12424.700000047684","","","","","","","","","","","","","","","","","","","","","","","",""
"pit-trial","139","1022917","0.0-25.0","battery-v0.2","","""event"",""trial"",""time""
""fullscreenenter"",""1"",""1851""
","
","
","""event"",""trial"",""time""
""fullscreenenter"",""1"",""1851""
","
","","","561.7999999523163","","","19","10833","1083","j","elianto","#f73b6a7A","-1"," ","0","-10","[1413.6999999284744]","1","2","","","10833","21","0","4","lose","no-go","0"
"pit-trial","140","1026499","0.0-26.0","battery-v0.2","","""event"",""trial"",""time""
""fullscreenenter"",""1"",""1851""
","
","
","""event"",""trial"",""time""
""fullscreenenter"",""1"",""1851""
","
","","","716.3999999761581","","","19","10833","1083","e","elianto","#f73b6a7A","-1"," ","0","-10","[1567.0999999046326]","1","2","","","10833","22","2","4","lose","no-go","0"
"pit-trial","141","1030077","0.0-27.0","battery-v0.2","","""event"",""trial"",""time""
""fullscreenenter"",""1"",""1851""
","
","
","""event"",""trial"",""time""
""fullscreenenter"",""1"",""1851""
","
","","","698","","","19","10833","1083","d","elianto","#3366ff99"," "," ","1","+10","[1560.5]","1","2","","","10833","23","1","1","win","go","0"
"pit-trial","142","1033874","0.0-28.0","battery-v0.2","","""event"",""trial"",""time""
""fullscreenenter"",""1"",""1851""
","
","
","""event"",""trial"",""time""
""fullscreenenter"",""1"",""1851""
","
","","","924.9000000953674","","","19","10833","1083","w","elianto","#f73b6a7A"," "," ","1","-10","[1776.6000000238419]","1","2","","","10833","24","3","3","lose","go","1"
"pit-trial","143","1037590","0.0-29.0","battery-v0.2","","""event"",""trial"",""time""
""fullscreenenter"",""1"",""1851""
","
","
","""event"",""trial"",""time""
""fullscreenenter"",""1"",""1851""
","
","","","859.1999999284744","","","19","10833","1083","d","elianto","#3366ff99"," "," ","1","+10","[1711.5]","1","2","","","10833","25","1","1","win","go","0"
"pit-trial","144","1042469","0.0-30.0","battery-v0.2","","""event"",""trial"",""time""
""fullscreenenter"",""1"",""1851""
","
","
","""event"",""trial"",""time""
""fullscreenenter"",""1"",""1851""
","
","","","-1","","","19","10833","1083","w","elianto","#f73b6a7A"," ","-1","0","0","[]","0","2","","","10833","26","3","3","lose","go","1"
"pit-trial","145","1047354","0.0-31.0","battery-v0.2","","""event"",""trial"",""time""
""fullscreenenter"",""1"",""1851""
","
","
","""event"",""trial"",""time""
""fullscreenenter"",""1"",""1851""
","
","","","-1","","","19","10833","1083","j","elianto","#f73b6a7A","-1","-1","1","0","[]","0","2","","","10833","27","0","4","lose","no-go","0"
"pit-trial","146","1052221","0.0-32.0","battery-v0.2","","""event"",""trial"",""time""
""fullscreenenter"",""1"",""1851""
","
","
","""event"",""trial"",""time""
""fullscreenenter"",""1"",""1851""
","
","","","-1","","","19","10833","1083","e","elianto","#f73b6a7A","-1","-1","1","0","[]","0","2","","","10833","28","2","4","lose","no-go","0"
"pit-trial","147","1055669","0.0-33.0","battery-v0.2","","""event"",""trial"",""time""
""fullscreenenter"",""1"",""1851""
","
","
","""event"",""trial"",""time""
""fullscreenenter"",""1"",""1851""
","
","","","588","","","19","10833","1083","d","elianto","#3366ff99"," "," ","1","+10","[1442.1000000238419]","1","2","","","10833","29","1","1","win","go","0"
"pit-trial","148","1060549","0.0-34.0","battery-v0.2","","""event"",""trial"",""time""
""fullscreenenter"",""1"",""1851""
","
","
","""event"",""trial"",""time""
""fullscreenenter"",""1"",""1851""
","
","","","-1","","","19","10833","1083","e","elianto","#f73b6a7A","-1","-1","1","-10","[3545.7000000476837]","1","2","","","10833","30","2","4","lose","no-go","1"
"pit-trial","149","1065419","0.0-35.0","battery-v0.2","","""event"",""trial"",""time""
""fullscreenenter"",""1"",""1851""
","
","
","""event"",""trial"",""time""
""fullscreenenter"",""1"",""1851""
","
","","","-1","","","19","10833","1083","w","elianto","#f73b6a7A"," ","-1","0","-10","[]","0","2","","","10833","31","3","3","lose","go","0"
"pit-trial","150","1070279","0.0-36.0","battery-v0.2","","""event"",""trial"",""time""
""fullscreenenter"",""1"",""1851""
","
","
","""event"",""trial"",""time""
""fullscreenenter"",""1"",""1851""
","
","","","-1","","","19","10833","1083","j","elianto","#f73b6a7A","-1","-1","1","0","[]","0","2","","","10833","32","0","4","lose","no-go","0"
"pit-trial","151","1075142","0.0-37.0","battery-v0.2","","""event"",""trial"",""time""
""fullscreenenter"",""1"",""1851""
","
","
","""event"",""trial"",""time""
""fullscreenenter"",""1"",""1851""
","
","","","-1","","","19","10833","1083","j","elianto","#f73b6a7A","-1","-1","1","0","[]","0","2","","","10833","33","0","4","lose","no-go","0"
"pit-trial","152","1078874","0.0-38.0","battery-v0.2","","""event"",""trial"",""time""
""fullscreenenter"",""1"",""1851""
","
","
","""event"",""trial"",""time""
""fullscreenenter"",""1"",""1851""
","
","","","872.8000000715256","","","19","10833","1083","w","elianto","#f73b6a7A"," "," ","1","0","[1723.1000000238419]","1","2","","","10833","34","3","3","lose","go","0"
"pit-trial","153","1083253","0.0-39.0","battery-v0.2","","""event"",""trial"",""time""
""fullscreenenter"",""1"",""1851""
","
","
","""event"",""trial"",""time""
""fullscreenenter"",""1"",""1851""
","
","","","1517.1000000238419","","","19","10833","1083","e","elianto","#f73b6a7A","-1"," ","0","-10","[2369.7000000476837]","1","2","","","10833","35","2","4","lose","no-go","0"
"pit-trial","154","1086751","0.0-40.0","battery-v0.2","","""event"",""trial"",""time""
""fullscreenenter"",""1"",""1851""
","
","
","""event"",""trial"",""time""
""fullscreenenter"",""1"",""1851""
","
","","","640.6000000238419","","","19","10833","1083","d","elianto","#3366ff99"," "," ","1","+10","[1491]","1","2","","","10833","36","1","1","win","go","0"
"pit-trial","155","1091616","0.0-41.0","battery-v0.2","","""event"",""trial"",""time""
""fullscreenenter"",""1"",""1851""
","
","
","""event"",""trial"",""time""
""fullscreenenter"",""1"",""1851""
","
","","","-1","","","19","10833","1083","j","elianto","#f73b6a7A","-1","-1","1","0","[]","0","2","","","10833","37","0","4","lose","no-go","0"
"pit-trial","156","1096472","0.0-42.0","battery-v0.2","","""event"",""trial"",""time""
""fullscreenenter"",""1"",""1851""
","
","
","""event"",""trial"",""time""
""fullscreenenter"",""1"",""1851""
","
","","","-1","","","19","10833","1083","w","elianto","#f73b6a7A"," ","-1","0","-10","[]","0","2","","","10833","38","3","3","lose","go","0"
"pit-trial","157","1099907","0.0-43.0","battery-v0.2","","""event"",""trial"",""time""
""fullscreenenter"",""1"",""1851""
","
","
","""event"",""trial"",""time""
""fullscreenenter"",""1"",""1851""
","
","","","573.5","","","19","10833","1083","d","elianto","#3366ff99"," "," ","1","+10","[1423.7999999523163]","1","2","","","10833","39","1","1","win","go","0"
"pit-trial","158","1104773","0.0-44.0","battery-v0.2","","""event"",""trial"",""time""
""fullscreenenter"",""1"",""1851""
","
","
","""event"",""trial"",""time""
""fullscreenenter"",""1"",""1851""
","
","","","-1","","","19","10833","1083","e","elianto","#f73b6a7A","-1","-1","1","0","[]","0","2","","","10833","40","2","4","lose","no-go","0"
"pit-trial","159","1108175","0.0-45.0","battery-v0.2","","""event"",""trial"",""time""
""fullscreenenter"",""1"",""1851""
","
","
","""event"",""trial"",""time""
""fullscreenenter"",""1"",""1851""
","
","","","542.2000000476837","","","19","10833","1083","w","elianto","#f73b6a7A"," "," ","1","0","[1398.7000000476837]","1","2","","","10833","41","3","3","lose","go","0"
"pit-trial","160","1113046","0.0-46.0","battery-v0.2","","""event"",""trial"",""time""
""fullscreenenter"",""1"",""1851""
","
","
","""event"",""trial"",""time""
""fullscreenenter"",""1"",""1851""
","
","","","-1","","","19","10833","1083","e","elianto","#f73b6a7A","-1","-1","1","0","[]","0","2","","","10833","42","2","4","lose","no-go","0"
"pit-trial","161","1116326","0.0-47.0","battery-v0.2","","""event"",""trial"",""time""
""fullscreenenter"",""1"",""1851""
","
","
","""event"",""trial"",""time""
""fullscreenenter"",""1"",""1851""
","
","","","412","","","19","10833","1083","d","elianto","#3366ff99"," "," ","1","+10","[1272.3000000715256]","1","2","","","10833","43","1","1","win","go","0"
"pit-trial","162","1121198","0.0-48.0","battery-v0.2","","""event"",""trial"",""time""
""fullscreenenter"",""1"",""1851""
","
","
","""event"",""trial"",""time""
""fullscreenenter"",""1"",""1851""
","
","","","-1","","","19","10833","1083","j","elianto","#f73b6a7A","-1","-1","1","-10","[]","0","2","","","10833","44","0","4","lose","no-go","1"
"pit-trial","163","1126068","0.0-49.0","battery-v0.2","","""event"",""trial"",""time""
""fullscreenenter"",""1"",""1851""
","
","
","""event"",""trial"",""time""
""fullscreenenter"",""1"",""1851""
","
","","","-1","","","19","10833","1083","j","elianto","#f73b6a7A","-1","-1","1","0","[]","0","2","","","10833","45","0","4","lose","no-go","0"
"pit-trial","164","1130927","0.0-50.0","battery-v0.2","","""event"",""trial"",""time""
""fullscreenenter"",""1"",""1851""
","
","
","""event"",""trial"",""time""
""fullscreenenter"",""1"",""1851""
","
","","","-1","","","19","10833","1083","e","elianto","#f73b6a7A","-1","-1","1","0","[]","0","2","","","10833","46","2","4","lose","no-go","0"
"pit-trial","165","1134853","0.0-51.0","battery-v0.2","","""event"",""trial"",""time""
""fullscreenenter"",""1"",""1851""
","
","
","""event"",""trial"",""time""
""fullscreenenter"",""1"",""1851""
","
","","","1066.3999999761581","","","19","10833","1083","s","elianto","#3366ff99","-1"," ","0","0","[1916.5]","1","2","","","10833","47","4","2","win","no-go","0"
"pit-trial","166","1138751","0.0-52.0","battery-v0.2","","""event"",""trial"",""time""
""fullscreenenter"",""1"",""1851""
","
","
","""event"",""trial"",""time""
""fullscreenenter"",""1"",""1851""
","
","","","1042.3000000715256","","","19","10833","1083","w","elianto","#f73b6a7A"," "," ","1","-10","[1893.6000000238419]","1","2","","","10833","48","3","3","lose","go","1"
"pit-trial","167","1142189","0.0-53.0","battery-v0.2","","""event"",""trial"",""time""
""fullscreenenter"",""1"",""1851""
","
","
","""event"",""trial"",""time""
""fullscreenenter"",""1"",""1851""
","
","","","578.2000000476837","","","19","10833","1083","w","elianto","#f73b6a7A"," "," ","1","0","[1428.2999999523163]","1","2","","","10833","49","3","3","lose","go","0"
"pit-trial","168","1147050","0.0-54.0","battery-v0.2","","""event"",""trial"",""time""
""fullscreenenter"",""1"",""1851""
","
","
","""event"",""trial"",""time""
""fullscreenenter"",""1"",""1851""
","
","","","-1","","","19","10833","1083","j","elianto","#f73b6a7A","-1","-1","1","0","[]","0","2","","","10833","50","0","4","lose","no-go","0"
"pit-trial","169","1151910","0.0-55.0","battery-v0.2","","""event"",""trial"",""time""
""fullscreenenter"",""1"",""1851""
","
","
","""event"",""trial"",""time""
""fullscreenenter"",""1"",""1851""
","
","","","-1","","","19","10833","1083","s","elianto","#3366ff99","-1","-1","1","+10","[]","0","2","","","10833","51","4","2","win","no-go","0"
"pit-trial","170","1155429","0.0-56.0","battery-v0.2","","""event"",""trial"",""time""
""fullscreenenter"",""1"",""1851""
","
","
","""event"",""trial"",""time""
""fullscreenenter"",""1"",""1851""
","
","","","661.2000000476837","","","19","10833","1083","d","elianto","#3366ff99"," "," ","1","+10","[1511.2999999523163]","1","2","","","10833","52","1","1","win","go","0"
"pit-trial","171","1160299","0.0-57.0","battery-v0.2","","""event"",""trial"",""time""
""fullscreenenter"",""1"",""1851""
","
","
","""event"",""trial"",""time""
""fullscreenenter"",""1"",""1851""
","
","","","-1","","","19","10833","1083","j","elianto","#f73b6a7A","-1","-1","1","0","[]","0","2","","","10833","53","0","4","lose","no-go","0"
"pit-trial","172","1163813","0.0-58.0","battery-v0.2","","""event"",""trial"",""time""
""fullscreenenter"",""1"",""1851""
","
","
","""event"",""trial"",""time""
""fullscreenenter"",""1"",""1851""
","
","","","652.8999999761581","","","19","10833","1083","s","elianto","#3366ff99","-1"," ","0","+10","[1503.7999999523163]","1","2","","","10833","54","4","2","win","no-go","1"
"pit-trial","173","1168683","0.0-59.0","battery-v0.2","","""event"",""trial"",""time""
""fullscreenenter"",""1"",""1851""
","
","
","""event"",""trial"",""time""
""fullscreenenter"",""1"",""1851""
","
","","","-1","","","19","10833","1083","e","elianto","#f73b6a7A","-1","-1","1","0","[]","0","2","","","10833","55","2","4","lose","no-go","0"
"pit-trial","174","1172173","0.0-60.0","battery-v0.2","","""event"",""trial"",""time""
""fullscreenenter"",""1"",""1851""
","
","
","""event"",""trial"",""time""
""fullscreenenter"",""1"",""1851""
","
","","","622.6000000238419","","","19","10833","1083","d","elianto","#3366ff99"," "," ","1","+10","[1472.7999999523163]","1","2","","","10833","56","1","1","win","go","0"
"pit-trial","175","1177037","0.0-61.0","battery-v0.2","","""event"",""trial"",""time""
""fullscreenenter"",""1"",""1851""
","
","
","""event"",""trial"",""time""
""fullscreenenter"",""1"",""1851""
","
","","","-1","","","19","10833","1083","j","elianto","#f73b6a7A","-1","-1","1","-10","[]","0","2","","","10833","57","0","4","lose","no-go","1"
"pit-trial","176","1180867","0.0-62.0","battery-v0.2","","""event"",""trial"",""time""
""fullscreenenter"",""1"",""1851""
","
","
","""event"",""trial"",""time""
""fullscreenenter"",""1"",""1851""
","
","","","968.2999999523163","","","19","10833","1083","w","elianto","#f73b6a7A"," "," ","1","-10","[1820.7999999523163]","1","2","","","10833","58","3","3","lose","go","1"
"pit-trial","177","1185737","0.0-63.0","battery-v0.2","","""event"",""trial"",""time""
""fullscreenenter"",""1"",""1851""
","
","
","""event"",""trial"",""time""
""fullscreenenter"",""1"",""1851""
","
","","","-1","","","19","10833","1083","s","elianto","#3366ff99","-1","-1","1","+10","[]","0","2","","","10833","59","4","2","win","no-go","0"
"pit-trial","178","1189067","0.0-64.0","battery-v0.2","","""event"",""trial"",""time""
""fullscreenenter"",""1"",""1851""
","
","
","""event"",""trial"",""time""
""fullscreenenter"",""1"",""1851""
","
","","","470.40000009536743","","","19","10833","1083","d","elianto","#3366ff99"," "," ","1","+10","[1322]","1","2","","","10833","60","1","1","win","go","0"
"pit-trial","179","1193930","0.0-65.0","battery-v0.2","","""event"",""trial"",""time""
""fullscreenenter"",""1"",""1851""
","
","
","""event"",""trial"",""time""
""fullscreenenter"",""1"",""1851""
","
","","","-1","","","19","10833","1083","e","elianto","#f73b6a7A","-1","-1","1","0","[]","0","2","","","10833","61","2","4","lose","no-go","0"
"pit-trial","180","1198801","0.0-66.0","battery-v0.2","","""event"",""trial"",""time""
""fullscreenenter"",""1"",""1851""
","
","
","""event"",""trial"",""time""
""fullscreenenter"",""1"",""1851""
","
","","","-1","","","19","10833","1083","w","elianto","#f73b6a7A"," ","-1","0","-10","[]","0","2","","","10833","62","3","3","lose","go","0"
"pit-trial","181","1203662","0.0-67.0","battery-v0.2","","""event"",""trial"",""time""
""fullscreenenter"",""1"",""1851""
","
","
","""event"",""trial"",""time""
""fullscreenenter"",""1"",""1851""
","
","","","-1","","","19","10833","1083","s","elianto","#3366ff99","-1","-1","1","+10","[]","0","2","","","10833","63","4","2","win","no-go","0"
"pit-trial","182","1207027","0.0-68.0","battery-v0.2","","""event"",""trial"",""time""
""fullscreenenter"",""1"",""1851""
","
","
","""event"",""trial"",""time""
""fullscreenenter"",""1"",""1851""
","
","","","488.5","","","19","10833","1083","d","elianto","#3366ff99"," "," ","1","+10","[1343.3999999761581]","1","2","","","10833","64","1","1","win","go","0"
"pit-trial","183","1210861","0.0-69.0","battery-v0.2","","""event"",""trial"",""time""
""fullscreenenter"",""1"",""1851""
","
","
","""event"",""trial"",""time""
""fullscreenenter"",""1"",""1851""
","
","","","972.2000000476837","","","19","10833","1083","w","elianto","#f73b6a7A"," "," ","1","0","[1824.8000000715256]","1","2","","","10833","65","3","3","lose","go","0"
"pit-trial","184","1215728","0.0-70.0","battery-v0.2","","""event"",""trial"",""time""
""fullscreenenter"",""1"",""1851""
","
","
","""event"",""trial"",""time""
""fullscreenenter"",""1"",""1851""
","
","","","-1","","","19","10833","1083","s","elianto","#3366ff99","-1","-1","1","+10","[]","0","2","","","10833","66","4","2","win","no-go","0"
"pit-trial","185","1219493","0.0-71.0","battery-v0.2","","""event"",""trial"",""time""
""fullscreenenter"",""1"",""1851""
","
","
","""event"",""trial"",""time""
""fullscreenenter"",""1"",""1851""
","
","","","901.1999999284744","","","19","10833","1083","d","elianto","#3366ff99"," "," ","1","+10","[1753.8999999761581]","1","2","","","10833","67","1","1","win","go","0"
"pit-trial","186","1224364","0.0-72.0","battery-v0.2","","""event"",""trial"",""time""
""fullscreenenter"",""1"",""1851""
","
","
","""event"",""trial"",""time""
""fullscreenenter"",""1"",""1851""
","
","","","-1","","","19","10833","1083","e","elianto","#f73b6a7A","-1","-1","1","0","[]","0","2","","","10833","68","2","4","lose","no-go","0"
"pit-trial","187","1228152","0.0-73.0","battery-v0.2","","""event"",""trial"",""time""
""fullscreenenter"",""1"",""1851""
","
","
","""event"",""trial"",""time""
""fullscreenenter"",""1"",""1851""
","
","","","933.6000000238419","","","19","10833","1083","w","elianto","#f73b6a7A"," "," ","1","-10","[1783.6000000238419]","1","2","","","10833","69","3","3","lose","go","1"
"pit-trial","188","1232104","0.0-74.0","battery-v0.2","","""event"",""trial"",""time""
""fullscreenenter"",""1"",""1851""
","
","
","""event"",""trial"",""time""
""fullscreenenter"",""1"",""1851""
","
","","","1083.7999999523163","","","19","10833","1083","p","elianto","#3366ff99"," "," ","1","+10","[1944.3999999761581]","1","2","","","10833","70","5","1","win","go","0"
"pit-trial","189","1236961","0.0-75.0","battery-v0.2","","""event"",""trial"",""time""
""fullscreenenter"",""1"",""1851""
","
","
","""event"",""trial"",""time""
""fullscreenenter"",""1"",""1851""
","
","","","-1","","","19","10833","1083","s","elianto","#3366ff99","-1","-1","1","+10","[]","0","2","","","10833","71","4","2","win","no-go","0"
"pit-trial","190","1240392","0.0-76.0","battery-v0.2","","""event"",""trial"",""time""
""fullscreenenter"",""1"",""1851""
","
","
","""event"",""trial"",""time""
""fullscreenenter"",""1"",""1851""
","
","","","571.7999999523163","","","19","10833","1083","d","elianto","#3366ff99"," "," ","1","+10","[1423.7999999523163]","1","2","","","10833","72","1","1","win","go","0"
"pit-trial","191","1245255","0.0-77.0","battery-v0.2","","""event"",""trial"",""time""
""fullscreenenter"",""1"",""1851""
","
","
","""event"",""trial"",""time""
""fullscreenenter"",""1"",""1851""
","
","","","-1","","","19","10833","1083","s","elianto","#3366ff99","-1","-1","1","+10","[]","0","2","","","10833","73","4","2","win","no-go","0"
"pit-trial","192","1249211","0.0-78.0","battery-v0.2","","""event"",""trial"",""time""
""fullscreenenter"",""1"",""1851""
","
","
","""event"",""trial"",""time""
""fullscreenenter"",""1"",""1851""
","
","","","1083.8999999761581","","","19","10833","1083","w","elianto","#f73b6a7A"," "," ","1","-10","[1944.2000000476837]","1","2","","","10833","74","3","3","lose","go","1"
"pit-trial","193","1252691","0.0-79.0","battery-v0.2","","""event"",""trial"",""time""
""fullscreenenter"",""1"",""1851""
","
","
","""event"",""trial"",""time""
""fullscreenenter"",""1"",""1851""
","
","","","617.5","","","19","10833","1083","d","elianto","#3366ff99"," "," ","1","+10","[1470.8999999761581]","1","2","","","10833","75","1","1","win","go","0"
"pit-trial","194","1256455","0.0-80.0","battery-v0.2","","""event"",""trial"",""time""
""fullscreenenter"",""1"",""1851""
","
","
","""event"",""trial"",""time""
""fullscreenenter"",""1"",""1851""
","
","","","897.6000000238419","","","19","10833","1083","p","elianto","#3366ff99"," "," ","1","+10","[1752]","1","2","","","10833","76","5","1","win","go","0"
"pit-trial","195","1260001","0.0-81.0","battery-v0.2","","""event"",""trial"",""time""
""fullscreenenter"",""1"",""1851""
","
","
","""event"",""trial"",""time""
""fullscreenenter"",""1"",""1851""
","
","","","680.5","","","19","10833","1083","p","elianto","#3366ff99"," "," ","1","0","[1534]","1","2","","","10833","77","5","1","win","go","1"
"pit-trial","196","1264865","0.0-82.0","battery-v0.2","","""event"",""trial"",""time""
""fullscreenenter"",""1"",""1851""
","
","
","""event"",""trial"",""time""
""fullscreenenter"",""1"",""1851""
","
","","","-1","","","19","10833","1083","s","elianto","#3366ff99","-1","-1","1","+10","[]","0","2","","","10833","78","4","2","win","no-go","0"
"pit-trial","197","1269743","0.0-83.0","battery-v0.2","","""event"",""trial"",""time""
""fullscreenenter"",""1"",""1851""
","
","
","""event"",""trial"",""time""
""fullscreenenter"",""1"",""1851""
","
","","","-1","","","19","10833","1083","w","elianto","#f73b6a7A"," ","-1","0","-10","[]","0","2","","","10833","79","3","3","lose","go","0"
"pit-trial","198","1274131","0.0-84.0","battery-v0.2","","""event"",""trial"",""time""
""fullscreenenter"",""1"",""1851""
","
","
","""event"",""trial"",""time""
""fullscreenenter"",""1"",""1851""
","
","","","1531.7999999523163","","","19","10833","1083","g","elianto","#f73b6a7A","-1"," ","0","0","[2383.5]","1","2","","","10833","80","6","4","lose","no-go","1"
"pit-trial","199","1277761","0.0-85.0","battery-v0.2","","""event"",""trial"",""time""
""fullscreenenter"",""1"",""1851""
","
","
","""event"",""trial"",""time""
""fullscreenenter"",""1"",""1851""
","
","","","772.1000000238419","","","19","10833","1083","p","elianto","#3366ff99"," "," ","1","+10","[1623.3999999761581]","1","2","","","10833","81","5","1","win","go","0"
"pit-trial","200","1281384","0.0-86.0","battery-v0.2","","""event"",""trial"",""time""
""fullscreenenter"",""1"",""1851""
","
","
","""event"",""trial"",""time""
""fullscreenenter"",""1"",""1851""
","
","","","769","","","19","10833","1083","g","elianto","#f73b6a7A","-1"," ","0","-10","[1619.3999999761581]","1","2","","","10833","82","6","4","lose","no-go","0"
"pit-trial","201","1286245","0.0-87.0","battery-v0.2","","""event"",""trial"",""time""
""fullscreenenter"",""1"",""1851""
","
","
","""event"",""trial"",""time""
""fullscreenenter"",""1"",""1851""
","
","","","-1","","","19","10833","1083","s","elianto","#3366ff99","-1","-1","1","+10","[]","0","2","","","10833","83","4","2","win","no-go","0"
"pit-trial","202","1290910","0.0-88.0","battery-v0.2","","""event"",""trial"",""time""
""fullscreenenter"",""1"",""1851""
","
","
","""event"",""trial"",""time""
""fullscreenenter"",""1"",""1851""
","
","","","1793.5999999046326","","","19","10833","1083","a","elianto","#f73b6a7A"," "," ","1","0","[2647.9000000953674]","1","2","","","10833","84","7","3","lose","go","0"
"pit-trial","203","1295776","0.0-89.0","battery-v0.2","","""event"",""trial"",""time""
""fullscreenenter"",""1"",""1851""
","
","
","""event"",""trial"",""time""
""fullscreenenter"",""1"",""1851""
","
","","","-1","","","19","10833","1083","s","elianto","#3366ff99","-1","-1","1","+10","[]","0","2","","","10833","85","4","2","win","no-go","0"
"pit-trial","204","1300639","0.0-90.0","battery-v0.2","","""event"",""trial"",""time""
""fullscreenenter"",""1"",""1851""
","
","
","""event"",""trial"",""time""
""fullscreenenter"",""1"",""1851""
","
","","","-1","","","19","10833","1083","a","elianto","#f73b6a7A"," ","-1","0","-10","[2898.2000000476837]","1","2","","","10833","86","7","3","lose","go","0"
"pit-trial","205","1304415","0.0-91.0","battery-v0.2","","""event"",""trial"",""time""
""fullscreenenter"",""1"",""1851""
","
","
","""event"",""trial"",""time""
""fullscreenenter"",""1"",""1851""
","
","","","909.1000000238419","","","19","10833","1083","p","elianto","#3366ff99"," "," ","1","+10","[1759.1999999284744]","1","2","","","10833","87","5","1","win","go","0"
"pit-trial","206","1309278","0.0-92.0","battery-v0.2","","""event"",""trial"",""time""
""fullscreenenter"",""1"",""1851""
","
","
","""event"",""trial"",""time""
""fullscreenenter"",""1"",""1851""
","
","","","-1","","","19","10833","1083","g","elianto","#f73b6a7A","-1","-1","1","0","[]","0","2","","","10833","88","6","4","lose","no-go","0"
"pit-trial","207","1314142","0.0-93.0","battery-v0.2","","""event"",""trial"",""time""
""fullscreenenter"",""1"",""1851""
","
","
","""event"",""trial"",""time""
""fullscreenenter"",""1"",""1851""
","
","","","-1","","","19","10833","1083","g","elianto","#f73b6a7A","-1","-1","1","0","[]","0","2","","","10833","89","6","4","lose","no-go","0"
"pit-trial","208","1317761","0.0-94.0","battery-v0.2","","""event"",""trial"",""time""
""fullscreenenter"",""1"",""1851""
","
","
","""event"",""trial"",""time""
""fullscreenenter"",""1"",""1851""
","
","","","755.7000000476837","","","19","10833","1083","p","elianto","#3366ff99"," "," ","1","+10","[1608.8000000715256]","1","2","","","10833","90","5","1","win","go","0"
"pit-trial","209","1322630","0.0-95.0","battery-v0.2","","""event"",""trial"",""time""
""fullscreenenter"",""1"",""1851""
","
","
","""event"",""trial"",""time""
""fullscreenenter"",""1"",""1851""
","
","","","-1","","","19","10833","1083","a","elianto","#f73b6a7A"," ","-1","0","-10","[]","0","2","","","10833","91","7","3","lose","go","0"
"pit-trial","210","1327484","0.0-96.0","battery-v0.2","","""event"",""trial"",""time""
""fullscreenenter"",""1"",""1851""
","
","
","""event"",""trial"",""time""
""fullscreenenter"",""1"",""1851""
","
","","","-1","","","19","10833","1083","s","elianto","#3366ff99","-1","-1","1","+10","[]","0","2","","","10833","92","4","2","win","no-go","0"
"pit-trial","211","1331227","0.0-97.0","battery-v0.2","","""event"",""trial"",""time""
""fullscreenenter"",""1"",""1851""
","
","
","""event"",""trial"",""time""
""fullscreenenter"",""1"",""1851""
","
","","","872.7000000476837","","","19","10833","1083","a","elianto","#f73b6a7A"," "," ","1","-10","[1725.3000000715256]","1","2","","","10833","93","7","3","lose","go","1"
"pit-trial","212","1334700","0.0-98.0","battery-v0.2","","""event"",""trial"",""time""
""fullscreenenter"",""1"",""1851""
","
","
","""event"",""trial"",""time""
""fullscreenenter"",""1"",""1851""
","
","","","608.8999999761581","","","19","10833","1083","p","elianto","#3366ff99"," "," ","1","+10","[1462.3999999761581]","1","2","","","10833","94","5","1","win","go","0"
"pit-trial","213","1339571","0.0-99.0","battery-v0.2","","""event"",""trial"",""time""
""fullscreenenter"",""1"",""1851""
","
","
","""event"",""trial"",""time""
""fullscreenenter"",""1"",""1851""
","
","","","-1","","","19","10833","1083","g","elianto","#f73b6a7A","-1","-1","1","0","[]","0","2","","","10833","95","6","4","lose","no-go","0"
"pit-trial","214","1343425","0.0-100.0","battery-v0.2","","""event"",""trial"",""time""
""fullscreenenter"",""1"",""1851""
","
","
","""event"",""trial"",""time""
""fullscreenenter"",""1"",""1851""
","
","","","998.6000000238419","","","19","10833","1083","l","elianto","#3366ff99","-1"," ","0","0","[1850.8999999761581]","1","2","","","10833","96","8","2","win","no-go","0"
"pit-trial","215","1347113","0.0-101.0","battery-v0.2","","""event"",""trial"",""time""
""fullscreenenter"",""1"",""1851""
","
","
","""event"",""trial"",""time""
""fullscreenenter"",""1"",""1851""
","
","","","808.6999999284744","","","19","10833","1083","p","elianto","#3366ff99"," "," ","1","+10","[1670.0999999046326]","1","2","","","10833","97","5","1","win","go","0"
"pit-trial","216","1351983","0.0-102.0","battery-v0.2","","""event"",""trial"",""time""
""fullscreenenter"",""1"",""1851""
","
","
","""event"",""trial"",""time""
""fullscreenenter"",""1"",""1851""
","
","","","-1","","","19","10833","1083","g","elianto","#f73b6a7A","-1","-1","1","0","[]","0","2","","","10833","98","6","4","lose","no-go","0"
"pit-trial","217","1356563","0.0-103.0","battery-v0.2","","""event"",""trial"",""time""
""fullscreenenter"",""1"",""1851""
","
","
","""event"",""trial"",""time""
""fullscreenenter"",""1"",""1851""
","
","","","1712.3000000715256","","","19","10833","1083","a","elianto","#f73b6a7A"," "," ","1","0","[2573.100000023842]","1","2","","","10833","99","7","3","lose","go","0"
"pit-trial","218","1361427","0.0-104.0","battery-v0.2","","""event"",""trial"",""time""
""fullscreenenter"",""1"",""1851""
","
","
","""event"",""trial"",""time""
""fullscreenenter"",""1"",""1851""
","
","","","-1","","","19","10833","1083","l","elianto","#3366ff99","-1","-1","1","+10","[]","0","2","","","10833","100","8","2","win","no-go","0"
"pit-trial","219","1366297","0.0-105.0","battery-v0.2","","""event"",""trial"",""time""
""fullscreenenter"",""1"",""1851""
","
","
","""event"",""trial"",""time""
""fullscreenenter"",""1"",""1851""
","
","","","-1","","","19","10833","1083","u","elianto","#3366ff99","-1","-1","1","+10","[]","0","2","","","10833","101","9","2","win","no-go","0"
"pit-trial","220","1371161","0.0-106.0","battery-v0.2","","""event"",""trial"",""time""
""fullscreenenter"",""1"",""1851""
","
","
","""event"",""trial"",""time""
""fullscreenenter"",""1"",""1851""
","
","","","-1","","","19","10833","1083","l","elianto","#3366ff99","-1","-1","1","+10","[]","0","2","","","10833","102","8","2","win","no-go","0"
"pit-trial","221","1376023","0.0-107.0","battery-v0.2","","""event"",""trial"",""time""
""fullscreenenter"",""1"",""1851""
","
","
","""event"",""trial"",""time""
""fullscreenenter"",""1"",""1851""
","
","","","-1","","","19","10833","1083","g","elianto","#f73b6a7A","-1","-1","1","0","[]","0","2","","","10833","103","6","4","lose","no-go","0"
"pit-trial","222","1379845","0.0-108.0","battery-v0.2","","""event"",""trial"",""time""
""fullscreenenter"",""1"",""1851""
","
","
","""event"",""trial"",""time""
""fullscreenenter"",""1"",""1851""
","
","","","963.7000000476837","","","19","10833","1083","p","elianto","#3366ff99"," "," ","1","0","[1817.7999999523163]","1","2","","","10833","104","5","1","win","go","1"
"pit-trial","223","1384708","0.0-109.0","battery-v0.2","","""event"",""trial"",""time""
""fullscreenenter"",""1"",""1851""
","
","
","""event"",""trial"",""time""
""fullscreenenter"",""1"",""1851""
","
","","","-1","","","19","10833","1083","g","elianto","#f73b6a7A","-1","-1","1","0","[]","0","2","","","10833","105","6","4","lose","no-go","0"
"pit-trial","224","1389570","0.0-110.0","battery-v0.2","","""event"",""trial"",""time""
""fullscreenenter"",""1"",""1851""
","
","
","""event"",""trial"",""time""
""fullscreenenter"",""1"",""1851""
","
","","","-1","","","19","10833","1083","l","elianto","#3366ff99","-1","-1","1","0","[]","0","2","","","10833","106","8","2","win","no-go","1"
"pit-trial","225","1394426","0.0-111.0","battery-v0.2","","""event"",""trial"",""time""
""fullscreenenter"",""1"",""1851""
","
","
","""event"",""trial"",""time""
""fullscreenenter"",""1"",""1851""
","
","","","-1","","","19","10833","1083","u","elianto","#3366ff99","-1","-1","1","+10","[]","0","2","","","10833","107","9","2","win","no-go","0"
"pit-trial","226","1398164","0.0-112.0","battery-v0.2","","""event"",""trial"",""time""
""fullscreenenter"",""1"",""1851""
","
","
","""event"",""trial"",""time""
""fullscreenenter"",""1"",""1851""
","
","","","878.3999999761581","","","19","10833","1083","p","elianto","#3366ff99"," "," ","1","+10","[1730.5999999046326]","1","2","","","10833","108","5","1","win","go","0"
"pit-trial","227","1403035","0.0-113.0","battery-v0.2","","""event"",""trial"",""time""
""fullscreenenter"",""1"",""1851""
","
","
","""event"",""trial"",""time""
""fullscreenenter"",""1"",""1851""
","
","","","-1","","","19","10833","1083","u","elianto","#3366ff99","-1","-1","1","+10","[]","0","2","","","10833","109","9","2","win","no-go","0"
"pit-trial","228","1407906","0.0-114.0","battery-v0.2","","""event"",""trial"",""time""
""fullscreenenter"",""1"",""1851""
","
","
","""event"",""trial"",""time""
""fullscreenenter"",""1"",""1851""
","
","","","-1","","","19","10833","1083","g","elianto","#f73b6a7A","-1","-1","1","0","[]","0","2","","","10833","110","6","4","lose","no-go","0"
"pit-trial","229","1411378","0.0-115.0","battery-v0.2","","""event"",""trial"",""time""
""fullscreenenter"",""1"",""1851""
","
","
","""event"",""trial"",""time""
""fullscreenenter"",""1"",""1851""
","
","","","605.3000000715256","","","19","10833","1083","p","elianto","#3366ff99"," "," ","1","+10","[1465.3000000715256]","1","2","","","10833","111","5","1","win","go","0"
"pit-trial","230","1415570","0.0-116.0","battery-v0.2","","""event"",""trial"",""time""
""fullscreenenter"",""1"",""1851""
","
","
","""event"",""trial"",""time""
""fullscreenenter"",""1"",""1851""
","
","","","1331.6000000238419","","","19","10833","1083","l","elianto","#3366ff99","-1"," ","0","+10","[2183.100000023842]","1","2","","","10833","112","8","2","win","no-go","1"
"pit-trial","231","1420438","0.0-117.0","battery-v0.2","","""event"",""trial"",""time""
""fullscreenenter"",""1"",""1851""
","
","
","""event"",""trial"",""time""
""fullscreenenter"",""1"",""1851""
","
","","","-1","","","19","10833","1083","u","elianto","#3366ff99","-1","-1","1","+10","[]","0","2","","","10833","113","9","2","win","no-go","0"
"pit-trial","232","1424051","0.0-118.0","battery-v0.2","","""event"",""trial"",""time""
""fullscreenenter"",""1"",""1851""
","
","
","""event"",""trial"",""time""
""fullscreenenter"",""1"",""1851""
","
","","","748.0999999046326","","","19","10833","1083","p","elianto","#3366ff99"," "," ","1","+10","[1599.2999999523163]","1","2","","","10833","114","5","1","win","go","0"
"pit-trial","233","1427972","0.0-119.0","battery-v0.2","","""event"",""trial"",""time""
""fullscreenenter"",""1"",""1851""
","
","
","""event"",""trial"",""time""
""fullscreenenter"",""1"",""1851""
","
","","","1060.2999999523163","","","19","10833","1083","l","elianto","#3366ff99","-1"," ","0","0","[1911.5]","1","2","","","10833","115","8","2","win","no-go","0"
"pit-trial","234","1432079","0.0-120.0","battery-v0.2","","""event"",""trial"",""time""
""fullscreenenter"",""1"",""1851""
","
","
","""event"",""trial"",""time""
""fullscreenenter"",""1"",""1851""
","
","","","1252.3999999761581","","","19","10833","1083","a","elianto","#f73b6a7A"," "," ","1","0","[2102.600000023842]","1","2","","","10833","116","7","3","lose","go","0"
"pit-trial","235","1436947","0.0-121.0","battery-v0.2","","""event"",""trial"",""time""
""fullscreenenter"",""1"",""1851""
","
","
","""event"",""trial"",""time""
""fullscreenenter"",""1"",""1851""
","
","","","-1","","","19","10833","1083","g","elianto","#f73b6a7A","-1","-1","1","0","[]","0","2","","","10833","117","6","4","lose","no-go","0"
"pit-trial","236","1441819","0.0-122.0","battery-v0.2","","""event"",""trial"",""time""
""fullscreenenter"",""1"",""1851""
","
","
","""event"",""trial"",""time""
""fullscreenenter"",""1"",""1851""
","
","","","-1","","","19","10833","1083","u","elianto","#3366ff99","-1","-1","1","+10","[]","0","2","","","10833","118","9","2","win","no-go","0"
"pit-trial","237","1445400","0.0-123.0","battery-v0.2","","""event"",""trial"",""time""
""fullscreenenter"",""1"",""1851""
","
","
","""event"",""trial"",""time""
""fullscreenenter"",""1"",""1851""
","
","","","711.7999999523163","","","19","10833","1083","p","elianto","#3366ff99"," "," ","1","0","[1566.2999999523163]","1","2","","","10833","119","5","1","win","go","1"
"pit-trial","238","1449423","0.0-124.0","battery-v0.2","","""event"",""trial"",""time""
""fullscreenenter"",""1"",""1851""
","
","
","""event"",""trial"",""time""
""fullscreenenter"",""1"",""1851""
","
","","","1161.1000000238419","","","19","10833","1083","l","elianto","#3366ff99","-1"," ","0","0","[2012]","1","2","","","10833","120","8","2","win","no-go","0"
"pit-trial","239","1453672","0.0-125.0","battery-v0.2","","""event"",""trial"",""time""
""fullscreenenter"",""1"",""1851""
","
","
","""event"",""trial"",""time""
""fullscreenenter"",""1"",""1851""
","
","","","1393.6000000238419","","","19","10833","1083","u","elianto","#3366ff99","-1"," ","0","0","[2246]","1","2","","","10833","121","9","2","win","no-go","0"
"pit-trial","240","1458095","0.0-126.0","battery-v0.2","","""event"",""trial"",""time""
""fullscreenenter"",""1"",""1851""
","
","
","""event"",""trial"",""time""
""fullscreenenter"",""1"",""1851""
","
","","","1551","","","19","10833","1083","a","elianto","#f73b6a7A"," "," ","1","0","[2409.5]","1","2","","","10833","122","7","3","lose","go","0"
"pit-trial","241","1462220","0.0-127.0","battery-v0.2","","""event"",""trial"",""time""
""fullscreenenter"",""1"",""1851""
","
","
","""event"",""trial"",""time""
""fullscreenenter"",""1"",""1851""
","
","","","1259.8999999761581","","","19","10833","1083","l","elianto","#3366ff99","-1"," ","0","0","[2111.600000023842]","1","2","","","10833","123","8","2","win","no-go","0"
"pit-trial","242","1465801","0.0-128.0","battery-v0.2","","""event"",""trial"",""time""
""fullscreenenter"",""1"",""1851""
","
","
","""event"",""trial"",""time""
""fullscreenenter"",""1"",""1851""
","
","","","716.8000000715256","","","19","10833","1083","p","elianto","#3366ff99"," "," ","1","0","[1568.3000000715256]","1","2","","","10833","124","5","1","win","go","1"
"pit-trial","243","1470679","0.0-129.0","battery-v0.2","","""event"",""trial"",""time""
""fullscreenenter"",""1"",""1851""
","
","
","""event"",""trial"",""time""
""fullscreenenter"",""1"",""1851""
","
","","","-1","","","19","10833","1083","g","elianto","#f73b6a7A","-1","-1","1","-10","[]","0","2","","","10833","125","6","4","lose","no-go","1"
"pit-trial","244","1475544","0.0-130.0","battery-v0.2","","""event"",""trial"",""time""
""fullscreenenter"",""1"",""1851""
","
","
","""event"",""trial"",""time""
""fullscreenenter"",""1"",""1851""
","
","","","-1","","","19","10833","1083","u","elianto","#3366ff99","-1","-1","1","+10","[]","0","2","","","10833","126","9","2","win","no-go","0"
"pit-trial","245","1479915","0.0-131.0","battery-v0.2","","""event"",""trial"",""time""
""fullscreenenter"",""1"",""1851""
","
","
","""event"",""trial"",""time""
""fullscreenenter"",""1"",""1851""
","
","","","1512.2999999523163","","","19","10833","1083","a","elianto","#f73b6a7A"," "," ","1","0","[2364.7999999523163]","1","2","","","10833","127","7","3","lose","go","0"
"pit-trial","246","1484775","0.0-132.0","battery-v0.2","","""event"",""trial"",""time""
""fullscreenenter"",""1"",""1851""
","
","
","""event"",""trial"",""time""
""fullscreenenter"",""1"",""1851""
","
","","","-1","","","19","10833","1083","l","elianto","#3366ff99","-1","-1","1","+10","[]","0","2","","","10833","128","8","2","win","no-go","0"
"pit-trial","247","1489639","0.0-133.0","battery-v0.2","","""event"",""trial"",""time""
""fullscreenenter"",""1"",""1851""
","
","
","""event"",""trial"",""time""
""fullscreenenter"",""1"",""1851""
","
","","","-1","","","19","10833","1083","g","elianto","#f73b6a7A","-1","-1","1","0","[]","0","2","","","10833","129","6","4","lose","no-go","0"
"pit-trial","248","1494501","0.0-134.0","battery-v0.2","","""event"",""trial"",""time""
""fullscreenenter"",""1"",""1851""
","
","
","""event"",""trial"",""time""
""fullscreenenter"",""1"",""1851""
","
","","","-1","","","19","10833","1083","l","elianto","#3366ff99","-1","-1","1","+10","[]","0","2","","","10833","130","8","2","win","no-go","0"
"pit-trial","249","1499373","0.0-135.0","battery-v0.2","","""event"",""trial"",""time""
""fullscreenenter"",""1"",""1851""
","
","
","""event"",""trial"",""time""
""fullscreenenter"",""1"",""1851""
","
","","","-1","","","19","10833","1083","u","elianto","#3366ff99","-1","-1","1","+10","[]","0","2","","","10833","131","9","2","win","no-go","0"
"pit-trial","250","1503502","0.0-136.0","battery-v0.2","","""event"",""trial"",""time""
""fullscreenenter"",""1"",""1851""
","
","
","""event"",""trial"",""time""
""fullscreenenter"",""1"",""1851""
","
","","","1266.1000000238419","","","19","10833","1083","a","elianto","#f73b6a7A"," "," ","1","-10","[2117.600000023842]","1","2","","","10833","132","7","3","lose","go","1"
"pit-trial","251","1508081","0.0-137.0","battery-v0.2","","""event"",""trial"",""time""
""fullscreenenter"",""1"",""1851""
","
","
","""event"",""trial"",""time""
""fullscreenenter"",""1"",""1851""
","
","","","1720.3999999761581","","","19","10833","1083","l","elianto","#3366ff99","-1"," ","0","0","[2573.5]","1","2","","","10833","133","8","2","win","no-go","0"
"pit-trial","252","1512108","0.0-138.0","battery-v0.2","","""event"",""trial"",""time""
""fullscreenenter"",""1"",""1851""
","
","
","""event"",""trial"",""time""
""fullscreenenter"",""1"",""1851""
","
","","","1164.6000000238419","","","19","10833","1083","a","elianto","#f73b6a7A"," "," ","1","0","[2018]","1","2","","","10833","134","7","3","lose","go","0"
"pit-trial","253","1516984","0.0-139.0","battery-v0.2","","""event"",""trial"",""time""
""fullscreenenter"",""1"",""1851""
","
","
","""event"",""trial"",""time""
""fullscreenenter"",""1"",""1851""
","
","","","-1","","","19","10833","1083","g","elianto","#f73b6a7A","-1","-1","1","0","[]","0","2","","","10833","135","6","4","lose","no-go","0"
"pit-trial","254","1521856","0.0-140.0","battery-v0.2","","""event"",""trial"",""time""
""fullscreenenter"",""1"",""1851""
","
","
","""event"",""trial"",""time""
""fullscreenenter"",""1"",""1851""
","
","","","-1","","","19","10833","1083","u","elianto","#3366ff99","-1","-1","1","+10","[]","0","2","","","10833","136","9","2","win","no-go","0"
"pit-trial","255","1526718","0.0-141.0","battery-v0.2","","""event"",""trial"",""time""
""fullscreenenter"",""1"",""1851""
","
","
","""event"",""trial"",""time""
""fullscreenenter"",""1"",""1851""
","
","","","-1","","","19","10833","1083","l","elianto","#3366ff99","-1","-1","1","+10","[]","0","2","","","10833","137","8","2","win","no-go","0"
"pit-trial","256","1531581","0.0-142.0","battery-v0.2","","""event"",""trial"",""time""
""fullscreenenter"",""1"",""1851""
","
","
","""event"",""trial"",""time""
""fullscreenenter"",""1"",""1851""
","
","","","-1","","","19","10833","1083","g","elianto","#f73b6a7A","-1","-1","1","0","[]","0","2","","","10833","138","6","4","lose","no-go","0"
"pit-trial","257","1535773","0.0-143.0","battery-v0.2","","""event"",""trial"",""time""
""fullscreenenter"",""1"",""1851""
","
","
","""event"",""trial"",""time""
""fullscreenenter"",""1"",""1851""
","
","","","1334.3999999761581","","","19","10833","1083","a","elianto","#f73b6a7A"," "," ","1","0","[2188]","1","2","","","10833","139","7","3","lose","go","0"
"pit-trial","258","1540640","0.0-144.0","battery-v0.2","","""event"",""trial"",""time""
""fullscreenenter"",""1"",""1851""
","
","
","""event"",""trial"",""time""
""fullscreenenter"",""1"",""1851""
","
","","","-1","","","19","10833","1083","u","elianto","#3366ff99","-1","-1","1","+10","[]","0","2","","","10833","140","9","2","win","no-go","0"
"pit-instructions","259","1556234","0.0-145.0","battery-v0.2","","""event"",""trial"",""time""
""fullscreenenter"",""1"",""1851""
","
","
","""event"",""trial"",""time""
""fullscreenenter"",""1"",""1851""
","
","","[{""page_index"":0,""viewing_time"":7491.600000023842},{""page_index"":1,""viewing_time"":8100.299999952316}]","15592.199999928474","","","","","","","","","","","","","","","","","","","","","","","",""
"pit-trial","260","1560612","0.0-146.0","battery-v0.2","","""event"",""trial"",""time""
""fullscreenenter"",""1"",""1851""
","
","
","""event"",""trial"",""time""
""fullscreenenter"",""1"",""1851""
","
","","","1512.2999999523163","","","19","10833","1083","t","elianto","#f73b6a7A"," "," ","1","0","[2373]","1","3","","","10833","141","2","3","lose","go","0"
"pit-trial","261","1564361","0.0-147.0","battery-v0.2","","""event"",""trial"",""time""
""fullscreenenter"",""1"",""1851""
","
","
","""event"",""trial"",""time""
""fullscreenenter"",""1"",""1851""
","
","","","889.5","","","19","10833","1083","b","elianto","#f73b6a7A","-1"," ","0","0","[1739.8000000715256]","1","3","","","10833","142","3","4","lose","no-go","1"
"pit-trial","262","1568294","0.0-148.0","battery-v0.2","","""event"",""trial"",""time""
""fullscreenenter"",""1"",""1851""
","
","
","""event"",""trial"",""time""
""fullscreenenter"",""1"",""1851""
","
","","","1056.6999999284744","","","19","10833","1083","n","elianto","#f73b6a7A"," "," ","1","0","[1918.0999999046326]","1","3","","","10833","143","0","3","lose","go","0"
"pit-trial","263","1572574","0.0-149.0","battery-v0.2","","""event"",""trial"",""time""
""fullscreenenter"",""1"",""1851""
","
","
","""event"",""trial"",""time""
""fullscreenenter"",""1"",""1851""
","
","","","1416.2000000476837","","","19","10833","1083","f","elianto","#3366ff99","-1"," ","0","+10","[2275.399999976158]","1","3","","","10833","144","1","2","win","no-go","1"
"pit-trial","264","1576004","0.0-150.0","battery-v0.2","","""event"",""trial"",""time""
""fullscreenenter"",""1"",""1851""
","
","
","""event"",""trial"",""time""
""fullscreenenter"",""1"",""1851""
","
