"trial_type","trial_index","time_elapsed","internal_node_id","task_version","subject_id","interactions","blur_events","focus_events","fullscreenenter_events","fullscreenexit_events","success","view_history","rt","responses","num_errors","age","subject","participantId","rune","rune_set","hex","correct","choice","accuracy","outcome","keys","total_keys","block","practice","value","sub","trial","stimulus","robot","valence","action","sham"
"pavlovia","0","9","0.0-0.0","battery-v0.2","","""event"",""trial"",""time""
""fullscreenenter"",""1"",""1800""
","
","
","""event"",""trial"",""time""
""fullscreenenter"",""1"",""1800""
","
","","","","","","","","","","","","","","","","","","","","","","","","","","",""
"fullscreen","1","2781","0.0-1.0","battery-v0.2","","""event"",""trial"",""time""
""fullscreenenter"",""1"",""1800""
","
","
","""event"",""trial"",""time""
""fullscreenenter"",""1"",""1800""
","
","true","","","","","","","","","","","","","","","","","","","","","","","","","",""
"pit-instructions","2","7864","0.0-2.0-0.0","battery-v0.2","","""event"",""trial"",""time""
""fullscreenenter"",""1"",""1800""
","
","
","""event"",""trial"",""time""
""fullscreenenter"",""1"",""1800""
","
","","[{""page_index"":0,""viewing_time"":5077.299999998882}]","5078.199999999255","","","","","","","","","","","","","","","","","","","","","","","",""
"pit-comprehension","3","13818","0.0-2.0-1.0-0.0","battery-v0.2","","""event"",""trial"",""time""
""fullscreenenter"",""1"",""1800""
","
","
","""event"",""trial"",""time""
""fullscreenenter"",""1"",""1800""
","
","","","5949.299999998882","[""shark""]","0","21","14248","4743","","","","","","","","","","","","","","","","","","",""
"pit-instructions","4","15431","0.0-2.0-1.0-1.0","battery-v0.2","","""event"",""trial"",""time""
""fullscreenenter"",""1"",""1800""
","
","
","""event"",""trial"",""time""
""fullscreenenter"",""1"",""1800""
","
","","[{""page_index"":0,""viewing_time"":1596.9000000003725}]","1597.0999999996275","","","","","","","","","","","","","","","","","","","","","","","",""
"pit-comprehension","5","19375","0.0-2.0-2.0-0.0","battery-v0.2","","""event"",""trial"",""time""
""fullscreenenter"",""1"",""1800""
","
","
","""event"",""trial"",""time""
""fullscreenenter"",""1"",""1800""
","
","","","3941.4000000003725","[""tiger""]","0","21","14248","4743","","","","","","","","","","","","","","","","","","",""
"pit-instructions","6","20615","0.0-2.0-2.0-1.0","battery-v0.2","","""event"",""trial"",""time""
""fullscreenenter"",""1"",""1800""
","
","
","""event"",""trial"",""time""
""fullscreenenter"",""1"",""1800""
","
","","[{""page_index"":0,""viewing_time"":1233}]","1233.699999999255","","","","","","","","","","","","","","","","","","","","","","","",""
"pit-instructions","7","122633","0.0-2.0-3.0","battery-v0.2","","""event"",""trial"",""time""
""fullscreenenter"",""1"",""1800""
","
","
","""event"",""trial"",""time""
""fullscreenenter"",""1"",""1800""
","
","","[{""page_index"":0,""viewing_time"":8039.800000000745},{""page_index"":1,""viewing_time"":6600.5},{""page_index"":2,""viewing_time"":6850.5},{""page_index"":3,""viewing_time"":6192.299999998882},{""page_index"":4,""viewing_time"":6180.5},{""page_index"":5,""viewing_time"":7750.700000001118},{""page_index"":6,""viewing_time"":9362.099999999627},{""page_index"":7,""viewing_time"":7402.199999999255},{""page_index"":8,""viewing_time"":8776.900000000373},{""page_index"":9,""viewing_time"":8191.800000000745},{""page_index"":10,""viewing_time"":7086.799999998882},{""page_index"":11,""viewing_time"":7544.5},{""page_index"":12,""viewing_time"":7006.5},{""page_index"":13,""viewing_time"":5028.200000001118}]","102013.90000000037","","","","","","","","","","","","","","","","","","","","","","","",""
"pit-trial","8","126106","0.0-2.0-4.0-0.0","battery-v0.2","","""event"",""trial"",""time""
""fullscreenenter"",""1"",""1800""
","
","
","""event"",""trial"",""time""
""fullscreenenter"",""1"",""1800""
","
","","","612.4000000003725","","","21","14248","4743","&#9784;","elianto","#FFFFF080"," "," ","1","&#10004","[1465.1000000014901]","1","0","0","","","","","","","",""
"pit-trial","9","129589","0.0-2.0-4.1-0.1","battery-v0.2","","""event"",""trial"",""time""
""fullscreenenter"",""1"",""1800""
","
","
","""event"",""trial"",""time""
""fullscreenenter"",""1"",""1800""
","
","","","610.2000000011176","","","21","14248","4743","&#9784;","elianto","#FFFFF080"," "," ","1","&#10004","[1463]","1","0","0","","","","","","","",""
"pit-trial","10","133190","0.0-2.0-4.2-0.2","battery-v0.2","","""event"",""trial"",""time""
""fullscreenenter"",""1"",""1800""
","
","
","""event"",""trial"",""time""
""fullscreenenter"",""1"",""1800""
","
","","","738.5999999996275","","","21","14248","4743","&#9784;","elianto","#FFFFF080"," "," ","1","&#10004","[1590.2000000011176]","1","0","0","","","","","","","",""
"pit-trial","11","136807","0.0-2.0-4.3-0.3","battery-v0.2","","""event"",""trial"",""time""
""fullscreenenter"",""1"",""1800""
","
","
","""event"",""trial"",""time""
""fullscreenenter"",""1"",""1800""
","
","","","746.9000000003725","","","21","14248","4743","&#9784;","elianto","#FFFFF080"," "," ","1","&#10004","[1598.5999999996275]","1","0","0","","","","","","","",""
"pit-trial","12","140233","0.0-2.0-4.4-0.4","battery-v0.2","","""event"",""trial"",""time""
""fullscreenenter"",""1"",""1800""
","
","
","""event"",""trial"",""time""
""fullscreenenter"",""1"",""1800""
","
","","","561.3000000007451","","","21","14248","4743","&#9784;","elianto","#FFFFF080"," "," ","1","&#10004","[1411.7000000011176]","1","0","0","","","","","","","",""
"pit-instructions","13","165515","0.0-2.0-5.0","battery-v0.2","","""event"",""trial"",""time""
""fullscreenenter"",""1"",""1800""
","
","
","""event"",""trial"",""time""
""fullscreenenter"",""1"",""1800""
","
","","[{""page_index"":0,""viewing_time"":8094.4000000003725},{""page_index"":1,""viewing_time"":5462.0999999996275},{""page_index"":2,""viewing_time"":4979.9000000003725},{""page_index"":3,""viewing_time"":6740.799999998882}]","25277.799999998882","","","","","","","","","","","","","","","","","","","","","","","",""
"pit-trial","14","170386","0.0-2.0-6.0-0.0","battery-v0.2","","""event"",""trial"",""time""
""fullscreenenter"",""1"",""1800""
","
","
","""event"",""trial"",""time""
""fullscreenenter"",""1"",""1800""
","
","","","-1","","","21","14248","4743","&#9854;","elianto","#FFFFF080","-1","-1","1","&#10004","[]","0","0","1","","","","","","","",""
"pit-trial","15","175248","0.0-2.0-6.1-0.1","battery-v0.2","","""event"",""trial"",""time""
""fullscreenenter"",""1"",""1800""
","
","
","""event"",""trial"",""time""
""fullscreenenter"",""1"",""1800""
","
","","","-1","","","21","14248","4743","&#9854;","elianto","#FFFFF080","-1","-1","1","&#10004","[]","0","0","1","","","","","","","",""
"pit-trial","16","180118","0.0-2.0-6.2-0.2","battery-v0.2","","""event"",""trial"",""time""
""fullscreenenter"",""1"",""1800""
","
","
","""event"",""trial"",""time""
""fullscreenenter"",""1"",""1800""
","
","","","-1","","","21","14248","4743","&#9854;","elianto","#FFFFF080","-1","-1","1","&#10004","[]","0","0","1","","","","","","","",""
"pit-trial","17","184988","0.0-2.0-6.3-0.3","battery-v0.2","","""event"",""trial"",""time""
""fullscreenenter"",""1"",""1800""
","
","
","""event"",""trial"",""time""
""fullscreenenter"",""1"",""1800""
","
","","","-1","","","21","14248","4743","&#9854;","elianto","#FFFFF080","-1","-1","1","&#10004","[]","0","0","1","","","","","","","",""
"pit-trial","18","189861","0.0-2.0-6.4-0.4","battery-v0.2","","""event"",""trial"",""time""
""fullscreenenter"",""1"",""1800""
","
","
","""event"",""trial"",""time""
""fullscreenenter"",""1"",""1800""
","
","","","-1","","","21","14248","4743","&#9854;","elianto","#FFFFF080","-1","-1","1","&#10004","[]","0","0","1","","","","","","","",""
"pit-instructions","19","328896","0.0-2.0-7.0","battery-v0.2","","""event"",""trial"",""time""
""fullscreenenter"",""1"",""1800""
","
","
","""event"",""trial"",""time""
""fullscreenenter"",""1"",""1800""
","
","","[{""page_index"":0,""viewing_time"":5767.699999999255},{""page_index"":1,""viewing_time"":7747.10000000149},{""page_index"":2,""viewing_time"":5891.799999998882},{""page_index"":3,""viewing_time"":7447.5999999996275},{""page_index"":4,""viewing_time"":5558.700000001118},{""page_index"":5,""viewing_time"":5482.0999999996275},{""page_index"":6,""viewing_time"":4870.300000000745},{""page_index"":7,""viewing_time"":9486.799999998882},{""page_index"":8,""viewing_time"":8007.300000000745},{""page_index"":9,""viewing_time"":6057},{""page_index"":10,""viewing_time"":6841.4000000003725},{""page_index"":11,""viewing_time"":4409.89999999851},{""page_index"":12,""viewing_time"":7681.200000001118},{""page_index"":13,""viewing_time"":7709.199999999255},{""page_index"":14,""viewing_time"":7670.5999999996275},{""page_index"":15,""viewing_time"":23919.10000000149},{""page_index"":16,""viewing_time"":6830.0999999996275},{""page_index"":17,""viewing_time"":7651.699999999255}]","139030.19999999925","","","","","","","","","","","","","","","","","","","","","","","",""
"pit-trial","20","332714","0.0-2.0-8.0-0.0","battery-v0.2","","""event"",""trial"",""time""
""fullscreenenter"",""1"",""1800""
","
","
","""event"",""trial"",""time""
""fullscreenenter"",""1"",""1800""
","
","","","947.5999999996275","","","21","14248","4743","&#9776;","elianto","#3366ff99"," "," ","1","+10","[1805.0999999996275]","1","0","1","","","","","","","",""
"pit-trial","21","336375","0.0-2.0-8.0-1.0","battery-v0.2","","""event"",""trial"",""time""
""fullscreenenter"",""1"",""1800""
","
","
","""event"",""trial"",""time""
""fullscreenenter"",""1"",""1800""
","
","","","797.9000000003725","","","21","14248","4743","&#9776;","elianto","#3366ff99"," "," ","1","+10","[1647.8999999985099]","1","0","1","","","","","","","",""
"pit-trial","22","339852","0.0-2.0-8.0-2.0","battery-v0.2","","""event"",""trial"",""time""
""fullscreenenter"",""1"",""1800""
","
","
","""event"",""trial"",""time""
""fullscreenenter"",""1"",""1800""
","
","","","604.5","","","21","14248","4743","&#9776;","elianto","#3366ff99"," "," ","1","+10","[1458.5999999996275]","1","0","1","","","","","","","",""
"pit-trial","23","343230","0.0-2.0-8.0-3.0","battery-v0.2","","""event"",""trial"",""time""
""fullscreenenter"",""1"",""1800""
","
","
","""event"",""trial"",""time""
""fullscreenenter"",""1"",""1800""
","
","","","518.7999999988824","","","21","14248","4743","&#9776;","elianto","#3366ff99"," "," ","1","0","[1370]","1","0","1","","","","","","","",""
"pit-trial","24","346605","0.0-2.0-8.0-4.0","battery-v0.2","","""event"",""trial"",""time""
""fullscreenenter"",""1"",""1800""
","
","
","""event"",""trial"",""time""
""fullscreenenter"",""1"",""1800""
","
","","","507.69999999925494","","","21","14248","4743","&#9776;","elianto","#3366ff99"," "," ","1","+10","[1362]","1","0","1","","","","","","","",""
"pit-trial","25","349933","0.0-2.0-8.1-0.1","battery-v0.2","","""event"",""trial"",""time""
""fullscreenenter"",""1"",""1800""
","
","
","""event"",""trial"",""time""
""fullscreenenter"",""1"",""1800""
","
","","","463.30000000074506","","","21","14248","4743","&#9776;","elianto","#3366ff99"," "," ","1","+10","[1314.699999999255]","1","0","1","","","","","","","",""
"pit-trial","26","353259","0.0-2.0-8.1-1.1","battery-v0.2","","""event"",""trial"",""time""
""fullscreenenter"",""1"",""1800""
","
","
","""event"",""trial"",""time""
""fullscreenenter"",""1"",""1800""
","
","","","466.3999999985099","","","21","14248","4743","&#9776;","elianto","#3366ff99"," "," ","1","+10","[1320.0999999996275]","1","0","1","","","","","","","",""
"pit-trial","27","356487","0.0-2.0-8.1-2.1","battery-v0.2","","""event"",""trial"",""time""
""fullscreenenter"",""1"",""1800""
","
","
","""event"",""trial"",""time""
""fullscreenenter"",""1"",""1800""
","
","","","372","","","21","14248","4743","&#9776;","elianto","#3366ff99"," "," ","1","+10","[1222.6000000014901]","1","0","1","","","","","","","",""
"pit-trial","28","359834","0.0-2.0-8.1-3.1","battery-v0.2","","""event"",""trial"",""time""
""fullscreenenter"",""1"",""1800""
","
","
","""event"",""trial"",""time""
""fullscreenenter"",""1"",""1800""
","
","","","481.30000000074506","","","21","14248","4743","&#9776;","elianto","#3366ff99"," "," ","1","0","[1334.300000000745]","1","0","1","","","","","","","",""
"pit-trial","29","363086","0.0-2.0-8.1-4.1","battery-v0.2","","""event"",""trial"",""time""
""fullscreenenter"",""1"",""1800""
","
","
","""event"",""trial"",""time""
""fullscreenenter"",""1"",""1800""
","
","","","398.5","","","21","14248","4743","&#9776;","elianto","#3366ff99"," "," ","1","+10","[1248.7000000011176]","1","0","1","","","","","","","",""
"pit-trial","30","366405","0.0-2.0-8.2-0.2","battery-v0.2","","""event"",""trial"",""time""
""fullscreenenter"",""1"",""1800""
","
","
","""event"",""trial"",""time""
""fullscreenenter"",""1"",""1800""
","
","","","453.80000000074506","","","21","14248","4743","&#9776;","elianto","#3366ff99"," "," ","1","+10","[1314.300000000745]","1","0","1","","","","","","","",""
"pit-trial","31","369677","0.0-2.0-8.2-1.2","battery-v0.2","","""event"",""trial"",""time""
""fullscreenenter"",""1"",""1800""
","
","
","""event"",""trial"",""time""
""fullscreenenter"",""1"",""1800""
","
","","","417.80000000074506","","","21","14248","4743","&#9776;","elianto","#3366ff99"," "," ","1","+10","[1268.5]","1","0","1","","","","","","","",""
"pit-trial","32","372896","0.0-2.0-8.2-2.2","battery-v0.2","","""event"",""trial"",""time""
""fullscreenenter"",""1"",""1800""
","
","
","""event"",""trial"",""time""
""fullscreenenter"",""1"",""1800""
","
","","","365.5","","","21","14248","4743","&#9776;","elianto","#3366ff99"," "," ","1","+10","[1215.699999999255]","1","0","1","","","","","","","",""
"pit-trial","33","376296","0.0-2.0-8.2-3.2","battery-v0.2","","""event"",""trial"",""time""
""fullscreenenter"",""1"",""1800""
","
","
","""event"",""trial"",""time""
""fullscreenenter"",""1"",""1800""
","
","","","545.7999999988824","","","21","14248","4743","&#9776;","elianto","#3366ff99"," "," ","1","0","[1396.0999999996275]","1","0","1","","","","","","","",""
"pit-trial","34","379335","0.0-2.0-8.2-4.2","battery-v0.2","","""event"",""trial"",""time""
""fullscreenenter"",""1"",""1800""
","
","
","""event"",""trial"",""time""
""fullscreenenter"",""1"",""1800""
","
","","","185.69999999925494","","","21","14248","4743","&#9776;","elianto","#3366ff99"," "," ","1","+10","[1036.699999999255]","1","0","1","","","","","","","",""
"call-function","35","379338","0.0-2.0-9.0","battery-v0.2","","""event"",""trial"",""time""
""fullscreenenter"",""1"",""1800""
","
","
","""event"",""trial"",""time""
""fullscreenenter"",""1"",""1800""
","
","","","","","","","","","","","","","","","","","","","","","","","","","","",""
"pit-instructions","36","419717","0.0-2.0-10.0","battery-v0.2","","""event"",""trial"",""time""
""fullscreenenter"",""1"",""1800""
","
","
","""event"",""trial"",""time""
""fullscreenenter"",""1"",""1800""
","
","","[{""page_index"":0,""viewing_time"":6856.9000000003725},{""page_index"":1,""viewing_time"":6507.5999999996275},{""page_index"":2,""viewing_time"":9850.199999999255},{""page_index"":3,""viewing_time"":9134.400000000373},{""page_index"":4,""viewing_time"":8028.300000000745}]","40378","","","","","","","","","","","","","","","","","","","","","","","",""
"pit-trial","37","424067","0.0-2.0-11.0-0.0","battery-v0.2","","""event"",""trial"",""time""
""fullscreenenter"",""1"",""1800""
","
","
","""event"",""trial"",""time""
""fullscreenenter"",""1"",""1800""
","
","","","1489.7000000011176","","","21","14248","4743","&#9761;","elianto","#3366ff99","-1"," ","0","0","[2344.800000000745]","1","0","2","","","","","","","",""
"pit-trial","38","428946","0.0-2.0-11.0-1.0","battery-v0.2","","""event"",""trial"",""time""
""fullscreenenter"",""1"",""1800""
","
","
","""event"",""trial"",""time""
""fullscreenenter"",""1"",""1800""
","
","","","-1","","","21","14248","4743","&#9761;","elianto","#3366ff99","-1","-1","1","+10","[]","0","0","2","","","","","","","",""
"pit-trial","39","433822","0.0-2.0-11.0-2.0","battery-v0.2","","""event"",""trial"",""time""
""fullscreenenter"",""1"",""1800""
","
","
","""event"",""trial"",""time""
""fullscreenenter"",""1"",""1800""
","
","","","-1","","","21","14248","4743","&#9761;","elianto","#3366ff99","-1","-1","1","+10","[]","0","0","2","","","","","","","",""
"pit-trial","40","438695","0.0-2.0-11.0-3.0","battery-v0.2","","""event"",""trial"",""time""
""fullscreenenter"",""1"",""1800""
","
","
","""event"",""trial"",""time""
""fullscreenenter"",""1"",""1800""
","
","","","-1","","","21","14248","4743","&#9761;","elianto","#3366ff99","-1","-1","1","0","[]","0","0","2","","","","","","","",""
"pit-trial","41","443567","0.0-2.0-11.0-4.0","battery-v0.2","","""event"",""trial"",""time""
""fullscreenenter"",""1"",""1800""
","
","
","""event"",""trial"",""time""
""fullscreenenter"",""1"",""1800""
","
","","","-1","","","21","14248","4743","&#9761;","elianto","#3366ff99","-1","-1","1","+10","[]","0","0","2","","","","","","","",""
"pit-trial","42","448449","0.0-2.0-11.1-0.1","battery-v0.2","","""event"",""trial"",""time""
""fullscreenenter"",""1"",""1800""
","
","
","""event"",""trial"",""time""
""fullscreenenter"",""1"",""1800""
","
","","","-1","","","21","14248","4743","&#9761;","elianto","#3366ff99","-1","-1","1","+10","[]","0","0","2","","","","","","","",""
"pit-trial","43","453303","0.0-2.0-11.1-1.1","battery-v0.2","","""event"",""trial"",""time""
""fullscreenenter"",""1"",""1800""
","
","
","""event"",""trial"",""time""
""fullscreenenter"",""1"",""1800""
","
","","","-1","","","21","14248","4743","&#9761;","elianto","#3366ff99","-1","-1","1","+10","[]","0","0","2","","","","","","","",""
"pit-trial","44","458158","0.0-2.0-11.1-2.1","battery-v0.2","","""event"",""trial"",""time""
""fullscreenenter"",""1"",""1800""
","
","
","""event"",""trial"",""time""
""fullscreenenter"",""1"",""1800""
","
","","","-1","","","21","14248","4743","&#9761;","elianto","#3366ff99","-1","-1","1","+10","[]","0","0","2","","","","","","","",""
"pit-trial","45","463013","0.0-2.0-11.1-3.1","battery-v0.2","","""event"",""trial"",""time""
""fullscreenenter"",""1"",""1800""
","
","
","""event"",""trial"",""time""
""fullscreenenter"",""1"",""1800""
","
","","","-1","","","21","14248","4743","&#9761;","elianto","#3366ff99","-1","-1","1","0","[]","0","0","2","","","","","","","",""
"pit-trial","46","467867","0.0-2.0-11.1-4.1","battery-v0.2","","""event"",""trial"",""time""
""fullscreenenter"",""1"",""1800""
","
","
","""event"",""trial"",""time""
""fullscreenenter"",""1"",""1800""
","
","","","-1","","","21","14248","4743","&#9761;","elianto","#3366ff99","-1","-1","1","+10","[]","0","0","2","","","","","","","",""
"pit-trial","47","472722","0.0-2.0-11.2-0.2","battery-v0.2","","""event"",""trial"",""time""
""fullscreenenter"",""1"",""1800""
","
","
","""event"",""trial"",""time""
""fullscreenenter"",""1"",""1800""
","
","","","-1","","","21","14248","4743","&#9761;","elianto","#3366ff99","-1","-1","1","+10","[]","0","0","2","","","","","","","",""
"pit-trial","48","477576","0.0-2.0-11.2-1.2","battery-v0.2","","""event"",""trial"",""time""
""fullscreenenter"",""1"",""1800""
","
","
","""event"",""trial"",""time""
""fullscreenenter"",""1"",""1800""
","
","","","-1","","","21","14248","4743","&#9761;","elianto","#3366ff99","-1","-1","1","+10","[]","0","0","2","","","","","","","",""
"pit-trial","49","482430","0.0-2.0-11.2-2.2","battery-v0.2","","""event"",""trial"",""time""
""fullscreenenter"",""1"",""1800""
","
","
","""event"",""trial"",""time""
""fullscreenenter"",""1"",""1800""
","
","","","-1","","","21","14248","4743","&#9761;","elianto","#3366ff99","-1","-1","1","+10","[]","0","0","2","","","","","","","",""
"pit-trial","50","487284","0.0-2.0-11.2-3.2","battery-v0.2","","""event"",""trial"",""time""
""fullscreenenter"",""1"",""1800""
","
","
","""event"",""trial"",""time""
""fullscreenenter"",""1"",""1800""
","
","","","-1","","","21","14248","4743","&#9761;","elianto","#3366ff99","-1","-1","1","0","[]","0","0","2","","","","","","","",""
"pit-trial","51","492139","0.0-2.0-11.2-4.2","battery-v0.2","","""event"",""trial"",""time""
""fullscreenenter"",""1"",""1800""
","
","
","""event"",""trial"",""time""
""fullscreenenter"",""1"",""1800""
","
","","","-1","","","21","14248","4743","&#9761;","elianto","#3366ff99","-1","-1","1","+10","[]","0","0","2","","","","","","","",""
"pit-trial","52","496995","0.0-2.0-11.3-0.3","battery-v0.2","","""event"",""trial"",""time""
""fullscreenenter"",""1"",""1800""
","
","
","""event"",""trial"",""time""
""fullscreenenter"",""1"",""1800""
","
","","","-1","","","21","14248","4743","&#9761;","elianto","#3366ff99","-1","-1","1","+10","[]","0","0","2","","","","","","","",""
"pit-trial","53","501848","0.0-2.0-11.3-1.3","battery-v0.2","","""event"",""trial"",""time""
""fullscreenenter"",""1"",""1800""
","
","
","""event"",""trial"",""time""
""fullscreenenter"",""1"",""1800""
","
","","","-1","","","21","14248","4743","&#9761;","elianto","#3366ff99","-1","-1","1","+10","[]","0","0","2","","","","","","","",""
"pit-trial","54","506706","0.0-2.0-11.3-2.3","battery-v0.2","","""event"",""trial"",""time""
""fullscreenenter"",""1"",""1800""
","
","
","""event"",""trial"",""time""
""fullscreenenter"",""1"",""1800""
","
","","","-1","","","21","14248","4743","&#9761;","elianto","#3366ff99","-1","-1","1","+10","[]","0","0","2","","","","","","","",""
"pit-trial","55","511560","0.0-2.0-11.3-3.3","battery-v0.2","","""event"",""trial"",""time""
""fullscreenenter"",""1"",""1800""
","
","
","""event"",""trial"",""time""
""fullscreenenter"",""1"",""1800""
","
","","","-1","","","21","14248","4743","&#9761;","elianto","#3366ff99","-1","-1","1","0","[]","0","0","2","","","","","","","",""
"pit-trial","56","516416","0.0-2.0-11.3-4.3","battery-v0.2","","""event"",""trial"",""time""
""fullscreenenter"",""1"",""1800""
","
","
","""event"",""trial"",""time""
""fullscreenenter"",""1"",""1800""
","
","","","-1","","","21","14248","4743","&#9761;","elianto","#3366ff99","-1","-1","1","+10","[]","0","0","2","","","","","","","",""
"call-function","57","516418","0.0-2.0-12.0","battery-v0.2","","""event"",""trial"",""time""
""fullscreenenter"",""1"",""1800""
","
","
","""event"",""trial"",""time""
""fullscreenenter"",""1"",""1800""
","
","","","","","","","","","","","","","","","","","","","","","","","","","","",""
"pit-instructions","58","551162","0.0-2.0-13.0","battery-v0.2","","""event"",""trial"",""time""
""fullscreenenter"",""1"",""1800""
","
","
","""event"",""trial"",""time""
""fullscreenenter"",""1"",""1800""
","
","","[{""page_index"":0,""viewing_time"":8239.800000000745},{""page_index"":1,""viewing_time"":6207},{""page_index"":2,""viewing_time"":3415.699999999255},{""page_index"":3,""viewing_time"":11618.099999999627},{""page_index"":4,""viewing_time"":5261.200000001118}]","34742.300000000745","","","","","","","","","","","","","","","","","","","","","","","",""
"pit-trial","59","554790","0.0-2.0-14.0-0.0","battery-v0.2","","""event"",""trial"",""time""
""fullscreenenter"",""1"",""1800""
","
","
","""event"",""trial"",""time""
""fullscreenenter"",""1"",""1800""
","
","","","773.5999999996275","","","21","14248","4743","&#9826;","elianto","#f73b6a7A","-1"," ","0","-10","[1624.2000000011176]","1","0","3","","","","","","","",""
"pit-trial","60","559657","0.0-2.0-14.0-1.0","battery-v0.2","","""event"",""trial"",""time""
""fullscreenenter"",""1"",""1800""
","
","
","""event"",""trial"",""time""
""fullscreenenter"",""1"",""1800""
","
","","","-1","","","21","14248","4743","&#9826;","elianto","#f73b6a7A","-1","-1","1","0","[]","0","0","3","","","","","","","",""
"pit-trial","61","564524","0.0-2.0-14.0-2.0","battery-v0.2","","""event"",""trial"",""time""
""fullscreenenter"",""1"",""1800""
","
","
","""event"",""trial"",""time""
""fullscreenenter"",""1"",""1800""
","
","","","-1","","","21","14248","4743","&#9826;","elianto","#f73b6a7A","-1","-1","1","0","[]","0","0","3","","","","","","","",""
"pit-trial","62","569392","0.0-2.0-14.0-3.0","battery-v0.2","","""event"",""trial"",""time""
""fullscreenenter"",""1"",""1800""
","
","
","""event"",""trial"",""time""
""fullscreenenter"",""1"",""1800""
","
","","","-1","","","21","14248","4743","&#9826;","elianto","#f73b6a7A","-1","-1","1","-10","[]","0","0","3","","","","","","","",""
"pit-trial","63","574246","0.0-2.0-14.0-4.0","battery-v0.2","","""event"",""trial"",""time""
""fullscreenenter"",""1"",""1800""
","
","
","""event"",""trial"",""time""
""fullscreenenter"",""1"",""1800""
","
","","","-1","","","21","14248","4743","&#9826;","elianto","#f73b6a7A","-1","-1","1","0","[]","0","0","3","","","","","","","",""
"pit-trial","64","579117","0.0-2.0-14.1-0.1","battery-v0.2","","""event"",""trial"",""time""
""fullscreenenter"",""1"",""1800""
","
","
","""event"",""trial"",""time""
""fullscreenenter"",""1"",""1800""
","
","","","-1","","","21","14248","4743","&#9826;","elianto","#f73b6a7A","-1","-1","1","0","[]","0","0","3","","","","","","","",""
"pit-trial","65","583970","0.0-2.0-14.1-1.1","battery-v0.2","","""event"",""trial"",""time""
""fullscreenenter"",""1"",""1800""
","
","
","""event"",""trial"",""time""
""fullscreenenter"",""1"",""1800""
","
","","","-1","","","21","14248","4743","&#9826;","elianto","#f73b6a7A","-1","-1","1","0","[]","0","0","3","","","","","","","",""
"pit-trial","66","588824","0.0-2.0-14.1-2.1","battery-v0.2","","""event"",""trial"",""time""
""fullscreenenter"",""1"",""1800""
","
","
","""event"",""trial"",""time""
""fullscreenenter"",""1"",""1800""
","
","","","-1","","","21","14248","4743","&#9826;","elianto","#f73b6a7A","-1","-1","1","0","[]","0","0","3","","","","","","","",""
"pit-trial","67","593689","0.0-2.0-14.1-3.1","battery-v0.2","","""event"",""trial"",""time""
""fullscreenenter"",""1"",""1800""
","
","
","""event"",""trial"",""time""
""fullscreenenter"",""1"",""1800""
","
","","","-1","","","21","14248","4743","&#9826;","elianto","#f73b6a7A","-1","-1","1","-10","[]","0","0","3","","","","","","","",""
"pit-trial","68","598543","0.0-2.0-14.1-4.1","battery-v0.2","","""event"",""trial"",""time""
""fullscreenenter"",""1"",""1800""
","
","
","""event"",""trial"",""time""
""fullscreenenter"",""1"",""1800""
","
","","","-1","","","21","14248","4743","&#9826;","elianto","#f73b6a7A","-1","-1","1","0","[]","0","0","3","","","","","","","",""
"pit-trial","69","603399","0.0-2.0-14.2-0.2","battery-v0.2","","""event"",""trial"",""time""
""fullscreenenter"",""1"",""1800""
","
","
","""event"",""trial"",""time""
""fullscreenenter"",""1"",""1800""
","
","","","-1","","","21","14248","4743","&#9826;","elianto","#f73b6a7A","-1","-1","1","0","[]","0","0","3","","","","","","","",""
"pit-trial","70","608253","0.0-2.0-14.2-1.2","battery-v0.2","","""event"",""trial"",""time""
""fullscreenenter"",""1"",""1800""
","
","
","""event"",""trial"",""time""
""fullscreenenter"",""1"",""1800""
","
","","","-1","","","21","14248","4743","&#9826;","elianto","#f73b6a7A","-1","-1","1","0","[]","0","0","3","","","","","","","",""
"pit-trial","71","613107","0.0-2.0-14.2-2.2","battery-v0.2","","""event"",""trial"",""time""
""fullscreenenter"",""1"",""1800""
","
","
","""event"",""trial"",""time""
""fullscreenenter"",""1"",""1800""
","
","","","-1","","","21","14248","4743","&#9826;","elianto","#f73b6a7A","-1","-1","1","0","[]","0","0","3","","","","","","","",""
"pit-trial","72","617961","0.0-2.0-14.2-3.2","battery-v0.2","","""event"",""trial"",""time""
""fullscreenenter"",""1"",""1800""
","
","
","""event"",""trial"",""time""
""fullscreenenter"",""1"",""1800""
","
","","","-1","","","21","14248","4743","&#9826;","elianto","#f73b6a7A","-1","-1","1","-10","[]","0","0","3","","","","","","","",""
"pit-trial","73","622816","0.0-2.0-14.2-4.2","battery-v0.2","","""event"",""trial"",""time""
""fullscreenenter"",""1"",""1800""
","
","
","""event"",""trial"",""time""
""fullscreenenter"",""1"",""1800""
","
","","","-1","","","21","14248","4743","&#9826;","elianto","#f73b6a7A","-1","-1","1","0","[]","0","0","3","","","","","","","",""
"pit-trial","74","627672","0.0-2.0-14.3-0.3","battery-v0.2","","""event"",""trial"",""time""
""fullscreenenter"",""1"",""1800""
","
","
","""event"",""trial"",""time""
""fullscreenenter"",""1"",""1800""
","
","","","-1","","","21","14248","4743","&#9826;","elianto","#f73b6a7A","-1","-1","1","0","[]","0","0","3","","","","","","","",""
"pit-trial","75","632526","0.0-2.0-14.3-1.3","battery-v0.2","","""event"",""trial"",""time""
""fullscreenenter"",""1"",""1800""
","
","
","""event"",""trial"",""time""
""fullscreenenter"",""1"",""1800""
","
","","","-1","","","21","14248","4743","&#9826;","elianto","#f73b6a7A","-1","-1","1","0","[]","0","0","3","","","","","","","",""
"pit-trial","76","637380","0.0-2.0-14.3-2.3","battery-v0.2","","""event"",""trial"",""time""
""fullscreenenter"",""1"",""1800""
","
","
","""event"",""trial"",""time""
""fullscreenenter"",""1"",""1800""
","
","","","-1","","","21","14248","4743","&#9826;","elianto","#f73b6a7A","-1","-1","1","0","[]","0","0","3","","","","","","","",""
"pit-trial","77","642234","0.0-2.0-14.3-3.3","battery-v0.2","","""event"",""trial"",""time""
""fullscreenenter"",""1"",""1800""
","
","
","""event"",""trial"",""time""
""fullscreenenter"",""1"",""1800""
","
","","","-1","","","21","14248","4743","&#9826;","elianto","#f73b6a7A","-1","-1","1","-10","[]","0","0","3","","","","","","","",""
"pit-trial","78","647087","0.0-2.0-14.3-4.3","battery-v0.2","","""event"",""trial"",""time""
""fullscreenenter"",""1"",""1800""
","
","
","""event"",""trial"",""time""
""fullscreenenter"",""1"",""1800""
","
","","","-1","","","21","14248","4743","&#9826;","elianto","#f73b6a7A","-1","-1","1","0","[]","0","0","3","","","","","","","",""
"call-function","79","647090","0.0-2.0-15.0","battery-v0.2","","""event"",""trial"",""time""
""fullscreenenter"",""1"",""1800""
","
","
","""event"",""trial"",""time""
""fullscreenenter"",""1"",""1800""
","
","","","","","","","","","","","","","","","","","","","","","","","","","","",""
"pit-instructions","80","675314","0.0-2.0-16.0","battery-v0.2","","""event"",""trial"",""time""
""fullscreenenter"",""1"",""1800""
","
","
","""event"",""trial"",""time""
""fullscreenenter"",""1"",""1800""
","
","","[{""page_index"":0,""viewing_time"":9227},{""page_index"":1,""viewing_time"":8631.900000000373},{""page_index"":2,""viewing_time"":4781.200000001118},{""page_index"":3,""viewing_time"":5583}]","28223.700000001118","","","","","","","","","","","","","","","","","","","","","","","",""
"pit-trial","81","678708","0.0-2.0-17.0-0.0","battery-v0.2","","""event"",""trial"",""time""
""fullscreenenter"",""1"",""1800""
","
","
","""event"",""trial"",""time""
""fullscreenenter"",""1"",""1800""
","
","","","537.1999999992549","","","21","14248","4743","&#9789;","elianto","#f73b6a7A"," "," ","1","0","[1387.3999999985099]","1","0","4","","","","","","","",""
"pit-trial","82","682045","0.0-2.0-17.0-1.0","battery-v0.2","","""event"",""trial"",""time""
""fullscreenenter"",""1"",""1800""
","
","
","""event"",""trial"",""time""
""fullscreenenter"",""1"",""1800""
","
","","","475.5","","","21","14248","4743","&#9789;","elianto","#f73b6a7A"," "," ","1","0","[1329.0999999996275]","1","0","4","","","","","","","",""
"pit-trial","83","685354","0.0-2.0-17.0-2.0","battery-v0.2","","""event"",""trial"",""time""
""fullscreenenter"",""1"",""1800""
","
","
","""event"",""trial"",""time""
""fullscreenenter"",""1"",""1800""
","
","","","448.2000000011176","","","21","14248","4743","&#9789;","elianto","#f73b6a7A"," "," ","1","0","[1302.2000000011176]","1","0","4","","","","","","","",""
"pit-trial","84","688614","0.0-2.0-17.0-3.0","battery-v0.2","","""event"",""trial"",""time""
""fullscreenenter"",""1"",""1800""
","
","
","""event"",""trial"",""time""
""fullscreenenter"",""1"",""1800""
","
","","","391.2999999988824","","","21","14248","4743","&#9789;","elianto","#f73b6a7A"," "," ","1","-10","[1243.2999999988824]","1","0","4","","","","","","","",""
"pit-trial","85","691822","0.0-2.0-17.0-4.0","battery-v0.2","","""event"",""trial"",""time""
""fullscreenenter"",""1"",""1800""
","
","
","""event"",""trial"",""time""
""fullscreenenter"",""1"",""1800""
","
","","","349.7000000011176","","","21","14248","4743","&#9789;","elianto","#f73b6a7A"," "," ","1","0","[1203.4000000003725]","1","0","4","","","","","","","",""
"pit-trial","86","695173","0.0-2.0-17.1-0.1","battery-v0.2","","""event"",""trial"",""time""
""fullscreenenter"",""1"",""1800""
","
","
","""event"",""trial"",""time""
""fullscreenenter"",""1"",""1800""
","
","","","483","","","21","14248","4743","&#9789;","elianto","#f73b6a7A"," "," ","1","0","[1334.9000000003725]","1","0","4","","","","","","","",""
"pit-trial","87","698423","0.0-2.0-17.1-1.1","battery-v0.2","","""event"",""trial"",""time""
""fullscreenenter"",""1"",""1800""
","
","
","""event"",""trial"",""time""
""fullscreenenter"",""1"",""1800""
","
","","","379.2000000011176","","","21","14248","4743","&#9789;","elianto","#f73b6a7A"," "," ","1","0","[1233.5]","1","0","4","","","","","","","",""
"pit-trial","88","701684","0.0-2.0-17.1-2.1","battery-v0.2","","""event"",""trial"",""time""
""fullscreenenter"",""1"",""1800""
","
","
","""event"",""trial"",""time""
""fullscreenenter"",""1"",""1800""
","
","","","401","","","21","14248","4743","&#9789;","elianto","#f73b6a7A"," "," ","1","0","[1255]","1","0","4","","","","","","","",""
"pit-trial","89","705002","0.0-2.0-17.1-3.1","battery-v0.2","","""event"",""trial"",""time""
""fullscreenenter"",""1"",""1800""
","
","
","""event"",""trial"",""time""
""fullscreenenter"",""1"",""1800""
","
","","","457.09999999962747","","","21","14248","4743","&#9789;","elianto","#f73b6a7A"," "," ","1","-10","[1315.0999999996275]","1","0","4","","","","","","","",""
"pit-trial","90","708329","0.0-2.0-17.1-4.1","battery-v0.2","","""event"",""trial"",""time""
""fullscreenenter"",""1"",""1800""
","
","
","""event"",""trial"",""time""
""fullscreenenter"",""1"",""1800""
","
","","","475.69999999925494","","","21","14248","4743","&#9789;","elianto","#f73b6a7A"," "," ","1","0","[1325.7000000011176]","1","0","4","","","","","","","",""
"pit-trial","91","711639","0.0-2.0-17.2-0.2","battery-v0.2","","""event"",""trial"",""time""
""fullscreenenter"",""1"",""1800""
","
","
","""event"",""trial"",""time""
""fullscreenenter"",""1"",""1800""
","
","","","455.2999999988824","","","21","14248","4743","&#9789;","elianto","#f73b6a7A"," "," ","1","0","[1305.9000000003725]","1","0","4","","","","","","","",""
"pit-trial","92","714970","0.0-2.0-17.2-1.2","battery-v0.2","","""event"",""trial"",""time""
""fullscreenenter"",""1"",""1800""
","
","
","""event"",""trial"",""time""
""fullscreenenter"",""1"",""1800""
","
","","","477.2999999988824","","","21","14248","4743","&#9789;","elianto","#f73b6a7A"," "," ","1","0","[1327.5]","1","0","4","","","","","","","",""
"pit-trial","93","718302","0.0-2.0-17.2-2.2","battery-v0.2","","""event"",""trial"",""time""
""fullscreenenter"",""1"",""1800""
","
","
","""event"",""trial"",""time""
""fullscreenenter"",""1"",""1800""
","
","","","477.40000000037253","","","21","14248","4743","&#9789;","elianto","#f73b6a7A"," "," ","1","0","[1328.2999999988824]","1","0","4","","","","","","","",""
"pit-trial","94","721620","0.0-2.0-17.2-3.2","battery-v0.2","","""event"",""trial"",""time""
""fullscreenenter"",""1"",""1800""
","
","
","""event"",""trial"",""time""
""fullscreenenter"",""1"",""1800""
","
","","","458.7999999988824","","","21","14248","4743","&#9789;","elianto","#f73b6a7A"," "," ","1","-10","[1315.699999999255]","1","0","4","","","","","","","",""
"pit-trial","95","724921","0.0-2.0-17.2-4.2","battery-v0.2","","""event"",""trial"",""time""
""fullscreenenter"",""1"",""1800""
","
","
","""event"",""trial"",""time""
""fullscreenenter"",""1"",""1800""
","
","","","447.19999999925494","","","21","14248","4743","&#9789;","elianto","#f73b6a7A"," "," ","1","0","[1297.699999999255]","1","0","4","","","","","","","",""
"pit-trial","96","728200","0.0-2.0-17.3-0.3","battery-v0.2","","""event"",""trial"",""time""
""fullscreenenter"",""1"",""1800""
","
","
","""event"",""trial"",""time""
""fullscreenenter"",""1"",""1800""
","
","","","424.5","","","21","14248","4743","&#9789;","elianto","#f73b6a7A"," "," ","1","0","[1275.4000000003725]","1","0","4","","","","","","","",""
"pit-trial","97","731522","0.0-2.0-17.3-1.3","battery-v0.2","","""event"",""trial"",""time""
""fullscreenenter"",""1"",""1800""
","
","
","""event"",""trial"",""time""
""fullscreenenter"",""1"",""1800""
","
","","","467","","","21","14248","4743","&#9789;","elianto","#f73b6a7A"," "," ","1","0","[1318.9000000003725]","1","0","4","","","","","","","",""
"pit-trial","98","734850","0.0-2.0-17.3-2.3","battery-v0.2","","""event"",""trial"",""time""
""fullscreenenter"",""1"",""1800""
","
","
","""event"",""trial"",""time""
""fullscreenenter"",""1"",""1800""
","
","","","473.90000000037253","","","21","14248","4743","&#9789;","elianto","#f73b6a7A"," "," ","1","0","[1324.0999999996275]","1","0","4","","","","","","","",""
"pit-trial","99","738141","0.0-2.0-17.3-3.3","battery-v0.2","","""event"",""trial"",""time""
""fullscreenenter"",""1"",""1800""
","
","
","""event"",""trial"",""time""
""fullscreenenter"",""1"",""1800""
","
","","","436.80000000074506","","","21","14248","4743","&#9789;","elianto","#f73b6a7A"," "," ","1","-10","[1286.800000000745]","1","0","4","","","","","","","",""
"pit-trial","100","741441","0.0-2.0-17.3-4.3","battery-v0.2","","""event"",""trial"",""time""
""fullscreenenter"",""1"",""1800""
","
","
","""event"",""trial"",""time""
""fullscreenenter"",""1"",""1800""
","
","","","444.7999999988824","","","21","14248","4743","&#9789;","elianto","#f73b6a7A"," "," ","1","0","[1296.0999999996275]","1","0","4","","","","","","","",""
"call-function","101","741443","0.0-2.0-18.0","battery-v0.2","","""event"",""trial"",""time""
""fullscreenenter"",""1"",""1800""
","
","
","""event"",""trial"",""time""
""fullscreenenter"",""1"",""1800""
","
","","","","","","","","","","","","","","","","","","","","","","","","","","",""
"pit-instructions","102","903510","0.0-2.0-19.0","battery-v0.2","","""event"",""trial"",""time""
""fullscreenenter"",""1"",""1800""
","
","
","""event"",""trial"",""time""
""fullscreenenter"",""1"",""1800""
","
","","[{""page_index"":0,""viewing_time"":6234.5},{""page_index"":1,""viewing_time"":6431.89999999851},{""page_index"":2,""viewing_time"":20772.800000000745},{""page_index"":3,""viewing_time"":34780},{""page_index"":4,""viewing_time"":8661.400000000373},{""page_index"":5,""viewing_time"":66037.59999999963},{""page_index"":6,""viewing_time"":6185.5},{""page_index"":7,""viewing_time"":7306.5},{""page_index"":8,""viewing_time"":5654.800000000745}]","162065.59999999963","","","","","","","","","","","","","","","","","","","","","","","",""
"pit-comprehension","103","909205","0.0-2.0-20.0-0.0","battery-v0.2","","""event"",""trial"",""time""
""fullscreenenter"",""1"",""1800""
","
","
","""event"",""trial"",""time""
""fullscreenenter"",""1"",""1800""
","
","","","5689.60000000149","[""SPACE""]","0","21","14248","4743","","","","","","","","","","","","","","","","","","",""
"pit-instructions","104","912414","0.0-2.0-20.0-1.0","battery-v0.2","","""event"",""trial"",""time""
""fullscreenenter"",""1"",""1800""
","
","
","""event"",""trial"",""time""
""fullscreenenter"",""1"",""1800""
","
","","[{""page_index"":0,""viewing_time"":3162.0999999996275}]","3162.699999999255","","","","","","","","","","","","","","","","","","","","","","","",""
"pit-comprehension","105","919320","0.0-2.0-21.0-0.0","battery-v0.2","","""event"",""trial"",""time""
""fullscreenenter"",""1"",""1800""
","
","
","""event"",""trial"",""time""
""fullscreenenter"",""1"",""1800""
","
","","","6901","[""10""]","0","21","14248","4743","","","","","","","","","","","","","","","","","","",""
"pit-instructions","106","921226","0.0-2.0-21.0-1.0","battery-v0.2","","""event"",""trial"",""time""
""fullscreenenter"",""1"",""1800""
","
","
","""event"",""trial"",""time""
""fullscreenenter"",""1"",""1800""
","
","","[{""page_index"":0,""viewing_time"":1861.9000000003725}]","1862.2999999988824","","","","","","","","","","","","","","","","","","","","","","","",""
"pit-comprehension","107","929869","0.0-2.0-22.0-0.0","battery-v0.2","","""event"",""trial"",""time""
""fullscreenenter"",""1"",""1800""
","
","
","""event"",""trial"",""time""
""fullscreenenter"",""1"",""1800""
","
","","","8637.799999998882","[""0""]","0","21","14248","4743","","","","","","","","","","","","","","","","","","",""
"pit-instructions","108","931203","0.0-2.0-22.0-1.0","battery-v0.2","","""event"",""trial"",""time""
""fullscreenenter"",""1"",""1800""
","
","
","""event"",""trial"",""time""
""fullscreenenter"",""1"",""1800""
","
","","[{""page_index"":0,""viewing_time"":1291}]","1291.5","","","","","","","","","","","","","","","","","","","","","","","",""
"pit-comprehension","109","940830","0.0-2.0-23.0-0.0","battery-v0.2","","""event"",""trial"",""time""
""fullscreenenter"",""1"",""1800""
","
","
","""event"",""trial"",""time""
""fullscreenenter"",""1"",""1800""
","
","","","9621.599999999627","[""True""]","0","21","14248","4743","","","","","","","","","","","","","","","","","","",""
"pit-instructions","110","942392","0.0-2.0-23.0-1.0","battery-v0.2","","""event"",""trial"",""time""
""fullscreenenter"",""1"",""1800""
","
","
","""event"",""trial"",""time""
""fullscreenenter"",""1"",""1800""
","
","","[{""page_index"":0,""viewing_time"":1513.699999999255}]","1514.199999999255","","","","","","","","","","","","","","","","","","","","","","","",""
"pit-comprehension","111","950148","0.0-2.0-24.0-0.0","battery-v0.2","","""event"",""trial"",""time""
""fullscreenenter"",""1"",""1800""
","
","
","""event"",""trial"",""time""
""fullscreenenter"",""1"",""1800""
","
","","","7751.4000000003725","[""True""]","0","21","14248","4743","","","","","","","","","","","","","","","","","","",""
"pit-instructions","112","953333","0.0-2.0-24.0-1.0","battery-v0.2","","""event"",""trial"",""time""
""fullscreenenter"",""1"",""1800""
","
","
","""event"",""trial"",""time""
""fullscreenenter"",""1"",""1800""
","
","","[{""page_index"":0,""viewing_time"":3144.199999999255}]","3144.699999999255","","","","","","","","","","","","","","","","","","","","","","","",""
"pit-comprehension","113","961555","0.0-2.0-25.0-0.0","battery-v0.2","","""event"",""trial"",""time""
""fullscreenenter"",""1"",""1800""
","
","
","""event"",""trial"",""time""
""fullscreenenter"",""1"",""1800""
","
","","","8216.099999999627","[""True""]","0","21","14248","4743","","","","","","","","","","","","","","","","","","",""
"pit-instructions","114","994007","0.0-2.0-25.0-1.0","battery-v0.2","","""event"",""trial"",""time""
""fullscreenenter"",""1"",""1800""
","
","
","""event"",""trial"",""time""
""fullscreenenter"",""1"",""1800""
","
","","[{""page_index"":0,""viewing_time"":32401.299999998882}]","32401.699999999255","","","","","","","","","","","","","","","","","","","","","","","",""
"pit-comprehension","115","999488","0.0-2.0-26.0-0.0","battery-v0.2","","""event"",""trial"",""time""
""fullscreenenter"",""1"",""1800""
","
","
","""event"",""trial"",""time""
""fullscreenenter"",""1"",""1800""
","
","","","5475","[""False""]","0","21","14248","4743","","","","","","","","","","","","","","","","","","",""
"pit-instructions","116","1001929","0.0-2.0-26.0-1.0","battery-v0.2","","""event"",""trial"",""time""
""fullscreenenter"",""1"",""1800""
","
","
","""event"",""trial"",""time""
""fullscreenenter"",""1"",""1800""
","
","","[{""page_index"":0,""viewing_time"":2401.39999999851}]","2401.89999999851","","","","","","","","","","","","","","","","","","","","","","","",""
"pit-instructions","117","1028042","0.0-3.0","battery-v0.2","","""event"",""trial"",""time""
""fullscreenenter"",""1"",""1800""
","
","
","""event"",""trial"",""time""
""fullscreenenter"",""1"",""1800""
","
","","[{""page_index"":0,""viewing_time"":12127.10000000149},{""page_index"":1,""viewing_time"":5756.39999999851},{""page_index"":2,""viewing_time"":8225.700000001118}]","26109.60000000149","","","","","","","","","","","","","","","","","","","","","","","",""
"pit-trial","118","1032914","0.0-4.0","battery-v0.2","","""event"",""trial"",""time""
""fullscreenenter"",""1"",""1800""
","
","
","""event"",""trial"",""time""
""fullscreenenter"",""1"",""1800""
","
","","","-1","","","21","14248","4743","&#9728;","elianto","#f73b6a7A","-1","-1","1","0","[]","0","1","","","14248","1","0","4","lose","no-go","0"
"pit-trial","119","1037116","0.0-5.0","battery-v0.2","","""event"",""trial"",""time""
""fullscreenenter"",""1"",""1800""
","
","
","""event"",""trial"",""time""
""fullscreenenter"",""1"",""1800""
","
","","","1339.300000000745","","","21","14248","4743","&#9733;","elianto","#3366ff99","-1"," ","0","+10","[2197.800000000745]","1","1","","","14248","2","2","2","win","no-go","1"
"pit-trial","120","1041660","0.0-6.0","battery-v0.2","","""event"",""trial"",""time""
""fullscreenenter"",""1"",""1800""
","
","
","""event"",""trial"",""time""
""fullscreenenter"",""1"",""1800""
","
","","","1682.5","","","21","14248","4743","&#9730;","elianto","#3366ff99"," "," ","1","0","[2536.5999999996275]","1","1","","","14248","3","1","1","win","go","1"
"pit-trial","121","1046530","0.0-7.0","battery-v0.2","","""event"",""trial"",""time""
""fullscreenenter"",""1"",""1800""
","
","
","""event"",""trial"",""time""
""fullscreenenter"",""1"",""1800""
","
","","","-1","","","21","14248","4743","&#9752;","elianto","#f73b6a7A"," ","-1","0","-10","[]","0","1","","","14248","4","3","3","lose","go","0"
"pit-trial","122","1050654","0.0-8.0","battery-v0.2","","""event"",""trial"",""time""
""fullscreenenter"",""1"",""1800""
","
","
","""event"",""trial"",""time""
""fullscreenenter"",""1"",""1800""
","
","","","1261.0999999996275","","","21","14248","4743","&#9730;","elianto","#3366ff99"," "," ","1","+10","[2113.0999999996275]","1","1","","","14248","5","1","1","win","go","0"
"pit-trial","123","1055037","0.0-9.0","battery-v0.2","","""event"",""trial"",""time""
""fullscreenenter"",""1"",""1800""
","
","
","""event"",""trial"",""time""
""fullscreenenter"",""1"",""1800""
","
","","","1519.0999999996275","","","21","14248","4743","&#9728;","elianto","#f73b6a7A","-1"," ","0","-10","[2369.2000000011176]","1","1","","","14248","6","0","4","lose","no-go","0"
"pit-trial","124","1059685","0.0-10.0","battery-v0.2","","""event"",""trial"",""time""
""fullscreenenter"",""1"",""1800""
","
","
","""event"",""trial"",""time""
""fullscreenenter"",""1"",""1800""
","
","","","1790.800000000745","","","21","14248","4743","&#9733;","elianto","#3366ff99","-1"," ","0","0","[2644.800000000745]","1","1","","","14248","7","2","2","win","no-go","0"
"pit-trial","125","1063275","0.0-11.0","battery-v0.2","","""event"",""trial"",""time""
""fullscreenenter"",""1"",""1800""
","
","
","""event"",""trial"",""time""
""fullscreenenter"",""1"",""1800""
","
","","","735.6999999992549","","","21","14248","4743","&#9752;","elianto","#f73b6a7A"," "," ","1","0","[1587]","1","1","","","14248","8","3","3","lose","go","0"
"pit-trial","126","1068129","0.0-12.0","battery-v0.2","","""event"",""trial"",""time""
""fullscreenenter"",""1"",""1800""
","
","
","""event"",""trial"",""time""
""fullscreenenter"",""1"",""1800""
","
","","","-1","","","21","14248","4743","&#9733;","elianto","#3366ff99","-1","-1","1","0","[]","0","1","","","14248","9","2","2","win","no-go","1"
"pit-trial","127","1071715","0.0-13.0","battery-v0.2","","""event"",""trial"",""time""
""fullscreenenter"",""1"",""1800""
","
","
","""event"",""trial"",""time""
""fullscreenenter"",""1"",""1800""
","
","","","731.0999999996275","","","21","14248","4743","&#9730;","elianto","#3366ff99"," "," ","1","0","[1582]","1","1","","","14248","10","1","1","win","go","1"
"pit-trial","128","1076569","0.0-14.0","battery-v0.2","","""event"",""trial"",""time""
""fullscreenenter"",""1"",""1800""
","
","
","""event"",""trial"",""time""
""fullscreenenter"",""1"",""1800""
","
","","","-1","","","21","14248","4743","&#9728;","elianto","#f73b6a7A","-1","-1","1","0","[]","0","1","","","14248","11","0","4","lose","no-go","0"
"pit-trial","129","1080456","0.0-15.0","battery-v0.2","","""event"",""trial"",""time""
""fullscreenenter"",""1"",""1800""
","
","
","""event"",""trial"",""time""
""fullscreenenter"",""1"",""1800""
","
","","","1029.5","","","21","14248","4743","&#9752;","elianto","#f73b6a7A"," "," ","1","0","[1882.0999999996275]","1","1","","","14248","12","3","3","lose","go","0"
"pit-trial","130","1084164","0.0-16.0","battery-v0.2","","""event"",""trial"",""time""
""fullscreenenter"",""1"",""1800""
","
","
","""event"",""trial"",""time""
""fullscreenenter"",""1"",""1800""
","
","","","852.9000000003725","","","21","14248","4743","&#9752;","elianto","#f73b6a7A"," "," ","1","0","[1704.699999999255]","1","1","","","14248","13","3","3","lose","go","0"
"pit-trial","131","1089019","0.0-17.0","battery-v0.2","","""event"",""trial"",""time""
""fullscreenenter"",""1"",""1800""
","
","
","""event"",""trial"",""time""
""fullscreenenter"",""1"",""1800""
","
","","","-1","","","21","14248","4743","&#9728;","elianto","#f73b6a7A","-1","-1","1","0","[]","0","1","","","14248","14","0","4","lose","no-go","0"
"pit-trial","132","1092415","0.0-18.0","battery-v0.2","","""event"",""trial"",""time""
""fullscreenenter"",""1"",""1800""
","
","
","""event"",""trial"",""time""
""fullscreenenter"",""1"",""1800""
","
","","","541.5999999996275","","","21","14248","4743","&#9730;","elianto","#3366ff99"," "," ","1","+10","[1392.2999999988824]","1","1","","","14248","15","1","1","win","go","0"
"pit-trial","133","1096146","0.0-19.0","battery-v0.2","","""event"",""trial"",""time""
""fullscreenenter"",""1"",""1800""
","
","
","""event"",""trial"",""time""
""fullscreenenter"",""1"",""1800""
","
","","","875.8999999985099","","","21","14248","4743","&#9733;","elianto","#3366ff99","-1"," ","0","0","[1726.9000000003725]","1","1","","","14248","16","2","2","win","no-go","0"
"pit-trial","134","1099884","0.0-20.0","battery-v0.2","","""event"",""trial"",""time""
""fullscreenenter"",""1"",""1800""
","
","
","""event"",""trial"",""time""
""fullscreenenter"",""1"",""1800""
","
","","","884.5","","","21","14248","4743","&#9730;","elianto","#3366ff99"," "," ","1","+10","[1736]","1","1","","","14248","17","1","1","win","go","0"
"pit-trial","135","1104739","0.0-21.0","battery-v0.2","","""event"",""trial"",""time""
""fullscreenenter"",""1"",""1800""
","
","
","""event"",""trial"",""time""
""fullscreenenter"",""1"",""1800""
","
","","","-1","","","21","14248","4743","&#9728;","elianto","#f73b6a7A","-1","-1","1","-10","[]","0","1","","","14248","18","0","4","lose","no-go","1"
"pit-trial","136","1109592","0.0-22.0","battery-v0.2","","""event"",""trial"",""time""
""fullscreenenter"",""1"",""1800""
","
","
","""event"",""trial"",""time""
""fullscreenenter"",""1"",""1800""
","
","","","-1","","","21","14248","4743","&#9733;","elianto","#3366ff99","-1","-1","1","+10","[]","0","1","","","14248","19","2","2","win","no-go","0"
"pit-trial","137","1113175","0.0-23.0","battery-v0.2","","""event"",""trial"",""time""
""fullscreenenter"",""1"",""1800""
","
","
","""event"",""trial"",""time""
""fullscreenenter"",""1"",""1800""
","
","","","726.6000000014901","","","21","14248","4743","&#9752;","elianto","#f73b6a7A"," "," ","1","0","[1578.8999999985099]","1","1","","","14248","20","3","3","lose","go","0"
"pit-instructions","138","1139983","0.0-24.0","battery-v0.2","","""event"",""trial"",""time""
""fullscreenenter"",""1"",""1800""
","
","
","""event"",""trial"",""time""
""fullscreenenter"",""1"",""1800""
","
","","[{""page_index"":0,""viewing_time"":6943.5},{""page_index"":1,""viewing_time"":19862.300000000745}]","26806.400000000373","","","","","","","","","","","","","","","","","","","","","","","",""
"pit-trial","139","1144854","0.0-25.0","battery-v0.2","","""event"",""trial"",""time""
""fullscreenenter"",""1"",""1800""
","
","
","""event"",""trial"",""time""
""fullscreenenter"",""1"",""1800""
","
","","","-1","","","21","14248","4743","a","elianto","#f73b6a7A"," ","-1","0","-10","[]","0","2","","","14248","21","2","3","lose","go","0"
"pit-trial","140","1149731","0.0-26.0","battery-v0.2","","""event"",""trial"",""time""
""fullscreenenter"",""1"",""1800""
","
","
","""event"",""trial"",""time""
""fullscreenenter"",""1"",""1800""
","
","","","-1","","","21","14248","4743","g","elianto","#f73b6a7A","-1","-1","1","0","[]","0","2","","","14248","22","3","4","lose","no-go","0"
"pit-trial","141","1154592","0.0-27.0","battery-v0.2","","""event"",""trial"",""time""
""fullscreenenter"",""1"",""1800""
","
","
","""event"",""trial"",""time""
""fullscreenenter"",""1"",""1800""
","
","","","-1","","","21","14248","4743","u","elianto","#f73b6a7A"," ","-1","0","-10","[]","0","2","","","14248","23","0","3","lose","go","0"
"pit-trial","142","1158777","0.0-28.0","battery-v0.2","","""event"",""trial"",""time""
""fullscreenenter"",""1"",""1800""
","
","
","""event"",""trial"",""time""
""fullscreenenter"",""1"",""1800""
","
","","","1329.4000000003725","","","21","14248","4743","l","elianto","#3366ff99","-1"," ","0","0","[2180.5999999996275]","1","2","","","14248","24","1","2","win","no-go","0"
"pit-trial","143","1163630","0.0-29.0","battery-v0.2","","""event"",""trial"",""time""
""fullscreenenter"",""1"",""1800""
","
","
","""event"",""trial"",""time""
""fullscreenenter"",""1"",""1800""
","
","","","-1","","","21","14248","4743","g","elianto","#f73b6a7A","-1","-1","1","0","[]","0","2","","","14248","25","3","4","lose","no-go","0"
"pit-trial","144","1167355","0.0-30.0","battery-v0.2","","""event"",""trial"",""time""
""fullscreenenter"",""1"",""1800""
","
","
","""event"",""trial"",""time""
""fullscreenenter"",""1"",""1800""
","
","","","871.5999999996275","","","21","14248","4743","a","elianto","#f73b6a7A"," "," ","1","0","[1721.800000000745]","1","2","","","14248","26","2","3","lose","go","0"
"pit-trial","145","1172209","0.0-31.0","battery-v0.2","","""event"",""trial"",""time""
""fullscreenenter"",""1"",""1800""
","
","
","""event"",""trial"",""time""
""fullscreenenter"",""1"",""1800""
","
","","","-1","","","21","14248","4743","l","elianto","#3366ff99","-1","-1","1","+10","[]","0","2","","","14248","27","1","2","win","no-go","0"
"pit-trial","146","1177065","0.0-32.0","battery-v0.2","","""event"",""trial"",""time""
""fullscreenenter"",""1"",""1800""
","
","
","""event"",""trial"",""time""
""fullscreenenter"",""1"",""1800""
","
","","","-1","","","21","14248","4743","u","elianto","#f73b6a7A"," ","-1","0","-10","[]","0","2","","","14248","28","0","3","lose","go","0"
"pit-trial","147","1181919","0.0-33.0","battery-v0.2","","""event"",""trial"",""time""
""fullscreenenter"",""1"",""1800""
","
","
","""event"",""trial"",""time""
""fullscreenenter"",""1"",""1800""
","
","","","-1","","","21","14248","4743","u","elianto","#f73b6a7A"," ","-1","0","-10","[]","0","2","","","14248","29","0","3","lose","go","0"
"pit-trial","148","1185387","0.0-34.0","battery-v0.2","","""event"",""trial"",""time""
""fullscreenenter"",""1"",""1800""
","
","
","""event"",""trial"",""time""
""fullscreenenter"",""1"",""1800""
","
","","","613.5","","","21","14248","4743","l","elianto","#3366ff99","-1"," ","0","0","[1463.5]","1","2","","","14248","30","1","2","win","no-go","0"
"pit-trial","149","1190255","0.0-35.0","battery-v0.2","","""event"",""trial"",""time""
""fullscreenenter"",""1"",""1800""
","
","
","""event"",""trial"",""time""
""fullscreenenter"",""1"",""1800""
","
","","","-1","","","21","14248","4743","g","elianto","#f73b6a7A","-1","-1","1","0","[]","0","2","","","14248","31","3","4","lose","no-go","0"
"pit-trial","150","1194135","0.0-36.0","battery-v0.2","","""event"",""trial"",""time""
""fullscreenenter"",""1"",""1800""
","
","
","""event"",""trial"",""time""
""fullscreenenter"",""1"",""1800""
","
","","","1025.7999999988824","","","21","14248","4743","a","elianto","#f73b6a7A"," "," ","1","0","[1876.4000000003725]","1","2","","","14248","32","2","3","lose","go","0"
"pit-trial","151","1197996","0.0-37.0","battery-v0.2","","""event"",""trial"",""time""
""fullscreenenter"",""1"",""1800""
","
","
","""event"",""trial"",""time""
""fullscreenenter"",""1"",""1800""
","
","","","1007.4000000003725","","","21","14248","4743","a","elianto","#f73b6a7A"," "," ","1","0","[1857.7999999988824]","1","2","","","14248","33","2","3","lose","go","0"
"pit-trial","152","1202850","0.0-38.0","battery-v0.2","","""event"",""trial"",""time""
""fullscreenenter"",""1"",""1800""
","
","
","""event"",""trial"",""time""
""fullscreenenter"",""1"",""1800""
","
","","","-1","","","21","14248","4743","g","elianto","#f73b6a7A","-1","-1","1","0","[]","0","2","","","14248","34","3","4","lose","no-go","0"
"pit-trial","153","1206376","0.0-39.0","battery-v0.2","","""event"",""trial"",""time""
""fullscreenenter"",""1"",""1800""
","
","
","""event"",""trial"",""time""
""fullscreenenter"",""1"",""1800""
","
","","","671.9000000003725","","","21","14248","4743","u","elianto","#f73b6a7A"," "," ","1","0","[1522.2000000011176]","1","2","","","14248","35","0","3","lose","go","0"
"pit-trial","154","1211231","0.0-40.0","battery-v0.2","","""event"",""trial"",""time""
""fullscreenenter"",""1"",""1800""
","
","
","""event"",""trial"",""time""
""fullscreenenter"",""1"",""1800""
","
","","","-1","","","21","14248","4743","l","elianto","#3366ff99","-1","-1","1","+10","[]","0","2","","","14248","36","1","2","win","no-go","0"
"pit-trial","155","1214727","0.0-41.0","battery-v0.2","","""event"",""trial"",""time""
""fullscreenenter"",""1"",""1800""
","
","
","""event"",""trial"",""time""
""fullscreenenter"",""1"",""1800""
","
","","","641.7999999988824","","","21","14248","4743","a","elianto","#f73b6a7A"," "," ","1","0","[1492.5]","1","2","","","14248","37","2","3","lose","go","0"
"pit-trial","156","1219582","0.0-42.0","battery-v0.2","","""event"",""trial"",""time""
""fullscreenenter"",""1"",""1800""
","
","
","""event"",""trial"",""time""
""fullscreenenter"",""1"",""1800""
","
","","","-1","","","21","14248","4743","l","elianto","#3366ff99","-1","-1","1","+10","[]","0","2","","","14248","38","1","2","win","no-go","0"
"pit-trial","157","1224437","0.0-43.0","battery-v0.2","","""event"",""trial"",""time""
""fullscreenenter"",""1"",""1800""
","
","
","""event"",""trial"",""time""
""fullscreenenter"",""1"",""1800""
","
","","","-1","","","21","14248","4743","g","elianto","#f73b6a7A","-1","-1","1","0","[]","0","2","","","14248","39","3","4","lose","no-go","0"
"pit-trial","158","1228007","0.0-44.0","battery-v0.2","","""event"",""trial"",""time""
""fullscreenenter"",""1"",""1800""
","
","
","""event"",""trial"",""time""
""fullscreenenter"",""1"",""1800""
","
","","","717.5","","","21","14248","4743","u","elianto","#f73b6a7A"," "," ","1","0","[1567.5]","1","2","","","14248","40","0","3","lose","go","0"
"pit-trial","159","1231456","0.0-45.0","battery-v0.2","","""event"",""trial"",""time""
""fullscreenenter"",""1"",""1800""
","
","
","""event"",""trial"",""time""
""fullscreenenter"",""1"",""1800""
","
","","","594.5","","","21","14248","4743","a","elianto","#f73b6a7A"," "," ","1","0","[1446.4000000003725]","1","2","","","14248","41","2","3","lose","go","0"
"pit-trial","160","1234958","0.0-46.0","battery-v0.2","","""event"",""trial"",""time""
""fullscreenenter"",""1"",""1800""
","
","
","""event"",""trial"",""time""
""fullscreenenter"",""1"",""1800""
","
","","","648.5","","","21","14248","4743","u","elianto","#f73b6a7A"," "," ","1","0","[1499.2000000011176]","1","2","","","14248","42","0","3","lose","go","0"
"pit-trial","161","1239811","0.0-47.0","battery-v0.2","","""event"",""trial"",""time""
""fullscreenenter"",""1"",""1800""
","
","
","""event"",""trial"",""time""
""fullscreenenter"",""1"",""1800""
","
","","","-1","","","21","14248","4743","g","elianto","#f73b6a7A","-1","-1","1","0","[]","0","2","","","14248","43","3","4","lose","no-go","0"
"pit-trial","162","1244666","0.0-48.0","battery-v0.2","","""event"",""trial"",""time""
""fullscreenenter"",""1"",""1800""
","
","
","""event"",""trial"",""time""
""fullscreenenter"",""1"",""1800""
","
","","","-1","","","21","14248","4743","l","elianto","#3366ff99","-1","-1","1","0","[]","0","2","","","14248","44","1","2","win","no-go","1"
"pit-trial","163","1248316","0.0-49.0","battery-v0.2","","""event"",""trial"",""time""
""fullscreenenter"",""1"",""1800""
","
","
","""event"",""trial"",""time""
""fullscreenenter"",""1"",""1800""
","
","","","796","","","21","14248","4743","u","elianto","#f73b6a7A"," "," ","1","0","[1646.5]","1","2","","","14248","45","0","3","lose","go","0"
"pit-trial","164","1251987","0.0-50.0","battery-v0.2","","""event"",""trial"",""time""
""fullscreenenter"",""1"",""1800""
","
","
","""event"",""trial"",""time""
""fullscreenenter"",""1"",""1800""
","
","","","817","","","21","14248","4743","a","elianto","#f73b6a7A"," "," ","1","0","[1667.7000000011176]","1","2","","","14248","46","2","3","lose","go","0"
"pit-trial","165","1256843","0.0-51.0","battery-v0.2","","""event"",""trial"",""time""
""fullscreenenter"",""1"",""1800""
","
","
","""event"",""trial"",""time""
""fullscreenenter"",""1"",""1800""
","
","","","-1","","","21","14248","4743","l","elianto","#3366ff99","-1","-1","1","+10","[]","0","2","","","14248","47","1","2","win","no-go","0"
"pit-trial","166","1261698","0.0-52.0","battery-v0.2","","""event"",""trial"",""time""
""fullscreenenter"",""1"",""1800""
","
","
","""event"",""trial"",""time""
""fullscreenenter"",""1"",""1800""
","
","","","-1","","","21","14248","4743","g","elianto","#f73b6a7A","-1","-1","1","0","[]","0","2","","","14248","48","3","4","lose","no-go","0"
"pit-trial","167","1266552","0.0-53.0","battery-v0.2","","""event"",""trial"",""time""
""fullscreenenter"",""1"",""1800""
","
","
","""event"",""trial"",""time""
""fullscreenenter"",""1"",""1800""
","
","","","-1","","","21","14248","4743","g","elianto","#f73b6a7A","-1","-1","1","0","[]","0","2","","","14248","49","3","4","lose","no-go","0"
"pit-trial","168","1270087","0.0-54.0","battery-v0.2","","""event"",""trial"",""time""
""fullscreenenter"",""1"",""1800""
","
","
","""event"",""trial"",""time""
""fullscreenenter"",""1"",""1800""
","
","","","680.2999999988824","","","21","14248","4743","u","elianto","#f73b6a7A"," "," ","1","0","[1531.2999999988824]","1","2","","","14248","50","0","3","lose","go","0"
"pit-trial","169","1273796","0.0-55.0","battery-v0.2","","""event"",""trial"",""time""
""fullscreenenter"",""1"",""1800""
","
","
","""event"",""trial"",""time""
""fullscreenenter"",""1"",""1800""
","
","","","854.8000000007451","","","21","14248","4743","a","elianto","#f73b6a7A"," "," ","1","0","[1706]","1","2","","","14248","51","2","3","lose","go","0"
"pit-trial","170","1278650","0.0-56.0","battery-v0.2","","""event"",""trial"",""time""
""fullscreenenter"",""1"",""1800""
","
","
","""event"",""trial"",""time""
""fullscreenenter"",""1"",""1800""
","
","","","-1","","","21","14248","4743","l","elianto","#3366ff99","-1","-1","1","+10","[]","0","2","","","14248","52","1","2","win","no-go","0"
"pit-trial","171","1283504","0.0-57.0","battery-v0.2","","""event"",""trial"",""time""
""fullscreenenter"",""1"",""1800""
","
","
","""event"",""trial"",""time""
""fullscreenenter"",""1"",""1800""
","
","","","-1","","","21","14248","4743","l","elianto","#3366ff99","-1","-1","1","+10","[]","0","2","","","14248","53","1","2","win","no-go","0"
"pit-trial","172","1288358","0.0-58.0","battery-v0.2","","""event"",""trial"",""time""
""fullscreenenter"",""1"",""1800""
","
","
","""event"",""trial"",""time""
""fullscreenenter"",""1"",""1800""
","
","","","-1","","","21","14248","4743","g","elianto","#f73b6a7A","-1","-1","1","0","[]","0","2","","","14248","54","3","4","lose","no-go","0"
"pit-trial","173","1292076","0.0-59.0","battery-v0.2","","""event"",""trial"",""time""
""fullscreenenter"",""1"",""1800""
","
","
","""event"",""trial"",""time""
""fullscreenenter"",""1"",""1800""
","
","","","865.1999999992549","","","21","14248","4743","u","elianto","#f73b6a7A"," "," ","1","0","[1715.5999999996275]","1","2","","","14248","55","0","3","lose","go","0"
"pit-trial","174","1295627","0.0-60.0","battery-v0.2","","""event"",""trial"",""time""
""fullscreenenter"",""1"",""1800""
","
","
","""event"",""trial"",""time""
""fullscreenenter"",""1"",""1800""
","
","","","696.3000000007451","","","21","14248","4743","a","elianto","#f73b6a7A"," "," ","1","0","[1547]","1","2","","","14248","56","2","3","lose","go","0"
"pit-trial","175","1300237","0.0-61.0","battery-v0.2","","""event"",""trial"",""time""
""fullscreenenter"",""1"",""1800""
","
","
","""event"",""trial"",""time""
""fullscreenenter"",""1"",""1800""
","
","","","1755.2000000011176","","","21","14248","4743","a","elianto","#f73b6a7A"," "," ","1","0","[2606.300000000745]","1","2","","","14248","57","2","3","lose","go","0"
"pit-trial","176","1303796","0.0-62.0","battery-v0.2","","""event"",""trial"",""time""
""fullscreenenter"",""1"",""1800""
","
","
","""event"",""trial"",""time""
""fullscreenenter"",""1"",""1800""
","
","","","705.7000000011176","","","21","14248","4743","u","elianto","#f73b6a7A"," "," ","1","-10","[1556.5999999996275]","1","2","","","14248","58","0","3","lose","go","1"
"pit-trial","177","1308207","0.0-63.0","battery-v0.2","","""event"",""trial"",""time""
""fullscreenenter"",""1"",""1800""
","
","
","""event"",""trial"",""time""
""fullscreenenter"",""1"",""1800""
","
","","","1556.4000000003725","","","21","14248","4743","p","elianto","#3366ff99"," "," ","1","+10","[2407.2999999988824]","1","2","","","14248","59","4","1","win","go","0"
"pit-trial","178","1313062","0.0-64.0","battery-v0.2","","""event"",""trial"",""time""
""fullscreenenter"",""1"",""1800""
","
","
","""event"",""trial"",""time""
""fullscreenenter"",""1"",""1800""
","
","","","-1","","","21","14248","4743","g","elianto","#f73b6a7A","-1","-1","1","0","[]","0","2","","","14248","60","3","4","lose","no-go","0"
"pit-trial","179","1317916","0.0-65.0","battery-v0.2","","""event"",""trial"",""time""
""fullscreenenter"",""1"",""1800""
","
","
","""event"",""trial"",""time""
""fullscreenenter"",""1"",""1800""
","
","","","-1","","","21","14248","4743","g","elianto","#f73b6a7A","-1","-1","1","0","[]","0","2","","","14248","61","3","4","lose","no-go","0"
"pit-trial","180","1321409","0.0-66.0","battery-v0.2","","""event"",""trial"",""time""
""fullscreenenter"",""1"",""1800""
","
","
","""event"",""trial"",""time""
""fullscreenenter"",""1"",""1800""
","
","","","638.5999999996275","","","21","14248","4743","p","elianto","#3366ff99"," "," ","1","+10","[1489.0999999996275]","1","2","","","14248","62","4","1","win","go","0"
"pit-trial","181","1326264","0.0-67.0","battery-v0.2","","""event"",""trial"",""time""
""fullscreenenter"",""1"",""1800""
","
","
","""event"",""trial"",""time""
""fullscreenenter"",""1"",""1800""
","
","","","-1","","","21","14248","4743","l","elianto","#3366ff99","-1","-1","1","0","[]","0","2","","","14248","63","1","2","win","no-go","1"
"pit-trial","182","1329717","0.0-68.0","battery-v0.2","","""event"",""trial"",""time""
""fullscreenenter"",""1"",""1800""
","
","
","""event"",""trial"",""time""
""fullscreenenter"",""1"",""1800""
","
","","","599.4000000003725","","","21","14248","4743","a","elianto","#f73b6a7A"," "," ","1","-10","[1449.3999999985099]","1","2","","","14248","64","2","3","lose","go","1"
"pit-trial","183","1334571","0.0-69.0","battery-v0.2","","""event"",""trial"",""time""
""fullscreenenter"",""1"",""1800""
","
","
","""event"",""trial"",""time""
""fullscreenenter"",""1"",""1800""
","
","","","-1","","","21","14248","4743","l","elianto","#3366ff99","-1","-1","1","+10","[]","0","2","","","14248","65","1","2","win","no-go","0"
"pit-trial","184","1338678","0.0-70.0","battery-v0.2","","""event"",""trial"",""time""
""fullscreenenter"",""1"",""1800""
","
","
","""event"",""trial"",""time""
""fullscreenenter"",""1"",""1800""
","
","","","1251.0999999996275","","","21","14248","4743","s","elianto","#3366ff99","-1"," ","0","0","[2103.0999999996275]","1","2","","","14248","66","5","2","win","no-go","0"
"pit-trial","185","1342256","0.0-71.0","battery-v0.2","","""event"",""trial"",""time""
""fullscreenenter"",""1"",""1800""
","
","
","""event"",""trial"",""time""
""fullscreenenter"",""1"",""1800""
","
","","","725.0999999996275","","","21","14248","4743","p","elianto","#3366ff99"," "," ","1","+10","[1575.4000000003725]","1","2","","","14248","67","4","1","win","go","0"
"pit-trial","186","1347112","0.0-72.0","battery-v0.2","","""event"",""trial"",""time""
""fullscreenenter"",""1"",""1800""
","
","
","""event"",""trial"",""time""
""fullscreenenter"",""1"",""1800""
","
","","","-1","","","21","14248","4743","g","elianto","#f73b6a7A","-1","-1","1","0","[]","0","2","","","14248","68","3","4","lose","no-go","0"
"pit-trial","187","1350990","0.0-73.0","battery-v0.2","","""event"",""trial"",""time""
""fullscreenenter"",""1"",""1800""
","
","
","""event"",""trial"",""time""
""fullscreenenter"",""1"",""1800""
","
","","","1023.9000000003725","","","21","14248","4743","s","elianto","#3366ff99","-1"," ","0","0","[1873.9000000003725]","1","2","","","14248","69","5","2","win","no-go","0"
"pit-trial","188","1354848","0.0-74.0","battery-v0.2","","""event"",""trial"",""time""
""fullscreenenter"",""1"",""1800""
","
","
","""event"",""trial"",""time""
""fullscreenenter"",""1"",""1800""
","
","","","1004.1999999992549","","","21","14248","4743","a","elianto","#f73b6a7A"," "," ","1","-10","[1854.7999999988824]","1","2","","","14248","70","2","3","lose","go","1"
"pit-trial","189","1359308","0.0-75.0","battery-v0.2","","""event"",""trial"",""time""
""fullscreenenter"",""1"",""1800""
","
","
","""event"",""trial"",""time""
""fullscreenenter"",""1"",""1800""
","
","","","1605.6000000014901","","","21","14248","4743","p","elianto","#3366ff99"," "," ","1","+10","[2456]","1","2","","","14248","71","4","1","win","go","0"
"pit-trial","190","1364168","0.0-76.0","battery-v0.2","","""event"",""trial"",""time""
""fullscreenenter"",""1"",""1800""
","
","
","""event"",""trial"",""time""
""fullscreenenter"",""1"",""1800""
","
","","","-1","","","21","14248","4743","l","elianto","#3366ff99","-1","-1","1","+10","[]","0","2","","","14248","72","1","2","win","no-go","0"
"pit-trial","191","1369023","0.0-77.0","battery-v0.2","","""event"",""trial"",""time""
""fullscreenenter"",""1"",""1800""
","
","
","""event"",""trial"",""time""
""fullscreenenter"",""1"",""1800""
","
","","","-1","","","21","14248","4743","l","elianto","#3366ff99","-1","-1","1","+10","[]","0","2","","","14248","73","1","2","win","no-go","0"
"pit-trial","192","1373878","0.0-78.0","battery-v0.2","","""event"",""trial"",""time""
""fullscreenenter"",""1"",""1800""
","
","
","""event"",""trial"",""time""
""fullscreenenter"",""1"",""1800""
","
","","","-1","","","21","14248","4743","g","elianto","#f73b6a7A","-1","-1","1","0","[]","0","2","","","14248","74","3","4","lose","no-go","0"
"pit-trial","193","1378732","0.0-79.0","battery-v0.2","","""event"",""trial"",""time""
""fullscreenenter"",""1"",""1800""
","
","
","""event"",""trial"",""time""
""fullscreenenter"",""1"",""1800""
","
","","","-1","","","21","14248","4743","s","elianto","#3366ff99","-1","-1","1","+10","[]","0","2","","","14248","75","5","2","win","no-go","0"
"pit-trial","194","1382438","0.0-80.0","battery-v0.2","","""event"",""trial"",""time""
""fullscreenenter"",""1"",""1800""
","
","
","""event"",""trial"",""time""
""fullscreenenter"",""1"",""1800""
","
","","","850.9000000003725","","","21","14248","4743","p","elianto","#3366ff99"," "," ","1","0","[1701.7000000011176]","1","2","","","14248","76","4","1","win","go","1"
"pit-trial","195","1387292","0.0-81.0","battery-v0.2","","""event"",""trial"",""time""
""fullscreenenter"",""1"",""1800""
","
","
","""event"",""trial"",""time""
""fullscreenenter"",""1"",""1800""
","
","","","-1","","","21","14248","4743","s","elianto","#3366ff99","-1","-1","1","+10","[]","0","2","","","14248","77","5","2","win","no-go","0"
"pit-trial","196","1392146","0.0-82.0","battery-v0.2","","""event"",""trial"",""time""
""fullscreenenter"",""1"",""1800""
","
","
","""event"",""trial"",""time""
""fullscreenenter"",""1"",""1800""
","
","","","-1","","","21","14248","4743","g","elianto","#f73b6a7A","-1","-1","1","0","[]","0","2","","","14248","78","3","4","lose","no-go","0"
"pit-trial","197","1395808","0.0-83.0","battery-v0.2","","""event"",""trial"",""time""
""fullscreenenter"",""1"",""1800""
","
","
","""event"",""trial"",""time""
""fullscreenenter"",""1"",""1800""
","
","","","807.1999999992549","","","21","14248","4743","p","elianto","#3366ff99"," "," ","1","0","[1657.8999999985099]","1","2","","","14248","79","4","1","win","go","1"
"pit-trial","198","1399397","0.0-84.0","battery-v0.2","","""event"",""trial"",""time""
""fullscreenenter"",""1"",""1800""
","
","
","""event"",""trial"",""time""
""fullscreenenter"",""1"",""1800""
","
","","","736.0999999996275","","","21","14248","4743","p","elianto","#3366ff99"," "," ","1","+10","[1586.5999999996275]","1","2","","","14248","80","4","1","win","go","0"
"pit-trial","199","1404251","0.0-85.0","battery-v0.2","","""event"",""trial"",""time""
""fullscreenenter"",""1"",""1800""
","
","
","""event"",""trial"",""time""
""fullscreenenter"",""1"",""1800""
","
","","","-1","","","21","14248","4743","s","elianto","#3366ff99","-1","-1","1","+10","[]","0","2","","","14248","81","5","2","win","no-go","0"
"pit-trial","200","1409105","0.0-86.0","battery-v0.2","","""event"",""trial"",""time""
""fullscreenenter"",""1"",""1800""
","
","
","""event"",""trial"",""time""
""fullscreenenter"",""1"",""1800""
","
","","","-1","","","21","14248","4743","g","elianto","#f73b6a7A","-1","-1","1","0","[]","0","2","","","14248","82","3","4","lose","no-go","0"
"pit-trial","201","1412740","0.0-87.0","battery-v0.2","","""event"",""trial"",""time""
""fullscreenenter"",""1"",""1800""
","
","
","""event"",""trial"",""time""
""fullscreenenter"",""1"",""1800""
","
","","","780.3000000007451","","","21","14248","4743","p","elianto","#3366ff99"," "," ","1","+10","[1630.699999999255]","1","2","","","14248","83","4","1","win","go","0"
"pit-trial","202","1417592","0.0-88.0","battery-v0.2","","""event"",""trial"",""time""
""fullscreenenter"",""1"",""1800""
","
","
","""event"",""trial"",""time""
""fullscreenenter"",""1"",""1800""
","
","","","-1","","","21","14248","4743","e","elianto","#f73b6a7A","-1","-1","1","0","[]","0","2","","","14248","84","7","4","lose","no-go","0"
"pit-trial","203","1422447","0.0-89.0","battery-v0.2","","""event"",""trial"",""time""
""fullscreenenter"",""1"",""1800""
","
","
","""event"",""trial"",""time""
""fullscreenenter"",""1"",""1800""
","
","","","-1","","","21","14248","4743","s","elianto","#3366ff99","-1","-1","1","+10","[]","0","2","","","14248","85","5","2","win","no-go","0"
"pit-trial","204","1426128","0.0-90.0","battery-v0.2","","""event"",""trial"",""time""
""fullscreenenter"",""1"",""1800""
","
","
","""event"",""trial"",""time""
""fullscreenenter"",""1"",""1800""
","
","","","827.7000000011176","","","21","14248","4743","p","elianto","#3366ff99"," "," ","1","+10","[1678.0999999996275]","1","2","","","14248","86","4","1","win","go","0"
"pit-trial","205","1430983","0.0-91.0","battery-v0.2","","""event"",""trial"",""time""
""fullscreenenter"",""1"",""1800""
","
","
","""event"",""trial"",""time""
""fullscreenenter"",""1"",""1800""
","
","","","-1","","","21","14248","4743","w","elianto","#f73b6a7A"," ","-1","0","-10","[]","0","2","","","14248","87","6","3","lose","go","0"
"pit-trial","206","1435838","0.0-92.0","battery-v0.2","","""event"",""trial"",""time""
""fullscreenenter"",""1"",""1800""
","
","
","""event"",""trial"",""time""
""fullscreenenter"",""1"",""1800""
","
","","","-1","","","21","14248","4743","e","elianto","#f73b6a7A","-1","-1","1","0","[]","0","2","","","14248","88","7","4","lose","no-go","0"
"pit-trial","207","1440693","0.0-93.0","battery-v0.2","","""event"",""trial"",""time""
""fullscreenenter"",""1"",""1800""
","
","
","""event"",""trial"",""time""
""fullscreenenter"",""1"",""1800""
","
","","","-1","","","21","14248","4743","e","elianto","#f73b6a7A","-1","-1","1","0","[]","0","2","","","14248","89","7","4","lose","no-go","0"
"pit-trial","208","1444328","0.0-94.0","battery-v0.2","","""event"",""trial"",""time""
""fullscreenenter"",""1"",""1800""
","
","
","""event"",""trial"",""time""
""fullscreenenter"",""1"",""1800""
","
","","","781.9000000003725","","","21","14248","4743","w","elianto","#f73b6a7A"," "," ","1","-10","[1632.699999999255]","1","2","","","14248","90","6","3","lose","go","1"
"pit-trial","209","1447989","0.0-95.0","battery-v0.2","","""event"",""trial"",""time""
""fullscreenenter"",""1"",""1800""
","
","
","""event"",""trial"",""time""
""fullscreenenter"",""1"",""1800""
","
","","","806.3000000007451","","","21","14248","4743","p","elianto","#3366ff99"," "," ","1","+10","[1657.300000000745]","1","2","","","14248","91","4","1","win","go","0"
"pit-trial","210","1452844","0.0-96.0","battery-v0.2","","""event"",""trial"",""time""
""fullscreenenter"",""1"",""1800""
","
","
","""event"",""trial"",""time""
""fullscreenenter"",""1"",""1800""
","
","","","-1","","","21","14248","4743","s","elianto","#3366ff99","-1","-1","1","+10","[]","0","2","","","14248","92","5","2","win","no-go","0"
"pit-trial","211","1457009","0.0-97.0","battery-v0.2","","""event"",""trial"",""time""
""fullscreenenter"",""1"",""1800""
","
","
","""event"",""trial"",""time""
""fullscreenenter"",""1"",""1800""
","
","","","1311","","","21","14248","4743","d","elianto","#3366ff99"," "," ","1","0","[2161.199999999255]","1","2","","","14248","93","8","1","win","go","1"
"pit-trial","212","1460838","0.0-98.0","battery-v0.2","","""event"",""trial"",""time""
""fullscreenenter"",""1"",""1800""
","
","
","""event"",""trial"",""time""
""fullscreenenter"",""1"",""1800""
","
","","","975.3000000007451","","","21","14248","4743","w","elianto","#f73b6a7A"," "," ","1","0","[1825.7000000011176]","1","2","","","14248","94","6","3","lose","go","0"
"pit-trial","213","1465694","0.0-99.0","battery-v0.2","","""event"",""trial"",""time""
""fullscreenenter"",""1"",""1800""
","
","
","""event"",""trial"",""time""
""fullscreenenter"",""1"",""1800""
","
","","","-1","","","21","14248","4743","s","elianto","#3366ff99","-1","-1","1","+10","[]","0","2","","","14248","95","5","2","win","no-go","0"
"pit-trial","214","1470548","0.0-100.0","battery-v0.2","","""event"",""trial"",""time""
""fullscreenenter"",""1"",""1800""
","
","
","""event"",""trial"",""time""
""fullscreenenter"",""1"",""1800""
","
","","","-1","","","21","14248","4743","e","elianto","#f73b6a7A","-1","-1","1","0","[]","0","2","","","14248","96","7","4","lose","no-go","0"
"pit-trial","215","1475403","0.0-101.0","battery-v0.2","","""event"",""trial"",""time""
""fullscreenenter"",""1"",""1800""
","
","
","""event"",""trial"",""time""
""fullscreenenter"",""1"",""1800""
","
","","","-1","","","21","14248","4743","d","elianto","#3366ff99"," ","-1","0","0","[]","0","2","","","14248","97","8","1","win","go","0"
"pit-trial","216","1480258","0.0-102.0","battery-v0.2","","""event"",""trial"",""time""
""fullscreenenter"",""1"",""1800""
","
","
","""event"",""trial"",""time""
""fullscreenenter"",""1"",""1800""
","
","","","-1","","","21","14248","4743","s","elianto","#3366ff99","-1","-1","1","+10","[]","0","2","","","14248","98","5","2","win","no-go","0"
"pit-trial","217","1484342","0.0-103.0","battery-v0.2","","""event"",""trial"",""time""
""fullscreenenter"",""1"",""1800""
","
","
","""event"",""trial"",""time""
""fullscreenenter"",""1"",""1800""
","
","","","1217.9000000003725","","","21","14248","4743","w","elianto","#f73b6a7A"," "," ","1","0","[2068.5]","1","2","","","14248","99","6","3","lose","go","0"
"pit-trial","218","1489198","0.0-104.0","battery-v0.2","","""event"",""trial"",""time""
""fullscreenenter"",""1"",""1800""
","
","
","""event"",""trial"",""time""
""fullscreenenter"",""1"",""1800""
","
","","","-1","","","21","14248","4743","e","elianto","#f73b6a7A","-1","-1","1","0","[]","0","2","","","14248","100","7","4","lose","no-go","0"
"pit-trial","219","1494052","0.0-105.0","battery-v0.2","","""event"",""trial"",""time""
""fullscreenenter"",""1"",""1800""
","
","
","""event"",""trial"",""time""
""fullscreenenter"",""1"",""1800""
","
","","","-1","","","21","14248","4743","s","elianto","#3366ff99","-1","-1","1","+10","[]","0","2","","","14248","101","5","2","win","no-go","0"
"pit-trial","220","1498231","0.0-106.0","battery-v0.2","","""event"",""trial"",""time""
""fullscreenenter"",""1"",""1800""
","
","
","""event"",""trial"",""time""
""fullscreenenter"",""1"",""1800""
","
","","","1324.8999999985099","","","21","14248","4743","d","elianto","#3366ff99"," "," ","1","+10","[2175.9000000003725]","1","2","","","14248","102","8","1","win","go","0"
"pit-trial","221","1503086","0.0-107.0","battery-v0.2","","""event"",""trial"",""time""
""fullscreenenter"",""1"",""1800""
","
","
","""event"",""trial"",""time""
""fullscreenenter"",""1"",""1800""
","
","","","-1","","","21","14248","4743","e","elianto","#f73b6a7A","-1","-1","1","-10","[]","0","2","","","14248","103","7","4","lose","no-go","1"
"pit-trial","222","1507160","0.0-108.0","battery-v0.2","","""event"",""trial"",""time""
""fullscreenenter"",""1"",""1800""
","
","
","""event"",""trial"",""time""
""fullscreenenter"",""1"",""1800""
","
","","","1220","","","21","14248","4743","j","elianto","#3366ff99"," "," ","1","0","[2070.5999999996275]","1","2","","","14248","104","9","1","win","go","1"
"pit-trial","223","1510730","0.0-109.0","battery-v0.2","","""event"",""trial"",""time""
""fullscreenenter"",""1"",""1800""
","
","
","""event"",""trial"",""time""
""fullscreenenter"",""1"",""1800""
","
","","","715.3000000007451","","","21","14248","4743","w","elianto","#f73b6a7A"," "," ","1","-10","[1566.6000000014901]","1","2","","","14248","105","6","3","lose","go","1"
"pit-trial","224","1514729","0.0-110.0","battery-v0.2","","""event"",""trial"",""time""
""fullscreenenter"",""1"",""1800""
","
","
","""event"",""trial"",""time""
""fullscreenenter"",""1"",""1800""
","
","","","1144","","","21","14248","4743","j","elianto","#3366ff99"," "," ","1","+10","[1995.7000000011176]","1","2","","","14248","106","9","1","win","go","0"
"pit-trial","225","1518359","0.0-111.0","battery-v0.2","","""event"",""trial"",""time""
""fullscreenenter"",""1"",""1800""
","
","
","""event"",""trial"",""time""
""fullscreenenter"",""1"",""1800""
","
","","","775.1999999992549","","","21","14248","4743","p","elianto","#3366ff99"," "," ","1","+10","[1627.300000000745]","1","2","","","14248","107","4","1","win","go","0"
"pit-trial","226","1521949","0.0-112.0","battery-v0.2","","""event"",""trial"",""time""
""fullscreenenter"",""1"",""1800""
","
","
","""event"",""trial"",""time""
""fullscreenenter"",""1"",""1800""
","
","","","734.8000000007451","","","21","14248","4743","d","elianto","#3366ff99"," "," ","1","+10","[1586.4000000003725]","1","2","","","14248","108","8","1","win","go","0"
"pit-trial","227","1525638","0.0-113.0","battery-v0.2","","""event"",""trial"",""time""
""fullscreenenter"",""1"",""1800""
","
","
","""event"",""trial"",""time""
""fullscreenenter"",""1"",""1800""
","
","","","836.1999999992549","","","21","14248","4743","j","elianto","#3366ff99"," "," ","1","+10","[1686.4000000003725]","1","2","","","14248","109","9","1","win","go","0"
"pit-trial","228","1529318","0.0-114.0","battery-v0.2","","""event"",""trial"",""time""
""fullscreenenter"",""1"",""1800""
","
","
","""event"",""trial"",""time""
""fullscreenenter"",""1"",""1800""
","
","","","825.9000000003725","","","21","14248","4743","d","elianto","#3366ff99"," "," ","1","0","[1677]","1","2","","","14248","110","8","1","win","go","1"
"pit-trial","229","1534173","0.0-115.0","battery-v0.2","","""event"",""trial"",""time""
""fullscreenenter"",""1"",""1800""
","
","
","""event"",""trial"",""time""
""fullscreenenter"",""1"",""1800""
","
","","","-1","","","21","14248","4743","s","elianto","#3366ff99","-1","-1","1","+10","[]","0","2","","","14248","111","5","2","win","no-go","0"
"pit-trial","230","1537779","0.0-116.0","battery-v0.2","","""event"",""trial"",""time""
""fullscreenenter"",""1"",""1800""
","
","
","""event"",""trial"",""time""
""fullscreenenter"",""1"",""1800""
","
","","","751.8000000007451","","","21","14248","4743","w","elianto","#f73b6a7A"," "," ","1","0","[1602.5]","1","2","","","14248","112","6","3","lose","go","0"
"pit-trial","231","1541419","0.0-117.0","battery-v0.2","","""event"",""trial"",""time""
""fullscreenenter"",""1"",""1800""
","
","
","""event"",""trial"",""time""
""fullscreenenter"",""1"",""1800""
","
","","","785.5999999996275","","","21","14248","4743","j","elianto","#3366ff99"," "," ","1","+10","[1636.5999999996275]","1","2","","","14248","113","9","1","win","go","0"
"pit-trial","232","1546272","0.0-118.0","battery-v0.2","","""event"",""trial"",""time""
""fullscreenenter"",""1"",""1800""
","
","
","""event"",""trial"",""time""
""fullscreenenter"",""1"",""1800""
","
","","","-1","","","21","14248","4743","s","elianto","#3366ff99","-1","-1","1","0","[]","0","2","","","14248","114","5","2","win","no-go","1"
"pit-trial","233","1550390","0.0-119.0","battery-v0.2","","""event"",""trial"",""time""
""fullscreenenter"",""1"",""1800""
","
","
","""event"",""trial"",""time""
""fullscreenenter"",""1"",""1800""
","
","","","1263.5","","","21","14248","4743","d","elianto","#3366ff99"," "," ","1","+10","[2113.9000000003725]","1","2","","","14248","115","8","1","win","go","0"
"pit-trial","234","1554199","0.0-120.0","battery-v0.2","","""event"",""trial"",""time""
""fullscreenenter"",""1"",""1800""
","
","
","""event"",""trial"",""time""
""fullscreenenter"",""1"",""1800""
","
","","","954.7000000011176","","","21","14248","4743","w","elianto","#f73b6a7A"," "," ","1","0","[1805.4000000003725]","1","2","","","14248","116","6","3","lose","go","0"
"pit-trial","235","1559054","0.0-121.0","battery-v0.2","","""event"",""trial"",""time""
""fullscreenenter"",""1"",""1800""
","
","
","""event"",""trial"",""time""
""fullscreenenter"",""1"",""1800""
","
","","","-1","","","21","14248","4743","s","elianto","#3366ff99","-1","-1","1","+10","[]","0","2","","","14248","117","5","2","win","no-go","0"
"pit-trial","236","1563689","0.0-122.0","battery-v0.2","","""event"",""trial"",""time""
""fullscreenenter"",""1"",""1800""
","
","
","""event"",""trial"",""time""
""fullscreenenter"",""1"",""1800""
","
","","","1780.5999999996275","","","21","14248","4743","w","elianto","#f73b6a7A"," "," ","1","0","[2632.300000000745]","1","2","","","14248","118","6","3","lose","go","0"
"pit-trial","237","1567369","0.0-123.0","battery-v0.2","","""event"",""trial"",""time""
""fullscreenenter"",""1"",""1800""
","
","
","""event"",""trial"",""time""
""fullscreenenter"",""1"",""1800""
","
","","","826.5","","","21","14248","4743","d","elianto","#3366ff99"," "," ","1","+10","[1676.5999999996275]","1","2","","","14248","119","8","1","win","go","0"
"pit-trial","238","1570979","0.0-124.0","battery-v0.2","","""event"",""trial"",""time""
""fullscreenenter"",""1"",""1800""
","
","
","""event"",""trial"",""time""
""fullscreenenter"",""1"",""1800""
","
","","","756","","","21","14248","4743","j","elianto","#3366ff99"," "," ","1","+10","[1606.800000000745]","1","2","","","14248","120","9","1","win","go","0"
"pit-trial","239","1574679","0.0-125.0","battery-v0.2","","""event"",""trial"",""time""
""fullscreenenter"",""1"",""1800""
","
","
","""event"",""trial"",""time""
""fullscreenenter"",""1"",""1800""
","
","","","845.0999999996275","","","21","14248","4743","w","elianto","#f73b6a7A"," "," ","1","0","[1696.800000000745]","1","2","","","14248","121","6","3","lose","go","0"
"pit-trial","240","1578200","0.0-126.0","battery-v0.2","","""event"",""trial"",""time""
""fullscreenenter"",""1"",""1800""
","
","
","""event"",""trial"",""time""
""fullscreenenter"",""1"",""1800""
","
","","","666.7000000011176","","","21","14248","4743","d","elianto","#3366ff99"," "," ","1","+10","[1516.800000000745]","1","2","","","14248","122","8","1","win","go","0"
"pit-trial","241","1581809","0.0-127.0","battery-v0.2","","""event"",""trial"",""time""
""fullscreenenter"",""1"",""1800""
","
","
","""event"",""trial"",""time""
""fullscreenenter"",""1"",""1800""
","
","","","756","","","21","14248","4743","j","elianto","#3366ff99"," "," ","1","+10","[1606.0999999996275]","1","2","","","14248","123","9","1","win","go","0"
"pit-trial","242","1586664","0.0-128.0","battery-v0.2","","""event"",""trial"",""time""
""fullscreenenter"",""1"",""1800""
","
","
","""event"",""trial"",""time""
""fullscreenenter"",""1"",""1800""
","
","","","-1","","","21","14248","4743","e","elianto","#f73b6a7A","-1","-1","1","-10","[]","0","2","","","14248","124","7","4","lose","no-go","1"
"pit-trial","243","1590251","0.0-129.0","battery-v0.2","","""event"",""trial"",""time""
""fullscreenenter"",""1"",""1800""
","
","
","""event"",""trial"",""time""
""fullscreenenter"",""1"",""1800""
","
","","","733.5999999996275","","","21","14248","4743","d","elianto","#3366ff99"," "," ","1","+10","[1584.0999999996275]","1","2","","","14248","125","8","1","win","go","0"
"pit-trial","244","1594480","0.0-130.0","battery-v0.2","","""event"",""trial"",""time""
""fullscreenenter"",""1"",""1800""
","
","
","""event"",""trial"",""time""
""fullscreenenter"",""1"",""1800""
","
","","","1374.2999999988824","","","21","14248","4743","w","elianto","#f73b6a7A"," "," ","1","0","[2225.39999999851]","1","2","","","14248","126","6","3","lose","go","0"
"pit-trial","245","1598050","0.0-131.0","battery-v0.2","","""event"",""trial"",""time""
""fullscreenenter"",""1"",""1800""
","
","
","""event"",""trial"",""time""
""fullscreenenter"",""1"",""1800""
","
","","","715.8999999985099","","","21","14248","4743","j","elianto","#3366ff99"," "," ","1","+10","[1566.199999999255]","1","2","","","14248","127","9","1","win","go","0"
"pit-trial","246","1602905","0.0-132.0","battery-v0.2","","""event"",""trial"",""time""
""fullscreenenter"",""1"",""1800""
","
","
","""event"",""trial"",""time""
""fullscreenenter"",""1"",""1800""
","
","","","-1","","","21","14248","4743","e","elianto","#f73b6a7A","-1","-1","1","0","[]","0","2","","","14248","128","7","4","lose","no-go","0"
"pit-trial","247","1607759","0.0-133.0","battery-v0.2","","""event"",""trial"",""time""
""fullscreenenter"",""1"",""1800""
","
","
","""event"",""trial"",""time""
""fullscreenenter"",""1"",""1800""
","
","","","-1","","","21","14248","4743","e","elianto","#f73b6a7A","-1","-1","1","-10","[]","0","2","","","14248","129","7","4","lose","no-go","1"
"pit-trial","248","1611201","0.0-134.0","battery-v0.2","","""event"",""trial"",""time""
""fullscreenenter"",""1"",""1800""
","
","
","""event"",""trial"",""time""
""fullscreenenter"",""1"",""1800""
","
","","","587.7000000011176","","","21","14248","4743","d","elianto","#3366ff99"," "," ","1","+10","[1437.9000000003725]","1","2","","","14248","130","8","1","win","go","0"
"pit-trial","249","1614689","0.0-135.0","battery-v0.2","","""event"",""trial"",""time""
""fullscreenenter"",""1"",""1800""
","
","
","""event"",""trial"",""time""
""fullscreenenter"",""1"",""1800""
","
","","","633.7999999988824","","","21","14248","4743","j","elianto","#3366ff99"," "," ","1","+10","[1484.699999999255]","1","2","","","14248","131","9","1","win","go","0"
"pit-trial","250","1618329","0.0-136.0","battery-v0.2","","""event"",""trial"",""time""
""fullscreenenter"",""1"",""1800""
","
","
","""event"",""trial"",""time""
""fullscreenenter"",""1"",""1800""
","
","","","785.7000000011176","","","21","14248","4743","w","elianto","#f73b6a7A"," "," ","1","0","[1637]","1","2","","","14248","132","6","3","lose","go","0"
"pit-trial","251","1621892","0.0-137.0","battery-v0.2","","""event"",""trial"",""time""
""fullscreenenter"",""1"",""1800""
","
","
","""event"",""trial"",""time""
""fullscreenenter"",""1"",""1800""
","
","","","707.5","","","21","14248","4743","j","elianto","#3366ff99"," "," ","1","+10","[1557.699999999255]","1","2","","","14248","133","9","1","win","go","0"
"pit-trial","252","1625480","0.0-138.0","battery-v0.2","","""event"",""trial"",""time""
""fullscreenenter"",""1"",""1800""
","
","
","""event"",""trial"",""time""
""fullscreenenter"",""1"",""1800""
","
","","","731.5","","","21","14248","4743","w","elianto","#f73b6a7A"," "," ","1","0","[1584.199999999255]","1","2","","","14248","134","6","3","lose","go","0"
"pit-trial","253","1629086","0.0-139.0","battery-v0.2","","""event"",""trial"",""time""
""fullscreenenter"",""1"",""1800""
","
","
","""event"",""trial"",""time""
""fullscreenenter"",""1"",""1800""
","
","","","744.3999999985099","","","21","14248","4743","d","elianto","#3366ff99"," "," ","1","0","[1595.0999999996275]","1","2","","","14248","135","8","1","win","go","1"
"pit-trial","254","1633939","0.0-140.0","battery-v0.2","","""event"",""trial"",""time""
""fullscreenenter"",""1"",""1800""
","
","
","""event"",""trial"",""time""
""fullscreenenter"",""1"",""1800""
","
","","","-1","","","21","14248","4743","e","elianto","#f73b6a7A","-1","-1","1","0","[]","0","2","","","14248","136","7","4","lose","no-go","0"
"pit-trial","255","1638793","0.0-141.0","battery-v0.2","","""event"",""trial"",""time""
""fullscreenenter"",""1"",""1800""
","
","
","""event"",""trial"",""time""
""fullscreenenter"",""1"",""1800""
","
","","","-1","","","21","14248","4743","e","elianto","#f73b6a7A","-1","-1","1","0","[]","0","2","","","14248","137","7","4","lose","no-go","0"
"pit-trial","256","1642380","0.0-142.0","battery-v0.2","","""event"",""trial"",""time""
""fullscreenenter"",""1"",""1800""
","
","
","""event"",""trial"",""time""
""fullscreenenter"",""1"",""1800""
","
","","","732.8000000007451","","","21","14248","4743","w","elianto","#f73b6a7A"," "," ","1","0","[1583.199999999255]","1","2","","","14248","138","6","3","lose","go","0"
"pit-trial","257","1645959","0.0-143.0","battery-v0.2","","""event"",""trial"",""time""
""fullscreenenter"",""1"",""1800""
","
","
","""event"",""trial"",""time""
""fullscreenenter"",""1"",""1800""
","
","","","723.7999999988824","","","21","14248","4743","j","elianto","#3366ff99"," "," ","1","+10","[1576.199999999255]","1","2","","","14248","139","9","1","win","go","0"
"pit-trial","258","1649489","0.0-144.0","battery-v0.2","","""event"",""trial"",""time""
""fullscreenenter"",""1"",""1800""
","
","
","""event"",""trial"",""time""
""fullscreenenter"",""1"",""1800""
","
","","","674.3999999985099","","","21","14248","4743","d","elianto","#3366ff99"," "," ","1","+10","[1526.2999999988824]","1","2","","","14248","140","8","1","win","go","0"
"pit-instructions","259","1795541","0.0-145.0","battery-v0.2","","""event"",""trial"",""time""
""fullscreenenter"",""1"",""1800""
","
","
","""event"",""trial"",""time""
""fullscreenenter"",""1"",""1800""
","
","","[{""page_index"":0,""viewing_time"":136762.09999999963},{""page_index"":1,""viewing_time"":9286.599999999627}]","146049","","","","","","","","","","","","","","","","","","","","","","","",""
"pit-trial","260","1800399","0.0-146.0","battery-v0.2","","""event"",""trial"",""time""
""fullscreenenter"",""1"",""1800""
","
","
","""event"",""trial"",""time""
""fullscreenenter"",""1"",""1800""
","
","","","-1","","","21","14248","4743","m","elianto","#f73b6a7A","-1","-1","1","0","[]","0","3","","","14248","141","0","4","lose","no-go","0"
"pit-trial","261","1805267","0.0-147.0","battery-v0.2","","""event"",""trial"",""time""
""fullscreenenter"",""1"",""1800""
","
","
","""event"",""trial"",""time""
""fullscreenenter"",""1"",""1800""
","
","","","-1","","","21","14248","4743","h","elianto","#f73b6a7A"," ","-1","0","0","[]","0","3","","","14248","142","3","3","lose","go","1"
"pit-trial","262","1809116","0.0-148.0","battery-v0.2","","""event"",""trial"",""time""
""fullscreenenter"",""1"",""1800""
","
","
","""event"",""trial"",""time""
""fullscreenenter"",""1"",""1800""
","
","","","993.7999999988824","","","21","14248","4743","r","elianto","#3366ff99"," "," ","1","+10","[1845]","1","3","","","14248","143","1","1","win","go","0"
"pit-trial","263","1813985","0.0-149.0","battery-v0.2","","""event"",""trial"",""time""
""fullscreenenter"",""1"",""1800""
","
","
","""event"",""trial"",""time""
""fullscreenenter"",""1"",""1800""
","
","","","-1","","","21","14248","4743","y","elianto","#f73b6a7A","-1","-1","1","0","[]","0","3","","","14248","144","2","4","lose","no-go","0"
"pit-trial","264","1818845","0.0-150.0","battery-v0.2","","""event"",""trial"",""time""
""fullscreenenter"",""1"",""1800""
","
","
","""event"",""trial"",""time""
""fullscreenenter"",""1"",""1800""
","
","","","-1","","","21","14248","4743","m","elianto","#f73b6a7A","-1","-1","1","-10","[]","0","3","","","14248","145","0","4","lose","no-go","1"
"pit-trial","265","1823725","0.0-151.0","battery-v0.2","","""event"",""trial"",""time""
""fullscreenenter"",""1"",""1800""
","
","
","""event"",""trial"",""time""
""fullscreenenter"",""1"",""1800""
","
","","","-1","","","21","14248","4743","h","elianto","#f73b6a7A"," ","-1","0","-10","[]","0","3","","","14248","146","3","3","lose","go","0"
"pit-trial","266","1827804","0.0-152.0","battery-v0.2","","""event"",""trial"",""time""
""fullscreenenter"",""1"",""1800""
","
","
","""event"",""trial"",""time""
""fullscreenenter"",""1"",""1800""
","
","","","1219.5999999996275","","","21","14248","4743","y","elianto","#f73b6a7A","-1"," ","0","-10","[2076.4000000003725]","1","3","","","14248","147","2","4","lose","no-go","0"
"pit-trial","267","1831208","0.0-153.0","battery-v0.2","","""event"",""trial"",""time""
""fullscreenenter"",""1"",""1800""
","
","
