"trial_type","trial_index","time_elapsed","internal_node_id","task_version","subject_id","interactions","blur_events","focus_events","fullscreenenter_events","fullscreenexit_events","success","view_history","rt","responses","num_errors","age","subject","participantId","rune","rune_set","hex","correct","choice","accuracy","outcome","keys","total_keys","block","practice","value","sub","trial","stimulus","robot","valence","action","sham"
"pavlovia","0","34","0.0-0.0","battery-v0.2","","""event"",""trial"",""time""
""focus"",""0"",""3""
""fullscreenenter"",""1"",""2251""
","
","""event"",""trial"",""time""
""focus"",""0"",""3""
","""event"",""trial"",""time""
""fullscreenenter"",""1"",""2251""
","
","","","","","","","","","","","","","","","","","","","","","","","","","","",""
"fullscreen","1","3006","0.0-1.0","battery-v0.2","","""event"",""trial"",""time""
""focus"",""0"",""3""
""fullscreenenter"",""1"",""2251""
","
","""event"",""trial"",""time""
""focus"",""0"",""3""
","""event"",""trial"",""time""
""fullscreenenter"",""1"",""2251""
","
","true","","","","","","","","","","","","","","","","","","","","","","","","","",""
"pit-instructions","2","8047","0.0-2.0-0.0","battery-v0.2","","""event"",""trial"",""time""
""focus"",""0"",""3""
""fullscreenenter"",""1"",""2251""
","
","""event"",""trial"",""time""
""focus"",""0"",""3""
","""event"",""trial"",""time""
""fullscreenenter"",""1"",""2251""
","
","","[{""page_index"":0,""viewing_time"":5025}]","5025","","","","","","","","","","","","","","","","","","","","","","","",""
"pit-comprehension","3","11349","0.0-2.0-1.0-0.0","battery-v0.2","","""event"",""trial"",""time""
""focus"",""0"",""3""
""fullscreenenter"",""1"",""2251""
","
","""event"",""trial"",""time""
""focus"",""0"",""3""
","""event"",""trial"",""time""
""fullscreenenter"",""1"",""2251""
","
","","","3278","[""shark""]","0","14","5965","3432","","","","","","","","","","","","","","","","","","",""
"pit-instructions","4","13752","0.0-2.0-1.0-1.0","battery-v0.2","","""event"",""trial"",""time""
""focus"",""0"",""3""
""fullscreenenter"",""1"",""2251""
","
","""event"",""trial"",""time""
""focus"",""0"",""3""
","""event"",""trial"",""time""
""fullscreenenter"",""1"",""2251""
","
","","[{""page_index"":0,""viewing_time"":2388}]","2388","","","","","","","","","","","","","","","","","","","","","","","",""
"pit-comprehension","5","17675","0.0-2.0-2.0-0.0","battery-v0.2","","""event"",""trial"",""time""
""focus"",""0"",""3""
""fullscreenenter"",""1"",""2251""
","
","""event"",""trial"",""time""
""focus"",""0"",""3""
","""event"",""trial"",""time""
""fullscreenenter"",""1"",""2251""
","
","","","3914","[""tiger""]","0","14","5965","3432","","","","","","","","","","","","","","","","","","",""
"pit-instructions","6","20088","0.0-2.0-2.0-1.0","battery-v0.2","","""event"",""trial"",""time""
""focus"",""0"",""3""
""fullscreenenter"",""1"",""2251""
","
","""event"",""trial"",""time""
""focus"",""0"",""3""
","""event"",""trial"",""time""
""fullscreenenter"",""1"",""2251""
","
","","[{""page_index"":0,""viewing_time"":2405}]","2407","","","","","","","","","","","","","","","","","","","","","","","",""
"pit-instructions","7","111852","0.0-2.0-3.0","battery-v0.2","","""event"",""trial"",""time""
""focus"",""0"",""3""
""fullscreenenter"",""1"",""2251""
","
","""event"",""trial"",""time""
""focus"",""0"",""3""
","""event"",""trial"",""time""
""fullscreenenter"",""1"",""2251""
","
","","[{""page_index"":0,""viewing_time"":8189},{""page_index"":1,""viewing_time"":6163},{""page_index"":2,""viewing_time"":6210},{""page_index"":3,""viewing_time"":5420},{""page_index"":4,""viewing_time"":6030},{""page_index"":5,""viewing_time"":5439},{""page_index"":6,""viewing_time"":7251},{""page_index"":7,""viewing_time"":6140},{""page_index"":8,""viewing_time"":6268},{""page_index"":9,""viewing_time"":7891},{""page_index"":10,""viewing_time"":7572},{""page_index"":11,""viewing_time"":7248},{""page_index"":12,""viewing_time"":6430},{""page_index"":13,""viewing_time"":5500}]","91753","","","","","","","","","","","","","","","","","","","","","","","",""
"pit-trial","8","115447","0.0-2.0-4.0-0.0","battery-v0.2","","""event"",""trial"",""time""
""focus"",""0"",""3""
""fullscreenenter"",""1"",""2251""
","
","""event"",""trial"",""time""
""focus"",""0"",""3""
","""event"",""trial"",""time""
""fullscreenenter"",""1"",""2251""
","
","","","714","","","14","5965","3432","&#9784;","elianto","#FFFFF080"," "," ","1","&#10004","[1571]","1","0","0","","","","","","","",""
"pit-trial","9","119157","0.0-2.0-4.1-0.1","battery-v0.2","","""event"",""trial"",""time""
""focus"",""0"",""3""
""fullscreenenter"",""1"",""2251""
","
","""event"",""trial"",""time""
""focus"",""0"",""3""
","""event"",""trial"",""time""
""fullscreenenter"",""1"",""2251""
","
","","","841","","","14","5965","3432","&#9784;","elianto","#FFFFF080"," "," ","1","&#10004","[1697]","1","0","0","","","","","","","",""
"pit-trial","10","122727","0.0-2.0-4.2-0.2","battery-v0.2","","""event"",""trial"",""time""
""focus"",""0"",""3""
""fullscreenenter"",""1"",""2251""
","
","""event"",""trial"",""time""
""focus"",""0"",""3""
","""event"",""trial"",""time""
""fullscreenenter"",""1"",""2251""
","
","","","701","","","14","5965","3432","&#9784;","elianto","#FFFFF080"," "," ","1","&#10004","[1554]","1","0","0","","","","","","","",""
"pit-trial","11","126268","0.0-2.0-4.3-0.3","battery-v0.2","","""event"",""trial"",""time""
""focus"",""0"",""3""
""fullscreenenter"",""1"",""2251""
","
","""event"",""trial"",""time""
""focus"",""0"",""3""
","""event"",""trial"",""time""
""fullscreenenter"",""1"",""2251""
","
","","","662","","","14","5965","3432","&#9784;","elianto","#FFFFF080"," "," ","1","&#10004","[1511]","1","0","0","","","","","","","",""
"pit-trial","12","129748","0.0-2.0-4.4-0.4","battery-v0.2","","""event"",""trial"",""time""
""focus"",""0"",""3""
""fullscreenenter"",""1"",""2251""
","
","""event"",""trial"",""time""
""focus"",""0"",""3""
","""event"",""trial"",""time""
""fullscreenenter"",""1"",""2251""
","
","","","582","","","14","5965","3432","&#9784;","elianto","#FFFFF080"," "," ","1","&#10004","[1452]","1","0","0","","","","","","","",""
"pit-instructions","13","150181","0.0-2.0-5.0","battery-v0.2","","""event"",""trial"",""time""
""focus"",""0"",""3""
""fullscreenenter"",""1"",""2251""
","
","""event"",""trial"",""time""
""focus"",""0"",""3""
","""event"",""trial"",""time""
""fullscreenenter"",""1"",""2251""
","
","","[{""page_index"":0,""viewing_time"":4726},{""page_index"":1,""viewing_time"":5033},{""page_index"":2,""viewing_time"":4818},{""page_index"":3,""viewing_time"":5833}]","20410","","","","","","","","","","","","","","","","","","","","","","","",""
"pit-trial","14","155076","0.0-2.0-6.0-0.0","battery-v0.2","","""event"",""trial"",""time""
""focus"",""0"",""3""
""fullscreenenter"",""1"",""2251""
","
","""event"",""trial"",""time""
""focus"",""0"",""3""
","""event"",""trial"",""time""
""fullscreenenter"",""1"",""2251""
","
","","","-1","","","14","5965","3432","&#9854;","elianto","#FFFFF080","-1","-1","1","&#10004","[]","0","0","1","","","","","","","",""
"pit-trial","15","159956","0.0-2.0-6.1-0.1","battery-v0.2","","""event"",""trial"",""time""
""focus"",""0"",""3""
""fullscreenenter"",""1"",""2251""
","
","""event"",""trial"",""time""
""focus"",""0"",""3""
","""event"",""trial"",""time""
""fullscreenenter"",""1"",""2251""
","
","","","-1","","","14","5965","3432","&#9854;","elianto","#FFFFF080","-1","-1","1","&#10004","[]","0","0","1","","","","","","","",""
"pit-trial","16","164836","0.0-2.0-6.2-0.2","battery-v0.2","","""event"",""trial"",""time""
""focus"",""0"",""3""
""fullscreenenter"",""1"",""2251""
","
","""event"",""trial"",""time""
""focus"",""0"",""3""
","""event"",""trial"",""time""
""fullscreenenter"",""1"",""2251""
","
","","","-1","","","14","5965","3432","&#9854;","elianto","#FFFFF080","-1","-1","1","&#10004","[]","0","0","1","","","","","","","",""
"pit-trial","17","169716","0.0-2.0-6.3-0.3","battery-v0.2","","""event"",""trial"",""time""
""focus"",""0"",""3""
""fullscreenenter"",""1"",""2251""
","
","""event"",""trial"",""time""
""focus"",""0"",""3""
","""event"",""trial"",""time""
""fullscreenenter"",""1"",""2251""
","
","","","-1","","","14","5965","3432","&#9854;","elianto","#FFFFF080","-1","-1","1","&#10004","[]","0","0","1","","","","","","","",""
"pit-trial","18","174606","0.0-2.0-6.4-0.4","battery-v0.2","","""event"",""trial"",""time""
""focus"",""0"",""3""
""fullscreenenter"",""1"",""2251""
","
","""event"",""trial"",""time""
""focus"",""0"",""3""
","""event"",""trial"",""time""
""fullscreenenter"",""1"",""2251""
","
","","","-1","","","14","5965","3432","&#9854;","elianto","#FFFFF080","-1","-1","1","&#10004","[]","0","0","1","","","","","","","",""
"pit-instructions","19","287851","0.0-2.0-7.0","battery-v0.2","","""event"",""trial"",""time""
""focus"",""0"",""3""
""fullscreenenter"",""1"",""2251""
","
","""event"",""trial"",""time""
""focus"",""0"",""3""
","""event"",""trial"",""time""
""fullscreenenter"",""1"",""2251""
","
","","[{""page_index"":0,""viewing_time"":5827},{""page_index"":1,""viewing_time"":6805},{""page_index"":2,""viewing_time"":5398},{""page_index"":3,""viewing_time"":6249},{""page_index"":4,""viewing_time"":5428},{""page_index"":5,""viewing_time"":5673},{""page_index"":6,""viewing_time"":4031},{""page_index"":7,""viewing_time"":7779},{""page_index"":8,""viewing_time"":6259},{""page_index"":9,""viewing_time"":5761},{""page_index"":10,""viewing_time"":7310},{""page_index"":11,""viewing_time"":4230},{""page_index"":12,""viewing_time"":6760},{""page_index"":13,""viewing_time"":6959},{""page_index"":14,""viewing_time"":6751},{""page_index"":15,""viewing_time"":8259},{""page_index"":16,""viewing_time"":6534},{""page_index"":17,""viewing_time"":7215}]","113230","","","","","","","","","","","","","","","","","","","","","","","",""
"pit-trial","20","291576","0.0-2.0-8.0-0.0","battery-v0.2","","""event"",""trial"",""time""
""focus"",""0"",""3""
""fullscreenenter"",""1"",""2251""
","
","""event"",""trial"",""time""
""focus"",""0"",""3""
","""event"",""trial"",""time""
""fullscreenenter"",""1"",""2251""
","
","","","821","","","14","5965","3432","&#9776;","elianto","#3366ff99"," "," ","1","+10","[1685]","1","0","1","","","","","","","",""
"pit-trial","21","295246","0.0-2.0-8.0-1.0","battery-v0.2","","""event"",""trial"",""time""
""focus"",""0"",""3""
""fullscreenenter"",""1"",""2251""
","
","""event"",""trial"",""time""
""focus"",""0"",""3""
","""event"",""trial"",""time""
""fullscreenenter"",""1"",""2251""
","
","","","798","","","14","5965","3432","&#9776;","elianto","#3366ff99"," "," ","1","+10","[1655]","1","0","1","","","","","","","",""
"pit-trial","22","298787","0.0-2.0-8.0-2.0","battery-v0.2","","""event"",""trial"",""time""
""focus"",""0"",""3""
""fullscreenenter"",""1"",""2251""
","
","""event"",""trial"",""time""
""focus"",""0"",""3""
","""event"",""trial"",""time""
""fullscreenenter"",""1"",""2251""
","
","","","655","","","14","5965","3432","&#9776;","elianto","#3366ff99"," "," ","1","+10","[1517]","1","0","1","","","","","","","",""
"pit-trial","23","302295","0.0-2.0-8.0-3.0","battery-v0.2","","""event"",""trial"",""time""
""focus"",""0"",""3""
""fullscreenenter"",""1"",""2251""
","
","""event"",""trial"",""time""
""focus"",""0"",""3""
","""event"",""trial"",""time""
""fullscreenenter"",""1"",""2251""
","
","","","622","","","14","5965","3432","&#9776;","elianto","#3366ff99"," "," ","1","0","[1485]","1","0","1","","","","","","","",""
"pit-trial","24","305846","0.0-2.0-8.0-4.0","battery-v0.2","","""event"",""trial"",""time""
""focus"",""0"",""3""
""fullscreenenter"",""1"",""2251""
","
","""event"",""trial"",""time""
""focus"",""0"",""3""
","""event"",""trial"",""time""
""fullscreenenter"",""1"",""2251""
","
","","","666","","","14","5965","3432","&#9776;","elianto","#3366ff99"," "," ","1","+10","[1529]","1","0","1","","","","","","","",""
"pit-trial","25","309485","0.0-2.0-8.1-0.1","battery-v0.2","","""event"",""trial"",""time""
""focus"",""0"",""3""
""fullscreenenter"",""1"",""2251""
","
","""event"",""trial"",""time""
""focus"",""0"",""3""
","""event"",""trial"",""time""
""fullscreenenter"",""1"",""2251""
","
","","","751","","","14","5965","3432","&#9776;","elianto","#3366ff99"," "," ","1","+10","[1612]","1","0","1","","","","","","","",""
"pit-trial","26","313026","0.0-2.0-8.1-1.1","battery-v0.2","","""event"",""trial"",""time""
""focus"",""0"",""3""
""fullscreenenter"",""1"",""2251""
","
","""event"",""trial"",""time""
""focus"",""0"",""3""
","""event"",""trial"",""time""
""fullscreenenter"",""1"",""2251""
","
","","","651","","","14","5965","3432","&#9776;","elianto","#3366ff99"," "," ","1","+10","[1517]","1","0","1","","","","","","","",""
"pit-trial","27","316486","0.0-2.0-8.1-2.1","battery-v0.2","","""event"",""trial"",""time""
""focus"",""0"",""3""
""fullscreenenter"",""1"",""2251""
","
","""event"",""trial"",""time""
""focus"",""0"",""3""
","""event"",""trial"",""time""
""fullscreenenter"",""1"",""2251""
","
","","","575","","","14","5965","3432","&#9776;","elianto","#3366ff99"," "," ","1","+10","[1439]","1","0","1","","","","","","","",""
"pit-trial","28","320135","0.0-2.0-8.1-3.1","battery-v0.2","","""event"",""trial"",""time""
""focus"",""0"",""3""
""fullscreenenter"",""1"",""2251""
","
","""event"",""trial"",""time""
""focus"",""0"",""3""
","""event"",""trial"",""time""
""fullscreenenter"",""1"",""2251""
","
","","","789","","","14","5965","3432","&#9776;","elianto","#3366ff99"," "," ","1","0","[1643]","1","0","1","","","","","","","",""
"pit-trial","29","323525","0.0-2.0-8.1-4.1","battery-v0.2","","""event"",""trial"",""time""
""focus"",""0"",""3""
""fullscreenenter"",""1"",""2251""
","
","""event"",""trial"",""time""
""focus"",""0"",""3""
","""event"",""trial"",""time""
""fullscreenenter"",""1"",""2251""
","
","","","526","","","14","5965","3432","&#9776;","elianto","#3366ff99"," "," ","1","+10","[1376]","1","0","1","","","","","","","",""
"pit-trial","30","326977","0.0-2.0-8.2-0.2","battery-v0.2","","""event"",""trial"",""time""
""focus"",""0"",""3""
""fullscreenenter"",""1"",""2251""
","
","""event"",""trial"",""time""
""focus"",""0"",""3""
","""event"",""trial"",""time""
""fullscreenenter"",""1"",""2251""
","
","","","580","","","14","5965","3432","&#9776;","elianto","#3366ff99"," "," ","1","+10","[1436]","1","0","1","","","","","","","",""
"pit-trial","31","330346","0.0-2.0-8.2-1.2","battery-v0.2","","""event"",""trial"",""time""
""focus"",""0"",""3""
""fullscreenenter"",""1"",""2251""
","
","""event"",""trial"",""time""
""focus"",""0"",""3""
","""event"",""trial"",""time""
""fullscreenenter"",""1"",""2251""
","
","","","486","","","14","5965","3432","&#9776;","elianto","#3366ff99"," "," ","1","+10","[1349]","1","0","1","","","","","","","",""
"pit-trial","32","333835","0.0-2.0-8.2-2.2","battery-v0.2","","""event"",""trial"",""time""
""focus"",""0"",""3""
""fullscreenenter"",""1"",""2251""
","
","""event"",""trial"",""time""
""focus"",""0"",""3""
","""event"",""trial"",""time""
""fullscreenenter"",""1"",""2251""
","
","","","607","","","14","5965","3432","&#9776;","elianto","#3366ff99"," "," ","1","+10","[1471]","1","0","1","","","","","","","",""
"pit-trial","33","337137","0.0-2.0-8.2-3.2","battery-v0.2","","""event"",""trial"",""time""
""focus"",""0"",""3""
""fullscreenenter"",""1"",""2251""
","
","""event"",""trial"",""time""
""focus"",""0"",""3""
","""event"",""trial"",""time""
""fullscreenenter"",""1"",""2251""
","
","","","416","","","14","5965","3432","&#9776;","elianto","#3366ff99"," "," ","1","0","[1280]","1","0","1","","","","","","","",""
"pit-trial","34","340696","0.0-2.0-8.2-4.2","battery-v0.2","","""event"",""trial"",""time""
""focus"",""0"",""3""
""fullscreenenter"",""1"",""2251""
","
","""event"",""trial"",""time""
""focus"",""0"",""3""
","""event"",""trial"",""time""
""fullscreenenter"",""1"",""2251""
","
","","","699","","","14","5965","3432","&#9776;","elianto","#3366ff99"," "," ","1","+10","[1551]","1","0","1","","","","","","","",""
"call-function","35","340701","0.0-2.0-9.0","battery-v0.2","","""event"",""trial"",""time""
""focus"",""0"",""3""
""fullscreenenter"",""1"",""2251""
","
","""event"",""trial"",""time""
""focus"",""0"",""3""
","""event"",""trial"",""time""
""fullscreenenter"",""1"",""2251""
","
","","","","","","","","","","","","","","","","","","","","","","","","","","",""
"pit-instructions","36","384147","0.0-2.0-10.0","battery-v0.2","","""event"",""trial"",""time""
""focus"",""0"",""3""
""fullscreenenter"",""1"",""2251""
","
","""event"",""trial"",""time""
""focus"",""0"",""3""
","""event"",""trial"",""time""
""fullscreenenter"",""1"",""2251""
","
","","[{""page_index"":0,""viewing_time"":8783},{""page_index"":1,""viewing_time"":9273},{""page_index"":2,""viewing_time"":9160},{""page_index"":3,""viewing_time"":8800},{""page_index"":4,""viewing_time"":7427}]","43444","","","","","","","","","","","","","","","","","","","","","","","",""
"pit-trial","37","387815","0.0-2.0-11.0-0.0","battery-v0.2","","""event"",""trial"",""time""
""focus"",""0"",""3""
""fullscreenenter"",""1"",""2251""
","
","""event"",""trial"",""time""
""focus"",""0"",""3""
","""event"",""trial"",""time""
""fullscreenenter"",""1"",""2251""
","
","","","783","","","14","5965","3432","&#9761;","elianto","#3366ff99","-1"," ","0","0","[1645]","1","0","2","","","","","","","",""
"pit-trial","38","391426","0.0-2.0-11.0-1.0","battery-v0.2","","""event"",""trial"",""time""
""focus"",""0"",""3""
""fullscreenenter"",""1"",""2251""
","
","""event"",""trial"",""time""
""focus"",""0"",""3""
","""event"",""trial"",""time""
""fullscreenenter"",""1"",""2251""
","
","","","744","","","14","5965","3432","&#9761;","elianto","#3366ff99","-1"," ","0","0","[1598]","1","0","2","","","","","","","",""
"pit-trial","39","395026","0.0-2.0-11.0-2.0","battery-v0.2","","""event"",""trial"",""time""
""focus"",""0"",""3""
""fullscreenenter"",""1"",""2251""
","
","""event"",""trial"",""time""
""focus"",""0"",""3""
","""event"",""trial"",""time""
""fullscreenenter"",""1"",""2251""
","
","","","720","","","14","5965","3432","&#9761;","elianto","#3366ff99","-1"," ","0","0","[1585]","1","0","2","","","","","","","",""
"pit-trial","40","399915","0.0-2.0-11.0-3.0","battery-v0.2","","""event"",""trial"",""time""
""focus"",""0"",""3""
""fullscreenenter"",""1"",""2251""
","
","""event"",""trial"",""time""
""focus"",""0"",""3""
","""event"",""trial"",""time""
""fullscreenenter"",""1"",""2251""
","
","","","-1","","","14","5965","3432","&#9761;","elianto","#3366ff99","-1","-1","1","0","[]","0","0","2","","","","","","","",""
"pit-trial","41","404807","0.0-2.0-11.0-4.0","battery-v0.2","","""event"",""trial"",""time""
""focus"",""0"",""3""
""fullscreenenter"",""1"",""2251""
","
","""event"",""trial"",""time""
""focus"",""0"",""3""
","""event"",""trial"",""time""
""fullscreenenter"",""1"",""2251""
","
","","","-1","","","14","5965","3432","&#9761;","elianto","#3366ff99","-1","-1","1","+10","[]","0","0","2","","","","","","","",""
"pit-trial","42","409695","0.0-2.0-11.1-0.1","battery-v0.2","","""event"",""trial"",""time""
""focus"",""0"",""3""
""fullscreenenter"",""1"",""2251""
","
","""event"",""trial"",""time""
""focus"",""0"",""3""
","""event"",""trial"",""time""
""fullscreenenter"",""1"",""2251""
","
","","","-1","","","14","5965","3432","&#9761;","elianto","#3366ff99","-1","-1","1","+10","[]","0","0","2","","","","","","","",""
"pit-trial","43","414566","0.0-2.0-11.1-1.1","battery-v0.2","","""event"",""trial"",""time""
""focus"",""0"",""3""
""fullscreenenter"",""1"",""2251""
","
","""event"",""trial"",""time""
""focus"",""0"",""3""
","""event"",""trial"",""time""
""fullscreenenter"",""1"",""2251""
","
","","","-1","","","14","5965","3432","&#9761;","elianto","#3366ff99","-1","-1","1","+10","[]","0","0","2","","","","","","","",""
"pit-trial","44","419445","0.0-2.0-11.1-2.1","battery-v0.2","","""event"",""trial"",""time""
""focus"",""0"",""3""
""fullscreenenter"",""1"",""2251""
","
","""event"",""trial"",""time""
""focus"",""0"",""3""
","""event"",""trial"",""time""
""fullscreenenter"",""1"",""2251""
","
","","","-1","","","14","5965","3432","&#9761;","elianto","#3366ff99","-1","-1","1","+10","[]","0","0","2","","","","","","","",""
"pit-trial","45","424326","0.0-2.0-11.1-3.1","battery-v0.2","","""event"",""trial"",""time""
""focus"",""0"",""3""
""fullscreenenter"",""1"",""2251""
","
","""event"",""trial"",""time""
""focus"",""0"",""3""
","""event"",""trial"",""time""
""fullscreenenter"",""1"",""2251""
","
","","","-1","","","14","5965","3432","&#9761;","elianto","#3366ff99","-1","-1","1","0","[]","0","0","2","","","","","","","",""
"pit-trial","46","429206","0.0-2.0-11.1-4.1","battery-v0.2","","""event"",""trial"",""time""
""focus"",""0"",""3""
""fullscreenenter"",""1"",""2251""
","
","""event"",""trial"",""time""
""focus"",""0"",""3""
","""event"",""trial"",""time""
""fullscreenenter"",""1"",""2251""
","
","","","-1","","","14","5965","3432","&#9761;","elianto","#3366ff99","-1","-1","1","+10","[]","0","0","2","","","","","","","",""
"pit-trial","47","434096","0.0-2.0-11.2-0.2","battery-v0.2","","""event"",""trial"",""time""
""focus"",""0"",""3""
""fullscreenenter"",""1"",""2251""
","
","""event"",""trial"",""time""
""focus"",""0"",""3""
","""event"",""trial"",""time""
""fullscreenenter"",""1"",""2251""
","
","","","-1","","","14","5965","3432","&#9761;","elianto","#3366ff99","-1","-1","1","+10","[]","0","0","2","","","","","","","",""
"pit-trial","48","438977","0.0-2.0-11.2-1.2","battery-v0.2","","""event"",""trial"",""time""
""focus"",""0"",""3""
""fullscreenenter"",""1"",""2251""
","
","""event"",""trial"",""time""
""focus"",""0"",""3""
","""event"",""trial"",""time""
""fullscreenenter"",""1"",""2251""
","
","","","-1","","","14","5965","3432","&#9761;","elianto","#3366ff99","-1","-1","1","+10","[]","0","0","2","","","","","","","",""
"pit-trial","49","443845","0.0-2.0-11.2-2.2","battery-v0.2","","""event"",""trial"",""time""
""focus"",""0"",""3""
""fullscreenenter"",""1"",""2251""
","
","""event"",""trial"",""time""
""focus"",""0"",""3""
","""event"",""trial"",""time""
""fullscreenenter"",""1"",""2251""
","
","","","-1","","","14","5965","3432","&#9761;","elianto","#3366ff99","-1","-1","1","+10","[]","0","0","2","","","","","","","",""
"pit-trial","50","448728","0.0-2.0-11.2-3.2","battery-v0.2","","""event"",""trial"",""time""
""focus"",""0"",""3""
""fullscreenenter"",""1"",""2251""
","
","""event"",""trial"",""time""
""focus"",""0"",""3""
","""event"",""trial"",""time""
""fullscreenenter"",""1"",""2251""
","
","","","-1","","","14","5965","3432","&#9761;","elianto","#3366ff99","-1","-1","1","0","[]","0","0","2","","","","","","","",""
"pit-trial","51","453605","0.0-2.0-11.2-4.2","battery-v0.2","","""event"",""trial"",""time""
""focus"",""0"",""3""
""fullscreenenter"",""1"",""2251""
","
","""event"",""trial"",""time""
""focus"",""0"",""3""
","""event"",""trial"",""time""
""fullscreenenter"",""1"",""2251""
","
","","","-1","","","14","5965","3432","&#9761;","elianto","#3366ff99","-1","-1","1","+10","[]","0","0","2","","","","","","","",""
"pit-trial","52","458486","0.0-2.0-11.3-0.3","battery-v0.2","","""event"",""trial"",""time""
""focus"",""0"",""3""
""fullscreenenter"",""1"",""2251""
","
","""event"",""trial"",""time""
""focus"",""0"",""3""
","""event"",""trial"",""time""
""fullscreenenter"",""1"",""2251""
","
","","","-1","","","14","5965","3432","&#9761;","elianto","#3366ff99","-1","-1","1","+10","[]","0","0","2","","","","","","","",""
"pit-trial","53","463367","0.0-2.0-11.3-1.3","battery-v0.2","","""event"",""trial"",""time""
""focus"",""0"",""3""
""fullscreenenter"",""1"",""2251""
","
","""event"",""trial"",""time""
""focus"",""0"",""3""
","""event"",""trial"",""time""
""fullscreenenter"",""1"",""2251""
","
","","","-1","","","14","5965","3432","&#9761;","elianto","#3366ff99","-1","-1","1","+10","[]","0","0","2","","","","","","","",""
"pit-trial","54","468245","0.0-2.0-11.3-2.3","battery-v0.2","","""event"",""trial"",""time""
""focus"",""0"",""3""
""fullscreenenter"",""1"",""2251""
","
","""event"",""trial"",""time""
""focus"",""0"",""3""
","""event"",""trial"",""time""
""fullscreenenter"",""1"",""2251""
","
","","","-1","","","14","5965","3432","&#9761;","elianto","#3366ff99","-1","-1","1","+10","[]","0","0","2","","","","","","","",""
"pit-trial","55","473136","0.0-2.0-11.3-3.3","battery-v0.2","","""event"",""trial"",""time""
""focus"",""0"",""3""
""fullscreenenter"",""1"",""2251""
","
","""event"",""trial"",""time""
""focus"",""0"",""3""
","""event"",""trial"",""time""
""fullscreenenter"",""1"",""2251""
","
","","","-1","","","14","5965","3432","&#9761;","elianto","#3366ff99","-1","-1","1","0","[]","0","0","2","","","","","","","",""
"pit-trial","56","478006","0.0-2.0-11.3-4.3","battery-v0.2","","""event"",""trial"",""time""
""focus"",""0"",""3""
""fullscreenenter"",""1"",""2251""
","
","""event"",""trial"",""time""
""focus"",""0"",""3""
","""event"",""trial"",""time""
""fullscreenenter"",""1"",""2251""
","
","","","-1","","","14","5965","3432","&#9761;","elianto","#3366ff99","-1","-1","1","+10","[]","0","0","2","","","","","","","",""
"call-function","57","478010","0.0-2.0-12.0","battery-v0.2","","""event"",""trial"",""time""
""focus"",""0"",""3""
""fullscreenenter"",""1"",""2251""
","
","""event"",""trial"",""time""
""focus"",""0"",""3""
","""event"",""trial"",""time""
""fullscreenenter"",""1"",""2251""
","
","","","","","","","","","","","","","","","","","","","","","","","","","","",""
"pit-instructions","58","509721","0.0-2.0-13.0","battery-v0.2","","""event"",""trial"",""time""
""focus"",""0"",""3""
""fullscreenenter"",""1"",""2251""
","
","""event"",""trial"",""time""
""focus"",""0"",""3""
","""event"",""trial"",""time""
""fullscreenenter"",""1"",""2251""
","
","","[{""page_index"":0,""viewing_time"":5444},{""page_index"":1,""viewing_time"":7263},{""page_index"":2,""viewing_time"":3470},{""page_index"":3,""viewing_time"":10170},{""page_index"":4,""viewing_time"":5361}]","31709","","","","","","","","","","","","","","","","","","","","","","","",""
"pit-trial","59","513395","0.0-2.0-14.0-0.0","battery-v0.2","","""event"",""trial"",""time""
""focus"",""0"",""3""
""fullscreenenter"",""1"",""2251""
","
","""event"",""trial"",""time""
""focus"",""0"",""3""
","""event"",""trial"",""time""
""fullscreenenter"",""1"",""2251""
","
","","","791","","","14","5965","3432","&#9826;","elianto","#f73b6a7A","-1"," ","0","-10","[1654]","1","0","3","","","","","","","",""
"pit-trial","60","517015","0.0-2.0-14.0-1.0","battery-v0.2","","""event"",""trial"",""time""
""focus"",""0"",""3""
""fullscreenenter"",""1"",""2251""
","
","""event"",""trial"",""time""
""focus"",""0"",""3""
","""event"",""trial"",""time""
""fullscreenenter"",""1"",""2251""
","
","","","758","","","14","5965","3432","&#9826;","elianto","#f73b6a7A","-1"," ","0","-10","[1615]","1","0","3","","","","","","","",""
"pit-trial","61","521895","0.0-2.0-14.0-2.0","battery-v0.2","","""event"",""trial"",""time""
""focus"",""0"",""3""
""fullscreenenter"",""1"",""2251""
","
","""event"",""trial"",""time""
""focus"",""0"",""3""
","""event"",""trial"",""time""
""fullscreenenter"",""1"",""2251""
","
","","","-1","","","14","5965","3432","&#9826;","elianto","#f73b6a7A","-1","-1","1","0","[]","0","0","3","","","","","","","",""
"pit-trial","62","526776","0.0-2.0-14.0-3.0","battery-v0.2","","""event"",""trial"",""time""
""focus"",""0"",""3""
""fullscreenenter"",""1"",""2251""
","
","""event"",""trial"",""time""
""focus"",""0"",""3""
","""event"",""trial"",""time""
""fullscreenenter"",""1"",""2251""
","
","","","-1","","","14","5965","3432","&#9826;","elianto","#f73b6a7A","-1","-1","1","-10","[]","0","0","3","","","","","","","",""
"pit-trial","63","531655","0.0-2.0-14.0-4.0","battery-v0.2","","""event"",""trial"",""time""
""focus"",""0"",""3""
""fullscreenenter"",""1"",""2251""
","
","""event"",""trial"",""time""
""focus"",""0"",""3""
","""event"",""trial"",""time""
""fullscreenenter"",""1"",""2251""
","
","","","-1","","","14","5965","3432","&#9826;","elianto","#f73b6a7A","-1","-1","1","0","[]","0","0","3","","","","","","","",""
"pit-trial","64","536537","0.0-2.0-14.1-0.1","battery-v0.2","","""event"",""trial"",""time""
""focus"",""0"",""3""
""fullscreenenter"",""1"",""2251""
","
","""event"",""trial"",""time""
""focus"",""0"",""3""
","""event"",""trial"",""time""
""fullscreenenter"",""1"",""2251""
","
","","","-1","","","14","5965","3432","&#9826;","elianto","#f73b6a7A","-1","-1","1","0","[]","0","0","3","","","","","","","",""
"pit-trial","65","541416","0.0-2.0-14.1-1.1","battery-v0.2","","""event"",""trial"",""time""
""focus"",""0"",""3""
""fullscreenenter"",""1"",""2251""
","
","""event"",""trial"",""time""
""focus"",""0"",""3""
","""event"",""trial"",""time""
""fullscreenenter"",""1"",""2251""
","
","","","-1","","","14","5965","3432","&#9826;","elianto","#f73b6a7A","-1","-1","1","0","[]","0","0","3","","","","","","","",""
"pit-trial","66","546305","0.0-2.0-14.1-2.1","battery-v0.2","","""event"",""trial"",""time""
""focus"",""0"",""3""
""fullscreenenter"",""1"",""2251""
","
","""event"",""trial"",""time""
""focus"",""0"",""3""
","""event"",""trial"",""time""
""fullscreenenter"",""1"",""2251""
","
","","","-1","","","14","5965","3432","&#9826;","elianto","#f73b6a7A","-1","-1","1","0","[]","0","0","3","","","","","","","",""
"pit-trial","67","551195","0.0-2.0-14.1-3.1","battery-v0.2","","""event"",""trial"",""time""
""focus"",""0"",""3""
""fullscreenenter"",""1"",""2251""
","
","""event"",""trial"",""time""
""focus"",""0"",""3""
","""event"",""trial"",""time""
""fullscreenenter"",""1"",""2251""
","
","","","-1","","","14","5965","3432","&#9826;","elianto","#f73b6a7A","-1","-1","1","-10","[]","0","0","3","","","","","","","",""
"pit-trial","68","556087","0.0-2.0-14.1-4.1","battery-v0.2","","""event"",""trial"",""time""
""focus"",""0"",""3""
""fullscreenenter"",""1"",""2251""
","
","""event"",""trial"",""time""
""focus"",""0"",""3""
","""event"",""trial"",""time""
""fullscreenenter"",""1"",""2251""
","
","","","-1","","","14","5965","3432","&#9826;","elianto","#f73b6a7A","-1","-1","1","0","[]","0","0","3","","","","","","","",""
"pit-trial","69","560977","0.0-2.0-14.2-0.2","battery-v0.2","","""event"",""trial"",""time""
""focus"",""0"",""3""
""fullscreenenter"",""1"",""2251""
","
","""event"",""trial"",""time""
""focus"",""0"",""3""
","""event"",""trial"",""time""
""fullscreenenter"",""1"",""2251""
","
","","","-1","","","14","5965","3432","&#9826;","elianto","#f73b6a7A","-1","-1","1","0","[]","0","0","3","","","","","","","",""
"pit-trial","70","565866","0.0-2.0-14.2-1.2","battery-v0.2","","""event"",""trial"",""time""
""focus"",""0"",""3""
""fullscreenenter"",""1"",""2251""
","
","""event"",""trial"",""time""
""focus"",""0"",""3""
","""event"",""trial"",""time""
""fullscreenenter"",""1"",""2251""
","
","","","-1","","","14","5965","3432","&#9826;","elianto","#f73b6a7A","-1","-1","1","0","[]","0","0","3","","","","","","","",""
"pit-trial","71","570746","0.0-2.0-14.2-2.2","battery-v0.2","","""event"",""trial"",""time""
""focus"",""0"",""3""
""fullscreenenter"",""1"",""2251""
","
","""event"",""trial"",""time""
""focus"",""0"",""3""
","""event"",""trial"",""time""
""fullscreenenter"",""1"",""2251""
","
","","","-1","","","14","5965","3432","&#9826;","elianto","#f73b6a7A","-1","-1","1","0","[]","0","0","3","","","","","","","",""
"pit-trial","72","575626","0.0-2.0-14.2-3.2","battery-v0.2","","""event"",""trial"",""time""
""focus"",""0"",""3""
""fullscreenenter"",""1"",""2251""
","
","""event"",""trial"",""time""
""focus"",""0"",""3""
","""event"",""trial"",""time""
""fullscreenenter"",""1"",""2251""
","
","","","-1","","","14","5965","3432","&#9826;","elianto","#f73b6a7A","-1","-1","1","-10","[]","0","0","3","","","","","","","",""
"pit-trial","73","580506","0.0-2.0-14.2-4.2","battery-v0.2","","""event"",""trial"",""time""
""focus"",""0"",""3""
""fullscreenenter"",""1"",""2251""
","
","""event"",""trial"",""time""
""focus"",""0"",""3""
","""event"",""trial"",""time""
""fullscreenenter"",""1"",""2251""
","
","","","-1","","","14","5965","3432","&#9826;","elianto","#f73b6a7A","-1","-1","1","0","[]","0","0","3","","","","","","","",""
"pit-trial","74","585387","0.0-2.0-14.3-0.3","battery-v0.2","","""event"",""trial"",""time""
""focus"",""0"",""3""
""fullscreenenter"",""1"",""2251""
","
","""event"",""trial"",""time""
""focus"",""0"",""3""
","""event"",""trial"",""time""
""fullscreenenter"",""1"",""2251""
","
","","","-1","","","14","5965","3432","&#9826;","elianto","#f73b6a7A","-1","-1","1","0","[]","0","0","3","","","","","","","",""
"pit-trial","75","590265","0.0-2.0-14.3-1.3","battery-v0.2","","""event"",""trial"",""time""
""focus"",""0"",""3""
""fullscreenenter"",""1"",""2251""
","
","""event"",""trial"",""time""
""focus"",""0"",""3""
","""event"",""trial"",""time""
""fullscreenenter"",""1"",""2251""
","
","","","-1","","","14","5965","3432","&#9826;","elianto","#f73b6a7A","-1","-1","1","0","[]","0","0","3","","","","","","","",""
"pit-trial","76","595136","0.0-2.0-14.3-2.3","battery-v0.2","","""event"",""trial"",""time""
""focus"",""0"",""3""
""fullscreenenter"",""1"",""2251""
","
","""event"",""trial"",""time""
""focus"",""0"",""3""
","""event"",""trial"",""time""
""fullscreenenter"",""1"",""2251""
","
","","","-1","","","14","5965","3432","&#9826;","elianto","#f73b6a7A","-1","-1","1","0","[]","0","0","3","","","","","","","",""
"pit-trial","77","600016","0.0-2.0-14.3-3.3","battery-v0.2","","""event"",""trial"",""time""
""focus"",""0"",""3""
""fullscreenenter"",""1"",""2251""
","
","""event"",""trial"",""time""
""focus"",""0"",""3""
","""event"",""trial"",""time""
""fullscreenenter"",""1"",""2251""
","
","","","-1","","","14","5965","3432","&#9826;","elianto","#f73b6a7A","-1","-1","1","-10","[]","0","0","3","","","","","","","",""
"pit-trial","78","604880","0.0-2.0-14.3-4.3","battery-v0.2","","""event"",""trial"",""time""
""focus"",""0"",""3""
""fullscreenenter"",""1"",""2251""
","
","""event"",""trial"",""time""
""focus"",""0"",""3""
","""event"",""trial"",""time""
""fullscreenenter"",""1"",""2251""
","
","","","-1","","","14","5965","3432","&#9826;","elianto","#f73b6a7A","-1","-1","1","0","[]","0","0","3","","","","","","","",""
"call-function","79","604883","0.0-2.0-15.0","battery-v0.2","","""event"",""trial"",""time""
""focus"",""0"",""3""
""fullscreenenter"",""1"",""2251""
","
","""event"",""trial"",""time""
""focus"",""0"",""3""
","""event"",""trial"",""time""
""fullscreenenter"",""1"",""2251""
","
","","","","","","","","","","","","","","","","","","","","","","","","","","",""
"pit-instructions","80","631151","0.0-2.0-16.0","battery-v0.2","","""event"",""trial"",""time""
""focus"",""0"",""3""
""fullscreenenter"",""1"",""2251""
","
","""event"",""trial"",""time""
""focus"",""0"",""3""
","""event"",""trial"",""time""
""fullscreenenter"",""1"",""2251""
","
","","[{""page_index"":0,""viewing_time"":6690},{""page_index"":1,""viewing_time"":9173},{""page_index"":2,""viewing_time"":4839},{""page_index"":3,""viewing_time"":5562}]","26264","","","","","","","","","","","","","","","","","","","","","","","",""
"pit-trial","81","634627","0.0-2.0-17.0-0.0","battery-v0.2","","""event"",""trial"",""time""
""focus"",""0"",""3""
""fullscreenenter"",""1"",""2251""
","
","""event"",""trial"",""time""
""focus"",""0"",""3""
","""event"",""trial"",""time""
""fullscreenenter"",""1"",""2251""
","
","","","600","","","14","5965","3432","&#9789;","elianto","#f73b6a7A"," "," ","1","0","[1452]","1","0","4","","","","","","","",""
"pit-trial","82","638016","0.0-2.0-17.0-1.0","battery-v0.2","","""event"",""trial"",""time""
""focus"",""0"",""3""
""fullscreenenter"",""1"",""2251""
","
","""event"",""trial"",""time""
""focus"",""0"",""3""
","""event"",""trial"",""time""
""fullscreenenter"",""1"",""2251""
","
","","","519","","","14","5965","3432","&#9789;","elianto","#f73b6a7A"," "," ","1","0","[1372]","1","0","4","","","","","","","",""
"pit-trial","83","641925","0.0-2.0-17.0-2.0","battery-v0.2","","""event"",""trial"",""time""
""focus"",""0"",""3""
""fullscreenenter"",""1"",""2251""
","
","""event"",""trial"",""time""
""focus"",""0"",""3""
","""event"",""trial"",""time""
""fullscreenenter"",""1"",""2251""
","
","","","1022","","","14","5965","3432","&#9789;","elianto","#f73b6a7A"," "," ","1","0","[1887]","1","0","4","","","","","","","",""
"pit-trial","84","645236","0.0-2.0-17.0-3.0","battery-v0.2","","""event"",""trial"",""time""
""focus"",""0"",""3""
""fullscreenenter"",""1"",""2251""
","
","""event"",""trial"",""time""
""focus"",""0"",""3""
","""event"",""trial"",""time""
""fullscreenenter"",""1"",""2251""
","
","","","449","","","14","5965","3432","&#9789;","elianto","#f73b6a7A"," "," ","1","-10","[1303]","1","0","4","","","","","","","",""
"pit-trial","85","648896","0.0-2.0-17.0-4.0","battery-v0.2","","""event"",""trial"",""time""
""focus"",""0"",""3""
""fullscreenenter"",""1"",""2251""
","
","""event"",""trial"",""time""
""focus"",""0"",""3""
","""event"",""trial"",""time""
""fullscreenenter"",""1"",""2251""
","
","","","770","","","14","5965","3432","&#9789;","elianto","#f73b6a7A"," "," ","1","0","[1632]","1","0","4","","","","","","","",""
"pit-trial","86","652256","0.0-2.0-17.1-0.1","battery-v0.2","","""event"",""trial"",""time""
""focus"",""0"",""3""
""fullscreenenter"",""1"",""2251""
","
","""event"",""trial"",""time""
""focus"",""0"",""3""
","""event"",""trial"",""time""
""fullscreenenter"",""1"",""2251""
","
","","","480","","","14","5965","3432","&#9789;","elianto","#f73b6a7A"," "," ","1","0","[1333]","1","0","4","","","","","","","",""
"pit-trial","87","655584","0.0-2.0-17.1-1.1","battery-v0.2","","""event"",""trial"",""time""
""focus"",""0"",""3""
""fullscreenenter"",""1"",""2251""
","
","""event"",""trial"",""time""
""focus"",""0"",""3""
","""event"",""trial"",""time""
""fullscreenenter"",""1"",""2251""
","
","","","444","","","14","5965","3432","&#9789;","elianto","#f73b6a7A"," "," ","1","0","[1309]","1","0","4","","","","","","","",""
"pit-trial","88","659014","0.0-2.0-17.1-2.1","battery-v0.2","","""event"",""trial"",""time""
""focus"",""0"",""3""
""fullscreenenter"",""1"",""2251""
","
","""event"",""trial"",""time""
""focus"",""0"",""3""
","""event"",""trial"",""time""
""fullscreenenter"",""1"",""2251""
","
","","","562","","","14","5965","3432","&#9789;","elianto","#f73b6a7A"," "," ","1","0","[1413]","1","0","4","","","","","","","",""
"pit-trial","89","662335","0.0-2.0-17.1-3.1","battery-v0.2","","""event"",""trial"",""time""
""focus"",""0"",""3""
""fullscreenenter"",""1"",""2251""
","
","""event"",""trial"",""time""
""focus"",""0"",""3""
","""event"",""trial"",""time""
""fullscreenenter"",""1"",""2251""
","
","","","454","","","14","5965","3432","&#9789;","elianto","#f73b6a7A"," "," ","1","-10","[1310]","1","0","4","","","","","","","",""
"pit-trial","90","665706","0.0-2.0-17.1-4.1","battery-v0.2","","""event"",""trial"",""time""
""focus"",""0"",""3""
""fullscreenenter"",""1"",""2251""
","
","""event"",""trial"",""time""
""focus"",""0"",""3""
","""event"",""trial"",""time""
""fullscreenenter"",""1"",""2251""
","
","","","492","","","14","5965","3432","&#9789;","elianto","#f73b6a7A"," "," ","1","0","[1356]","1","0","4","","","","","","","",""
"pit-trial","91","669005","0.0-2.0-17.2-0.2","battery-v0.2","","""event"",""trial"",""time""
""focus"",""0"",""3""
""fullscreenenter"",""1"",""2251""
","
","""event"",""trial"",""time""
""focus"",""0"",""3""
","""event"",""trial"",""time""
""fullscreenenter"",""1"",""2251""
","
","","","433","","","14","5965","3432","&#9789;","elianto","#f73b6a7A"," "," ","1","0","[1286]","1","0","4","","","","","","","",""
"pit-trial","92","672326","0.0-2.0-17.2-1.2","battery-v0.2","","""event"",""trial"",""time""
""focus"",""0"",""3""
""fullscreenenter"",""1"",""2251""
","
","""event"",""trial"",""time""
""focus"",""0"",""3""
","""event"",""trial"",""time""
""fullscreenenter"",""1"",""2251""
","
","","","454","","","14","5965","3432","&#9789;","elianto","#f73b6a7A"," "," ","1","0","[1309]","1","0","4","","","","","","","",""
"pit-trial","93","675935","0.0-2.0-17.2-2.2","battery-v0.2","","""event"",""trial"",""time""
""focus"",""0"",""3""
""fullscreenenter"",""1"",""2251""
","
","""event"",""trial"",""time""
""focus"",""0"",""3""
","""event"",""trial"",""time""
""fullscreenenter"",""1"",""2251""
","
","","","739","","","14","5965","3432","&#9789;","elianto","#f73b6a7A"," "," ","1","0","[1593]","1","0","4","","","","","","","",""
"pit-trial","94","679555","0.0-2.0-17.2-3.2","battery-v0.2","","""event"",""trial"",""time""
""focus"",""0"",""3""
""fullscreenenter"",""1"",""2251""
","
","""event"",""trial"",""time""
""focus"",""0"",""3""
","""event"",""trial"",""time""
""fullscreenenter"",""1"",""2251""
","
","","","737","","","14","5965","3432","&#9789;","elianto","#f73b6a7A"," "," ","1","-10","[1596]","1","0","4","","","","","","","",""
"pit-trial","95","683295","0.0-2.0-17.2-4.2","battery-v0.2","","""event"",""trial"",""time""
""focus"",""0"",""3""
""fullscreenenter"",""1"",""2251""
","
","""event"",""trial"",""time""
""focus"",""0"",""3""
","""event"",""trial"",""time""
""fullscreenenter"",""1"",""2251""
","
","","","876","","","14","5965","3432","&#9789;","elianto","#f73b6a7A"," "," ","1","0","[1732]","1","0","4","","","","","","","",""
"pit-trial","96","686264","0.0-2.0-17.3-0.3","battery-v0.2","","""event"",""trial"",""time""
""focus"",""0"",""3""
""fullscreenenter"",""1"",""2251""
","
","""event"",""trial"",""time""
""focus"",""0"",""3""
","""event"",""trial"",""time""
""fullscreenenter"",""1"",""2251""
","
","","","84","","","14","5965","3432","&#9789;","elianto","#f73b6a7A"," "," ","1","0","[963]","1","0","4","","","","","","","",""
"pit-trial","97","689577","0.0-2.0-17.3-1.3","battery-v0.2","","""event"",""trial"",""time""
""focus"",""0"",""3""
""fullscreenenter"",""1"",""2251""
","
","""event"",""trial"",""time""
""focus"",""0"",""3""
","""event"",""trial"",""time""
""fullscreenenter"",""1"",""2251""
","
","","","438","","","14","5965","3432","&#9789;","elianto","#f73b6a7A"," "," ","1","0","[1295]","1","0","4","","","","","","","",""
"pit-trial","98","692866","0.0-2.0-17.3-2.3","battery-v0.2","","""event"",""trial"",""time""
""focus"",""0"",""3""
""fullscreenenter"",""1"",""2251""
","
","""event"",""trial"",""time""
""focus"",""0"",""3""
","""event"",""trial"",""time""
""fullscreenenter"",""1"",""2251""
","
","","","411","","","14","5965","3432","&#9789;","elianto","#f73b6a7A"," "," ","1","0","[1267]","1","0","4","","","","","","","",""
"pit-trial","99","696226","0.0-2.0-17.3-3.3","battery-v0.2","","""event"",""trial"",""time""
""focus"",""0"",""3""
""fullscreenenter"",""1"",""2251""
","
","""event"",""trial"",""time""
""focus"",""0"",""3""
","""event"",""trial"",""time""
""fullscreenenter"",""1"",""2251""
","
","","","479","","","14","5965","3432","&#9789;","elianto","#f73b6a7A"," "," ","1","-10","[1343]","1","0","4","","","","","","","",""
"pit-trial","100","699555","0.0-2.0-17.3-4.3","battery-v0.2","","""event"",""trial"",""time""
""focus"",""0"",""3""
""fullscreenenter"",""1"",""2251""
","
","""event"",""trial"",""time""
""focus"",""0"",""3""
","""event"",""trial"",""time""
""fullscreenenter"",""1"",""2251""
","
","","","461","","","14","5965","3432","&#9789;","elianto","#f73b6a7A"," "," ","1","0","[1315]","1","0","4","","","","","","","",""
"call-function","101","699558","0.0-2.0-18.0","battery-v0.2","","""event"",""trial"",""time""
""focus"",""0"",""3""
""fullscreenenter"",""1"",""2251""
","
","""event"",""trial"",""time""
""focus"",""0"",""3""
","""event"",""trial"",""time""
""fullscreenenter"",""1"",""2251""
","
","","","","","","","","","","","","","","","","","","","","","","","","","","",""
"pit-instructions","102","761251","0.0-2.0-19.0","battery-v0.2","","""event"",""trial"",""time""
""focus"",""0"",""3""
""fullscreenenter"",""1"",""2251""
","
","""event"",""trial"",""time""
""focus"",""0"",""3""
","""event"",""trial"",""time""
""fullscreenenter"",""1"",""2251""
","
","","[{""page_index"":0,""viewing_time"":6646},{""page_index"":1,""viewing_time"":5823},{""page_index"":2,""viewing_time"":9690},{""page_index"":3,""viewing_time"":5220},{""page_index"":4,""viewing_time"":6420},{""page_index"":5,""viewing_time"":9191},{""page_index"":6,""viewing_time"":8309},{""page_index"":7,""viewing_time"":6390},{""page_index"":8,""viewing_time"":4000}]","61691","","","","","","","","","","","","","","","","","","","","","","","",""
"pit-comprehension","103","766978","0.0-2.0-20.0-0.0","battery-v0.2","","""event"",""trial"",""time""
""focus"",""0"",""3""
""fullscreenenter"",""1"",""2251""
","
","""event"",""trial"",""time""
""focus"",""0"",""3""
","""event"",""trial"",""time""
""fullscreenenter"",""1"",""2251""
","
","","","5714","[""SPACE""]","0","14","5965","3432","","","","","","","","","","","","","","","","","","",""
"pit-instructions","104","770018","0.0-2.0-20.0-1.0","battery-v0.2","","""event"",""trial"",""time""
""focus"",""0"",""3""
""fullscreenenter"",""1"",""2251""
","
","""event"",""trial"",""time""
""focus"",""0"",""3""
","""event"",""trial"",""time""
""fullscreenenter"",""1"",""2251""
","
","","[{""page_index"":0,""viewing_time"":2950}]","2951","","","","","","","","","","","","","","","","","","","","","","","",""
"pit-comprehension","105","777799","0.0-2.0-21.0-0.0","battery-v0.2","","""event"",""trial"",""time""
""focus"",""0"",""3""
""fullscreenenter"",""1"",""2251""
","
","""event"",""trial"",""time""
""focus"",""0"",""3""
","""event"",""trial"",""time""
""fullscreenenter"",""1"",""2251""
","
","","","7773","[""10""]","0","14","5965","3432","","","","","","","","","","","","","","","","","","",""
"pit-instructions","106","779656","0.0-2.0-21.0-1.0","battery-v0.2","","""event"",""trial"",""time""
""focus"",""0"",""3""
""fullscreenenter"",""1"",""2251""
","
","""event"",""trial"",""time""
""focus"",""0"",""3""
","""event"",""trial"",""time""
""fullscreenenter"",""1"",""2251""
","
","","[{""page_index"":0,""viewing_time"":1765}]","1765","","","","","","","","","","","","","","","","","","","","","","","",""
"pit-comprehension","107","786628","0.0-2.0-22.0-0.0","battery-v0.2","","""event"",""trial"",""time""
""focus"",""0"",""3""
""fullscreenenter"",""1"",""2251""
","
","""event"",""trial"",""time""
""focus"",""0"",""3""
","""event"",""trial"",""time""
""fullscreenenter"",""1"",""2251""
","
","","","6964","[""0""]","0","14","5965","3432","","","","","","","","","","","","","","","","","","",""
"pit-instructions","108","788566","0.0-2.0-22.0-1.0","battery-v0.2","","""event"",""trial"",""time""
""focus"",""0"",""3""
""fullscreenenter"",""1"",""2251""
","
","""event"",""trial"",""time""
""focus"",""0"",""3""
","""event"",""trial"",""time""
""fullscreenenter"",""1"",""2251""
","
","","[{""page_index"":0,""viewing_time"":1849}]","1850","","","","","","","","","","","","","","","","","","","","","","","",""
"pit-comprehension","109","799015","0.0-2.0-23.0-0.0","battery-v0.2","","""event"",""trial"",""time""
""focus"",""0"",""3""
""fullscreenenter"",""1"",""2251""
","
","""event"",""trial"",""time""
""focus"",""0"",""3""
","""event"",""trial"",""time""
""fullscreenenter"",""1"",""2251""
","
","","","10441","[""True""]","0","14","5965","3432","","","","","","","","","","","","","","","","","","",""
"pit-instructions","110","800900","0.0-2.0-23.0-1.0","battery-v0.2","","""event"",""trial"",""time""
""focus"",""0"",""3""
""fullscreenenter"",""1"",""2251""
","
","""event"",""trial"",""time""
""focus"",""0"",""3""
","""event"",""trial"",""time""
""fullscreenenter"",""1"",""2251""
","
","","[{""page_index"":0,""viewing_time"":1793}]","1793","","","","","","","","","","","","","","","","","","","","","","","",""
"pit-comprehension","111","808478","0.0-2.0-24.0-0.0","battery-v0.2","","""event"",""trial"",""time""
""focus"",""0"",""3""
""fullscreenenter"",""1"",""2251""
","
","""event"",""trial"",""time""
""focus"",""0"",""3""
","""event"",""trial"",""time""
""fullscreenenter"",""1"",""2251""
","
","","","7569","[""True""]","0","14","5965","3432","","","","","","","","","","","","","","","","","","",""
"pit-instructions","112","810242","0.0-2.0-24.0-1.0","battery-v0.2","","""event"",""trial"",""time""
""focus"",""0"",""3""
""fullscreenenter"",""1"",""2251""
","
","""event"",""trial"",""time""
""focus"",""0"",""3""
","""event"",""trial"",""time""
""fullscreenenter"",""1"",""2251""
","
","","[{""page_index"":0,""viewing_time"":1660}]","1661","","","","","","","","","","","","","","","","","","","","","","","",""
"pit-comprehension","113","816689","0.0-2.0-25.0-0.0","battery-v0.2","","""event"",""trial"",""time""
""focus"",""0"",""3""
""fullscreenenter"",""1"",""2251""
","
","""event"",""trial"",""time""
""focus"",""0"",""3""
","""event"",""trial"",""time""
""fullscreenenter"",""1"",""2251""
","
","","","6439","[""True""]","0","14","5965","3432","","","","","","","","","","","","","","","","","","",""
"pit-instructions","114","818365","0.0-2.0-25.0-1.0","battery-v0.2","","""event"",""trial"",""time""
""focus"",""0"",""3""
""fullscreenenter"",""1"",""2251""
","
","""event"",""trial"",""time""
""focus"",""0"",""3""
","""event"",""trial"",""time""
""fullscreenenter"",""1"",""2251""
","
","","[{""page_index"":0,""viewing_time"":1582}]","1583","","","","","","","","","","","","","","","","","","","","","","","",""
"pit-comprehension","115","824828","0.0-2.0-26.0-0.0","battery-v0.2","","""event"",""trial"",""time""
""focus"",""0"",""3""
""fullscreenenter"",""1"",""2251""
","
","""event"",""trial"",""time""
""focus"",""0"",""3""
","""event"",""trial"",""time""
""fullscreenenter"",""1"",""2251""
","
","","","6454","[""False""]","0","14","5965","3432","","","","","","","","","","","","","","","","","","",""
"pit-instructions","116","826576","0.0-2.0-26.0-1.0","battery-v0.2","","""event"",""trial"",""time""
""focus"",""0"",""3""
""fullscreenenter"",""1"",""2251""
","
","""event"",""trial"",""time""
""focus"",""0"",""3""
","""event"",""trial"",""time""
""fullscreenenter"",""1"",""2251""
","
","","[{""page_index"":0,""viewing_time"":1652}]","1652","","","","","","","","","","","","","","","","","","","","","","","",""
"pit-instructions","117","853527","0.0-3.0","battery-v0.2","","""event"",""trial"",""time""
""focus"",""0"",""3""
""fullscreenenter"",""1"",""2251""
","
","""event"",""trial"",""time""
""focus"",""0"",""3""
","""event"",""trial"",""time""
""fullscreenenter"",""1"",""2251""
","
","","[{""page_index"":0,""viewing_time"":13976},{""page_index"":1,""viewing_time"":5162},{""page_index"":2,""viewing_time"":7806}]","26946","","","","","","","","","","","","","","","","","","","","","","","",""
"pit-trial","118","857076","0.0-4.0","battery-v0.2","","""event"",""trial"",""time""
""focus"",""0"",""3""
""fullscreenenter"",""1"",""2251""
","
","""event"",""trial"",""time""
""focus"",""0"",""3""
","""event"",""trial"",""time""
""fullscreenenter"",""1"",""2251""
","
","","","643","","","14","5965","3432","&#9728;","elianto","#f73b6a7A","-1"," ","0","-10","[1511]","1","1","","","5965","1","0","4","lose","no-go","0"
"pit-trial","119","860726","0.0-5.0","battery-v0.2","","""event"",""trial"",""time""
""focus"",""0"",""3""
""fullscreenenter"",""1"",""2251""
","
","""event"",""trial"",""time""
""focus"",""0"",""3""
","""event"",""trial"",""time""
""fullscreenenter"",""1"",""2251""
","
","","","776","","","14","5965","3432","&#9752;","elianto","#f73b6a7A"," "," ","1","0","[1642]","1","1","","","5965","2","3","3","lose","go","0"
"pit-trial","120","864319","0.0-6.0","battery-v0.2","","""event"",""trial"",""time""
""focus"",""0"",""3""
""fullscreenenter"",""1"",""2251""
","
","""event"",""trial"",""time""
""focus"",""0"",""3""
","""event"",""trial"",""time""
""fullscreenenter"",""1"",""2251""
","
","","","711","","","14","5965","3432","&#9730;","elianto","#3366ff99"," "," ","1","0","[1580]","1","1","","","5965","3","1","1","win","go","1"
"pit-trial","121","868625","0.0-7.0","battery-v0.2","","""event"",""trial"",""time""
""focus"",""0"",""3""
""fullscreenenter"",""1"",""2251""
","
","""event"",""trial"",""time""
""focus"",""0"",""3""
","""event"",""trial"",""time""
""fullscreenenter"",""1"",""2251""
","
","","","1439","","","14","5965","3432","&#9733;","elianto","#3366ff99","-1"," ","0","0","[2291]","1","1","","","5965","4","2","2","win","no-go","0"
"pit-trial","122","873516","0.0-8.0","battery-v0.2","","""event"",""trial"",""time""
""focus"",""0"",""3""
""fullscreenenter"",""1"",""2251""
","
","""event"",""trial"",""time""
""focus"",""0"",""3""
","""event"",""trial"",""time""
""fullscreenenter"",""1"",""2251""
","
","","","-1","","","14","5965","3432","&#9728;","elianto","#f73b6a7A","-1","-1","1","0","[]","0","1","","","5965","5","0","4","lose","no-go","0"
"pit-trial","123","878387","0.0-9.0","battery-v0.2","","""event"",""trial"",""time""
""focus"",""0"",""3""
""fullscreenenter"",""1"",""2251""
","
","""event"",""trial"",""time""
""focus"",""0"",""3""
","""event"",""trial"",""time""
""fullscreenenter"",""1"",""2251""
","
","","","-1","","","14","5965","3432","&#9733;","elianto","#3366ff99","-1","-1","1","0","[]","0","1","","","5965","6","2","2","win","no-go","1"
"pit-trial","124","882256","0.0-10.0","battery-v0.2","","""event"",""trial"",""time""
""focus"",""0"",""3""
""fullscreenenter"",""1"",""2251""
","
","""event"",""trial"",""time""
""focus"",""0"",""3""
","""event"",""trial"",""time""
""fullscreenenter"",""1"",""2251""
","
","","","991","","","14","5965","3432","&#9752;","elianto","#f73b6a7A"," "," ","1","-10","[1853]","1","1","","","5965","7","3","3","lose","go","1"
"pit-trial","125","886056","0.0-11.0","battery-v0.2","","""event"",""trial"",""time""
""focus"",""0"",""3""
""fullscreenenter"",""1"",""2251""
","
","""event"",""trial"",""time""
""focus"",""0"",""3""
","""event"",""trial"",""time""
""fullscreenenter"",""1"",""2251""
","
","","","929","","","14","5965","3432","&#9730;","elianto","#3366ff99"," "," ","1","+10","[1782]","1","1","","","5965","8","1","1","win","go","0"
"pit-trial","126","889945","0.0-12.0","battery-v0.2","","""event"",""trial"",""time""
""focus"",""0"",""3""
""fullscreenenter"",""1"",""2251""
","
","""event"",""trial"",""time""
""focus"",""0"",""3""
","""event"",""trial"",""time""
""fullscreenenter"",""1"",""2251""
","
","","","1015","","","14","5965","3432","&#9728;","elianto","#f73b6a7A","-1"," ","0","-10","[1868]","1","1","","","5965","9","0","4","lose","no-go","0"
"pit-trial","127","893635","0.0-13.0","battery-v0.2","","""event"",""trial"",""time""
""focus"",""0"",""3""
""fullscreenenter"",""1"",""2251""
","
","""event"",""trial"",""time""
""focus"",""0"",""3""
","""event"",""trial"",""time""
""fullscreenenter"",""1"",""2251""
","
","","","816","","","14","5965","3432","&#9752;","elianto","#f73b6a7A"," "," ","1","0","[1670]","1","1","","","5965","10","3","3","lose","go","0"
"pit-trial","128","897126","0.0-14.0","battery-v0.2","","""event"",""trial"",""time""
""focus"",""0"",""3""
""fullscreenenter"",""1"",""2251""
","
","""event"",""trial"",""time""
""focus"",""0"",""3""
","""event"",""trial"",""time""
""fullscreenenter"",""1"",""2251""
","
","","","622","","","14","5965","3432","&#9733;","elianto","#3366ff99","-1"," ","0","+10","[548,1479]","2","1","","","5965","11","2","2","win","no-go","1"
"pit-trial","129","900555","0.0-15.0","battery-v0.2","","""event"",""trial"",""time""
""focus"",""0"",""3""
""fullscreenenter"",""1"",""2251""
","
","""event"",""trial"",""time""
""focus"",""0"",""3""
","""event"",""trial"",""time""
""fullscreenenter"",""1"",""2251""
","
","","","565","","","14","5965","3432","&#9730;","elianto","#3366ff99"," "," ","1","+10","[1419]","1","1","","","5965","12","1","1","win","go","0"
"pit-trial","130","904435","0.0-16.0","battery-v0.2","","""event"",""trial"",""time""
""focus"",""0"",""3""
""fullscreenenter"",""1"",""2251""
","
","""event"",""trial"",""time""
""focus"",""0"",""3""
","""event"",""trial"",""time""
""fullscreenenter"",""1"",""2251""
","
","","","1003","","","14","5965","3432","&#9752;","elianto","#f73b6a7A"," "," ","1","0","[1857]","1","1","","","5965","13","3","3","lose","go","0"
"pit-trial","131","907879","0.0-17.0","battery-v0.2","","""event"",""trial"",""time""
""focus"",""0"",""3""
""fullscreenenter"",""1"",""2251""
","
","""event"",""trial"",""time""
""focus"",""0"",""3""
","""event"",""trial"",""time""
""fullscreenenter"",""1"",""2251""
","
","","","579","","","14","5965","3432","&#9730;","elianto","#3366ff99"," "," ","1","+10","[1439]","1","1","","","5965","14","1","1","win","go","0"
"pit-trial","132","912756","0.0-18.0","battery-v0.2","","""event"",""trial"",""time""
""focus"",""0"",""3""
""fullscreenenter"",""1"",""2251""
","
","""event"",""trial"",""time""
""focus"",""0"",""3""
","""event"",""trial"",""time""
""fullscreenenter"",""1"",""2251""
","
","","","-1","","","14","5965","3432","&#9728;","elianto","#f73b6a7A","-1","-1","1","-10","[]","0","1","","","5965","15","0","4","lose","no-go","1"
"pit-trial","133","916345","0.0-19.0","battery-v0.2","","""event"",""trial"",""time""
""focus"",""0"",""3""
""fullscreenenter"",""1"",""2251""
","
","""event"",""trial"",""time""
""focus"",""0"",""3""
","""event"",""trial"",""time""
""fullscreenenter"",""1"",""2251""
","
","","","725","","","14","5965","3432","&#9733;","elianto","#3366ff99","-1"," ","0","0","[1580]","1","1","","","5965","16","2","2","win","no-go","0"
"pit-trial","134","919965","0.0-20.0","battery-v0.2","","""event"",""trial"",""time""
""focus"",""0"",""3""
""fullscreenenter"",""1"",""2251""
","
","""event"",""trial"",""time""
""focus"",""0"",""3""
","""event"",""trial"",""time""
""fullscreenenter"",""1"",""2251""
","
","","","748","","","14","5965","3432","&#9733;","elianto","#3366ff99","-1"," ","0","+10","[1602]","1","1","","","5965","17","2","2","win","no-go","1"
"pit-trial","135","923626","0.0-21.0","battery-v0.2","","""event"",""trial"",""time""
""focus"",""0"",""3""
""fullscreenenter"",""1"",""2251""
","
","""event"",""trial"",""time""
""focus"",""0"",""3""
","""event"",""trial"",""time""
""fullscreenenter"",""1"",""2251""
","
","","","783","","","14","5965","3432","&#9730;","elianto","#3366ff99"," "," ","1","+10","[1647]","1","1","","","5965","18","1","1","win","go","0"
"pit-trial","136","927705","0.0-22.0","battery-v0.2","","""event"",""trial"",""time""
""focus"",""0"",""3""
""fullscreenenter"",""1"",""2251""
","
","""event"",""trial"",""time""
""focus"",""0"",""3""
","""event"",""trial"",""time""
""fullscreenenter"",""1"",""2251""
","
","","","1209","","","14","5965","3432","&#9752;","elianto","#f73b6a7A"," "," ","1","-10","[2073]","1","1","","","5965","19","3","3","lose","go","1"
"pit-trial","137","932595","0.0-23.0","battery-v0.2","","""event"",""trial"",""time""
""focus"",""0"",""3""
""fullscreenenter"",""1"",""2251""
","
","""event"",""trial"",""time""
""focus"",""0"",""3""
","""event"",""trial"",""time""
""fullscreenenter"",""1"",""2251""
","
","","","-1","","","14","5965","3432","&#9728;","elianto","#f73b6a7A","-1","-1","1","0","[]","0","1","","","5965","20","0","4","lose","no-go","0"
"pit-instructions","138","984658","0.0-24.0","battery-v0.2","","""event"",""trial"",""time""
""focus"",""0"",""3""
""fullscreenenter"",""1"",""2251""
","
","""event"",""trial"",""time""
""focus"",""0"",""3""
","""event"",""trial"",""time""
""fullscreenenter"",""1"",""2251""
","
","","[{""page_index"":0,""viewing_time"":5698},{""page_index"":1,""viewing_time"":46361}]","52059","","","","","","","","","","","","","","","","","","","","","","","",""
"pit-trial","139","988135","0.0-25.0","battery-v0.2","","""event"",""trial"",""time""
""focus"",""0"",""3""
""fullscreenenter"",""1"",""2251""
","
","""event"",""trial"",""time""
""focus"",""0"",""3""
","""event"",""trial"",""time""
""fullscreenenter"",""1"",""2251""
","
","","","585","","","14","5965","3432","u","elianto","#f73b6a7A"," "," ","1","0","[1453]","1","2","","","5965","21","0","3","lose","go","0"
"pit-trial","140","991815","0.0-26.0","battery-v0.2","","""event"",""trial"",""time""
""focus"",""0"",""3""
""fullscreenenter"",""1"",""2251""
","
","""event"",""trial"",""time""
""focus"",""0"",""3""
","""event"",""trial"",""time""
""fullscreenenter"",""1"",""2251""
","
","","","806","","","14","5965","3432","g","elianto","#f73b6a7A","-1"," ","0","-10","[1660]","1","2","","","5965","22","3","4","lose","no-go","0"
"pit-trial","141","995456","0.0-27.0","battery-v0.2","","""event"",""trial"",""time""
""focus"",""0"",""3""
""fullscreenenter"",""1"",""2251""
","
","""event"",""trial"",""time""
""focus"",""0"",""3""
","""event"",""trial"",""time""
""fullscreenenter"",""1"",""2251""
","
","","","763","","","14","5965","3432","l","elianto","#3366ff99","-1"," ","0","0","[1616]","1","2","","","5965","23","1","2","win","no-go","0"
"pit-trial","142","999235","0.0-28.0","battery-v0.2","","""event"",""trial"",""time""
""focus"",""0"",""3""
""fullscreenenter"",""1"",""2251""
","
","""event"",""trial"",""time""
""focus"",""0"",""3""
","""event"",""trial"",""time""
""fullscreenenter"",""1"",""2251""
","
","","","900","","","14","5965","3432","a","elianto","#f73b6a7A"," "," ","1","0","[1763]","1","2","","","5965","24","2","3","lose","go","0"
"pit-trial","143","1004116","0.0-29.0","battery-v0.2","","""event"",""trial"",""time""
""focus"",""0"",""3""
""fullscreenenter"",""1"",""2251""
","
","""event"",""trial"",""time""
""focus"",""0"",""3""
","""event"",""trial"",""time""
""fullscreenenter"",""1"",""2251""
","
","","","-1","","","14","5965","3432","g","elianto","#f73b6a7A","-1","-1","1","0","[]","0","2","","","5965","25","3","4","lose","no-go","0"
"pit-trial","144","1007636","0.0-30.0","battery-v0.2","","""event"",""trial"",""time""
""focus"",""0"",""3""
""fullscreenenter"",""1"",""2251""
","
","""event"",""trial"",""time""
""focus"",""0"",""3""
","""event"",""trial"",""time""
""fullscreenenter"",""1"",""2251""
","
","","","636","","","14","5965","3432","a","elianto","#f73b6a7A"," "," ","1","0","[1502]","1","2","","","5965","26","2","3","lose","go","0"
"pit-trial","145","1011156","0.0-31.0","battery-v0.2","","""event"",""trial"",""time""
""focus"",""0"",""3""
""fullscreenenter"",""1"",""2251""
","
","""event"",""trial"",""time""
""focus"",""0"",""3""
","""event"",""trial"",""time""
""fullscreenenter"",""1"",""2251""
","
","","","655","","","14","5965","3432","u","elianto","#f73b6a7A"," "," ","1","0","[1509]","1","2","","","5965","27","0","3","lose","go","0"
"pit-trial","146","1014485","0.0-32.0","battery-v0.2","","""event"",""trial"",""time""
""focus"",""0"",""3""
""fullscreenenter"",""1"",""2251""
","
","""event"",""trial"",""time""
""focus"",""0"",""3""
","""event"",""trial"",""time""
""fullscreenenter"",""1"",""2251""
","
","","","459","","","14","5965","3432","l","elianto","#3366ff99","-1"," ","0","0","[1323]","1","2","","","5965","28","1","2","win","no-go","0"
"pit-trial","147","1018145","0.0-33.0","battery-v0.2","","""event"",""trial"",""time""
""focus"",""0"",""3""
""fullscreenenter"",""1"",""2251""
","
","""event"",""trial"",""time""
""focus"",""0"",""3""
","""event"",""trial"",""time""
""fullscreenenter"",""1"",""2251""
","
","","","775","","","14","5965","3432","u","elianto","#f73b6a7A"," "," ","1","0","[1649]","1","2","","","5965","29","0","3","lose","go","0"
"pit-trial","148","1023036","0.0-34.0","battery-v0.2","","""event"",""trial"",""time""
""focus"",""0"",""3""
""fullscreenenter"",""1"",""2251""
","
","""event"",""trial"",""time""
""focus"",""0"",""3""
","""event"",""trial"",""time""
""fullscreenenter"",""1"",""2251""
","
","","","-1","","","14","5965","3432","l","elianto","#3366ff99","-1","-1","1","0","[]","0","2","","","5965","30","1","2","win","no-go","1"
"pit-trial","149","1027916","0.0-35.0","battery-v0.2","","""event"",""trial"",""time""
""focus"",""0"",""3""
""fullscreenenter"",""1"",""2251""
","
","""event"",""trial"",""time""
""focus"",""0"",""3""
","""event"",""trial"",""time""
""fullscreenenter"",""1"",""2251""
","
","","","-1","","","14","5965","3432","g","elianto","#f73b6a7A","-1","-1","1","0","[]","0","2","","","5965","31","3","4","lose","no-go","0"
"pit-trial","150","1031456","0.0-36.0","battery-v0.2","","""event"",""trial"",""time""
""focus"",""0"",""3""
""fullscreenenter"",""1"",""2251""
","
","""event"",""trial"",""time""
""focus"",""0"",""3""
","""event"",""trial"",""time""
""fullscreenenter"",""1"",""2251""
","
","","","674","","","14","5965","3432","a","elianto","#f73b6a7A"," "," ","1","0","[1528]","1","2","","","5965","32","2","3","lose","go","0"
"pit-trial","151","1035065","0.0-37.0","battery-v0.2","","""event"",""trial"",""time""
""focus"",""0"",""3""
""fullscreenenter"",""1"",""2251""
","
","""event"",""trial"",""time""
""focus"",""0"",""3""
","""event"",""trial"",""time""
""fullscreenenter"",""1"",""2251""
","
","","","738","","","14","5965","3432","a","elianto","#f73b6a7A"," "," ","1","0","[1602]","1","2","","","5965","33","2","3","lose","go","0"
"pit-trial","152","1039955","0.0-38.0","battery-v0.2","","""event"",""trial"",""time""
""focus"",""0"",""3""
""fullscreenenter"",""1"",""2251""
","
","""event"",""trial"",""time""
""focus"",""0"",""3""
","""event"",""trial"",""time""
""fullscreenenter"",""1"",""2251""
","
","","","-1","","","14","5965","3432","g","elianto","#f73b6a7A","-1","-1","1","-10","[]","0","2","","","5965","34","3","4","lose","no-go","1"
"pit-trial","153","1044839","0.0-39.0","battery-v0.2","","""event"",""trial"",""time""
""focus"",""0"",""3""
""fullscreenenter"",""1"",""2251""
","
","""event"",""trial"",""time""
""focus"",""0"",""3""
","""event"",""trial"",""time""
""fullscreenenter"",""1"",""2251""
","
","","","-1","","","14","5965","3432","l","elianto","#3366ff99","-1","-1","1","0","[]","0","2","","","5965","35","1","2","win","no-go","1"
"pit-trial","154","1048305","0.0-40.0","battery-v0.2","","""event"",""trial"",""time""
""focus"",""0"",""3""
""fullscreenenter"",""1"",""2251""
","
","""event"",""trial"",""time""
""focus"",""0"",""3""
","""event"",""trial"",""time""
""fullscreenenter"",""1"",""2251""
","
","","","592","","","14","5965","3432","u","elianto","#f73b6a7A"," "," ","1","0","[1459]","1","2","","","5965","36","0","3","lose","go","0"
"pit-trial","155","1051894","0.0-41.0","battery-v0.2","","""event"",""trial"",""time""
""focus"",""0"",""3""
""fullscreenenter"",""1"",""2251""
","
","""event"",""trial"",""time""
""focus"",""0"",""3""
","""event"",""trial"",""time""
""fullscreenenter"",""1"",""2251""
","
","","","699","","","14","5965","3432","u","elianto","#f73b6a7A"," "," ","1","-10","[1567]","1","2","","","5965","37","0","3","lose","go","1"
"pit-trial","156","1055435","0.0-42.0","battery-v0.2","","""event"",""trial"",""time""
""focus"",""0"",""3""
""fullscreenenter"",""1"",""2251""
","
","""event"",""trial"",""time""
""focus"",""0"",""3""
","""event"",""trial"",""time""
""fullscreenenter"",""1"",""2251""
","
","","","664","","","14","5965","3432","l","elianto","#3366ff99","-1"," ","0","0","[1527]","1","2","","","5965","38","1","2","win","no-go","0"
"pit-trial","157","1060317","0.0-43.0","battery-v0.2","","""event"",""trial"",""time""
""focus"",""0"",""3""
""fullscreenenter"",""1"",""2251""
","
","""event"",""trial"",""time""
""focus"",""0"",""3""
","""event"",""trial"",""time""
""fullscreenenter"",""1"",""2251""
","
","","","-1","","","14","5965","3432","g","elianto","#f73b6a7A","-1","-1","1","0","[]","0","2","","","5965","39","3","4","lose","no-go","0"
"pit-trial","158","1063746","0.0-44.0","battery-v0.2","","""event"",""trial"",""time""
""focus"",""0"",""3""
""fullscreenenter"",""1"",""2251""
","
","""event"",""trial"",""time""
""focus"",""0"",""3""
","""event"",""trial"",""time""
""fullscreenenter"",""1"",""2251""
","
","","","553","","","14","5965","3432","a","elianto","#f73b6a7A"," "," ","1","0","[1415]","1","2","","","5965","40","2","3","lose","go","0"
"pit-trial","159","1067405","0.0-45.0","battery-v0.2","","""event"",""trial"",""time""
""focus"",""0"",""3""
""fullscreenenter"",""1"",""2251""
","
","""event"",""trial"",""time""
""focus"",""0"",""3""
","""event"",""trial"",""time""
""fullscreenenter"",""1"",""2251""
","
","","","786","","","14","5965","3432","l","elianto","#3366ff99","-1"," ","0","0","[1640]","1","2","","","5965","41","1","2","win","no-go","0"
"pit-trial","160","1072295","0.0-46.0","battery-v0.2","","""event"",""trial"",""time""
""focus"",""0"",""3""
""fullscreenenter"",""1"",""2251""
","
","""event"",""trial"",""time""
""focus"",""0"",""3""
","""event"",""trial"",""time""
""fullscreenenter"",""1"",""2251""
","
","","","-1","","","14","5965","3432","g","elianto","#f73b6a7A","-1","-1","1","0","[]","0","2","","","5965","42","3","4","lose","no-go","0"
"pit-trial","161","1075705","0.0-47.0","battery-v0.2","","""event"",""trial"",""time""
""focus"",""0"",""3""
""fullscreenenter"",""1"",""2251""
","
","""event"",""trial"",""time""
""focus"",""0"",""3""
","""event"",""trial"",""time""
""fullscreenenter"",""1"",""2251""
","
","","","532","","","14","5965","3432","u","elianto","#f73b6a7A"," "," ","1","-10","[1391]","1","2","","","5965","43","0","3","lose","go","1"
"pit-trial","162","1079226","0.0-48.0","battery-v0.2","","""event"",""trial"",""time""
""focus"",""0"",""3""
""fullscreenenter"",""1"",""2251""
","
","""event"",""trial"",""time""
""focus"",""0"",""3""
","""event"",""trial"",""time""
""fullscreenenter"",""1"",""2251""
","
","","","643","","","14","5965","3432","a","elianto","#f73b6a7A"," "," ","1","0","[1498]","1","2","","","5965","44","2","3","lose","go","0"
"pit-trial","163","1083035","0.0-49.0","battery-v0.2","","""event"",""trial"",""time""
""focus"",""0"",""3""
""fullscreenenter"",""1"",""2251""
","
","""event"",""trial"",""time""
""focus"",""0"",""3""
","""event"",""trial"",""time""
""fullscreenenter"",""1"",""2251""
","
","","","923","","","14","5965","3432","a","elianto","#f73b6a7A"," "," ","1","0","[1797]","1","2","","","5965","45","2","3","lose","go","0"
"pit-trial","164","1087926","0.0-50.0","battery-v0.2","","""event"",""trial"",""time""
""focus"",""0"",""3""
""fullscreenenter"",""1"",""2251""
","
","""event"",""trial"",""time""
""focus"",""0"",""3""
","""event"",""trial"",""time""
""fullscreenenter"",""1"",""2251""
","
","","","-1","","","14","5965","3432","g","elianto","#f73b6a7A","-1","-1","1","0","[]","0","2","","","5965","46","3","4","lose","no-go","0"
"pit-trial","165","1091435","0.0-51.0","battery-v0.2","","""event"",""trial"",""time""
""focus"",""0"",""3""
""fullscreenenter"",""1"",""2251""
","
","""event"",""trial"",""time""
""focus"",""0"",""3""
","""event"",""trial"",""time""
""fullscreenenter"",""1"",""2251""
","
","","","644","","","14","5965","3432","l","elianto","#3366ff99","-1"," ","0","+10","[1498]","1","2","","","5965","47","1","2","win","no-go","1"
"pit-trial","166","1094875","0.0-52.0","battery-v0.2","","""event"",""trial"",""time""
""focus"",""0"",""3""
""fullscreenenter"",""1"",""2251""
","
","""event"",""trial"",""time""
""focus"",""0"",""3""
","""event"",""trial"",""time""
""fullscreenenter"",""1"",""2251""
","
","","","569","","","14","5965","3432","u","elianto","#f73b6a7A"," "," ","1","0","[1423]","1","2","","","5965","48","0","3","lose","go","0"
"pit-trial","167","1098495","0.0-53.0","battery-v0.2","","""event"",""trial"",""time""
""focus"",""0"",""3""
""fullscreenenter"",""1"",""2251""
","
","""event"",""trial"",""time""
""focus"",""0"",""3""
","""event"",""trial"",""time""
""fullscreenenter"",""1"",""2251""
","
","","","742","","","14","5965","3432","l","elianto","#3366ff99","-1"," ","0","0","[1597]","1","2","","","5965","49","1","2","win","no-go","0"
"pit-trial","168","1101876","0.0-54.0","battery-v0.2","","""event"",""trial"",""time""
""focus"",""0"",""3""
""fullscreenenter"",""1"",""2251""
","
","""event"",""trial"",""time""
""focus"",""0"",""3""
","""event"",""trial"",""time""
""fullscreenenter"",""1"",""2251""
","
","","","506","","","14","5965","3432","u","elianto","#f73b6a7A"," "," ","1","0","[1360]","1","2","","","5965","50","0","3","lose","go","0"
"pit-trial","169","1106765","0.0-55.0","battery-v0.2","","""event"",""trial"",""time""
""focus"",""0"",""3""
""fullscreenenter"",""1"",""2251""
","
","""event"",""trial"",""time""
""focus"",""0"",""3""
","""event"",""trial"",""time""
""fullscreenenter"",""1"",""2251""
","
","","","-1","","","14","5965","3432","g","elianto","#f73b6a7A","-1","-1","1","-10","[]","0","2","","","5965","51","3","4","lose","no-go","1"
"pit-trial","170","1110175","0.0-56.0","battery-v0.2","","""event"",""trial"",""time""
""focus"",""0"",""3""
""fullscreenenter"",""1"",""2251""
","
","""event"",""trial"",""time""
""focus"",""0"",""3""
","""event"",""trial"",""time""
""fullscreenenter"",""1"",""2251""
","
","","","529","","","14","5965","3432","a","elianto","#f73b6a7A"," "," ","1","-10","[1388]","1","2","","","5965","52","2","3","lose","go","1"
"pit-trial","171","1113655","0.0-57.0","battery-v0.2","","""event"",""trial"",""time""
""focus"",""0"",""3""
""fullscreenenter"",""1"",""2251""
","
","""event"",""trial"",""time""
""focus"",""0"",""3""
","""event"",""trial"",""time""
""fullscreenenter"",""1"",""2251""
","
","","","599","","","14","5965","3432","l","elianto","#3366ff99","-1"," ","0","+10","[1471]","1","2","","","5965","53","1","2","win","no-go","1"
"pit-trial","172","1117236","0.0-58.0","battery-v0.2","","""event"",""trial"",""time""
""focus"",""0"",""3""
""fullscreenenter"",""1"",""2251""
","
","""event"",""trial"",""time""
""focus"",""0"",""3""
","""event"",""trial"",""time""
""fullscreenenter"",""1"",""2251""
","
","","","703","","","14","5965","3432","u","elianto","#f73b6a7A"," "," ","1","-10","[1567]","1","2","","","5965","54","0","3","lose","go","1"
"pit-trial","173","1120694","0.0-59.0","battery-v0.2","","""event"",""trial"",""time""
""focus"",""0"",""3""
""fullscreenenter"",""1"",""2251""
","
","""event"",""trial"",""time""
""focus"",""0"",""3""
","""event"",""trial"",""time""
""fullscreenenter"",""1"",""2251""
","
","","","573","","","14","5965","3432","a","elianto","#f73b6a7A"," "," ","1","0","[1436]","1","2","","","5965","55","2","3","lose","go","0"
"pit-trial","174","1125575","0.0-60.0","battery-v0.2","","""event"",""trial"",""time""
""focus"",""0"",""3""
""fullscreenenter"",""1"",""2251""
","
","""event"",""trial"",""time""
""focus"",""0"",""3""
","""event"",""trial"",""time""
""fullscreenenter"",""1"",""2251""
","
","","","-1","","","14","5965","3432","g","elianto","#f73b6a7A","-1","-1","1","0","[]","0","2","","","5965","56","3","4","lose","no-go","0"
"pit-trial","175","1130456","0.0-61.0","battery-v0.2","","""event"",""trial"",""time""
""focus"",""0"",""3""
""fullscreenenter"",""1"",""2251""
","
","""event"",""trial"",""time""
""focus"",""0"",""3""
","""event"",""trial"",""time""
""fullscreenenter"",""1"",""2251""
","
","","","-1","","","14","5965","3432","g","elianto","#f73b6a7A","-1","-1","1","0","[]","0","2","","","5965","57","3","4","lose","no-go","0"
"pit-trial","176","1134096","0.0-62.0","battery-v0.2","","""event"",""trial"",""time""
""focus"",""0"",""3""
""fullscreenenter"",""1"",""2251""
","
","""event"",""trial"",""time""
""focus"",""0"",""3""
","""event"",""trial"",""time""
""fullscreenenter"",""1"",""2251""
","
","","","772","","","14","5965","3432","u","elianto","#f73b6a7A"," "," ","1","0","[1625]","1","2","","","5965","58","0","3","lose","go","0"
"pit-trial","177","1137675","0.0-63.0","battery-v0.2","","""event"",""trial"",""time""
""focus"",""0"",""3""
""fullscreenenter"",""1"",""2251""
","
","""event"",""trial"",""time""
""focus"",""0"",""3""
","""event"",""trial"",""time""
""fullscreenenter"",""1"",""2251""
","
","","","705","","","14","5965","3432","p","elianto","#3366ff99"," "," ","1","0","[1559]","1","2","","","5965","59","4","1","win","go","1"
"pit-trial","178","1141575","0.0-64.0","battery-v0.2","","""event"",""trial"",""time""
""focus"",""0"",""3""
""fullscreenenter"",""1"",""2251""
","
","""event"",""trial"",""time""
""focus"",""0"",""3""
","""event"",""trial"",""time""
""fullscreenenter"",""1"",""2251""
","
","","","1031","","","14","5965","3432","a","elianto","#f73b6a7A"," "," ","1","0","[1885]","1","2","","","5965","60","2","3","lose","go","0"
"pit-trial","179","1146455","0.0-65.0","battery-v0.2","","""event"",""trial"",""time""
""focus"",""0"",""3""
""fullscreenenter"",""1"",""2251""
","
","""event"",""trial"",""time""
""focus"",""0"",""3""
","""event"",""trial"",""time""
""fullscreenenter"",""1"",""2251""
","
","","","-1","","","14","5965","3432","p","elianto","#3366ff99"," ","-1","0","0","[]","0","2","","","5965","61","4","1","win","go","0"
"pit-trial","180","1151325","0.0-66.0","battery-v0.2","","""event"",""trial"",""time""
""focus"",""0"",""3""
""fullscreenenter"",""1"",""2251""
","
","""event"",""trial"",""time""
""focus"",""0"",""3""
","""event"",""trial"",""time""
""fullscreenenter"",""1"",""2251""
","
","","","-1","","","14","5965","3432","g","elianto","#f73b6a7A","-1","-1","1","0","[]","0","2","","","5965","62","3","4","lose","no-go","0"
"pit-trial","181","1154865","0.0-67.0","battery-v0.2","","""event"",""trial"",""time""
""focus"",""0"",""3""
""fullscreenenter"",""1"",""2251""
","
","""event"",""trial"",""time""
""focus"",""0"",""3""
","""event"",""trial"",""time""
""fullscreenenter"",""1"",""2251""
","
","","","664","","","14","5965","3432","a","elianto","#f73b6a7A"," "," ","1","0","[1518]","1","2","","","5965","63","2","3","lose","go","0"
"pit-trial","182","1158874","0.0-68.0","battery-v0.2","","""event"",""trial"",""time""
""focus"",""0"",""3""
""fullscreenenter"",""1"",""2251""
","
","""event"",""trial"",""time""
""focus"",""0"",""3""
","""event"",""trial"",""time""
""fullscreenenter"",""1"",""2251""
","
","","","1149","","","14","5965","3432","l","elianto","#3366ff99","-1"," ","0","+10","[2003]","1","2","","","5965","64","1","2","win","no-go","1"
"pit-trial","183","1163746","0.0-69.0","battery-v0.2","","""event"",""trial"",""time""
""focus"",""0"",""3""
""fullscreenenter"",""1"",""2251""
","
","""event"",""trial"",""time""
""focus"",""0"",""3""
","""event"",""trial"",""time""
""fullscreenenter"",""1"",""2251""
","
","","","-1","","","14","5965","3432","p","elianto","#3366ff99"," ","-1","0","+10","[]","0","2","","","5965","65","4","1","win","go","1"
"pit-trial","184","1168635","0.0-70.0","battery-v0.2","","""event"",""trial"",""time""
""focus"",""0"",""3""
""fullscreenenter"",""1"",""2251""
","
","""event"",""trial"",""time""
""focus"",""0"",""3""
","""event"",""trial"",""time""
""fullscreenenter"",""1"",""2251""
","
","","","-1","","","14","5965","3432","g","elianto","#f73b6a7A","-1","-1","1","0","[]","0","2","","","5965","66","3","4","lose","no-go","0"
"pit-trial","185","1172686","0.0-71.0","battery-v0.2","","""event"",""trial"",""time""
""focus"",""0"",""3""
""fullscreenenter"",""1"",""2251""
","
","""event"",""trial"",""time""
""focus"",""0"",""3""
","""event"",""trial"",""time""
""fullscreenenter"",""1"",""2251""
","
","","","1183","","","14","5965","3432","s","elianto","#3366ff99","-1"," ","0","0","[2037]","1","2","","","5965","67","5","2","win","no-go","0"
"pit-trial","186","1176395","0.0-72.0","battery-v0.2","","""event"",""trial"",""time""
""focus"",""0"",""3""
""fullscreenenter"",""1"",""2251""
","
","""event"",""trial"",""time""
""focus"",""0"",""3""
","""event"",""trial"",""time""
""fullscreenenter"",""1"",""2251""
","
","","","831","","","14","5965","3432","l","elianto","#3366ff99","-1"," ","0","+10","[1683]","1","2","","","5965","68","1","2","win","no-go","1"
"pit-trial","187","1180505","0.0-73.0","battery-v0.2","","""event"",""trial"",""time""
""focus"",""0"",""3""
""fullscreenenter"",""1"",""2251""
","
","""event"",""trial"",""time""
""focus"",""0"",""3""
","""event"",""trial"",""time""
""fullscreenenter"",""1"",""2251""
","
","","","1224","","","14","5965","3432","a","elianto","#f73b6a7A"," "," ","1","0","[2091]","1","2","","","5965","69","2","3","lose","go","0"
"pit-trial","188","1184076","0.0-74.0","battery-v0.2","","""event"",""trial"",""time""
""focus"",""0"",""3""
""fullscreenenter"",""1"",""2251""
","
","""event"",""trial"",""time""
""focus"",""0"",""3""
","""event"",""trial"",""time""
""fullscreenenter"",""1"",""2251""
","
","","","697","","","14","5965","3432","l","elianto","#3366ff99","-1"," ","0","0","[1561]","1","2","","","5965","70","1","2","win","no-go","0"
"pit-trial","189","1188955","0.0-75.0","battery-v0.2","","""event"",""trial"",""time""
""focus"",""0"",""3""
""fullscreenenter"",""1"",""2251""
","
","""event"",""trial"",""time""
""focus"",""0"",""3""
","""event"",""trial"",""time""
""fullscreenenter"",""1"",""2251""
","
","","","-1","","","14","5965","3432","p","elianto","#3366ff99"," ","-1","0","+10","[]","0","2","","","5965","71","4","1","win","go","1"
"pit-trial","190","1192745","0.0-76.0","battery-v0.2","","""event"",""trial"",""time""
""focus"",""0"",""3""
""fullscreenenter"",""1"",""2251""
","
","""event"",""trial"",""time""
""focus"",""0"",""3""
","""event"",""trial"",""time""
""fullscreenenter"",""1"",""2251""
","
","","","909","","","14","5965","3432","s","elianto","#3366ff99","-1"," ","0","0","[1772]","1","2","","","5965","72","5","2","win","no-go","0"
"pit-trial","191","1196554","0.0-77.0","battery-v0.2","","""event"",""trial"",""time""
""focus"",""0"",""3""
""fullscreenenter"",""1"",""2251""
","
","""event"",""trial"",""time""
""focus"",""0"",""3""
","""event"",""trial"",""time""
""fullscreenenter"",""1"",""2251""
","
","","","937","","","14","5965","3432","l","elianto","#3366ff99","-1"," ","0","0","[1797]","1","2","","","5965","73","1","2","win","no-go","0"
"pit-trial","192","1201426","0.0-78.0","battery-v0.2","","""event"",""trial"",""time""
""focus"",""0"",""3""
""fullscreenenter"",""1"",""2251""
","
","""event"",""trial"",""time""
""focus"",""0"",""3""
","""event"",""trial"",""time""
""fullscreenenter"",""1"",""2251""
","
","","","-1","","","14","5965","3432","p","elianto","#3366ff99"," ","-1","0","0","[]","0","2","","","5965","74","4","1","win","go","0"
"pit-trial","193","1206314","0.0-79.0","battery-v0.2","","""event"",""trial"",""time""
""focus"",""0"",""3""
""fullscreenenter"",""1"",""2251""
","
","""event"",""trial"",""time""
""focus"",""0"",""3""
","""event"",""trial"",""time""
""fullscreenenter"",""1"",""2251""
","
","","","-1","","","14","5965","3432","g","elianto","#f73b6a7A","-1","-1","1","-10","[]","0","2","","","5965","75","3","4","lose","no-go","1"
"pit-trial","194","1211195","0.0-80.0","battery-v0.2","","""event"",""trial"",""time""
""focus"",""0"",""3""
""fullscreenenter"",""1"",""2251""
","
","""event"",""trial"",""time""
""focus"",""0"",""3""
","""event"",""trial"",""time""
""fullscreenenter"",""1"",""2251""
","
","","","-1","","","14","5965","3432","s","elianto","#3366ff99","-1","-1","1","+10","[]","0","2","","","5965","76","5","2","win","no-go","0"
"pit-trial","195","1216077","0.0-81.0","battery-v0.2","","""event"",""trial"",""time""
""focus"",""0"",""3""
""fullscreenenter"",""1"",""2251""
","
","""event"",""trial"",""time""
""focus"",""0"",""3""
","""event"",""trial"",""time""
""fullscreenenter"",""1"",""2251""
","
","","","-1","","","14","5965","3432","s","elianto","#3366ff99","-1","-1","1","+10","[]","0","2","","","5965","77","5","2","win","no-go","0"
"pit-trial","196","1220965","0.0-82.0","battery-v0.2","","""event"",""trial"",""time""
""focus"",""0"",""3""
""fullscreenenter"",""1"",""2251""
","
","""event"",""trial"",""time""
""focus"",""0"",""3""
","""event"",""trial"",""time""
""fullscreenenter"",""1"",""2251""
","
","","","-1","","","14","5965","3432","p","elianto","#3366ff99"," ","-1","0","0","[]","0","2","","","5965","78","4","1","win","go","0"
"pit-trial","197","1225835","0.0-83.0","battery-v0.2","","""event"",""trial"",""time""
""focus"",""0"",""3""
""fullscreenenter"",""1"",""2251""
","
","""event"",""trial"",""time""
""focus"",""0"",""3""
","""event"",""trial"",""time""
""fullscreenenter"",""1"",""2251""
","
","","","-1","","","14","5965","3432","g","elianto","#f73b6a7A","-1","-1","1","0","[]","0","2","","","5965","79","3","4","lose","no-go","0"
"pit-trial","198","1230715","0.0-84.0","battery-v0.2","","""event"",""trial"",""time""
""focus"",""0"",""3""
""fullscreenenter"",""1"",""2251""
","
","""event"",""trial"",""time""
""focus"",""0"",""3""
","""event"",""trial"",""time""
""fullscreenenter"",""1"",""2251""
","
","","","-1","","","14","5965","3432","p","elianto","#3366ff99"," ","-1","0","0","[]","0","2","","","5965","80","4","1","win","go","0"
"pit-trial","199","1235596","0.0-85.0","battery-v0.2","","""event"",""trial"",""time""
""focus"",""0"",""3""
""fullscreenenter"",""1"",""2251""
","
","""event"",""trial"",""time""
""focus"",""0"",""3""
","""event"",""trial"",""time""
""fullscreenenter"",""1"",""2251""
","
","","","-1","","","14","5965","3432","s","elianto","#3366ff99","-1","-1","1","+10","[]","0","2","","","5965","81","5","2","win","no-go","0"
"pit-trial","200","1239475","0.0-86.0","battery-v0.2","","""event"",""trial"",""time""
""focus"",""0"",""3""
""fullscreenenter"",""1"",""2251""
","
","""event"",""trial"",""time""
""focus"",""0"",""3""
","""event"",""trial"",""time""
""fullscreenenter"",""1"",""2251""
","
","","","1014","","","14","5965","3432","e","elianto","#f73b6a7A","-1"," ","0","0","[1867]","1","2","","","5965","82","7","4","lose","no-go","1"
"pit-trial","201","1244357","0.0-87.0","battery-v0.2","","""event"",""trial"",""time""
""focus"",""0"",""3""
""fullscreenenter"",""1"",""2251""
","
","""event"",""trial"",""time""
""focus"",""0"",""3""
","""event"",""trial"",""time""
""fullscreenenter"",""1"",""2251""
","
","","","-1","","","14","5965","3432","p","elianto","#3366ff99"," ","-1","0","0","[]","0","2","","","5965","83","4","1","win","go","0"
"pit-trial","202","1249235","0.0-88.0","battery-v0.2","","""event"",""trial"",""time""
""focus"",""0"",""3""
""fullscreenenter"",""1"",""2251""
","
","""event"",""trial"",""time""
""focus"",""0"",""3""
","""event"",""trial"",""time""
""fullscreenenter"",""1"",""2251""
","
","","","-1","","","14","5965","3432","g","elianto","#f73b6a7A","-1","-1","1","-10","[]","0","2","","","5965","84","3","4","lose","no-go","1"
"pit-trial","203","1253155","0.0-89.0","battery-v0.2","","""event"",""trial"",""time""
""focus"",""0"",""3""
""fullscreenenter"",""1"",""2251""
","
","""event"",""trial"",""time""
""focus"",""0"",""3""
","""event"",""trial"",""time""
""fullscreenenter"",""1"",""2251""
","
","","","1040","","","14","5965","3432","p","elianto","#3366ff99"," "," ","1","0","[1894]","1","2","","","5965","85","4","1","win","go","1"
"pit-trial","204","1257386","0.0-90.0","battery-v0.2","","""event"",""trial"",""time""
""focus"",""0"",""3""
""fullscreenenter"",""1"",""2251""
","
","""event"",""trial"",""time""
""focus"",""0"",""3""
","""event"",""trial"",""time""
""fullscreenenter"",""1"",""2251""
","
","","","1351","","","14","5965","3432","s","elianto","#3366ff99","-1"," ","0","0","[2215]","1","2","","","5965","86","5","2","win","no-go","0"
"pit-trial","205","1261156","0.0-91.0","battery-v0.2","","""event"",""trial"",""time""
""focus"",""0"",""3""
""fullscreenenter"",""1"",""2251""
","
","""event"",""trial"",""time""
""focus"",""0"",""3""
","""event"",""trial"",""time""
""fullscreenenter"",""1"",""2251""
","
","","","893","","","14","5965","3432","w","elianto","#f73b6a7A"," "," ","1","0","[1757]","1","2","","","5965","87","6","3","lose","go","0"
"pit-trial","206","1264858","0.0-92.0","battery-v0.2","","""event"",""trial"",""time""
""focus"",""0"",""3""
""fullscreenenter"",""1"",""2251""
","
","""event"",""trial"",""time""
""focus"",""0"",""3""
","""event"",""trial"",""time""
""fullscreenenter"",""1"",""2251""
","
","","","835","","","14","5965","3432","e","elianto","#f73b6a7A","-1"," ","0","-10","[1686]","1","2","","","5965","88","7","4","lose","no-go","0"
"pit-trial","207","1269746","0.0-93.0","battery-v0.2","","""event"",""trial"",""time""
""focus"",""0"",""3""
""fullscreenenter"",""1"",""2251""
","
","""event"",""trial"",""time""
""focus"",""0"",""3""
","""event"",""trial"",""time""
""fullscreenenter"",""1"",""2251""
","
","","","-1","","","14","5965","3432","s","elianto","#3366ff99","-1","-1","1","+10","[]","0","2","","","5965","89","5","2","win","no-go","0"
"pit-trial","208","1273485","0.0-94.0","battery-v0.2","","""event"",""trial"",""time""
""focus"",""0"",""3""
""fullscreenenter"",""1"",""2251""
","
","""event"",""trial"",""time""
""focus"",""0"",""3""
","""event"",""trial"",""time""
""fullscreenenter"",""1"",""2251""
","
","","","866","","","14","5965","3432","w","elianto","#f73b6a7A"," "," ","1","0","[1720]","1","2","","","5965","90","6","3","lose","go","0"
"pit-trial","209","1278367","0.0-95.0","battery-v0.2","","""event"",""trial"",""time""
""focus"",""0"",""3""
""fullscreenenter"",""1"",""2251""
","
","""event"",""trial"",""time""
""focus"",""0"",""3""
","""event"",""trial"",""time""
""fullscreenenter"",""1"",""2251""
","
","","","-1","","","14","5965","3432","e","elianto","#f73b6a7A","-1","-1","1","0","[]","0","2","","","5965","91","7","4","lose","no-go","0"
"pit-trial","210","1283236","0.0-96.0","battery-v0.2","","""event"",""trial"",""time""
""focus"",""0"",""3""
""fullscreenenter"",""1"",""2251""
","
","""event"",""trial"",""time""
""focus"",""0"",""3""
","""event"",""trial"",""time""
""fullscreenenter"",""1"",""2251""
","
","","","-1","","","14","5965","3432","p","elianto","#3366ff99"," ","-1","0","+10","[]","0","2","","","5965","92","4","1","win","go","1"
"pit-trial","211","1287006","0.0-97.0","battery-v0.2","","""event"",""trial"",""time""
""focus"",""0"",""3""
""fullscreenenter"",""1"",""2251""
","
","""event"",""trial"",""time""
""focus"",""0"",""3""
","""event"",""trial"",""time""
""fullscreenenter"",""1"",""2251""
","
","","","880","","","14","5965","3432","d","elianto","#3366ff99"," "," ","1","+10","[1746]","1","2","","","5965","93","8","1","win","go","0"
"pit-trial","212","1291895","0.0-98.0","battery-v0.2","","""event"",""trial"",""time""
""focus"",""0"",""3""
""fullscreenenter"",""1"",""2251""
","
","""event"",""trial"",""time""
""focus"",""0"",""3""
","""event"",""trial"",""time""
""fullscreenenter"",""1"",""2251""
","
","","","-1","","","14","5965","3432","e","elianto","#f73b6a7A","-1","-1","1","0","[]","0","2","","","5965","94","7","4","lose","no-go","0"
"pit-trial","213","1295614","0.0-99.0","battery-v0.2","","""event"",""trial"",""time""
""focus"",""0"",""3""
""fullscreenenter"",""1"",""2251""
","
","""event"",""trial"",""time""
""focus"",""0"",""3""
","""event"",""trial"",""time""
""fullscreenenter"",""1"",""2251""
","
","","","852","","","14","5965","3432","s","elianto","#3366ff99","-1"," ","0","+10","[1710]","1","2","","","5965","95","5","2","win","no-go","1"
"pit-trial","214","1299245","0.0-100.0","battery-v0.2","","""event"",""trial"",""time""
""focus"",""0"",""3""
""fullscreenenter"",""1"",""2251""
","
","""event"",""trial"",""time""
""focus"",""0"",""3""
","""event"",""trial"",""time""
""fullscreenenter"",""1"",""2251""
","
","","","752","","","14","5965","3432","w","elianto","#f73b6a7A"," "," ","1","0","[1606]","1","2","","","5965","96","6","3","lose","go","0"
"pit-trial","215","1303315","0.0-101.0","battery-v0.2","","""event"",""trial"",""time""
""focus"",""0"",""3""
""fullscreenenter"",""1"",""2251""
","
","""event"",""trial"",""time""
""focus"",""0"",""3""
","""event"",""trial"",""time""
""fullscreenenter"",""1"",""2251""
","
","","","1201","","","14","5965","3432","d","elianto","#3366ff99"," "," ","1","+10","[2064]","1","2","","","5965","97","8","1","win","go","0"
"pit-trial","216","1306845","0.0-102.0","battery-v0.2","","""event"",""trial"",""time""
""focus"",""0"",""3""
""fullscreenenter"",""1"",""2251""
","
","""event"",""trial"",""time""
""focus"",""0"",""3""
","""event"",""trial"",""time""
""fullscreenenter"",""1"",""2251""
","
","","","661","","","14","5965","3432","s","elianto","#3366ff99","-1"," ","0","0","[1519]","1","2","","","5965","98","5","2","win","no-go","0"
"pit-trial","217","1310455","0.0-103.0","battery-v0.2","","""event"",""trial"",""time""
""focus"",""0"",""3""
""fullscreenenter"",""1"",""2251""
","
","""event"",""trial"",""time""
""focus"",""0"",""3""
","""event"",""trial"",""time""
""fullscreenenter"",""1"",""2251""
","
","","","730","","","14","5965","3432","w","elianto","#f73b6a7A"," "," ","1","0","[1590]","1","2","","","5965","99","6","3","lose","go","0"
"pit-trial","218","1314275","0.0-104.0","battery-v0.2","","""event"",""trial"",""time""
""focus"",""0"",""3""
""fullscreenenter"",""1"",""2251""
","
","""event"",""trial"",""time""
""focus"",""0"",""3""
","""event"",""trial"",""time""
""fullscreenenter"",""1"",""2251""
","
","","","938","","","14","5965","3432","e","elianto","#f73b6a7A","-1"," ","0","-10","[1804]","1","2","","","5965","100","7","4","lose","no-go","0"
"pit-trial","219","1319162","0.0-105.0","battery-v0.2","","""event"",""trial"",""time""
""focus"",""0"",""3""
""fullscreenenter"",""1"",""2251""
","
","""event"",""trial"",""time""
""focus"",""0"",""3""
","""event"",""trial"",""time""
""fullscreenenter"",""1"",""2251""
","
","","","-1","","","14","5965","3432","e","elianto","#f73b6a7A","-1","-1","1","0","[]","0","2","","","5965","101","7","4","lose","no-go","0"
"pit-trial","220","1322885","0.0-106.0","battery-v0.2","","""event"",""trial"",""time""
""focus"",""0"",""3""
""fullscreenenter"",""1"",""2251""
","
","""event"",""trial"",""time""
""focus"",""0"",""3""
","""event"",""trial"",""time""
""fullscreenenter"",""1"",""2251""
","
","","","842","","","14","5965","3432","j","elianto","#3366ff99"," "," ","1","+10","[1704]","1","2","","","5965","102","9","1","win","go","0"
"pit-trial","221","1326626","0.0-107.0","battery-v0.2","","""event"",""trial"",""time""
""focus"",""0"",""3""
""fullscreenenter"",""1"",""2251""
","
","""event"",""trial"",""time""
""focus"",""0"",""3""
","""event"",""trial"",""time""
""fullscreenenter"",""1"",""2251""
","
","","","863","","","14","5965","3432","d","elianto","#3366ff99"," "," ","1","+10","[1727]","1","2","","","5965","103","8","1","win","go","0"
"pit-trial","222","1331496","0.0-108.0","battery-v0.2","","""event"",""trial"",""time""
""focus"",""0"",""3""
""fullscreenenter"",""1"",""2251""
","
","""event"",""trial"",""time""
""focus"",""0"",""3""
","""event"",""trial"",""time""
""fullscreenenter"",""1"",""2251""
","
","","","-1","","","14","5965","3432","s","elianto","#3366ff99","-1","-1","1","+10","[]","0","2","","","5965","104","5","2","win","no-go","0"
"pit-trial","223","1335905","0.0-109.0","battery-v0.2","","""event"",""trial"",""time""
""focus"",""0"",""3""
""fullscreenenter"",""1"",""2251""
","
","""event"",""trial"",""time""
""focus"",""0"",""3""
","""event"",""trial"",""time""
""fullscreenenter"",""1"",""2251""
","
","","","1510","","","14","5965","3432","p","elianto","#3366ff99"," "," ","1","+10","[2389]","1","2","","","5965","105","4","1","win","go","0"
"pit-trial","224","1339685","0.0-110.0","battery-v0.2","","""event"",""trial"",""time""
""focus"",""0"",""3""
""fullscreenenter"",""1"",""2251""
","
","""event"",""trial"",""time""
""focus"",""0"",""3""
","""event"",""trial"",""time""
""fullscreenenter"",""1"",""2251""
","
","","","906","","","14","5965","3432","d","elianto","#3366ff99"," "," ","1","+10","[1759]","1","2","","","5965","106","8","1","win","go","0"
"pit-trial","225","1343334","0.0-111.0","battery-v0.2","","""event"",""trial"",""time""
""focus"",""0"",""3""
""fullscreenenter"",""1"",""2251""
","
","""event"",""trial"",""time""
""focus"",""0"",""3""
","""event"",""trial"",""time""
""fullscreenenter"",""1"",""2251""
","
","","","769","","","14","5965","3432","w","elianto","#f73b6a7A"," "," ","1","0","[1628]","1","2","","","5965","107","6","3","lose","go","0"
"pit-trial","226","1347104","0.0-112.0","battery-v0.2","","""event"",""trial"",""time""
""focus"",""0"",""3""
""fullscreenenter"",""1"",""2251""
","
","""event"",""trial"",""time""
""focus"",""0"",""3""
","""event"",""trial"",""time""
""fullscreenenter"",""1"",""2251""
","
","","","901","","","14","5965","3432","j","elianto","#3366ff99"," "," ","1","+10","[1760]","1","2","","","5965","108","9","1","win","go","0"
"pit-trial","227","1351977","0.0-113.0","battery-v0.2","","""event"",""trial"",""time""
""focus"",""0"",""3""
""fullscreenenter"",""1"",""2251""
","
","""event"",""trial"",""time""
""focus"",""0"",""3""
","""event"",""trial"",""time""
""fullscreenenter"",""1"",""2251""
","
","","","-1","","","14","5965","3432","s","elianto","#3366ff99","-1","-1","1","+10","[]","0","2","","","5965","109","5","2","win","no-go","0"
"pit-trial","228","1355644","0.0-114.0","battery-v0.2","","""event"",""trial"",""time""
""focus"",""0"",""3""
""fullscreenenter"",""1"",""2251""
","
","""event"",""trial"",""time""
""focus"",""0"",""3""
","""event"",""trial"",""time""
""fullscreenenter"",""1"",""2251""
","
","","","793","","","14","5965","3432","d","elianto","#3366ff99"," "," ","1","+10","[1645]","1","2","","","5965","110","8","1","win","go","0"
"pit-trial","229","1359275","0.0-115.0","battery-v0.2","","""event"",""trial"",""time""
""focus"",""0"",""3""
""fullscreenenter"",""1"",""2251""
","
","""event"",""trial"",""time""
""focus"",""0"",""3""
","""event"",""trial"",""time""
""fullscreenenter"",""1"",""2251""
","
","","","750","","","14","5965","3432","w","elianto","#f73b6a7A"," "," ","1","0","[1617]","1","2","","","5965","111","6","3","lose","go","0"
"pit-trial","230","1362905","0.0-116.0","battery-v0.2","","""event"",""trial"",""time""
""focus"",""0"",""3""
""fullscreenenter"",""1"",""2251""
","
","""event"",""trial"",""time""
""focus"",""0"",""3""
","""event"",""trial"",""time""
""fullscreenenter"",""1"",""2251""
","
","","","753","","","14","5965","3432","j","elianto","#3366ff99"," "," ","1","0","[1620]","1","2","","","5965","112","9","1","win","go","1"
