"trial_type","trial_index","time_elapsed","internal_node_id","task_version","subject_id","interactions","blur_events","focus_events","fullscreenenter_events","fullscreenexit_events","success","view_history","rt","responses","num_errors","age","subject","participantId","rune","rune_set","hex","correct","choice","accuracy","outcome","keys","total_keys","block","practice","value","sub","trial","stimulus","robot","valence","action","sham"
"pavlovia","0","7","0.0-0.0","battery-v0.2","","""event"",""trial"",""time""
""blur"",""1"",""23346""
""focus"",""1"",""81111""
""fullscreenenter"",""1"",""82598""
","""event"",""trial"",""time""
""blur"",""1"",""23346""
","""event"",""trial"",""time""
""focus"",""1"",""81111""
","""event"",""trial"",""time""
""fullscreenenter"",""1"",""82598""
","
","","","","","","","","","","","","","","","","","","","","","","","","","","",""
"fullscreen","1","83580","0.0-1.0","battery-v0.2","","""event"",""trial"",""time""
""blur"",""1"",""23346""
""focus"",""1"",""81111""
""fullscreenenter"",""1"",""82598""
","""event"",""trial"",""time""
""blur"",""1"",""23346""
","""event"",""trial"",""time""
""focus"",""1"",""81111""
","""event"",""trial"",""time""
""fullscreenenter"",""1"",""82598""
","
","true","","","","","","","","","","","","","","","","","","","","","","","","","",""
"pit-instructions","2","91172","0.0-2.0-0.0","battery-v0.2","","""event"",""trial"",""time""
""blur"",""1"",""23346""
""focus"",""1"",""81111""
""fullscreenenter"",""1"",""82598""
","""event"",""trial"",""time""
""blur"",""1"",""23346""
","""event"",""trial"",""time""
""focus"",""1"",""81111""
","""event"",""trial"",""time""
""fullscreenenter"",""1"",""82598""
","
","","[{""page_index"":0,""viewing_time"":7588.800000190735}]","7589.200000047684","","","","","","","","","","","","","","","","","","","","","","","",""
"pit-comprehension","3","103850","0.0-2.0-1.0-0.0","battery-v0.2","","""event"",""trial"",""time""
""blur"",""1"",""23346""
""focus"",""1"",""81111""
""fullscreenenter"",""1"",""82598""
","""event"",""trial"",""time""
""blur"",""1"",""23346""
","""event"",""trial"",""time""
""focus"",""1"",""81111""
","""event"",""trial"",""time""
""fullscreenenter"",""1"",""82598""
","
","","","12676.399999856949","[""tiger""]","1","23","6065","3526","","","","","","","","","","","","","","","","","","",""
"pit-instructions","4","108788","0.0-2.0-1.0-1.0","battery-v0.2","","""event"",""trial"",""time""
""blur"",""1"",""23346""
""focus"",""1"",""81111""
""fullscreenenter"",""1"",""82598""
","""event"",""trial"",""time""
""blur"",""1"",""23346""
","""event"",""trial"",""time""
""focus"",""1"",""81111""
","""event"",""trial"",""time""
""fullscreenenter"",""1"",""82598""
","
","","[{""page_index"":0,""viewing_time"":4929.900000095367}]","4930.100000143051","","","","","","","","","","","","","","","","","","","","","","","",""
"pit-instructions","5","109999","0.0-2.0-1.0-2.0-0.0","battery-v0.2","","""event"",""trial"",""time""
""blur"",""1"",""23346""
""focus"",""1"",""81111""
""fullscreenenter"",""1"",""82598""
","""event"",""trial"",""time""
""blur"",""1"",""23346""
","""event"",""trial"",""time""
""focus"",""1"",""81111""
","""event"",""trial"",""time""
""fullscreenenter"",""1"",""82598""
","
","","[{""page_index"":0,""viewing_time"":1210.4000000953674}]","1210.6000001430511","","","","","","","","","","","","","","","","","","","","","","","",""
"pit-comprehension","6","112999","0.0-2.0-1.1-0.1","battery-v0.2","","""event"",""trial"",""time""
""blur"",""1"",""23346""
""focus"",""1"",""81111""
""fullscreenenter"",""1"",""82598""
","""event"",""trial"",""time""
""blur"",""1"",""23346""
","""event"",""trial"",""time""
""focus"",""1"",""81111""
","""event"",""trial"",""time""
""fullscreenenter"",""1"",""82598""
","
","","","2997.5","[""shark""]","0","23","6065","3526","","","","","","","","","","","","","","","","","","",""
"pit-instructions","7","116688","0.0-2.0-1.1-1.1","battery-v0.2","","""event"",""trial"",""time""
""blur"",""1"",""23346""
""focus"",""1"",""81111""
""fullscreenenter"",""1"",""82598""
","""event"",""trial"",""time""
""blur"",""1"",""23346""
","""event"",""trial"",""time""
""focus"",""1"",""81111""
","""event"",""trial"",""time""
""fullscreenenter"",""1"",""82598""
","
","","[{""page_index"":0,""viewing_time"":3686.7999999523163}]","3687","","","","","","","","","","","","","","","","","","","","","","","",""
"pit-comprehension","8","118938","0.0-2.0-2.0-0.0","battery-v0.2","","""event"",""trial"",""time""
""blur"",""1"",""23346""
""focus"",""1"",""81111""
""fullscreenenter"",""1"",""82598""
","""event"",""trial"",""time""
""blur"",""1"",""23346""
","""event"",""trial"",""time""
""focus"",""1"",""81111""
","""event"",""trial"",""time""
""fullscreenenter"",""1"",""82598""
","
","","","2248.399999856949","[""tiger""]","0","23","6065","3526","","","","","","","","","","","","","","","","","","",""
"pit-instructions","9","122023","0.0-2.0-2.0-1.0","battery-v0.2","","""event"",""trial"",""time""
""blur"",""1"",""23346""
""focus"",""1"",""81111""
""fullscreenenter"",""1"",""82598""
","""event"",""trial"",""time""
""blur"",""1"",""23346""
","""event"",""trial"",""time""
""focus"",""1"",""81111""
","""event"",""trial"",""time""
""fullscreenenter"",""1"",""82598""
","
","","[{""page_index"":0,""viewing_time"":3083.2000000476837}]","3083.4000000953674","","","","","","","","","","","","","","","","","","","","","","","",""
"pit-instructions","10","225046","0.0-2.0-3.0","battery-v0.2","","""event"",""trial"",""time""
""blur"",""1"",""23346""
""focus"",""1"",""81111""
""fullscreenenter"",""1"",""82598""
","""event"",""trial"",""time""
""blur"",""1"",""23346""
","""event"",""trial"",""time""
""focus"",""1"",""81111""
","""event"",""trial"",""time""
""fullscreenenter"",""1"",""82598""
","
","","[{""page_index"":0,""viewing_time"":10350.700000047684},{""page_index"":1,""viewing_time"":7604.700000047684},{""page_index"":2,""viewing_time"":6858.099999904633},{""page_index"":3,""viewing_time"":6058},{""page_index"":4,""viewing_time"":5797.799999952316},{""page_index"":5,""viewing_time"":5569},{""page_index"":6,""viewing_time"":8436.200000047684},{""page_index"":7,""viewing_time"":6119.599999904633},{""page_index"":8,""viewing_time"":6880.600000143051},{""page_index"":9,""viewing_time"":10831.899999856949},{""page_index"":10,""viewing_time"":7987.900000095367},{""page_index"":11,""viewing_time"":7991.099999904633},{""page_index"":12,""viewing_time"":6740.700000047684},{""page_index"":13,""viewing_time"":5794.5}]","103021.09999990463","","","","","","","","","","","","","","","","","","","","","","","",""
"pit-trial","11","228609","0.0-2.0-4.0-0.0","battery-v0.2","","""event"",""trial"",""time""
""blur"",""1"",""23346""
""focus"",""1"",""81111""
""fullscreenenter"",""1"",""82598""
","""event"",""trial"",""time""
""blur"",""1"",""23346""
","""event"",""trial"",""time""
""focus"",""1"",""81111""
","""event"",""trial"",""time""
""fullscreenenter"",""1"",""82598""
","
","","","687.9000000953674","","","23","6065","3526","&#9784;","elianto","#FFFFF080"," "," ","1","&#10004","[1543.8999998569489]","1","0","0","","","","","","","",""
"pit-trial","12","231886","0.0-2.0-4.1-0.1","battery-v0.2","","""event"",""trial"",""time""
""blur"",""1"",""23346""
""focus"",""1"",""81111""
""fullscreenenter"",""1"",""82598""
","""event"",""trial"",""time""
""blur"",""1"",""23346""
","""event"",""trial"",""time""
""focus"",""1"",""81111""
","""event"",""trial"",""time""
""fullscreenenter"",""1"",""82598""
","
","","","409.2999999523163","","","23","6065","3526","&#9784;","elianto","#FFFFF080"," "," ","1","&#10004","[1267.0999999046326]","1","0","0","","","","","","","",""
"pit-trial","13","235187","0.0-2.0-4.2-0.2","battery-v0.2","","""event"",""trial"",""time""
""blur"",""1"",""23346""
""focus"",""1"",""81111""
""fullscreenenter"",""1"",""82598""
","""event"",""trial"",""time""
""blur"",""1"",""23346""
","""event"",""trial"",""time""
""focus"",""1"",""81111""
","""event"",""trial"",""time""
""fullscreenenter"",""1"",""82598""
","
","","","443.7000000476837","","","23","6065","3526","&#9784;","elianto","#FFFFF080"," "," ","1","&#10004","[1294]","1","0","0","","","","","","","",""
"pit-trial","14","238482","0.0-2.0-4.3-0.3","battery-v0.2","","""event"",""trial"",""time""
""blur"",""1"",""23346""
""focus"",""1"",""81111""
""fullscreenenter"",""1"",""82598""
","""event"",""trial"",""time""
""blur"",""1"",""23346""
","""event"",""trial"",""time""
""focus"",""1"",""81111""
","""event"",""trial"",""time""
""fullscreenenter"",""1"",""82598""
","
","","","425.89999985694885","","","23","6065","3526","&#9784;","elianto","#FFFFF080"," "," ","1","&#10004","[1289.6999998092651]","1","0","0","","","","","","","",""
"pit-trial","15","241839","0.0-2.0-4.4-0.4","battery-v0.2","","""event"",""trial"",""time""
""blur"",""1"",""23346""
""focus"",""1"",""81111""
""fullscreenenter"",""1"",""82598""
","""event"",""trial"",""time""
""blur"",""1"",""23346""
","""event"",""trial"",""time""
""focus"",""1"",""81111""
","""event"",""trial"",""time""
""fullscreenenter"",""1"",""82598""
","
","","","483.90000009536743","","","23","6065","3526","&#9784;","elianto","#FFFFF080"," "," ","1","&#10004","[1335.7000000476837]","1","0","0","","","","","","","",""
"pit-instructions","16","283449","0.0-2.0-5.0","battery-v0.2","","""event"",""trial"",""time""
""blur"",""1"",""23346""
""focus"",""1"",""81111""
""fullscreenenter"",""1"",""82598""
","""event"",""trial"",""time""
""blur"",""1"",""23346""
","""event"",""trial"",""time""
""focus"",""1"",""81111""
","""event"",""trial"",""time""
""fullscreenenter"",""1"",""82598""
","
","","[{""page_index"":0,""viewing_time"":6860.399999856949},{""page_index"":1,""viewing_time"":24580},{""page_index"":2,""viewing_time"":4603.799999952316},{""page_index"":3,""viewing_time"":5564.700000047684}]","41609.199999809265","","","","","","","","","","","","","","","","","","","","","","","",""
"pit-trial","17","288322","0.0-2.0-6.0-0.0","battery-v0.2","","""event"",""trial"",""time""
""blur"",""1"",""23346""
""focus"",""1"",""81111""
""fullscreenenter"",""1"",""82598""
","""event"",""trial"",""time""
""blur"",""1"",""23346""
","""event"",""trial"",""time""
""focus"",""1"",""81111""
","""event"",""trial"",""time""
""fullscreenenter"",""1"",""82598""
","
","","","-1","","","23","6065","3526","&#9854;","elianto","#FFFFF080","-1","-1","1","&#10004","[]","0","0","1","","","","","","","",""
"pit-trial","18","293198","0.0-2.0-6.1-0.1","battery-v0.2","","""event"",""trial"",""time""
""blur"",""1"",""23346""
""focus"",""1"",""81111""
""fullscreenenter"",""1"",""82598""
","""event"",""trial"",""time""
""blur"",""1"",""23346""
","""event"",""trial"",""time""
""focus"",""1"",""81111""
","""event"",""trial"",""time""
""fullscreenenter"",""1"",""82598""
","
","","","-1","","","23","6065","3526","&#9854;","elianto","#FFFFF080","-1","-1","1","&#10004","[]","0","0","1","","","","","","","",""
"pit-trial","19","298085","0.0-2.0-6.2-0.2","battery-v0.2","","""event"",""trial"",""time""
""blur"",""1"",""23346""
""focus"",""1"",""81111""
""fullscreenenter"",""1"",""82598""
","""event"",""trial"",""time""
""blur"",""1"",""23346""
","""event"",""trial"",""time""
""focus"",""1"",""81111""
","""event"",""trial"",""time""
""fullscreenenter"",""1"",""82598""
","
","","","-1","","","23","6065","3526","&#9854;","elianto","#FFFFF080","-1","-1","1","&#10004","[]","0","0","1","","","","","","","",""
"pit-trial","20","302952","0.0-2.0-6.3-0.3","battery-v0.2","","""event"",""trial"",""time""
""blur"",""1"",""23346""
""focus"",""1"",""81111""
""fullscreenenter"",""1"",""82598""
","""event"",""trial"",""time""
""blur"",""1"",""23346""
","""event"",""trial"",""time""
""focus"",""1"",""81111""
","""event"",""trial"",""time""
""fullscreenenter"",""1"",""82598""
","
","","","-1","","","23","6065","3526","&#9854;","elianto","#FFFFF080","-1","-1","1","&#10004","[]","0","0","1","","","","","","","",""
"pit-trial","21","307826","0.0-2.0-6.4-0.4","battery-v0.2","","""event"",""trial"",""time""
""blur"",""1"",""23346""
""focus"",""1"",""81111""
""fullscreenenter"",""1"",""82598""
","""event"",""trial"",""time""
""blur"",""1"",""23346""
","""event"",""trial"",""time""
""focus"",""1"",""81111""
","""event"",""trial"",""time""
""fullscreenenter"",""1"",""82598""
","
","","","-1","","","23","6065","3526","&#9854;","elianto","#FFFFF080","-1","-1","1","&#10004","[]","0","0","1","","","","","","","",""
"pit-instructions","22","559158","0.0-2.0-7.0","battery-v0.2","","""event"",""trial"",""time""
""blur"",""1"",""23346""
""focus"",""1"",""81111""
""fullscreenenter"",""1"",""82598""
","""event"",""trial"",""time""
""blur"",""1"",""23346""
","""event"",""trial"",""time""
""focus"",""1"",""81111""
","""event"",""trial"",""time""
""fullscreenenter"",""1"",""82598""
","
","","[{""page_index"":0,""viewing_time"":8246.700000047684},{""page_index"":1,""viewing_time"":14333.899999856949},{""page_index"":2,""viewing_time"":7004.800000190735},{""page_index"":3,""viewing_time"":9094.399999856949},{""page_index"":4,""viewing_time"":8468.799999952316},{""page_index"":5,""viewing_time"":8324.700000047684},{""page_index"":6,""viewing_time"":42597.299999952316},{""page_index"":7,""viewing_time"":8554},{""page_index"":8,""viewing_time"":19139.900000095367},{""page_index"":9,""viewing_time"":10350},{""page_index"":10,""viewing_time"":8771.099999904633},{""page_index"":11,""viewing_time"":4223.300000190735},{""page_index"":12,""viewing_time"":7372.599999904633},{""page_index"":13,""viewing_time"":8200.400000095367},{""page_index"":14,""viewing_time"":6806},{""page_index"":15,""viewing_time"":12456.699999809265},{""page_index"":16,""viewing_time"":57941},{""page_index"":17,""viewing_time"":9445.100000143051}]","251330.90000009537","","","","","","","","","","","","","","","","","","","","","","","",""
"pit-trial","23","562746","0.0-2.0-8.0-0.0","battery-v0.2","","""event"",""trial"",""time""
""blur"",""1"",""23346""
""focus"",""1"",""81111""
""fullscreenenter"",""1"",""82598""
","""event"",""trial"",""time""
""blur"",""1"",""23346""
","""event"",""trial"",""time""
""focus"",""1"",""81111""
","""event"",""trial"",""time""
""fullscreenenter"",""1"",""82598""
","
","","","716.8000001907349","","","23","6065","3526","&#9776;","elianto","#3366ff99"," "," ","1","+10","[1575.5999999046326]","1","0","1","","","","","","","",""
"pit-trial","24","565947","0.0-2.0-8.0-1.0","battery-v0.2","","""event"",""trial"",""time""
""blur"",""1"",""23346""
""focus"",""1"",""81111""
""fullscreenenter"",""1"",""82598""
","""event"",""trial"",""time""
""blur"",""1"",""23346""
","""event"",""trial"",""time""
""focus"",""1"",""81111""
","""event"",""trial"",""time""
""fullscreenenter"",""1"",""82598""
","
","","","341.5","","","23","6065","3526","&#9776;","elianto","#3366ff99"," "," ","1","+10","[1197.7000000476837]","1","0","1","","","","","","","",""
"pit-trial","25","569082","0.0-2.0-8.0-2.0","battery-v0.2","","""event"",""trial"",""time""
""blur"",""1"",""23346""
""focus"",""1"",""81111""
""fullscreenenter"",""1"",""82598""
","""event"",""trial"",""time""
""blur"",""1"",""23346""
","""event"",""trial"",""time""
""focus"",""1"",""81111""
","""event"",""trial"",""time""
""fullscreenenter"",""1"",""82598""
","
","","","263.59999990463257","","","23","6065","3526","&#9776;","elianto","#3366ff99"," "," ","1","+10","[1117.6999998092651]","1","0","1","","","","","","","",""
"pit-trial","26","572093","0.0-2.0-8.0-3.0","battery-v0.2","","""event"",""trial"",""time""
""blur"",""1"",""23346""
""focus"",""1"",""81111""
""fullscreenenter"",""1"",""82598""
","""event"",""trial"",""time""
""blur"",""1"",""23346""
","""event"",""trial"",""time""
""focus"",""1"",""81111""
","""event"",""trial"",""time""
""fullscreenenter"",""1"",""82598""
","
","","","139.79999995231628","","","23","6065","3526","&#9776;","elianto","#3366ff99"," "," ","1","0","[991.7999999523163]","1","0","1","","","","","","","",""
"pit-trial","27","575171","0.0-2.0-8.0-4.0","battery-v0.2","","""event"",""trial"",""time""
""blur"",""1"",""23346""
""focus"",""1"",""81111""
""fullscreenenter"",""1"",""82598""
","""event"",""trial"",""time""
""blur"",""1"",""23346""
","""event"",""trial"",""time""
""focus"",""1"",""81111""
","""event"",""trial"",""time""
""fullscreenenter"",""1"",""82598""
","
","","","201.70000004768372","","","23","6065","3526","&#9776;","elianto","#3366ff99"," "," ","1","+10","[1055.1000001430511]","1","0","1","","","","","","","",""
"pit-trial","28","578396","0.0-2.0-8.1-0.1","battery-v0.2","","""event"",""trial"",""time""
""blur"",""1"",""23346""
""focus"",""1"",""81111""
""fullscreenenter"",""1"",""82598""
","""event"",""trial"",""time""
""blur"",""1"",""23346""
","""event"",""trial"",""time""
""focus"",""1"",""81111""
","""event"",""trial"",""time""
""fullscreenenter"",""1"",""82598""
","
","","","366.90000009536743","","","23","6065","3526","&#9776;","elianto","#3366ff99"," "," ","1","+10","[1220.5]","1","0","1","","","","","","","",""
"pit-trial","29","581627","0.0-2.0-8.1-1.1","battery-v0.2","","""event"",""trial"",""time""
""blur"",""1"",""23346""
""focus"",""1"",""81111""
""fullscreenenter"",""1"",""82598""
","""event"",""trial"",""time""
""blur"",""1"",""23346""
","""event"",""trial"",""time""
""focus"",""1"",""81111""
","""event"",""trial"",""time""
""fullscreenenter"",""1"",""82598""
","
","","","368.90000009536743","","","23","6065","3526","&#9776;","elianto","#3366ff99"," "," ","1","+10","[1224.1000001430511]","1","0","1","","","","","","","",""
"pit-trial","30","584637","0.0-2.0-8.1-2.1","battery-v0.2","","""event"",""trial"",""time""
""blur"",""1"",""23346""
""focus"",""1"",""81111""
""fullscreenenter"",""1"",""82598""
","""event"",""trial"",""time""
""blur"",""1"",""23346""
","""event"",""trial"",""time""
""focus"",""1"",""81111""
","""event"",""trial"",""time""
""fullscreenenter"",""1"",""82598""
","
","","","137","","","23","6065","3526","&#9776;","elianto","#3366ff99"," "," ","1","+10","[993.5]","1","0","1","","","","","","","",""
"pit-trial","31","587929","0.0-2.0-8.1-3.1","battery-v0.2","","""event"",""trial"",""time""
""blur"",""1"",""23346""
""focus"",""1"",""81111""
""fullscreenenter"",""1"",""82598""
","""event"",""trial"",""time""
""blur"",""1"",""23346""
","""event"",""trial"",""time""
""focus"",""1"",""81111""
","""event"",""trial"",""time""
""fullscreenenter"",""1"",""82598""
","
","","","419.7999999523163","","","23","6065","3526","&#9776;","elianto","#3366ff99"," "," ","1","0","[1283.2999999523163]","1","0","1","","","","","","","",""
"pit-trial","32","590970","0.0-2.0-8.1-4.1","battery-v0.2","","""event"",""trial"",""time""
""blur"",""1"",""23346""
""focus"",""1"",""81111""
""fullscreenenter"",""1"",""82598""
","""event"",""trial"",""time""
""blur"",""1"",""23346""
","""event"",""trial"",""time""
""focus"",""1"",""81111""
","""event"",""trial"",""time""
""fullscreenenter"",""1"",""82598""
","
","","","182.59999990463257","","","23","6065","3526","&#9776;","elianto","#3366ff99"," "," ","1","+10","[1037.1999998092651]","1","0","1","","","","","","","",""
"pit-trial","33","594202","0.0-2.0-8.2-0.2","battery-v0.2","","""event"",""trial"",""time""
""blur"",""1"",""23346""
""focus"",""1"",""81111""
""fullscreenenter"",""1"",""82598""
","""event"",""trial"",""time""
""blur"",""1"",""23346""
","""event"",""trial"",""time""
""focus"",""1"",""81111""
","""event"",""trial"",""time""
""fullscreenenter"",""1"",""82598""
","
","","","369.09999990463257","","","23","6065","3526","&#9776;","elianto","#3366ff99"," "," ","1","+10","[1223.7999999523163]","1","0","1","","","","","","","",""
"pit-trial","34","597265","0.0-2.0-8.2-1.2","battery-v0.2","","""event"",""trial"",""time""
""blur"",""1"",""23346""
""focus"",""1"",""81111""
""fullscreenenter"",""1"",""82598""
","""event"",""trial"",""time""
""blur"",""1"",""23346""
","""event"",""trial"",""time""
""focus"",""1"",""81111""
","""event"",""trial"",""time""
""fullscreenenter"",""1"",""82598""
","
","","","205.79999995231628","","","23","6065","3526","&#9776;","elianto","#3366ff99"," "," ","1","+10","[1056.7000000476837]","1","0","1","","","","","","","",""
"pit-trial","35","600225","0.0-2.0-8.2-2.2","battery-v0.2","","""event"",""trial"",""time""
""blur"",""1"",""23346""
""focus"",""1"",""81111""
""fullscreenenter"",""1"",""82598""
","""event"",""trial"",""time""
""blur"",""1"",""23346""
","""event"",""trial"",""time""
""focus"",""1"",""81111""
","""event"",""trial"",""time""
""fullscreenenter"",""1"",""82598""
","
","","","106.09999990463257","","","23","6065","3526","&#9776;","elianto","#3366ff99"," "," ","1","+10","[958.0999999046326]","1","0","1","","","","","","","",""
"pit-trial","36","603466","0.0-2.0-8.2-3.2","battery-v0.2","","""event"",""trial"",""time""
""blur"",""1"",""23346""
""focus"",""1"",""81111""
""fullscreenenter"",""1"",""82598""
","""event"",""trial"",""time""
""blur"",""1"",""23346""
","""event"",""trial"",""time""
""focus"",""1"",""81111""
","""event"",""trial"",""time""
""fullscreenenter"",""1"",""82598""
","
","","","380","","","23","6065","3526","&#9776;","elianto","#3366ff99"," "," ","1","0","[99.09999990463257,1236.2000000476837]","2","0","1","","","","","","","",""
"pit-trial","37","606610","0.0-2.0-8.2-4.2","battery-v0.2","","""event"",""trial"",""time""
""blur"",""1"",""23346""
""focus"",""1"",""81111""
""fullscreenenter"",""1"",""82598""
","""event"",""trial"",""time""
""blur"",""1"",""23346""
","""event"",""trial"",""time""
""focus"",""1"",""81111""
","""event"",""trial"",""time""
""fullscreenenter"",""1"",""82598""
","
","","","284.89999985694885","","","23","6065","3526","&#9776;","elianto","#3366ff99"," "," ","1","+10","[1136.2999999523163]","1","0","1","","","","","","","",""
"call-function","38","606611","0.0-2.0-9.0","battery-v0.2","","""event"",""trial"",""time""
""blur"",""1"",""23346""
""focus"",""1"",""81111""
""fullscreenenter"",""1"",""82598""
","""event"",""trial"",""time""
""blur"",""1"",""23346""
","""event"",""trial"",""time""
""focus"",""1"",""81111""
","""event"",""trial"",""time""
""fullscreenenter"",""1"",""82598""
","
","","","","","","","","","","","","","","","","","","","","","","","","","","",""
"pit-instructions","39","681111","0.0-2.0-10.0","battery-v0.2","","""event"",""trial"",""time""
""blur"",""1"",""23346""
""focus"",""1"",""81111""
""fullscreenenter"",""1"",""82598""
","""event"",""trial"",""time""
""blur"",""1"",""23346""
","""event"",""trial"",""time""
""focus"",""1"",""81111""
","""event"",""trial"",""time""
""fullscreenenter"",""1"",""82598""
","
","","[{""page_index"":0,""viewing_time"":25749.60000014305},{""page_index"":1,""viewing_time"":8562.099999904633},{""page_index"":2,""viewing_time"":12831.200000047684},{""page_index"":3,""viewing_time"":11813},{""page_index"":4,""viewing_time"":15543.700000047684}]","74499.90000009537","","","","","","","","","","","","","","","","","","","","","","","",""
"pit-trial","40","684424","0.0-2.0-11.0-0.0","battery-v0.2","","""event"",""trial"",""time""
""blur"",""1"",""23346""
""focus"",""1"",""81111""
""fullscreenenter"",""1"",""82598""
","""event"",""trial"",""time""
""blur"",""1"",""23346""
","""event"",""trial"",""time""
""focus"",""1"",""81111""
","""event"",""trial"",""time""
""fullscreenenter"",""1"",""82598""
","
","","","437.2000000476837","","","23","6065","3526","&#9761;","elianto","#3366ff99","-1"," ","0","0","[1293.5]","1","0","2","","","","","","","",""
"pit-trial","41","689313","0.0-2.0-11.0-1.0","battery-v0.2","","""event"",""trial"",""time""
""blur"",""1"",""23346""
""focus"",""1"",""81111""
""fullscreenenter"",""1"",""82598""
","""event"",""trial"",""time""
""blur"",""1"",""23346""
","""event"",""trial"",""time""
""focus"",""1"",""81111""
","""event"",""trial"",""time""
""fullscreenenter"",""1"",""82598""
","
","","","-1","","","23","6065","3526","&#9761;","elianto","#3366ff99","-1","-1","1","+10","[]","0","0","2","","","","","","","",""
"pit-trial","42","692259","0.0-2.0-11.0-2.0","battery-v0.2","","""event"",""trial"",""time""
""blur"",""1"",""23346""
""focus"",""1"",""81111""
""fullscreenenter"",""1"",""82598""
","""event"",""trial"",""time""
""blur"",""1"",""23346""
","""event"",""trial"",""time""
""focus"",""1"",""81111""
","""event"",""trial"",""time""
""fullscreenenter"",""1"",""82598""
","
","","","78.39999985694885","","","23","6065","3526","&#9761;","elianto","#3366ff99","-1"," ","0","0","[933.5]","1","0","2","","","","","","","",""
"pit-trial","43","697128","0.0-2.0-11.0-3.0","battery-v0.2","","""event"",""trial"",""time""
""blur"",""1"",""23346""
""focus"",""1"",""81111""
""fullscreenenter"",""1"",""82598""
","""event"",""trial"",""time""
""blur"",""1"",""23346""
","""event"",""trial"",""time""
""focus"",""1"",""81111""
","""event"",""trial"",""time""
""fullscreenenter"",""1"",""82598""
","
","","","-1","","","23","6065","3526","&#9761;","elianto","#3366ff99","-1","-1","1","0","[4369.400000095367]","1","0","2","","","","","","","",""
"pit-trial","44","700160","0.0-2.0-11.0-4.0","battery-v0.2","","""event"",""trial"",""time""
""blur"",""1"",""23346""
""focus"",""1"",""81111""
""fullscreenenter"",""1"",""82598""
","""event"",""trial"",""time""
""blur"",""1"",""23346""
","""event"",""trial"",""time""
""focus"",""1"",""81111""
","""event"",""trial"",""time""
""fullscreenenter"",""1"",""82598""
","
","","","166.70000004768372","","","23","6065","3526","&#9761;","elianto","#3366ff99","-1"," ","0","0","[1022.2999999523163]","1","0","2","","","","","","","",""
"pit-trial","45","705027","0.0-2.0-11.1-0.1","battery-v0.2","","""event"",""trial"",""time""
""blur"",""1"",""23346""
""focus"",""1"",""81111""
""fullscreenenter"",""1"",""82598""
","""event"",""trial"",""time""
""blur"",""1"",""23346""
","""event"",""trial"",""time""
""focus"",""1"",""81111""
","""event"",""trial"",""time""
""fullscreenenter"",""1"",""82598""
","
","","","-1","","","23","6065","3526","&#9761;","elianto","#3366ff99","-1","-1","1","+10","[]","0","0","2","","","","","","","",""
"pit-trial","46","709890","0.0-2.0-11.1-1.1","battery-v0.2","","""event"",""trial"",""time""
""blur"",""1"",""23346""
""focus"",""1"",""81111""
""fullscreenenter"",""1"",""82598""
","""event"",""trial"",""time""
""blur"",""1"",""23346""
","""event"",""trial"",""time""
""focus"",""1"",""81111""
","""event"",""trial"",""time""
""fullscreenenter"",""1"",""82598""
","
","","","-1","","","23","6065","3526","&#9761;","elianto","#3366ff99","-1","-1","1","+10","[]","0","0","2","","","","","","","",""
"pit-trial","47","714755","0.0-2.0-11.1-2.1","battery-v0.2","","""event"",""trial"",""time""
""blur"",""1"",""23346""
""focus"",""1"",""81111""
""fullscreenenter"",""1"",""82598""
","""event"",""trial"",""time""
""blur"",""1"",""23346""
","""event"",""trial"",""time""
""focus"",""1"",""81111""
","""event"",""trial"",""time""
""fullscreenenter"",""1"",""82598""
","
","","","-1","","","23","6065","3526","&#9761;","elianto","#3366ff99","-1","-1","1","+10","[]","0","0","2","","","","","","","",""
"pit-trial","48","719618","0.0-2.0-11.1-3.1","battery-v0.2","","""event"",""trial"",""time""
""blur"",""1"",""23346""
""focus"",""1"",""81111""
""fullscreenenter"",""1"",""82598""
","""event"",""trial"",""time""
""blur"",""1"",""23346""
","""event"",""trial"",""time""
""focus"",""1"",""81111""
","""event"",""trial"",""time""
""fullscreenenter"",""1"",""82598""
","
","","","-1","","","23","6065","3526","&#9761;","elianto","#3366ff99","-1","-1","1","0","[]","0","0","2","","","","","","","",""
"pit-trial","49","724483","0.0-2.0-11.1-4.1","battery-v0.2","","""event"",""trial"",""time""
""blur"",""1"",""23346""
""focus"",""1"",""81111""
""fullscreenenter"",""1"",""82598""
","""event"",""trial"",""time""
""blur"",""1"",""23346""
","""event"",""trial"",""time""
""focus"",""1"",""81111""
","""event"",""trial"",""time""
""fullscreenenter"",""1"",""82598""
","
","","","-1","","","23","6065","3526","&#9761;","elianto","#3366ff99","-1","-1","1","+10","[]","0","0","2","","","","","","","",""
"pit-trial","50","729345","0.0-2.0-11.2-0.2","battery-v0.2","","""event"",""trial"",""time""
""blur"",""1"",""23346""
""focus"",""1"",""81111""
""fullscreenenter"",""1"",""82598""
","""event"",""trial"",""time""
""blur"",""1"",""23346""
","""event"",""trial"",""time""
""focus"",""1"",""81111""
","""event"",""trial"",""time""
""fullscreenenter"",""1"",""82598""
","
","","","-1","","","23","6065","3526","&#9761;","elianto","#3366ff99","-1","-1","1","+10","[]","0","0","2","","","","","","","",""
"pit-trial","51","734210","0.0-2.0-11.2-1.2","battery-v0.2","","""event"",""trial"",""time""
""blur"",""1"",""23346""
""focus"",""1"",""81111""
""fullscreenenter"",""1"",""82598""
","""event"",""trial"",""time""
""blur"",""1"",""23346""
","""event"",""trial"",""time""
""focus"",""1"",""81111""
","""event"",""trial"",""time""
""fullscreenenter"",""1"",""82598""
","
","","","-1","","","23","6065","3526","&#9761;","elianto","#3366ff99","-1","-1","1","+10","[]","0","0","2","","","","","","","",""
"pit-trial","52","739074","0.0-2.0-11.2-2.2","battery-v0.2","","""event"",""trial"",""time""
""blur"",""1"",""23346""
""focus"",""1"",""81111""
""fullscreenenter"",""1"",""82598""
","""event"",""trial"",""time""
""blur"",""1"",""23346""
","""event"",""trial"",""time""
""focus"",""1"",""81111""
","""event"",""trial"",""time""
""fullscreenenter"",""1"",""82598""
","
","","","-1","","","23","6065","3526","&#9761;","elianto","#3366ff99","-1","-1","1","+10","[]","0","0","2","","","","","","","",""
"pit-trial","53","743937","0.0-2.0-11.2-3.2","battery-v0.2","","""event"",""trial"",""time""
""blur"",""1"",""23346""
""focus"",""1"",""81111""
""fullscreenenter"",""1"",""82598""
","""event"",""trial"",""time""
""blur"",""1"",""23346""
","""event"",""trial"",""time""
""focus"",""1"",""81111""
","""event"",""trial"",""time""
""fullscreenenter"",""1"",""82598""
","
","","","-1","","","23","6065","3526","&#9761;","elianto","#3366ff99","-1","-1","1","0","[]","0","0","2","","","","","","","",""
"pit-trial","54","748801","0.0-2.0-11.2-4.2","battery-v0.2","","""event"",""trial"",""time""
""blur"",""1"",""23346""
""focus"",""1"",""81111""
""fullscreenenter"",""1"",""82598""
","""event"",""trial"",""time""
""blur"",""1"",""23346""
","""event"",""trial"",""time""
""focus"",""1"",""81111""
","""event"",""trial"",""time""
""fullscreenenter"",""1"",""82598""
","
","","","-1","","","23","6065","3526","&#9761;","elianto","#3366ff99","-1","-1","1","+10","[]","0","0","2","","","","","","","",""
"pit-trial","55","753666","0.0-2.0-11.3-0.3","battery-v0.2","","""event"",""trial"",""time""
""blur"",""1"",""23346""
""focus"",""1"",""81111""
""fullscreenenter"",""1"",""82598""
","""event"",""trial"",""time""
""blur"",""1"",""23346""
","""event"",""trial"",""time""
""focus"",""1"",""81111""
","""event"",""trial"",""time""
""fullscreenenter"",""1"",""82598""
","
","","","-1","","","23","6065","3526","&#9761;","elianto","#3366ff99","-1","-1","1","+10","[]","0","0","2","","","","","","","",""
"pit-trial","56","758529","0.0-2.0-11.3-1.3","battery-v0.2","","""event"",""trial"",""time""
""blur"",""1"",""23346""
""focus"",""1"",""81111""
""fullscreenenter"",""1"",""82598""
","""event"",""trial"",""time""
""blur"",""1"",""23346""
","""event"",""trial"",""time""
""focus"",""1"",""81111""
","""event"",""trial"",""time""
""fullscreenenter"",""1"",""82598""
","
","","","-1","","","23","6065","3526","&#9761;","elianto","#3366ff99","-1","-1","1","+10","[]","0","0","2","","","","","","","",""
"pit-trial","57","763400","0.0-2.0-11.3-2.3","battery-v0.2","","""event"",""trial"",""time""
""blur"",""1"",""23346""
""focus"",""1"",""81111""
""fullscreenenter"",""1"",""82598""
","""event"",""trial"",""time""
""blur"",""1"",""23346""
","""event"",""trial"",""time""
""focus"",""1"",""81111""
","""event"",""trial"",""time""
""fullscreenenter"",""1"",""82598""
","
","","","-1","","","23","6065","3526","&#9761;","elianto","#3366ff99","-1","-1","1","+10","[]","0","0","2","","","","","","","",""
"pit-trial","58","768265","0.0-2.0-11.3-3.3","battery-v0.2","","""event"",""trial"",""time""
""blur"",""1"",""23346""
""focus"",""1"",""81111""
""fullscreenenter"",""1"",""82598""
","""event"",""trial"",""time""
""blur"",""1"",""23346""
","""event"",""trial"",""time""
""focus"",""1"",""81111""
","""event"",""trial"",""time""
""fullscreenenter"",""1"",""82598""
","
","","","-1","","","23","6065","3526","&#9761;","elianto","#3366ff99","-1","-1","1","0","[]","0","0","2","","","","","","","",""
"pit-trial","59","773081","0.0-2.0-11.3-4.3","battery-v0.2","","""event"",""trial"",""time""
""blur"",""1"",""23346""
""focus"",""1"",""81111""
""fullscreenenter"",""1"",""82598""
","""event"",""trial"",""time""
""blur"",""1"",""23346""
","""event"",""trial"",""time""
""focus"",""1"",""81111""
","""event"",""trial"",""time""
""fullscreenenter"",""1"",""82598""
","
","","","1960.3000001907349","","","23","6065","3526","&#9761;","elianto","#3366ff99","-1"," ","0","0","[2812.100000143051]","1","0","2","","","","","","","",""
"call-function","60","773082","0.0-2.0-12.0","battery-v0.2","","""event"",""trial"",""time""
""blur"",""1"",""23346""
""focus"",""1"",""81111""
""fullscreenenter"",""1"",""82598""
","""event"",""trial"",""time""
""blur"",""1"",""23346""
","""event"",""trial"",""time""
""focus"",""1"",""81111""
","""event"",""trial"",""time""
""fullscreenenter"",""1"",""82598""
","
","","","","","","","","","","","","","","","","","","","","","","","","","","",""
"pit-instructions","61","823363","0.0-2.0-13.0","battery-v0.2","","""event"",""trial"",""time""
""blur"",""1"",""23346""
""focus"",""1"",""81111""
""fullscreenenter"",""1"",""82598""
","""event"",""trial"",""time""
""blur"",""1"",""23346""
","""event"",""trial"",""time""
""focus"",""1"",""81111""
","""event"",""trial"",""time""
""fullscreenenter"",""1"",""82598""
","
","","[{""page_index"":0,""viewing_time"":8712.100000143051},{""page_index"":1,""viewing_time"":9663.099999904633},{""page_index"":2,""viewing_time"":6018},{""page_index"":3,""viewing_time"":10617.700000047684},{""page_index"":4,""viewing_time"":15268.5}]","50279.700000047684","","","","","","","","","","","","","","","","","","","","","","","",""
"pit-trial","62","826974","0.0-2.0-14.0-0.0","battery-v0.2","","""event"",""trial"",""time""
""blur"",""1"",""23346""
""focus"",""1"",""81111""
""fullscreenenter"",""1"",""82598""
","""event"",""trial"",""time""
""blur"",""1"",""23346""
","""event"",""trial"",""time""
""focus"",""1"",""81111""
","""event"",""trial"",""time""
""fullscreenenter"",""1"",""82598""
","
","","","747.6000001430511","","","23","6065","3526","&#9826;","elianto","#f73b6a7A","-1"," ","0","-10","[1601.5]","1","0","3","","","","","","","",""
"pit-trial","63","831846","0.0-2.0-14.0-1.0","battery-v0.2","","""event"",""trial"",""time""
""blur"",""1"",""23346""
""focus"",""1"",""81111""
""fullscreenenter"",""1"",""82598""
","""event"",""trial"",""time""
""blur"",""1"",""23346""
","""event"",""trial"",""time""
""focus"",""1"",""81111""
","""event"",""trial"",""time""
""fullscreenenter"",""1"",""82598""
","
","","","-1","","","23","6065","3526","&#9826;","elianto","#f73b6a7A","-1","-1","1","0","[]","0","0","3","","","","","","","",""
"pit-trial","64","836720","0.0-2.0-14.0-2.0","battery-v0.2","","""event"",""trial"",""time""
""blur"",""1"",""23346""
""focus"",""1"",""81111""
""fullscreenenter"",""1"",""82598""
","""event"",""trial"",""time""
""blur"",""1"",""23346""
","""event"",""trial"",""time""
""focus"",""1"",""81111""
","""event"",""trial"",""time""
""fullscreenenter"",""1"",""82598""
","
","","","-1","","","23","6065","3526","&#9826;","elianto","#f73b6a7A","-1","-1","1","0","[]","0","0","3","","","","","","","",""
"pit-trial","65","841586","0.0-2.0-14.0-3.0","battery-v0.2","","""event"",""trial"",""time""
""blur"",""1"",""23346""
""focus"",""1"",""81111""
""fullscreenenter"",""1"",""82598""
","""event"",""trial"",""time""
""blur"",""1"",""23346""
","""event"",""trial"",""time""
""focus"",""1"",""81111""
","""event"",""trial"",""time""
""fullscreenenter"",""1"",""82598""
","
","","","-1","","","23","6065","3526","&#9826;","elianto","#f73b6a7A","-1","-1","1","-10","[]","0","0","3","","","","","","","",""
"pit-trial","66","846027","0.0-2.0-14.0-4.0","battery-v0.2","","""event"",""trial"",""time""
""blur"",""1"",""23346""
""focus"",""1"",""81111""
""fullscreenenter"",""1"",""82598""
","""event"",""trial"",""time""
""blur"",""1"",""23346""
","""event"",""trial"",""time""
""focus"",""1"",""81111""
","""event"",""trial"",""time""
""fullscreenenter"",""1"",""82598""
","
","","","1587.7000000476837","","","23","6065","3526","&#9826;","elianto","#f73b6a7A","-1"," ","0","-10","[2438.5]","1","0","3","","","","","","","",""
"pit-trial","67","850891","0.0-2.0-14.1-0.1","battery-v0.2","","""event"",""trial"",""time""
""blur"",""1"",""23346""
""focus"",""1"",""81111""
""fullscreenenter"",""1"",""82598""
","""event"",""trial"",""time""
""blur"",""1"",""23346""
","""event"",""trial"",""time""
""focus"",""1"",""81111""
","""event"",""trial"",""time""
""fullscreenenter"",""1"",""82598""
","
","","","-1","","","23","6065","3526","&#9826;","elianto","#f73b6a7A","-1","-1","1","0","[]","0","0","3","","","","","","","",""
"pit-trial","68","855754","0.0-2.0-14.1-1.1","battery-v0.2","","""event"",""trial"",""time""
""blur"",""1"",""23346""
""focus"",""1"",""81111""
""fullscreenenter"",""1"",""82598""
","""event"",""trial"",""time""
""blur"",""1"",""23346""
","""event"",""trial"",""time""
""focus"",""1"",""81111""
","""event"",""trial"",""time""
""fullscreenenter"",""1"",""82598""
","
","","","-1","","","23","6065","3526","&#9826;","elianto","#f73b6a7A","-1","-1","1","0","[]","0","0","3","","","","","","","",""
"pit-trial","69","860618","0.0-2.0-14.1-2.1","battery-v0.2","","""event"",""trial"",""time""
""blur"",""1"",""23346""
""focus"",""1"",""81111""
""fullscreenenter"",""1"",""82598""
","""event"",""trial"",""time""
""blur"",""1"",""23346""
","""event"",""trial"",""time""
""focus"",""1"",""81111""
","""event"",""trial"",""time""
""fullscreenenter"",""1"",""82598""
","
","","","-1","","","23","6065","3526","&#9826;","elianto","#f73b6a7A","-1","-1","1","0","[]","0","0","3","","","","","","","",""
"pit-trial","70","865482","0.0-2.0-14.1-3.1","battery-v0.2","","""event"",""trial"",""time""
""blur"",""1"",""23346""
""focus"",""1"",""81111""
""fullscreenenter"",""1"",""82598""
","""event"",""trial"",""time""
""blur"",""1"",""23346""
","""event"",""trial"",""time""
""focus"",""1"",""81111""
","""event"",""trial"",""time""
""fullscreenenter"",""1"",""82598""
","
","","","-1","","","23","6065","3526","&#9826;","elianto","#f73b6a7A","-1","-1","1","-10","[]","0","0","3","","","","","","","",""
"pit-trial","71","870346","0.0-2.0-14.1-4.1","battery-v0.2","","""event"",""trial"",""time""
""blur"",""1"",""23346""
""focus"",""1"",""81111""
""fullscreenenter"",""1"",""82598""
","""event"",""trial"",""time""
""blur"",""1"",""23346""
","""event"",""trial"",""time""
""focus"",""1"",""81111""
","""event"",""trial"",""time""
""fullscreenenter"",""1"",""82598""
","
","","","-1","","","23","6065","3526","&#9826;","elianto","#f73b6a7A","-1","-1","1","0","[]","0","0","3","","","","","","","",""
"pit-trial","72","874146","0.0-2.0-14.2-0.2","battery-v0.2","","""event"",""trial"",""time""
""blur"",""1"",""23346""
""focus"",""1"",""81111""
""fullscreenenter"",""1"",""82598""
","""event"",""trial"",""time""
""blur"",""1"",""23346""
","""event"",""trial"",""time""
""focus"",""1"",""81111""
","""event"",""trial"",""time""
""fullscreenenter"",""1"",""82598""
","
","","","939.3999998569489","","","23","6065","3526","&#9826;","elianto","#f73b6a7A","-1"," ","0","-10","[1795.1999998092651]","1","0","3","","","","","","","",""
"pit-trial","73","879010","0.0-2.0-14.2-1.2","battery-v0.2","","""event"",""trial"",""time""
""blur"",""1"",""23346""
""focus"",""1"",""81111""
""fullscreenenter"",""1"",""82598""
","""event"",""trial"",""time""
""blur"",""1"",""23346""
","""event"",""trial"",""time""
""focus"",""1"",""81111""
","""event"",""trial"",""time""
""fullscreenenter"",""1"",""82598""
","
","","","-1","","","23","6065","3526","&#9826;","elianto","#f73b6a7A","-1","-1","1","0","[]","0","0","3","","","","","","","",""
"pit-trial","74","883874","0.0-2.0-14.2-2.2","battery-v0.2","","""event"",""trial"",""time""
""blur"",""1"",""23346""
""focus"",""1"",""81111""
""fullscreenenter"",""1"",""82598""
","""event"",""trial"",""time""
""blur"",""1"",""23346""
","""event"",""trial"",""time""
""focus"",""1"",""81111""
","""event"",""trial"",""time""
""fullscreenenter"",""1"",""82598""
","
","","","-1","","","23","6065","3526","&#9826;","elianto","#f73b6a7A","-1","-1","1","0","[]","0","0","3","","","","","","","",""
"pit-trial","75","888739","0.0-2.0-14.2-3.2","battery-v0.2","","""event"",""trial"",""time""
""blur"",""1"",""23346""
""focus"",""1"",""81111""
""fullscreenenter"",""1"",""82598""
","""event"",""trial"",""time""
""blur"",""1"",""23346""
","""event"",""trial"",""time""
""focus"",""1"",""81111""
","""event"",""trial"",""time""
""fullscreenenter"",""1"",""82598""
","
","","","-1","","","23","6065","3526","&#9826;","elianto","#f73b6a7A","-1","-1","1","-10","[]","0","0","3","","","","","","","",""
"pit-trial","76","893603","0.0-2.0-14.2-4.2","battery-v0.2","","""event"",""trial"",""time""
""blur"",""1"",""23346""
""focus"",""1"",""81111""
""fullscreenenter"",""1"",""82598""
","""event"",""trial"",""time""
""blur"",""1"",""23346""
","""event"",""trial"",""time""
""focus"",""1"",""81111""
","""event"",""trial"",""time""
""fullscreenenter"",""1"",""82598""
","
","","","-1","","","23","6065","3526","&#9826;","elianto","#f73b6a7A","-1","-1","1","0","[]","0","0","3","","","","","","","",""
"pit-trial","77","898466","0.0-2.0-14.3-0.3","battery-v0.2","","""event"",""trial"",""time""
""blur"",""1"",""23346""
""focus"",""1"",""81111""
""fullscreenenter"",""1"",""82598""
","""event"",""trial"",""time""
""blur"",""1"",""23346""
","""event"",""trial"",""time""
""focus"",""1"",""81111""
","""event"",""trial"",""time""
""fullscreenenter"",""1"",""82598""
","
","","","-1","","","23","6065","3526","&#9826;","elianto","#f73b6a7A","-1","-1","1","0","[]","0","0","3","","","","","","","",""
"pit-trial","78","903334","0.0-2.0-14.3-1.3","battery-v0.2","","""event"",""trial"",""time""
""blur"",""1"",""23346""
""focus"",""1"",""81111""
""fullscreenenter"",""1"",""82598""
","""event"",""trial"",""time""
""blur"",""1"",""23346""
","""event"",""trial"",""time""
""focus"",""1"",""81111""
","""event"",""trial"",""time""
""fullscreenenter"",""1"",""82598""
","
","","","-1","","","23","6065","3526","&#9826;","elianto","#f73b6a7A","-1","-1","1","0","[]","0","0","3","","","","","","","",""
"pit-trial","79","908202","0.0-2.0-14.3-2.3","battery-v0.2","","""event"",""trial"",""time""
""blur"",""1"",""23346""
""focus"",""1"",""81111""
""fullscreenenter"",""1"",""82598""
","""event"",""trial"",""time""
""blur"",""1"",""23346""
","""event"",""trial"",""time""
""focus"",""1"",""81111""
","""event"",""trial"",""time""
""fullscreenenter"",""1"",""82598""
","
","","","-1","","","23","6065","3526","&#9826;","elianto","#f73b6a7A","-1","-1","1","0","[]","0","0","3","","","","","","","",""
"pit-trial","80","913066","0.0-2.0-14.3-3.3","battery-v0.2","","""event"",""trial"",""time""
""blur"",""1"",""23346""
""focus"",""1"",""81111""
""fullscreenenter"",""1"",""82598""
","""event"",""trial"",""time""
""blur"",""1"",""23346""
","""event"",""trial"",""time""
""focus"",""1"",""81111""
","""event"",""trial"",""time""
""fullscreenenter"",""1"",""82598""
","
","","","-1","","","23","6065","3526","&#9826;","elianto","#f73b6a7A","-1","-1","1","-10","[]","0","0","3","","","","","","","",""
"pit-trial","81","917930","0.0-2.0-14.3-4.3","battery-v0.2","","""event"",""trial"",""time""
""blur"",""1"",""23346""
""focus"",""1"",""81111""
""fullscreenenter"",""1"",""82598""
","""event"",""trial"",""time""
""blur"",""1"",""23346""
","""event"",""trial"",""time""
""focus"",""1"",""81111""
","""event"",""trial"",""time""
""fullscreenenter"",""1"",""82598""
","
","","","-1","","","23","6065","3526","&#9826;","elianto","#f73b6a7A","-1","-1","1","0","[]","0","0","3","","","","","","","",""
"call-function","82","917931","0.0-2.0-15.0","battery-v0.2","","""event"",""trial"",""time""
""blur"",""1"",""23346""
""focus"",""1"",""81111""
""fullscreenenter"",""1"",""82598""
","""event"",""trial"",""time""
""blur"",""1"",""23346""
","""event"",""trial"",""time""
""focus"",""1"",""81111""
","""event"",""trial"",""time""
""fullscreenenter"",""1"",""82598""
","
","","","","","","","","","","","","","","","","","","","","","","","","","","",""
"pit-instructions","83","962376","0.0-2.0-16.0","battery-v0.2","","""event"",""trial"",""time""
""blur"",""1"",""23346""
""focus"",""1"",""81111""
""fullscreenenter"",""1"",""82598""
","""event"",""trial"",""time""
""blur"",""1"",""23346""
","""event"",""trial"",""time""
""focus"",""1"",""81111""
","""event"",""trial"",""time""
""fullscreenenter"",""1"",""82598""
","
","","[{""page_index"":0,""viewing_time"":8000.900000095367},{""page_index"":1,""viewing_time"":14448},{""page_index"":2,""viewing_time"":9947},{""page_index"":3,""viewing_time"":12048.399999856949}]","44444.59999990463","","","","","","","","","","","","","","","","","","","","","","","",""
"pit-trial","84","965756","0.0-2.0-17.0-0.0","battery-v0.2","","""event"",""trial"",""time""
""blur"",""1"",""23346""
""focus"",""1"",""81111""
""fullscreenenter"",""1"",""82598""
","""event"",""trial"",""time""
""blur"",""1"",""23346""
","""event"",""trial"",""time""
""focus"",""1"",""81111""
","""event"",""trial"",""time""
""fullscreenenter"",""1"",""82598""
","
","","","514.5","","","23","6065","3526","&#9789;","elianto","#f73b6a7A"," "," ","1","0","[1370.8999998569489]","1","0","4","","","","","","","",""
"pit-trial","85","969388","0.0-2.0-17.0-1.0","battery-v0.2","","""event"",""trial"",""time""
""blur"",""1"",""23346""
""focus"",""1"",""81111""
""fullscreenenter"",""1"",""82598""
","""event"",""trial"",""time""
""blur"",""1"",""23346""
","""event"",""trial"",""time""
""focus"",""1"",""81111""
","""event"",""trial"",""time""
""fullscreenenter"",""1"",""82598""
","
","","","757.2999999523163","","","23","6065","3526","&#9789;","elianto","#f73b6a7A"," "," ","1","0","[1618.9000000953674]","1","0","4","","","","","","","",""
"pit-trial","86","972449","0.0-2.0-17.0-2.0","battery-v0.2","","""event"",""trial"",""time""
""blur"",""1"",""23346""
""focus"",""1"",""81111""
""fullscreenenter"",""1"",""82598""
","""event"",""trial"",""time""
""blur"",""1"",""23346""
","""event"",""trial"",""time""
""focus"",""1"",""81111""
","""event"",""trial"",""time""
""fullscreenenter"",""1"",""82598""
","
","","","185.59999990463257","","","23","6065","3526","&#9789;","elianto","#f73b6a7A"," "," ","1","0","[1050.2000000476837]","1","0","4","","","","","","","",""
"pit-trial","87","976108","0.0-2.0-17.0-3.0","battery-v0.2","","""event"",""trial"",""time""
""blur"",""1"",""23346""
""focus"",""1"",""81111""
""fullscreenenter"",""1"",""82598""
","""event"",""trial"",""time""
""blur"",""1"",""23346""
","""event"",""trial"",""time""
""focus"",""1"",""81111""
","""event"",""trial"",""time""
""fullscreenenter"",""1"",""82598""
","
","","","799","","","23","6065","3526","&#9789;","elianto","#f73b6a7A"," "," ","1","-10","[1651.0999999046326]","1","0","4","","","","","","","",""
"pit-trial","88","980044","0.0-2.0-17.0-4.0","battery-v0.2","","""event"",""trial"",""time""
""blur"",""1"",""23346""
""focus"",""1"",""81111""
""fullscreenenter"",""1"",""82598""
","""event"",""trial"",""time""
""blur"",""1"",""23346""
","""event"",""trial"",""time""
""focus"",""1"",""81111""
","""event"",""trial"",""time""
""fullscreenenter"",""1"",""82598""
","
","","","1060.5999999046326","","","23","6065","3526","&#9789;","elianto","#f73b6a7A"," "," ","1","0","[1920.2999999523163]","1","0","4","","","","","","","",""
"pit-trial","89","983075","0.0-2.0-17.1-0.1","battery-v0.2","","""event"",""trial"",""time""
""blur"",""1"",""23346""
""focus"",""1"",""81111""
""fullscreenenter"",""1"",""82598""
","""event"",""trial"",""time""
""blur"",""1"",""23346""
","""event"",""trial"",""time""
""focus"",""1"",""81111""
","""event"",""trial"",""time""
""fullscreenenter"",""1"",""82598""
","
","","","174.20000004768372","","","23","6065","3526","&#9789;","elianto","#f73b6a7A"," "," ","1","0","[1028.0999999046326]","1","0","4","","","","","","","",""
"pit-trial","90","986170","0.0-2.0-17.1-1.1","battery-v0.2","","""event"",""trial"",""time""
""blur"",""1"",""23346""
""focus"",""1"",""81111""
""fullscreenenter"",""1"",""82598""
","""event"",""trial"",""time""
""blur"",""1"",""23346""
","""event"",""trial"",""time""
""focus"",""1"",""81111""
","""event"",""trial"",""time""
""fullscreenenter"",""1"",""82598""
","
","","","236.39999985694885","","","23","6065","3526","&#9789;","elianto","#f73b6a7A"," "," ","1","0","[1090.1000001430511]","1","0","4","","","","","","","",""
"pit-trial","91","989219","0.0-2.0-17.1-2.1","battery-v0.2","","""event"",""trial"",""time""
""blur"",""1"",""23346""
""focus"",""1"",""81111""
""fullscreenenter"",""1"",""82598""
","""event"",""trial"",""time""
""blur"",""1"",""23346""
","""event"",""trial"",""time""
""focus"",""1"",""81111""
","""event"",""trial"",""time""
""fullscreenenter"",""1"",""82598""
","
","","","189.5","","","23","6065","3526","&#9789;","elianto","#f73b6a7A"," "," ","1","0","[1044.0999999046326]","1","0","4","","","","","","","",""
"pit-trial","92","992440","0.0-2.0-17.1-3.1","battery-v0.2","","""event"",""trial"",""time""
""blur"",""1"",""23346""
""focus"",""1"",""81111""
""fullscreenenter"",""1"",""82598""
","""event"",""trial"",""time""
""blur"",""1"",""23346""
","""event"",""trial"",""time""
""focus"",""1"",""81111""
","""event"",""trial"",""time""
""fullscreenenter"",""1"",""82598""
","
","","","358.30000019073486","","","23","6065","3526","&#9789;","elianto","#f73b6a7A"," "," ","1","-10","[1208.7000000476837]","1","0","4","","","","","","","",""
"pit-trial","93","995521","0.0-2.0-17.1-4.1","battery-v0.2","","""event"",""trial"",""time""
""blur"",""1"",""23346""
""focus"",""1"",""81111""
""fullscreenenter"",""1"",""82598""
","""event"",""trial"",""time""
""blur"",""1"",""23346""
","""event"",""trial"",""time""
""focus"",""1"",""81111""
","""event"",""trial"",""time""
""fullscreenenter"",""1"",""82598""
","
","","","219.60000014305115","","","23","6065","3526","&#9789;","elianto","#f73b6a7A"," "," ","1","0","[1076.6000001430511]","1","0","4","","","","","","","",""
"pit-trial","94","998546","0.0-2.0-17.2-0.2","battery-v0.2","","""event"",""trial"",""time""
""blur"",""1"",""23346""
""focus"",""1"",""81111""
""fullscreenenter"",""1"",""82598""
","""event"",""trial"",""time""
""blur"",""1"",""23346""
","""event"",""trial"",""time""
""focus"",""1"",""81111""
","""event"",""trial"",""time""
""fullscreenenter"",""1"",""82598""
","
","","","163.20000004768372","","","23","6065","3526","&#9789;","elianto","#f73b6a7A"," "," ","1","0","[1018.2999999523163]","1","0","4","","","","","","","",""
"pit-trial","95","1001770","0.0-2.0-17.2-1.2","battery-v0.2","","""event"",""trial"",""time""
""blur"",""1"",""23346""
""focus"",""1"",""81111""
""fullscreenenter"",""1"",""82598""
","""event"",""trial"",""time""
""blur"",""1"",""23346""
","""event"",""trial"",""time""
""focus"",""1"",""81111""
","""event"",""trial"",""time""
""fullscreenenter"",""1"",""82598""
","
","","","364.5","","","23","6065","3526","&#9789;","elianto","#f73b6a7A"," "," ","1","0","[1219.6000001430511]","1","0","4","","","","","","","",""
"pit-trial","96","1004834","0.0-2.0-17.2-2.2","battery-v0.2","","""event"",""trial"",""time""
""blur"",""1"",""23346""
""focus"",""1"",""81111""
""fullscreenenter"",""1"",""82598""
","""event"",""trial"",""time""
""blur"",""1"",""23346""
","""event"",""trial"",""time""
""focus"",""1"",""81111""
","""event"",""trial"",""time""
""fullscreenenter"",""1"",""82598""
","
","","","207.40000009536743","","","23","6065","3526","&#9789;","elianto","#f73b6a7A"," "," ","1","0","[1058]","1","0","4","","","","","","","",""
"pit-trial","97","1007810","0.0-2.0-17.2-3.2","battery-v0.2","","""event"",""trial"",""time""
""blur"",""1"",""23346""
""focus"",""1"",""81111""
""fullscreenenter"",""1"",""82598""
","""event"",""trial"",""time""
""blur"",""1"",""23346""
","""event"",""trial"",""time""
""focus"",""1"",""81111""
","""event"",""trial"",""time""
""fullscreenenter"",""1"",""82598""
","
","","","117.29999995231628","","","23","6065","3526","&#9789;","elianto","#f73b6a7A"," "," ","1","-10","[968.9000000953674]","1","0","4","","","","","","","",""
"pit-trial","98","1010804","0.0-2.0-17.2-4.2","battery-v0.2","","""event"",""trial"",""time""
""blur"",""1"",""23346""
""focus"",""1"",""81111""
""fullscreenenter"",""1"",""82598""
","""event"",""trial"",""time""
""blur"",""1"",""23346""
","""event"",""trial"",""time""
""focus"",""1"",""81111""
","""event"",""trial"",""time""
""fullscreenenter"",""1"",""82598""
","
","","","124.40000009536743","","","23","6065","3526","&#9789;","elianto","#f73b6a7A"," "," ","1","0","[979.7000000476837]","1","0","4","","","","","","","",""
"pit-trial","99","1013954","0.0-2.0-17.3-0.3","battery-v0.2","","""event"",""trial"",""time""
""blur"",""1"",""23346""
""focus"",""1"",""81111""
""fullscreenenter"",""1"",""82598""
","""event"",""trial"",""time""
""blur"",""1"",""23346""
","""event"",""trial"",""time""
""focus"",""1"",""81111""
","""event"",""trial"",""time""
""fullscreenenter"",""1"",""82598""
","
","","","296.30000019073486","","","23","6065","3526","&#9789;","elianto","#f73b6a7A"," "," ","1","0","[1146.4000000953674]","1","0","4","","","","","","","",""
"pit-trial","100","1016873","0.0-2.0-17.3-1.3","battery-v0.2","","""event"",""trial"",""time""
""blur"",""1"",""23346""
""focus"",""1"",""81111""
""fullscreenenter"",""1"",""82598""
","""event"",""trial"",""time""
""blur"",""1"",""23346""
","""event"",""trial"",""time""
""focus"",""1"",""81111""
","""event"",""trial"",""time""
""fullscreenenter"",""1"",""82598""
","
","","","62","","","23","6065","3526","&#9789;","elianto","#f73b6a7A"," "," ","1","0","[916.8999998569489]","1","0","4","","","","","","","",""
"pit-trial","101","1019890","0.0-2.0-17.3-2.3","battery-v0.2","","""event"",""trial"",""time""
""blur"",""1"",""23346""
""focus"",""1"",""81111""
""fullscreenenter"",""1"",""82598""
","""event"",""trial"",""time""
""blur"",""1"",""23346""
","""event"",""trial"",""time""
""focus"",""1"",""81111""
","""event"",""trial"",""time""
""fullscreenenter"",""1"",""82598""
","
","","","153.10000014305115","","","23","6065","3526","&#9789;","elianto","#f73b6a7A"," "," ","1","0","[1008.3000001907349]","1","0","4","","","","","","","",""
"pit-trial","102","1023098","0.0-2.0-17.3-3.3","battery-v0.2","","""event"",""trial"",""time""
""blur"",""1"",""23346""
""focus"",""1"",""81111""
""fullscreenenter"",""1"",""82598""
","""event"",""trial"",""time""
""blur"",""1"",""23346""
","""event"",""trial"",""time""
""focus"",""1"",""81111""
","""event"",""trial"",""time""
""fullscreenenter"",""1"",""82598""
","
","","","343.2000000476837","","","23","6065","3526","&#9789;","elianto","#f73b6a7A"," "," ","1","-10","[1198.5]","1","0","4","","","","","","","",""
"pit-trial","103","1026130","0.0-2.0-17.3-4.3","battery-v0.2","","""event"",""trial"",""time""
""blur"",""1"",""23346""
""focus"",""1"",""81111""
""fullscreenenter"",""1"",""82598""
","""event"",""trial"",""time""
""blur"",""1"",""23346""
","""event"",""trial"",""time""
""focus"",""1"",""81111""
","""event"",""trial"",""time""
""fullscreenenter"",""1"",""82598""
","
","","","175.79999995231628","","","23","6065","3526","&#9789;","elianto","#f73b6a7A"," "," ","1","0","[1028.7999999523163]","1","0","4","","","","","","","",""
"call-function","104","1026131","0.0-2.0-18.0","battery-v0.2","","""event"",""trial"",""time""
""blur"",""1"",""23346""
""focus"",""1"",""81111""
""fullscreenenter"",""1"",""82598""
","""event"",""trial"",""time""
""blur"",""1"",""23346""
","""event"",""trial"",""time""
""focus"",""1"",""81111""
","""event"",""trial"",""time""
""fullscreenenter"",""1"",""82598""
","
","","","","","","","","","","","","","","","","","","","","","","","","","","",""
"pit-instructions","105","1166801","0.0-2.0-19.0","battery-v0.2","","""event"",""trial"",""time""
""blur"",""1"",""23346""
""focus"",""1"",""81111""
""fullscreenenter"",""1"",""82598""
","""event"",""trial"",""time""
""blur"",""1"",""23346""
","""event"",""trial"",""time""
""focus"",""1"",""81111""
","""event"",""trial"",""time""
""fullscreenenter"",""1"",""82598""
","
","","[{""page_index"":0,""viewing_time"":7144.5},{""page_index"":1,""viewing_time"":21168.200000047684},{""page_index"":2,""viewing_time"":25208.900000095367},{""page_index"":3,""viewing_time"":10908},{""page_index"":4,""viewing_time"":27643.099999904633},{""page_index"":5,""viewing_time"":10405.900000095367},{""page_index"":6,""viewing_time"":27359.199999809265},{""page_index"":7,""viewing_time"":5892.900000095367},{""page_index"":8,""viewing_time"":4938.799999952316}]","140669.79999995232","","","","","","","","","","","","","","","","","","","","","","","",""
"pit-comprehension","106","1171242","0.0-2.0-20.0-0.0","battery-v0.2","","""event"",""trial"",""time""
""blur"",""1"",""23346""
""focus"",""1"",""81111""
""fullscreenenter"",""1"",""82598""
","""event"",""trial"",""time""
""blur"",""1"",""23346""
","""event"",""trial"",""time""
""focus"",""1"",""81111""
","""event"",""trial"",""time""
""fullscreenenter"",""1"",""82598""
","
","","","4427.5","[""SPACE""]","0","23","6065","3526","","","","","","","","","","","","","","","","","","",""
"pit-instructions","107","1174387","0.0-2.0-20.0-1.0","battery-v0.2","","""event"",""trial"",""time""
""blur"",""1"",""23346""
""focus"",""1"",""81111""
""fullscreenenter"",""1"",""82598""
","""event"",""trial"",""time""
""blur"",""1"",""23346""
","""event"",""trial"",""time""
""focus"",""1"",""81111""
","""event"",""trial"",""time""
""fullscreenenter"",""1"",""82598""
","
","","[{""page_index"":0,""viewing_time"":3110.7000000476837}]","3111","","","","","","","","","","","","","","","","","","","","","","","",""
"pit-comprehension","108","1182771","0.0-2.0-21.0-0.0","battery-v0.2","","""event"",""trial"",""time""
""blur"",""1"",""23346""
""focus"",""1"",""81111""
""fullscreenenter"",""1"",""82598""
","""event"",""trial"",""time""
""blur"",""1"",""23346""
","""event"",""trial"",""time""
""focus"",""1"",""81111""
","""event"",""trial"",""time""
""fullscreenenter"",""1"",""82598""
","
","","","8382.599999904633","[""10""]","0","23","6065","3526","","","","","","","","","","","","","","","","","","",""
"pit-instructions","109","1194261","0.0-2.0-21.0-1.0","battery-v0.2","","""event"",""trial"",""time""
""blur"",""1"",""23346""
""focus"",""1"",""81111""
""fullscreenenter"",""1"",""82598""
","""event"",""trial"",""time""
""blur"",""1"",""23346""
","""event"",""trial"",""time""
""focus"",""1"",""81111""
","""event"",""trial"",""time""
""fullscreenenter"",""1"",""82598""
","
","","[{""page_index"":0,""viewing_time"":11464.899999856949}]","11465.199999809265","","","","","","","","","","","","","","","","","","","","","","","",""
"pit-comprehension","110","1201448","0.0-2.0-22.0-0.0","battery-v0.2","","""event"",""trial"",""time""
""blur"",""1"",""23346""
""focus"",""1"",""81111""
""fullscreenenter"",""1"",""82598""
","""event"",""trial"",""time""
""blur"",""1"",""23346""
","""event"",""trial"",""time""
""focus"",""1"",""81111""
","""event"",""trial"",""time""
""fullscreenenter"",""1"",""82598""
","
","","","7184.900000095367","[""0""]","0","23","6065","3526","","","","","","","","","","","","","","","","","","",""
"pit-instructions","111","1204412","0.0-2.0-22.0-1.0","battery-v0.2","","""event"",""trial"",""time""
""blur"",""1"",""23346""
""focus"",""1"",""81111""
""fullscreenenter"",""1"",""82598""
","""event"",""trial"",""time""
""blur"",""1"",""23346""
","""event"",""trial"",""time""
""focus"",""1"",""81111""
","""event"",""trial"",""time""
""fullscreenenter"",""1"",""82598""
","
","","[{""page_index"":0,""viewing_time"":2924.2000000476837}]","2924.5","","","","","","","","","","","","","","","","","","","","","","","",""
"pit-comprehension","112","1213565","0.0-2.0-23.0-0.0","battery-v0.2","","""event"",""trial"",""time""
""blur"",""1"",""23346""
""focus"",""1"",""81111""
""fullscreenenter"",""1"",""82598""
","""event"",""trial"",""time""
""blur"",""1"",""23346""
","""event"",""trial"",""time""
""focus"",""1"",""81111""
","""event"",""trial"",""time""
""fullscreenenter"",""1"",""82598""
","
","","","9150.799999952316","[""True""]","0","23","6065","3526","","","","","","","","","","","","","","","","","","",""
"pit-instructions","113","1219375","0.0-2.0-23.0-1.0","battery-v0.2","","""event"",""trial"",""time""
""blur"",""1"",""23346""
""focus"",""1"",""81111""
""fullscreenenter"",""1"",""82598""
","""event"",""trial"",""time""
""blur"",""1"",""23346""
","""event"",""trial"",""time""
""focus"",""1"",""81111""
","""event"",""trial"",""time""
""fullscreenenter"",""1"",""82598""
","
","","[{""page_index"":0,""viewing_time"":5783.699999809265}]","5783.899999856949","","","","","","","","","","","","","","","","","","","","","","","",""
"pit-comprehension","114","1243371","0.0-2.0-24.0-0.0","battery-v0.2","","""event"",""trial"",""time""
""blur"",""1"",""23346""
""focus"",""1"",""81111""
""fullscreenenter"",""1"",""82598""
","""event"",""trial"",""time""
""blur"",""1"",""23346""
","""event"",""trial"",""time""
""focus"",""1"",""81111""
","""event"",""trial"",""time""
""fullscreenenter"",""1"",""82598""
","
","","","23994.5","[""False""]","1","23","6065","3526","","","","","","","","","","","","","","","","","","",""
"pit-instructions","115","1253850","0.0-2.0-24.0-1.0","battery-v0.2","","""event"",""trial"",""time""
""blur"",""1"",""23346""
""focus"",""1"",""81111""
""fullscreenenter"",""1"",""82598""
","""event"",""trial"",""time""
""blur"",""1"",""23346""
","""event"",""trial"",""time""
""focus"",""1"",""81111""
","""event"",""trial"",""time""
""fullscreenenter"",""1"",""82598""
","
","","[{""page_index"":0,""viewing_time"":10450.200000047684}]","10450.400000095367","","","","","","","","","","","","","","","","","","","","","","","",""
"pit-instructions","116","1275548","0.0-2.0-24.0-2.0-0.0","battery-v0.2","","""event"",""trial"",""time""
""blur"",""1"",""23346""
""focus"",""1"",""81111""
""fullscreenenter"",""1"",""82598""
","""event"",""trial"",""time""
""blur"",""1"",""23346""
","""event"",""trial"",""time""
""focus"",""1"",""81111""
","""event"",""trial"",""time""
""fullscreenenter"",""1"",""82598""
","
","","[{""page_index"":0,""viewing_time"":21697}]","21697.299999952316","","","","","","","","","","","","","","","","","","","","","","","",""
"pit-comprehension","117","1283606","0.0-2.0-24.1-0.1","battery-v0.2","","""event"",""trial"",""time""
""blur"",""1"",""23346""
""focus"",""1"",""81111""
""fullscreenenter"",""1"",""82598""
","""event"",""trial"",""time""
""blur"",""1"",""23346""
","""event"",""trial"",""time""
""focus"",""1"",""81111""
","""event"",""trial"",""time""
""fullscreenenter"",""1"",""82598""
","
","","","8055.800000190735","[""True""]","0","23","6065","3526","","","","","","","","","","","","","","","","","","",""
"pit-instructions","118","1290635","0.0-2.0-24.1-1.1","battery-v0.2","","""event"",""trial"",""time""
""blur"",""1"",""23346""
""focus"",""1"",""81111""
""fullscreenenter"",""1"",""82598""
","""event"",""trial"",""time""
""blur"",""1"",""23346""
","""event"",""trial"",""time""
""focus"",""1"",""81111""
","""event"",""trial"",""time""
""fullscreenenter"",""1"",""82598""
","
","","[{""page_index"":0,""viewing_time"":7002.700000047684}]","7003","","","","","","","","","","","","","","","","","","","","","","","",""
"pit-comprehension","119","1311322","0.0-2.0-25.0-0.0","battery-v0.2","","""event"",""trial"",""time""
""blur"",""1"",""23346""
""focus"",""1"",""81111""
""fullscreenenter"",""1"",""82598""
","""event"",""trial"",""time""
""blur"",""1"",""23346""
","""event"",""trial"",""time""
""focus"",""1"",""81111""
","""event"",""trial"",""time""
""fullscreenenter"",""1"",""82598""
","
","","","20685.39999985695","[""True""]","0","23","6065","3526","","","","","","","","","","","","","","","","","","",""
"pit-instructions","120","1313555","0.0-2.0-25.0-1.0","battery-v0.2","","""event"",""trial"",""time""
""blur"",""1"",""23346""
""focus"",""1"",""81111""
""fullscreenenter"",""1"",""82598""
","""event"",""trial"",""time""
""blur"",""1"",""23346""
","""event"",""trial"",""time""
""focus"",""1"",""81111""
","""event"",""trial"",""time""
""fullscreenenter"",""1"",""82598""
","
","","[{""page_index"":0,""viewing_time"":2203.5999999046326}]","2203.899999856949","","","","","","","","","","","","","","","","","","","","","","","",""
"pit-comprehension","121","1334044","0.0-2.0-26.0-0.0","battery-v0.2","","""event"",""trial"",""time""
""blur"",""1"",""23346""
""focus"",""1"",""81111""
""fullscreenenter"",""1"",""82598""
","""event"",""trial"",""time""
""blur"",""1"",""23346""
","""event"",""trial"",""time""
""focus"",""1"",""81111""
","""event"",""trial"",""time""
""fullscreenenter"",""1"",""82598""
","
","","","20487.799999952316","[""False""]","0","23","6065","3526","","","","","","","","","","","","","","","","","","",""
"pit-instructions","122","1336480","0.0-2.0-26.0-1.0","battery-v0.2","","""event"",""trial"",""time""
""blur"",""1"",""23346""
""focus"",""1"",""81111""
""fullscreenenter"",""1"",""82598""
","""event"",""trial"",""time""
""blur"",""1"",""23346""
","""event"",""trial"",""time""
""focus"",""1"",""81111""
","""event"",""trial"",""time""
""fullscreenenter"",""1"",""82598""
","
","","[{""page_index"":0,""viewing_time"":2407.0999999046326}]","2407.4000000953674","","","","","","","","","","","","","","","","","","","","","","","",""
"pit-instructions","123","1366489","0.0-3.0","battery-v0.2","","""event"",""trial"",""time""
""blur"",""1"",""23346""
""focus"",""1"",""81111""
""fullscreenenter"",""1"",""82598""
","""event"",""trial"",""time""
""blur"",""1"",""23346""
","""event"",""trial"",""time""
""focus"",""1"",""81111""
","""event"",""trial"",""time""
""fullscreenenter"",""1"",""82598""
","
","","[{""page_index"":0,""viewing_time"":3518.4000000953674},{""page_index"":1,""viewing_time"":5375.299999952316},{""page_index"":2,""viewing_time"":21113.799999952316}]","30007.799999952316","","","","","","","","","","","","","","","","","","","","","","","",""
"pit-trial","124","1370081","0.0-4.0","battery-v0.2","","""event"",""trial"",""time""
""blur"",""1"",""23346""
""focus"",""1"",""81111""
""fullscreenenter"",""1"",""82598""
","""event"",""trial"",""time""
""blur"",""1"",""23346""
","""event"",""trial"",""time""
""focus"",""1"",""81111""
","""event"",""trial"",""time""
""fullscreenenter"",""1"",""82598""
","
","","","703.5","","","23","6065","3526","&#9752;","elianto","#f73b6a7A"," "," ","1","0","[1571.1000001430511]","1","1","","","6065","1","3","3","lose","go","0"
"pit-trial","125","1373272","0.0-5.0","battery-v0.2","","""event"",""trial"",""time""
""blur"",""1"",""23346""
""focus"",""1"",""81111""
""fullscreenenter"",""1"",""82598""
","""event"",""trial"",""time""
""blur"",""1"",""23346""
","""event"",""trial"",""time""
""focus"",""1"",""81111""
","""event"",""trial"",""time""
""fullscreenenter"",""1"",""82598""
","
","","","309.30000019073486","","","23","6065","3526","&#9730;","elianto","#3366ff99"," "," ","1","0","[1173.5]","1","1","","","6065","2","1","1","win","go","1"
"pit-trial","126","1376221","0.0-6.0","battery-v0.2","","""event"",""trial"",""time""
""blur"",""1"",""23346""
""focus"",""1"",""81111""
""fullscreenenter"",""1"",""82598""
","""event"",""trial"",""time""
""blur"",""1"",""23346""
","""event"",""trial"",""time""
""focus"",""1"",""81111""
","""event"",""trial"",""time""
""fullscreenenter"",""1"",""82598""
","
","","","69.89999985694885","","","23","6065","3526","&#9733;","elianto","#3366ff99","-1"," ","0","+10","[932.8999998569489]","1","1","","","6065","3","2","2","win","no-go","1"
"pit-trial","127","1380090","0.0-7.0","battery-v0.2","","""event"",""trial"",""time""
""blur"",""1"",""23346""
""focus"",""1"",""81111""
""fullscreenenter"",""1"",""82598""
","""event"",""trial"",""time""
""blur"",""1"",""23346""
","""event"",""trial"",""time""
""focus"",""1"",""81111""
","""event"",""trial"",""time""
""fullscreenenter"",""1"",""82598""
","
","","","1011","","","23","6065","3526","&#9728;","elianto","#f73b6a7A","-1"," ","0","-10","[795.5999999046326,1863.7000000476837]","2","1","","","6065","4","0","4","lose","no-go","0"
"pit-trial","128","1383170","0.0-8.0","battery-v0.2","","""event"",""trial"",""time""
""blur"",""1"",""23346""
""focus"",""1"",""81111""
""fullscreenenter"",""1"",""82598""
","""event"",""trial"",""time""
""blur"",""1"",""23346""
","""event"",""trial"",""time""
""focus"",""1"",""81111""
","""event"",""trial"",""time""
""fullscreenenter"",""1"",""82598""
","
","","","216.19999980926514","","","23","6065","3526","&#9733;","elianto","#3366ff99","-1"," ","0","0","[1071.3999998569489]","1","1","","","6065","5","2","2","win","no-go","0"
"pit-trial","129","1386219","0.0-9.0","battery-v0.2","","""event"",""trial"",""time""
""blur"",""1"",""23346""
""focus"",""1"",""81111""
""fullscreenenter"",""1"",""82598""
","""event"",""trial"",""time""
""blur"",""1"",""23346""
","""event"",""trial"",""time""
""focus"",""1"",""81111""
","""event"",""trial"",""time""
""fullscreenenter"",""1"",""82598""
","
","","","193.79999995231628","","","23","6065","3526","&#9728;","elianto","#f73b6a7A","-1"," ","0","-10","[1044.2000000476837]","1","1","","","6065","6","0","4","lose","no-go","0"
"pit-trial","130","1389242","0.0-10.0","battery-v0.2","","""event"",""trial"",""time""
""blur"",""1"",""23346""
""focus"",""1"",""81111""
""fullscreenenter"",""1"",""82598""
","""event"",""trial"",""time""
""blur"",""1"",""23346""
","""event"",""trial"",""time""
""focus"",""1"",""81111""
","""event"",""trial"",""time""
""fullscreenenter"",""1"",""82598""
","
","","","168.5","","","23","6065","3526","&#9752;","elianto","#f73b6a7A"," "," ","1","0","[1019.0999999046326]","1","1","","","6065","7","3","3","lose","go","0"
"pit-trial","131","1392433","0.0-11.0","battery-v0.2","","""event"",""trial"",""time""
""blur"",""1"",""23346""
""focus"",""1"",""81111""
""fullscreenenter"",""1"",""82598""
","""event"",""trial"",""time""
""blur"",""1"",""23346""
","""event"",""trial"",""time""
""focus"",""1"",""81111""
","""event"",""trial"",""time""
""fullscreenenter"",""1"",""82598""
","
","","","332.2999999523163","","","23","6065","3526","&#9730;","elianto","#3366ff99"," "," ","1","0","[1187.2999999523163]","1","1","","","6065","8","1","1","win","go","1"
"pit-trial","132","1395451","0.0-12.0","battery-v0.2","","""event"",""trial"",""time""
""blur"",""1"",""23346""
""focus"",""1"",""81111""
""fullscreenenter"",""1"",""82598""
","""event"",""trial"",""time""
""blur"",""1"",""23346""
","""event"",""trial"",""time""
""focus"",""1"",""81111""
","""event"",""trial"",""time""
""fullscreenenter"",""1"",""82598""
","
","","","157.40000009536743","","","23","6065","3526","&#9728;","elianto","#f73b6a7A","-1"," ","0","-10","[1008.7000000476837]","1","1","","","6065","9","0","4","lose","no-go","0"
"pit-trial","133","1398602","0.0-13.0","battery-v0.2","","""event"",""trial"",""time""
""blur"",""1"",""23346""
""focus"",""1"",""81111""
""fullscreenenter"",""1"",""82598""
","""event"",""trial"",""time""
""blur"",""1"",""23346""
","""event"",""trial"",""time""
""focus"",""1"",""81111""
","""event"",""trial"",""time""
""fullscreenenter"",""1"",""82598""
","
","","","296.09999990463257","","","23","6065","3526","&#9733;","elianto","#3366ff99","-1"," ","0","0","[1146.5]","1","1","","","6065","10","2","2","win","no-go","0"
"pit-trial","134","1401554","0.0-14.0","battery-v0.2","","""event"",""trial"",""time""
""blur"",""1"",""23346""
""focus"",""1"",""81111""
""fullscreenenter"",""1"",""82598""
","""event"",""trial"",""time""
""blur"",""1"",""23346""
","""event"",""trial"",""time""
""focus"",""1"",""81111""
","""event"",""trial"",""time""
""fullscreenenter"",""1"",""82598""
","
","","","96.29999995231628","","","23","6065","3526","&#9752;","elianto","#f73b6a7A"," "," ","1","0","[946.5]","1","1","","","6065","11","3","3","lose","go","0"
"pit-trial","135","1404850","0.0-15.0","battery-v0.2","","""event"",""trial"",""time""
""blur"",""1"",""23346""
""focus"",""1"",""81111""
""fullscreenenter"",""1"",""82598""
","""event"",""trial"",""time""
""blur"",""1"",""23346""
","""event"",""trial"",""time""
""focus"",""1"",""81111""
","""event"",""trial"",""time""
""fullscreenenter"",""1"",""82598""
","
","","","434.7999999523163","","","23","6065","3526","&#9730;","elianto","#3366ff99"," "," ","1","0","[1289.6999998092651]","1","1","","","6065","12","1","1","win","go","1"
"pit-trial","136","1408283","0.0-16.0","battery-v0.2","","""event"",""trial"",""time""
""blur"",""1"",""23346""
""focus"",""1"",""81111""
""fullscreenenter"",""1"",""82598""
","""event"",""trial"",""time""
""blur"",""1"",""23346""
","""event"",""trial"",""time""
""focus"",""1"",""81111""
","""event"",""trial"",""time""
""fullscreenenter"",""1"",""82598""
","
","","","577.7000000476837","","","23","6065","3526","&#9730;","elianto","#3366ff99"," "," ","1","0","[1429]","1","1","","","6065","13","1","1","win","go","1"
"pit-trial","137","1411378","0.0-17.0","battery-v0.2","","""event"",""trial"",""time""
""blur"",""1"",""23346""
""focus"",""1"",""81111""
""fullscreenenter"",""1"",""82598""
","""event"",""trial"",""time""
""blur"",""1"",""23346""
","""event"",""trial"",""time""
""focus"",""1"",""81111""
","""event"",""trial"",""time""
""fullscreenenter"",""1"",""82598""
","
","","","237.09999990463257","","","23","6065","3526","&#9752;","elianto","#f73b6a7A"," "," ","1","0","[1088.9000000953674]","1","1","","","6065","14","3","3","lose","go","0"
"pit-trial","138","1414594","0.0-18.0","battery-v0.2","","""event"",""trial"",""time""
""blur"",""1"",""23346""
""focus"",""1"",""81111""
""fullscreenenter"",""1"",""82598""
","""event"",""trial"",""time""
""blur"",""1"",""23346""
","""event"",""trial"",""time""
""focus"",""1"",""81111""
","""event"",""trial"",""time""
""fullscreenenter"",""1"",""82598""
","
","","","352.39999985694885","","","23","6065","3526","&#9733;","elianto","#3366ff99","-1"," ","0","0","[1208.2999999523163]","1","1","","","6065","15","2","2","win","no-go","0"
"pit-trial","139","1417674","0.0-19.0","battery-v0.2","","""event"",""trial"",""time""
""blur"",""1"",""23346""
""focus"",""1"",""81111""
""fullscreenenter"",""1"",""82598""
","""event"",""trial"",""time""
""blur"",""1"",""23346""
","""event"",""trial"",""time""
""focus"",""1"",""81111""
","""event"",""trial"",""time""
""fullscreenenter"",""1"",""82598""
","
","","","219.10000014305115","","","23","6065","3526","&#9728;","elianto","#f73b6a7A","-1"," ","0","-10","[1073.9000000953674]","1","1","","","6065","16","0","4","lose","no-go","0"
"pit-trial","140","1420810","0.0-20.0","battery-v0.2","","""event"",""trial"",""time""
""blur"",""1"",""23346""
""focus"",""1"",""81111""
""fullscreenenter"",""1"",""82598""
","""event"",""trial"",""time""
""blur"",""1"",""23346""
","""event"",""trial"",""time""
""focus"",""1"",""81111""
","""event"",""trial"",""time""
""fullscreenenter"",""1"",""82598""
","
","","","273.59999990463257","","","23","6065","3526","&#9730;","elianto","#3366ff99"," "," ","1","+10","[1128]","1","1","","","6065","17","1","1","win","go","0"
"pit-trial","141","1424218","0.0-21.0","battery-v0.2","","""event"",""trial"",""time""
""blur"",""1"",""23346""
""focus"",""1"",""81111""
""fullscreenenter"",""1"",""82598""
","""event"",""trial"",""time""
""blur"",""1"",""23346""
","""event"",""trial"",""time""
""focus"",""1"",""81111""
","""event"",""trial"",""time""
""fullscreenenter"",""1"",""82598""
","
","","","543.3999998569489","","","23","6065","3526","&#9728;","elianto","#f73b6a7A","-1"," ","0","-10","[1397.7000000476837]","1","1","","","6065","18","0","4","lose","no-go","0"
"pit-trial","142","1427634","0.0-22.0","battery-v0.2","","""event"",""trial"",""time""
""blur"",""1"",""23346""
""focus"",""1"",""81111""
""fullscreenenter"",""1"",""82598""
","""event"",""trial"",""time""
""blur"",""1"",""23346""
","""event"",""trial"",""time""
""focus"",""1"",""81111""
","""event"",""trial"",""time""
""fullscreenenter"",""1"",""82598""
","
","","","561.5","","","23","6065","3526","&#9752;","elianto","#f73b6a7A"," "," ","1","0","[1413.0999999046326]","1","1","","","6065","19","3","3","lose","go","0"
"pit-trial","143","1431411","0.0-23.0","battery-v0.2","","""event"",""trial"",""time""
""blur"",""1"",""23346""
""focus"",""1"",""81111""
""fullscreenenter"",""1"",""82598""
","""event"",""trial"",""time""
""blur"",""1"",""23346""
","""event"",""trial"",""time""
""focus"",""1"",""81111""
","""event"",""trial"",""time""
""fullscreenenter"",""1"",""82598""
","
","","","919.5","","","23","6065","3526","&#9733;","elianto","#3366ff99","-1"," ","0","0","[1771.2000000476837]","1","1","","","6065","20","2","2","win","no-go","0"
"pit-instructions","144","1493586","0.0-24.0","battery-v0.2","","""event"",""trial"",""time""
""blur"",""1"",""23346""
""focus"",""1"",""81111""
""fullscreenenter"",""1"",""82598""
","""event"",""trial"",""time""
""blur"",""1"",""23346""
","""event"",""trial"",""time""
""focus"",""1"",""81111""
","""event"",""trial"",""time""
""fullscreenenter"",""1"",""82598""
","
","","[{""page_index"":0,""viewing_time"":32636},{""page_index"":1,""viewing_time"":29538.10000014305}]","62174.40000009537","","","","","","","","","","","","","","","","","","","","","","","",""
"pit-trial","145","1496883","0.0-25.0","battery-v0.2","","""event"",""trial"",""time""
""blur"",""1"",""23346""
""focus"",""1"",""81111""
""fullscreenenter"",""1"",""82598""
","""event"",""trial"",""time""
""blur"",""1"",""23346""
","""event"",""trial"",""time""
""focus"",""1"",""81111""
","""event"",""trial"",""time""
""fullscreenenter"",""1"",""82598""
","
","","","441.7999999523163","","","23","6065","3526","w","elianto","#f73b6a7A"," "," ","1","0","[1292.2000000476837]","1","2","","","6065","21","3","3","lose","go","0"
"pit-trial","146","1500061","0.0-26.0","battery-v0.2","","""event"",""trial"",""time""
""blur"",""1"",""23346""
""focus"",""1"",""81111""
""fullscreenenter"",""1"",""82598""
","""event"",""trial"",""time""
""blur"",""1"",""23346""
","""event"",""trial"",""time""
""focus"",""1"",""81111""
","""event"",""trial"",""time""
""fullscreenenter"",""1"",""82598""
","
","","","320.2000000476837","","","23","6065","3526","j","elianto","#f73b6a7A","-1"," ","0","0","[1172]","1","2","","","6065","22","0","4","lose","no-go","1"
"pit-trial","147","1503986","0.0-27.0","battery-v0.2","","""event"",""trial"",""time""
""blur"",""1"",""23346""
""focus"",""1"",""81111""
""fullscreenenter"",""1"",""82598""
","""event"",""trial"",""time""
""blur"",""1"",""23346""
","""event"",""trial"",""time""
""focus"",""1"",""81111""
","""event"",""trial"",""time""
""fullscreenenter"",""1"",""82598""
","
","","","1066.7999999523163","","","23","6065","3526","e","elianto","#f73b6a7A","-1"," ","0","-10","[1919.5]","1","2","","","6065","23","2","4","lose","no-go","0"
"pit-trial","148","1508418","0.0-28.0","battery-v0.2","","""event"",""trial"",""time""
""blur"",""1"",""23346""
""focus"",""1"",""81111""
""fullscreenenter"",""1"",""82598""
","""event"",""trial"",""time""
""blur"",""1"",""23346""
","""event"",""trial"",""time""
""focus"",""1"",""81111""
","""event"",""trial"",""time""
""fullscreenenter"",""1"",""82598""
","
","","","1578.5999999046326","","","23","6065","3526","d","elianto","#3366ff99"," "," ","1","+10","[2429.5999999046326]","1","2","","","6065","24","1","1","win","go","0"
"pit-trial","149","1512202","0.0-29.0","battery-v0.2","","""event"",""trial"",""time""
""blur"",""1"",""23346""
""focus"",""1"",""81111""
""fullscreenenter"",""1"",""82598""
","""event"",""trial"",""time""
""blur"",""1"",""23346""
","""event"",""trial"",""time""
""focus"",""1"",""81111""
","""event"",""trial"",""time""
""fullscreenenter"",""1"",""82598""
","
","","","929.2999999523163","","","23","6065","3526","w","elianto","#f73b6a7A"," "," ","1","0","[1780.2999999523163]","1","2","","","6065","25","3","3","lose","go","0"
"pit-trial","150","1516050","0.0-30.0","battery-v0.2","","""event"",""trial"",""time""
""blur"",""1"",""23346""
""focus"",""1"",""81111""
""fullscreenenter"",""1"",""82598""
","""event"",""trial"",""time""
""blur"",""1"",""23346""
","""event"",""trial"",""time""
""focus"",""1"",""81111""
","""event"",""trial"",""time""
""fullscreenenter"",""1"",""82598""
","
","","","990.0999999046326","","","23","6065","3526","d","elianto","#3366ff99"," "," ","1","+10","[1841.0999999046326]","1","2","","","6065","26","1","1","win","go","0"
"pit-trial","151","1519923","0.0-31.0","battery-v0.2","","""event"",""trial"",""time""
""blur"",""1"",""23346""
""focus"",""1"",""81111""
""fullscreenenter"",""1"",""82598""
","""event"",""trial"",""time""
""blur"",""1"",""23346""
","""event"",""trial"",""time""
""focus"",""1"",""81111""
","""event"",""trial"",""time""
""fullscreenenter"",""1"",""82598""
","
","","","1011.9000000953674","","","23","6065","3526","j","elianto","#f73b6a7A","-1"," ","0","0","[1863.5999999046326]","1","2","","","6065","27","0","4","lose","no-go","1"
"pit-trial","152","1523379","0.0-32.0","battery-v0.2","","""event"",""trial"",""time""
""blur"",""1"",""23346""
""focus"",""1"",""81111""
""fullscreenenter"",""1"",""82598""
","""event"",""trial"",""time""
""blur"",""1"",""23346""
","""event"",""trial"",""time""
""focus"",""1"",""81111""
","""event"",""trial"",""time""
""fullscreenenter"",""1"",""82598""
","
","","","595.9000000953674","","","23","6065","3526","e","elianto","#f73b6a7A","-1"," ","0","-10","[1450.5]","1","2","","","6065","28","2","4","lose","no-go","0"
"pit-trial","153","1527962","0.0-33.0","battery-v0.2","","""event"",""trial"",""time""
""blur"",""1"",""23346""
""focus"",""1"",""81111""
""fullscreenenter"",""1"",""82598""
","""event"",""trial"",""time""
""blur"",""1"",""23346""
","""event"",""trial"",""time""
""focus"",""1"",""81111""
","""event"",""trial"",""time""
""fullscreenenter"",""1"",""82598""
","
","","","1725.2000000476837","","","23","6065","3526","w","elianto","#f73b6a7A"," "," ","1","0","[2579.9000000953674]","1","2","","","6065","29","3","3","lose","go","0"
"pit-trial","154","1531875","0.0-34.0","battery-v0.2","","""event"",""trial"",""time""
""blur"",""1"",""23346""
""focus"",""1"",""81111""
""fullscreenenter"",""1"",""82598""
","""event"",""trial"",""time""
""blur"",""1"",""23346""
","""event"",""trial"",""time""
""focus"",""1"",""81111""
","""event"",""trial"",""time""
""fullscreenenter"",""1"",""82598""
","
","","","1048","","","23","6065","3526","e","elianto","#f73b6a7A","-1"," ","0","-10","[1903.3999998569489]","1","2","","","6065","30","2","4","lose","no-go","0"
"pit-trial","155","1535154","0.0-35.0","battery-v0.2","","""event"",""trial"",""time""
""blur"",""1"",""23346""
""focus"",""1"",""81111""
""fullscreenenter"",""1"",""82598""
","""event"",""trial"",""time""
""blur"",""1"",""23346""
","""event"",""trial"",""time""
""focus"",""1"",""81111""
","""event"",""trial"",""time""
""fullscreenenter"",""1"",""82598""
","
","","","419.90000009536743","","","23","6065","3526","d","elianto","#3366ff99"," "," ","1","+10","[1275.8000001907349]","1","2","","","6065","31","1","1","win","go","0"
"pit-trial","156","1538683","0.0-36.0","battery-v0.2","","""event"",""trial"",""time""
""blur"",""1"",""23346""
""focus"",""1"",""81111""
""fullscreenenter"",""1"",""82598""
","""event"",""trial"",""time""
""blur"",""1"",""23346""
","""event"",""trial"",""time""
""focus"",""1"",""81111""
","""event"",""trial"",""time""
""fullscreenenter"",""1"",""82598""
","
","","","665.2999999523163","","","23","6065","3526","j","elianto","#f73b6a7A","-1"," ","0","0","[1520.2000000476837]","1","2","","","6065","32","0","4","lose","no-go","1"
"pit-trial","157","1541995","0.0-37.0","battery-v0.2","","""event"",""trial"",""time""
""blur"",""1"",""23346""
""focus"",""1"",""81111""
""fullscreenenter"",""1"",""82598""
","""event"",""trial"",""time""
""blur"",""1"",""23346""
","""event"",""trial"",""time""
""focus"",""1"",""81111""
","""event"",""trial"",""time""
""fullscreenenter"",""1"",""82598""
","
","","","455.7000000476837","","","23","6065","3526","d","elianto","#3366ff99"," "," ","1","0","[1308.2000000476837]","1","2","","","6065","33","1","1","win","go","1"
"pit-trial","158","1545498","0.0-38.0","battery-v0.2","","""event"",""trial"",""time""
""blur"",""1"",""23346""
""focus"",""1"",""81111""
""fullscreenenter"",""1"",""82598""
","""event"",""trial"",""time""
""blur"",""1"",""23346""
","""event"",""trial"",""time""
""focus"",""1"",""81111""
","""event"",""trial"",""time""
""fullscreenenter"",""1"",""82598""
","
","","","641.3999998569489","","","23","6065","3526","w","elianto","#f73b6a7A"," "," ","1","0","[1495.3999998569489]","1","2","","","6065","34","3","3","lose","go","0"
"pit-trial","159","1549066","0.0-39.0","battery-v0.2","","""event"",""trial"",""time""
""blur"",""1"",""23346""
""focus"",""1"",""81111""
""fullscreenenter"",""1"",""82598""
","""event"",""trial"",""time""
""blur"",""1"",""23346""
","""event"",""trial"",""time""
""focus"",""1"",""81111""
","""event"",""trial"",""time""
""fullscreenenter"",""1"",""82598""
","
","","","711.6000001430511","","","23","6065","3526","e","elianto","#f73b6a7A","-1"," ","0","-10","[1565.2000000476837]","1","2","","","6065","35","2","4","lose","no-go","0"
"pit-trial","160","1553074","0.0-40.0","battery-v0.2","","""event"",""trial"",""time""
""blur"",""1"",""23346""
""focus"",""1"",""81111""
""fullscreenenter"",""1"",""82598""
","""event"",""trial"",""time""
""blur"",""1"",""23346""
","""event"",""trial"",""time""
""focus"",""1"",""81111""
","""event"",""trial"",""time""
""fullscreenenter"",""1"",""82598""
","
","","","1148.2000000476837","","","23","6065","3526","j","elianto","#f73b6a7A","-1"," ","0","-10","[2001.4000000953674]","1","2","","","6065","36","0","4","lose","no-go","0"
"pit-trial","161","1556658","0.0-41.0","battery-v0.2","","""event"",""trial"",""time""
""blur"",""1"",""23346""
""focus"",""1"",""81111""
""fullscreenenter"",""1"",""82598""
","""event"",""trial"",""time""
""blur"",""1"",""23346""
","""event"",""trial"",""time""
""focus"",""1"",""81111""
","""event"",""trial"",""time""
""fullscreenenter"",""1"",""82598""
","
","","","720.6000001430511","","","23","6065","3526","j","elianto","#f73b6a7A","-1"," ","0","-10","[1574.9000000953674]","1","2","","","6065","37","0","4","lose","no-go","0"
"pit-trial","162","1560114","0.0-42.0","battery-v0.2","","""event"",""trial"",""time""
""blur"",""1"",""23346""
""focus"",""1"",""81111""
""fullscreenenter"",""1"",""82598""
","""event"",""trial"",""time""
""blur"",""1"",""23346""
","""event"",""trial"",""time""
""focus"",""1"",""81111""
","""event"",""trial"",""time""
""fullscreenenter"",""1"",""82598""
","
","","","591.7000000476837","","","23","6065","3526","w","elianto","#f73b6a7A"," "," ","1","0","[1447.2000000476837]","1","2","","","6065","38","3","3","lose","go","0"
"pit-trial","163","1563650","0.0-43.0","battery-v0.2","","""event"",""trial"",""time""
""blur"",""1"",""23346""
""focus"",""1"",""81111""
""fullscreenenter"",""1"",""82598""
","""event"",""trial"",""time""
""blur"",""1"",""23346""
","""event"",""trial"",""time""
""focus"",""1"",""81111""
","""event"",""trial"",""time""
""fullscreenenter"",""1"",""82598""
","
","","","677.2999999523163","","","23","6065","3526","e","elianto","#f73b6a7A","-1"," ","0","-10","[1530.7000000476837]","1","2","","","6065","39","2","4","lose","no-go","0"
"pit-trial","164","1566691","0.0-44.0","battery-v0.2","","""event"",""trial"",""time""
""blur"",""1"",""23346""
""focus"",""1"",""81111""
""fullscreenenter"",""1"",""82598""
","""event"",""trial"",""time""
""blur"",""1"",""23346""
","""event"",""trial"",""time""
""focus"",""1"",""81111""
","""event"",""trial"",""time""
""fullscreenenter"",""1"",""82598""
","
","","","180.70000004768372","","","23","6065","3526","d","elianto","#3366ff99"," "," ","1","+10","[1032.0999999046326]","1","2","","","6065","40","1","1","win","go","0"
"pit-trial","165","1570914","0.0-45.0","battery-v0.2","","""event"",""trial"",""time""
""blur"",""1"",""23346""
""focus"",""1"",""81111""
""fullscreenenter"",""1"",""82598""
","""event"",""trial"",""time""
""blur"",""1"",""23346""
","""event"",""trial"",""time""
""focus"",""1"",""81111""
","""event"",""trial"",""time""
""fullscreenenter"",""1"",""82598""
","
","","","1361.2999999523163","","","23","6065","3526","w","elianto","#f73b6a7A"," "," ","1","0","[2214.7000000476837]","1","2","","","6065","41","3","3","lose","go","0"
"pit-trial","166","1574434","0.0-46.0","battery-v0.2","","""event"",""trial"",""time""
""blur"",""1"",""23346""
""focus"",""1"",""81111""
""fullscreenenter"",""1"",""82598""
","""event"",""trial"",""time""
""blur"",""1"",""23346""
","""event"",""trial"",""time""
""focus"",""1"",""81111""
","""event"",""trial"",""time""
""fullscreenenter"",""1"",""82598""
","
","","","661.5999999046326","","","23","6065","3526","d","elianto","#3366ff99"," "," ","1","+10","[1515.5]","1","2","","","6065","42","1","1","win","go","0"
"pit-trial","167","1579298","0.0-47.0","battery-v0.2","","""event"",""trial"",""time""
""blur"",""1"",""23346""
""focus"",""1"",""81111""
""fullscreenenter"",""1"",""82598""
","""event"",""trial"",""time""
""blur"",""1"",""23346""
","""event"",""trial"",""time""
""focus"",""1"",""81111""
","""event"",""trial"",""time""
""fullscreenenter"",""1"",""82598""
","
","","","-1","","","23","6065","3526","e","elianto","#f73b6a7A","-1","-1","1","0","[]","0","2","","","6065","43","2","4","lose","no-go","0"
"pit-trial","168","1583290","0.0-48.0","battery-v0.2","","""event"",""trial"",""time""
""blur"",""1"",""23346""
""focus"",""1"",""81111""
""fullscreenenter"",""1"",""82598""
","""event"",""trial"",""time""
""blur"",""1"",""23346""
","""event"",""trial"",""time""
""focus"",""1"",""81111""
","""event"",""trial"",""time""
""fullscreenenter"",""1"",""82598""
","
","","","1134.7000000476837","","","23","6065","3526","j","elianto","#f73b6a7A","-1"," ","0","-10","[1987.7999999523163]","1","2","","","6065","44","0","4","lose","no-go","0"
"pit-trial","169","1587130","0.0-49.0","battery-v0.2","","""event"",""trial"",""time""
""blur"",""1"",""23346""
""focus"",""1"",""81111""
""fullscreenenter"",""1"",""82598""
","""event"",""trial"",""time""
""blur"",""1"",""23346""
","""event"",""trial"",""time""
""focus"",""1"",""81111""
","""event"",""trial"",""time""
""fullscreenenter"",""1"",""82598""
","
","","","981.0999999046326","","","23","6065","3526","s","elianto","#3366ff99","-1"," ","0","0","[1835.6999998092651]","1","2","","","6065","45","4","2","win","no-go","0"
"pit-trial","170","1591994","0.0-50.0","battery-v0.2","","""event"",""trial"",""time""
""blur"",""1"",""23346""
""focus"",""1"",""81111""
""fullscreenenter"",""1"",""82598""
","""event"",""trial"",""time""
""blur"",""1"",""23346""
","""event"",""trial"",""time""
""focus"",""1"",""81111""
","""event"",""trial"",""time""
""fullscreenenter"",""1"",""82598""
","
","","","-1","","","23","6065","3526","w","elianto","#f73b6a7A"," ","-1","0","-10","[2948.7999999523163]","1","2","","","6065","46","3","3","lose","go","0"
"pit-trial","171","1595178","0.0-51.0","battery-v0.2","","""event"",""trial"",""time""
""blur"",""1"",""23346""
""focus"",""1"",""81111""
""fullscreenenter"",""1"",""82598""
","""event"",""trial"",""time""
""blur"",""1"",""23346""
","""event"",""trial"",""time""
""focus"",""1"",""81111""
","""event"",""trial"",""time""
""fullscreenenter"",""1"",""82598""
","
","","","326.2999999523163","","","23","6065","3526","j","elianto","#f73b6a7A","-1"," ","0","0","[1181.0999999046326]","1","2","","","6065","47","0","4","lose","no-go","1"
"pit-trial","172","1600042","0.0-52.0","battery-v0.2","","""event"",""trial"",""time""
""blur"",""1"",""23346""
""focus"",""1"",""81111""
""fullscreenenter"",""1"",""82598""
","""event"",""trial"",""time""
""blur"",""1"",""23346""
","""event"",""trial"",""time""
""focus"",""1"",""81111""
","""event"",""trial"",""time""
""fullscreenenter"",""1"",""82598""
","
","","","-1","","","23","6065","3526","e","elianto","#f73b6a7A","-1","-1","1","0","[]","0","2","","","6065","48","2","4","lose","no-go","0"
"pit-trial","173","1604258","0.0-53.0","battery-v0.2","","""event"",""trial"",""time""
""blur"",""1"",""23346""
""focus"",""1"",""81111""
""fullscreenenter"",""1"",""82598""
","""event"",""trial"",""time""
""blur"",""1"",""23346""
","""event"",""trial"",""time""
""focus"",""1"",""81111""
","""event"",""trial"",""time""
""fullscreenenter"",""1"",""82598""
","
","","","1357.5","","","23","6065","3526","w","elianto","#f73b6a7A"," "," ","1","0","[2211.199999809265]","1","2","","","6065","49","3","3","lose","go","0"
"pit-trial","174","1608561","0.0-54.0","battery-v0.2","","""event"",""trial"",""time""
""blur"",""1"",""23346""
""focus"",""1"",""81111""
""fullscreenenter"",""1"",""82598""
","""event"",""trial"",""time""
""blur"",""1"",""23346""
","""event"",""trial"",""time""
""focus"",""1"",""81111""
","""event"",""trial"",""time""
""fullscreenenter"",""1"",""82598""
","
","","","1443","","","23","6065","3526","d","elianto","#3366ff99"," "," ","1","+10","[2297.5]","1","2","","","6065","50","1","1","win","go","0"
"pit-trial","175","1611906","0.0-55.0","battery-v0.2","","""event"",""trial"",""time""
""blur"",""1"",""23346""
""focus"",""1"",""81111""
""fullscreenenter"",""1"",""82598""
","""event"",""trial"",""time""
""blur"",""1"",""23346""
","""event"",""trial"",""time""
""focus"",""1"",""81111""
","""event"",""trial"",""time""
""fullscreenenter"",""1"",""82598""
","
","","","482.2999999523163","","","23","6065","3526","s","elianto","#3366ff99","-1"," ","0","0","[1337.7999999523163]","1","2","","","6065","51","4","2","win","no-go","0"
"pit-trial","176","1616770","0.0-56.0","battery-v0.2","","""event"",""trial"",""time""
""blur"",""1"",""23346""
""focus"",""1"",""81111""
""fullscreenenter"",""1"",""82598""
","""event"",""trial"",""time""
""blur"",""1"",""23346""
","""event"",""trial"",""time""
""focus"",""1"",""81111""
","""event"",""trial"",""time""
""fullscreenenter"",""1"",""82598""
","
","","","-1","","","23","6065","3526","j","elianto","#f73b6a7A","-1","-1","1","0","[]","0","2","","","6065","52","0","4","lose","no-go","0"
"pit-trial","177","1620962","0.0-57.0","battery-v0.2","","""event"",""trial"",""time""
""blur"",""1"",""23346""
""focus"",""1"",""81111""
""fullscreenenter"",""1"",""82598""
","""event"",""trial"",""time""
""blur"",""1"",""23346""
","""event"",""trial"",""time""
""focus"",""1"",""81111""
","""event"",""trial"",""time""
""fullscreenenter"",""1"",""82598""
","
","","","1335.2000000476837","","","23","6065","3526","s","elianto","#3366ff99","-1"," ","0","0","[2185.2999999523163]","1","2","","","6065","53","4","2","win","no-go","0"
"pit-trial","178","1625826","0.0-58.0","battery-v0.2","","""event"",""trial"",""time""
""blur"",""1"",""23346""
""focus"",""1"",""81111""
""fullscreenenter"",""1"",""82598""
","""event"",""trial"",""time""
""blur"",""1"",""23346""
","""event"",""trial"",""time""
""focus"",""1"",""81111""
","""event"",""trial"",""time""
""fullscreenenter"",""1"",""82598""
","
","","","-1","","","23","6065","3526","e","elianto","#f73b6a7A","-1","-1","1","0","[]","0","2","","","6065","54","2","4","lose","no-go","0"
"pit-trial","179","1630129","0.0-59.0","battery-v0.2","","""event"",""trial"",""time""
""blur"",""1"",""23346""
""focus"",""1"",""81111""
""fullscreenenter"",""1"",""82598""
","""event"",""trial"",""time""
""blur"",""1"",""23346""
","""event"",""trial"",""time""
""focus"",""1"",""81111""
","""event"",""trial"",""time""
""fullscreenenter"",""1"",""82598""
","
","","","1442.8999998569489","","","23","6065","3526","j","elianto","#f73b6a7A","-1"," ","0","0","[2298.0999999046326]","1","2","","","6065","55","0","4","lose","no-go","1"
"pit-trial","180","1634328","0.0-60.0","battery-v0.2","","""event"",""trial"",""time""
""blur"",""1"",""23346""
""focus"",""1"",""81111""
""fullscreenenter"",""1"",""82598""
","""event"",""trial"",""time""
""blur"",""1"",""23346""
","""event"",""trial"",""time""
""focus"",""1"",""81111""
","""event"",""trial"",""time""
""fullscreenenter"",""1"",""82598""
","
","","","1327.6000001430511","","","23","6065","3526","d","elianto","#3366ff99"," "," ","1","0","[2182.5]","1","2","","","6065","56","1","1","win","go","1"
"pit-trial","181","1638445","0.0-61.0","battery-v0.2","","""event"",""trial"",""time""
""blur"",""1"",""23346""
""focus"",""1"",""81111""
""fullscreenenter"",""1"",""82598""
","""event"",""trial"",""time""
""blur"",""1"",""23346""
","""event"",""trial"",""time""
""focus"",""1"",""81111""
","""event"",""trial"",""time""
""fullscreenenter"",""1"",""82598""
","
","","","1250.7000000476837","","","23","6065","3526","w","elianto","#f73b6a7A"," "," ","1","0","[2102.9000000953674]","1","2","","","6065","57","3","3","lose","go","0"
"pit-trial","182","1641938","0.0-62.0","battery-v0.2","","""event"",""trial"",""time""
""blur"",""1"",""23346""
""focus"",""1"",""81111""
""fullscreenenter"",""1"",""82598""
","""event"",""trial"",""time""
""blur"",""1"",""23346""
","""event"",""trial"",""time""
""focus"",""1"",""81111""
","""event"",""trial"",""time""
""fullscreenenter"",""1"",""82598""
","
","","","630.7000000476837","","","23","6065","3526","s","elianto","#3366ff99","-1"," ","0","0","[1482.5]","1","2","","","6065","58","4","2","win","no-go","0"
"pit-trial","183","1645425","0.0-63.0","battery-v0.2","","""event"",""trial"",""time""
""blur"",""1"",""23346""
""focus"",""1"",""81111""
""fullscreenenter"",""1"",""82598""
