"trial_type","trial_index","time_elapsed","internal_node_id","task_version","subject_id","interactions","blur_events","focus_events","fullscreenenter_events","fullscreenexit_events","success","view_history","rt","responses","num_errors","age","subject","participantId","rune","rune_set","hex","correct","choice","accuracy","outcome","keys","total_keys","block","practice","value","sub","trial","stimulus","robot","valence","action","sham"
"pavlovia","0","23","0.0-0.0","battery-v0.2","","""event"",""trial"",""time""
""fullscreenenter"",""1"",""1503""
","
","
","""event"",""trial"",""time""
""fullscreenenter"",""1"",""1503""
","
","","","","","","","","","","","","","","","","","","","","","","","","","","",""
"fullscreen","1","2473","0.0-1.0","battery-v0.2","","""event"",""trial"",""time""
""fullscreenenter"",""1"",""1503""
","
","
","""event"",""trial"",""time""
""fullscreenenter"",""1"",""1503""
","
","true","","","","","","","","","","","","","","","","","","","","","","","","","",""
"pit-instructions","2","8587","0.0-2.0-0.0","battery-v0.2","","""event"",""trial"",""time""
""fullscreenenter"",""1"",""1503""
","
","
","""event"",""trial"",""time""
""fullscreenenter"",""1"",""1503""
","
","","[{""page_index"":0,""viewing_time"":6106.399999976158}]","6106.899999976158","","","","","","","","","","","","","","","","","","","","","","","",""
"pit-comprehension","3","11267","0.0-2.0-1.0-0.0","battery-v0.2","","""event"",""trial"",""time""
""fullscreenenter"",""1"",""1503""
","
","
","""event"",""trial"",""time""
""fullscreenenter"",""1"",""1503""
","
","","","2676.800000011921","[""shark""]","0","16","20964","2696","","","","","","","","","","","","","","","","","","",""
"pit-instructions","4","12306","0.0-2.0-1.0-1.0","battery-v0.2","","""event"",""trial"",""time""
""fullscreenenter"",""1"",""1503""
","
","
","""event"",""trial"",""time""
""fullscreenenter"",""1"",""1503""
","
","","[{""page_index"":0,""viewing_time"":1019.1000000238419}]","1019.5","","","","","","","","","","","","","","","","","","","","","","","",""
"pit-comprehension","5","14444","0.0-2.0-2.0-0.0","battery-v0.2","","""event"",""trial"",""time""
""fullscreenenter"",""1"",""1503""
","
","
","""event"",""trial"",""time""
""fullscreenenter"",""1"",""1503""
","
","","","2131.900000035763","[""tiger""]","0","16","20964","2696","","","","","","","","","","","","","","","","","","",""
"pit-instructions","6","15839","0.0-2.0-2.0-1.0","battery-v0.2","","""event"",""trial"",""time""
""fullscreenenter"",""1"",""1503""
""blur"",""7"",""24168""
""focus"",""7"",""24572""
","""event"",""trial"",""time""
""blur"",""7"",""24168""
","""event"",""trial"",""time""
""focus"",""7"",""24572""
","""event"",""trial"",""time""
""fullscreenenter"",""1"",""1503""
","
","","[{""page_index"":0,""viewing_time"":1390.5}]","1390.9000000357628","","","","","","","","","","","","","","","","","","","","","","","",""
"pit-instructions","7","117831","0.0-2.0-3.0","battery-v0.2","","""event"",""trial"",""time""
""fullscreenenter"",""1"",""1503""
""blur"",""7"",""24168""
""focus"",""7"",""24572""
","""event"",""trial"",""time""
""blur"",""7"",""24168""
","""event"",""trial"",""time""
""focus"",""7"",""24572""
","""event"",""trial"",""time""
""fullscreenenter"",""1"",""1503""
","
","","[{""page_index"":0,""viewing_time"":9160.100000023842},{""page_index"":1,""viewing_time"":5014.199999988079},{""page_index"":2,""viewing_time"":6074.199999988079},{""page_index"":3,""viewing_time"":5612.800000011921},{""page_index"":4,""viewing_time"":8496.199999988079},{""page_index"":5,""viewing_time"":6528.899999976158},{""page_index"":6,""viewing_time"":7746.800000011921},{""page_index"":7,""viewing_time"":9547.400000035763},{""page_index"":8,""viewing_time"":6202.5},{""page_index"":9,""viewing_time"":8125.099999964237},{""page_index"":10,""viewing_time"":7905.300000011921},{""page_index"":11,""viewing_time"":8563},{""page_index"":12,""viewing_time"":6772.199999988079},{""page_index"":13,""viewing_time"":6245.199999988079}]","101994.30000001192","","","","","","","","","","","","","","","","","","","","","","","",""
"pit-trial","8","121176","0.0-2.0-4.0-0.0","battery-v0.2","","""event"",""trial"",""time""
""fullscreenenter"",""1"",""1503""
""blur"",""7"",""24168""
""focus"",""7"",""24572""
","""event"",""trial"",""time""
""blur"",""7"",""24168""
","""event"",""trial"",""time""
""focus"",""7"",""24572""
","""event"",""trial"",""time""
""fullscreenenter"",""1"",""1503""
","
","","","489.19999998807907","","","16","20964","2696","&#9784;","elianto","#FFFFF080"," "," ","1","&#10004","[1340.5]","1","0","0","","","","","","","",""
"pit-trial","9","124492","0.0-2.0-4.1-0.1","battery-v0.2","","""event"",""trial"",""time""
""fullscreenenter"",""1"",""1503""
""blur"",""7"",""24168""
""focus"",""7"",""24572""
","""event"",""trial"",""time""
""blur"",""7"",""24168""
","""event"",""trial"",""time""
""focus"",""7"",""24572""
","""event"",""trial"",""time""
""fullscreenenter"",""1"",""1503""
","
","","","459.5","","","16","20964","2696","&#9784;","elianto","#FFFFF080"," "," ","1","&#10004","[1311.800000011921]","1","0","0","","","","","","","",""
"pit-trial","10","127686","0.0-2.0-4.2-0.2","battery-v0.2","","""event"",""trial"",""time""
""fullscreenenter"",""1"",""1503""
""blur"",""7"",""24168""
""focus"",""7"",""24572""
","""event"",""trial"",""time""
""blur"",""7"",""24168""
","""event"",""trial"",""time""
""focus"",""7"",""24572""
","""event"",""trial"",""time""
""fullscreenenter"",""1"",""1503""
","
","","","336","","","16","20964","2696","&#9784;","elianto","#FFFFF080"," "," ","1","&#10004","[1189.2000000476837]","1","0","0","","","","","","","",""
"pit-trial","11","130961","0.0-2.0-4.3-0.3","battery-v0.2","","""event"",""trial"",""time""
""fullscreenenter"",""1"",""1503""
""blur"",""7"",""24168""
""focus"",""7"",""24572""
","""event"",""trial"",""time""
""blur"",""7"",""24168""
","""event"",""trial"",""time""
""focus"",""7"",""24572""
","""event"",""trial"",""time""
""fullscreenenter"",""1"",""1503""
","
","","","418.5","","","16","20964","2696","&#9784;","elianto","#FFFFF080"," "," ","1","&#10004","[1270.199999988079]","1","0","0","","","","","","","",""
"pit-trial","12","134147","0.0-2.0-4.4-0.4","battery-v0.2","","""event"",""trial"",""time""
""fullscreenenter"",""1"",""1503""
""blur"",""7"",""24168""
""focus"",""7"",""24572""
","""event"",""trial"",""time""
""blur"",""7"",""24168""
","""event"",""trial"",""time""
""focus"",""7"",""24572""
","""event"",""trial"",""time""
""fullscreenenter"",""1"",""1503""
","
","","","330.5","","","16","20964","2696","&#9784;","elianto","#FFFFF080"," "," ","1","&#10004","[1181.3999999761581]","1","0","0","","","","","","","",""
"pit-instructions","13","158135","0.0-2.0-5.0","battery-v0.2","","""event"",""trial"",""time""
""fullscreenenter"",""1"",""1503""
""blur"",""7"",""24168""
""focus"",""7"",""24572""
","""event"",""trial"",""time""
""blur"",""7"",""24168""
","""event"",""trial"",""time""
""focus"",""7"",""24572""
","""event"",""trial"",""time""
""fullscreenenter"",""1"",""1503""
","
","","[{""page_index"":0,""viewing_time"":7043.599999964237},{""page_index"":1,""viewing_time"":5928.200000047684},{""page_index"":2,""viewing_time"":5368.799999952316},{""page_index"":3,""viewing_time"":5644.700000047684}]","23985.80000001192","","","","","","","","","","","","","","","","","","","","","","","",""
"pit-trial","14","162990","0.0-2.0-6.0-0.0","battery-v0.2","","""event"",""trial"",""time""
""fullscreenenter"",""1"",""1503""
""blur"",""7"",""24168""
""focus"",""7"",""24572""
","""event"",""trial"",""time""
""blur"",""7"",""24168""
","""event"",""trial"",""time""
""focus"",""7"",""24572""
","""event"",""trial"",""time""
""fullscreenenter"",""1"",""1503""
","
","","","-1","","","16","20964","2696","&#9854;","elianto","#FFFFF080","-1","-1","1","&#10004","[]","0","0","1","","","","","","","",""
"pit-trial","15","167846","0.0-2.0-6.1-0.1","battery-v0.2","","""event"",""trial"",""time""
""fullscreenenter"",""1"",""1503""
""blur"",""7"",""24168""
""focus"",""7"",""24572""
","""event"",""trial"",""time""
""blur"",""7"",""24168""
","""event"",""trial"",""time""
""focus"",""7"",""24572""
","""event"",""trial"",""time""
""fullscreenenter"",""1"",""1503""
","
","","","-1","","","16","20964","2696","&#9854;","elianto","#FFFFF080","-1","-1","1","&#10004","[]","0","0","1","","","","","","","",""
"pit-trial","16","172702","0.0-2.0-6.2-0.2","battery-v0.2","","""event"",""trial"",""time""
""fullscreenenter"",""1"",""1503""
""blur"",""7"",""24168""
""focus"",""7"",""24572""
","""event"",""trial"",""time""
""blur"",""7"",""24168""
","""event"",""trial"",""time""
""focus"",""7"",""24572""
","""event"",""trial"",""time""
""fullscreenenter"",""1"",""1503""
","
","","","-1","","","16","20964","2696","&#9854;","elianto","#FFFFF080","-1","-1","1","&#10004","[]","0","0","1","","","","","","","",""
"pit-trial","17","177558","0.0-2.0-6.3-0.3","battery-v0.2","","""event"",""trial"",""time""
""fullscreenenter"",""1"",""1503""
""blur"",""7"",""24168""
""focus"",""7"",""24572""
","""event"",""trial"",""time""
""blur"",""7"",""24168""
","""event"",""trial"",""time""
""focus"",""7"",""24572""
","""event"",""trial"",""time""
""fullscreenenter"",""1"",""1503""
","
","","","-1","","","16","20964","2696","&#9854;","elianto","#FFFFF080","-1","-1","1","&#10004","[]","0","0","1","","","","","","","",""
"pit-trial","18","182412","0.0-2.0-6.4-0.4","battery-v0.2","","""event"",""trial"",""time""
""fullscreenenter"",""1"",""1503""
""blur"",""7"",""24168""
""focus"",""7"",""24572""
","""event"",""trial"",""time""
""blur"",""7"",""24168""
","""event"",""trial"",""time""
""focus"",""7"",""24572""
","""event"",""trial"",""time""
""fullscreenenter"",""1"",""1503""
","
","","","-1","","","16","20964","2696","&#9854;","elianto","#FFFFF080","-1","-1","1","&#10004","[]","0","0","1","","","","","","","",""
"pit-instructions","19","311338","0.0-2.0-7.0","battery-v0.2","","""event"",""trial"",""time""
""fullscreenenter"",""1"",""1503""
""blur"",""7"",""24168""
""focus"",""7"",""24572""
","""event"",""trial"",""time""
""blur"",""7"",""24168""
","""event"",""trial"",""time""
""focus"",""7"",""24572""
","""event"",""trial"",""time""
""fullscreenenter"",""1"",""1503""
","
","","[{""page_index"":0,""viewing_time"":6940},{""page_index"":1,""viewing_time"":7691.900000035763},{""page_index"":2,""viewing_time"":7491.099999964237},{""page_index"":3,""viewing_time"":7896.300000011921},{""page_index"":4,""viewing_time"":6695.300000011921},{""page_index"":5,""viewing_time"":6093.899999976158},{""page_index"":6,""viewing_time"":7218.900000035763},{""page_index"":7,""viewing_time"":7909},{""page_index"":8,""viewing_time"":6743.5},{""page_index"":9,""viewing_time"":6992.300000011921},{""page_index"":10,""viewing_time"":7070.799999952316},{""page_index"":11,""viewing_time"":6179.5},{""page_index"":12,""viewing_time"":7469},{""page_index"":13,""viewing_time"":7510.100000023842},{""page_index"":14,""viewing_time"":7523.300000011921},{""page_index"":15,""viewing_time"":7242.199999988079},{""page_index"":16,""viewing_time"":7086.600000023842},{""page_index"":17,""viewing_time"":7175.599999964237}]","128929.80000001192","","","","","","","","","","","","","","","","","","","","","","","",""
"pit-trial","20","314869","0.0-2.0-8.0-0.0","battery-v0.2","","""event"",""trial"",""time""
""fullscreenenter"",""1"",""1503""
""blur"",""7"",""24168""
""focus"",""7"",""24572""
","""event"",""trial"",""time""
""blur"",""7"",""24168""
","""event"",""trial"",""time""
""focus"",""7"",""24572""
","""event"",""trial"",""time""
""fullscreenenter"",""1"",""1503""
","
","","","675.3000000119209","","","16","20964","2696","&#9776;","elianto","#3366ff99"," "," ","1","+10","[1525.6000000238419]","1","0","1","","","","","","","",""
"pit-trial","21","318192","0.0-2.0-8.0-1.0","battery-v0.2","","""event"",""trial"",""time""
""fullscreenenter"",""1"",""1503""
""blur"",""7"",""24168""
""focus"",""7"",""24572""
","""event"",""trial"",""time""
""blur"",""7"",""24168""
","""event"",""trial"",""time""
""focus"",""7"",""24572""
","""event"",""trial"",""time""
""fullscreenenter"",""1"",""1503""
","
","","","467.5","","","16","20964","2696","&#9776;","elianto","#3366ff99"," "," ","1","+10","[1319.300000011921]","1","0","1","","","","","","","",""
"pit-trial","22","321511","0.0-2.0-8.0-2.0","battery-v0.2","","""event"",""trial"",""time""
""fullscreenenter"",""1"",""1503""
""blur"",""7"",""24168""
""focus"",""7"",""24572""
","""event"",""trial"",""time""
""blur"",""7"",""24168""
","""event"",""trial"",""time""
""focus"",""7"",""24572""
","""event"",""trial"",""time""
""fullscreenenter"",""1"",""1503""
","
","","","464.19999998807907","","","16","20964","2696","&#9776;","elianto","#3366ff99"," "," ","1","+10","[1315.5]","1","0","1","","","","","","","",""
"pit-trial","23","324697","0.0-2.0-8.0-3.0","battery-v0.2","","""event"",""trial"",""time""
""fullscreenenter"",""1"",""1503""
""blur"",""7"",""24168""
""focus"",""7"",""24572""
","""event"",""trial"",""time""
""blur"",""7"",""24168""
","""event"",""trial"",""time""
""focus"",""7"",""24572""
","""event"",""trial"",""time""
""fullscreenenter"",""1"",""1503""
","
","","","333.10000002384186","","","16","20964","2696","&#9776;","elianto","#3366ff99"," "," ","1","0","[1184.1000000238419]","1","0","1","","","","","","","",""
"pit-trial","24","327872","0.0-2.0-8.0-4.0","battery-v0.2","","""event"",""trial"",""time""
""fullscreenenter"",""1"",""1503""
""blur"",""7"",""24168""
""focus"",""7"",""24572""
","""event"",""trial"",""time""
""blur"",""7"",""24168""
","""event"",""trial"",""time""
""focus"",""7"",""24572""
","""event"",""trial"",""time""
""fullscreenenter"",""1"",""1503""
","
","","","321.0999999642372","","","16","20964","2696","&#9776;","elianto","#3366ff99"," "," ","1","+10","[1171.5999999642372]","1","0","1","","","","","","","",""
"pit-trial","25","331143","0.0-2.0-8.1-0.1","battery-v0.2","","""event"",""trial"",""time""
""fullscreenenter"",""1"",""1503""
""blur"",""7"",""24168""
""focus"",""7"",""24572""
","""event"",""trial"",""time""
""blur"",""7"",""24168""
","""event"",""trial"",""time""
""focus"",""7"",""24572""
","""event"",""trial"",""time""
""fullscreenenter"",""1"",""1503""
","
","","","414.60000002384186","","","16","20964","2696","&#9776;","elianto","#3366ff99"," "," ","1","+10","[1266.5]","1","0","1","","","","","","","",""
"pit-trial","26","334226","0.0-2.0-8.1-1.1","battery-v0.2","","""event"",""trial"",""time""
""fullscreenenter"",""1"",""1503""
""blur"",""7"",""24168""
""focus"",""7"",""24572""
","""event"",""trial"",""time""
""blur"",""7"",""24168""
","""event"",""trial"",""time""
""focus"",""7"",""24572""
","""event"",""trial"",""time""
""fullscreenenter"",""1"",""1503""
","
","","","227.60000002384186","","","16","20964","2696","&#9776;","elianto","#3366ff99"," "," ","1","+10","[1080]","1","0","1","","","","","","","",""
"pit-trial","27","337199","0.0-2.0-8.1-2.1","battery-v0.2","","""event"",""trial"",""time""
""fullscreenenter"",""1"",""1503""
""blur"",""7"",""24168""
""focus"",""7"",""24572""
","""event"",""trial"",""time""
""blur"",""7"",""24168""
","""event"",""trial"",""time""
""focus"",""7"",""24572""
","""event"",""trial"",""time""
""fullscreenenter"",""1"",""1503""
","
","","","118.19999998807907","","","16","20964","2696","&#9776;","elianto","#3366ff99"," "," ","1","+10","[969]","1","0","1","","","","","","","",""
"pit-trial","28","340439","0.0-2.0-8.1-3.1","battery-v0.2","","""event"",""trial"",""time""
""fullscreenenter"",""1"",""1503""
""blur"",""7"",""24168""
""focus"",""7"",""24572""
","""event"",""trial"",""time""
""blur"",""7"",""24168""
","""event"",""trial"",""time""
""focus"",""7"",""24572""
","""event"",""trial"",""time""
""fullscreenenter"",""1"",""1503""
","
","","","385","","","16","20964","2696","&#9776;","elianto","#3366ff99"," "," ","1","0","[1236.3999999761581]","1","0","1","","","","","","","",""
"pit-trial","29","344155","0.0-2.0-8.1-4.1","battery-v0.2","","""event"",""trial"",""time""
""fullscreenenter"",""1"",""1503""
""blur"",""7"",""24168""
""focus"",""7"",""24572""
","""event"",""trial"",""time""
""blur"",""7"",""24168""
","""event"",""trial"",""time""
""focus"",""7"",""24572""
","""event"",""trial"",""time""
""fullscreenenter"",""1"",""1503""
","
","","","863.5","","","16","20964","2696","&#9776;","elianto","#3366ff99"," "," ","1","+10","[1713.7999999523163]","1","0","1","","","","","","","",""
"pit-trial","30","347221","0.0-2.0-8.2-0.2","battery-v0.2","","""event"",""trial"",""time""
""fullscreenenter"",""1"",""1503""
""blur"",""7"",""24168""
""focus"",""7"",""24572""
","""event"",""trial"",""time""
""blur"",""7"",""24168""
","""event"",""trial"",""time""
""focus"",""7"",""24572""
","""event"",""trial"",""time""
""fullscreenenter"",""1"",""1503""
","
","","","211.70000004768372","","","16","20964","2696","&#9776;","elianto","#3366ff99"," "," ","1","+10","[1063.1000000238419]","1","0","1","","","","","","","",""
"pit-trial","31","350420","0.0-2.0-8.2-1.2","battery-v0.2","","""event"",""trial"",""time""
""fullscreenenter"",""1"",""1503""
""blur"",""7"",""24168""
""focus"",""7"",""24572""
","""event"",""trial"",""time""
""blur"",""7"",""24168""
","""event"",""trial"",""time""
""focus"",""7"",""24572""
","""event"",""trial"",""time""
""fullscreenenter"",""1"",""1503""
","
","","","344.5","","","16","20964","2696","&#9776;","elianto","#3366ff99"," "," ","1","+10","[1195]","1","0","1","","","","","","","",""
"pit-trial","32","353329","0.0-2.0-8.2-2.2","battery-v0.2","","""event"",""trial"",""time""
""fullscreenenter"",""1"",""1503""
""blur"",""7"",""24168""
""focus"",""7"",""24572""
","""event"",""trial"",""time""
""blur"",""7"",""24168""
","""event"",""trial"",""time""
""focus"",""7"",""24572""
","""event"",""trial"",""time""
""fullscreenenter"",""1"",""1503""
","
","","","54.60000002384186","","","16","20964","2696","&#9776;","elianto","#3366ff99"," "," ","1","+10","[905.1000000238419,1518.8999999761581]","2","0","1","","","","","","","",""
"pit-trial","33","356457","0.0-2.0-8.2-3.2","battery-v0.2","","""event"",""trial"",""time""
""fullscreenenter"",""1"",""1503""
""blur"",""7"",""24168""
""focus"",""7"",""24572""
","""event"",""trial"",""time""
""blur"",""7"",""24168""
","""event"",""trial"",""time""
""focus"",""7"",""24572""
","""event"",""trial"",""time""
""fullscreenenter"",""1"",""1503""
","
","","","272.5999999642372","","","16","20964","2696","&#9776;","elianto","#3366ff99"," "," ","1","0","[1123.699999988079]","1","0","1","","","","","","","",""
"pit-trial","34","359440","0.0-2.0-8.2-4.2","battery-v0.2","","""event"",""trial"",""time""
""fullscreenenter"",""1"",""1503""
""blur"",""7"",""24168""
""focus"",""7"",""24572""
","""event"",""trial"",""time""
""blur"",""7"",""24168""
","""event"",""trial"",""time""
""focus"",""7"",""24572""
","""event"",""trial"",""time""
""fullscreenenter"",""1"",""1503""
","
","","","127.5","","","16","20964","2696","&#9776;","elianto","#3366ff99"," "," ","1","+10","[979.2999999523163]","1","0","1","","","","","","","",""
"call-function","35","359443","0.0-2.0-9.0","battery-v0.2","","""event"",""trial"",""time""
""fullscreenenter"",""1"",""1503""
""blur"",""7"",""24168""
""focus"",""7"",""24572""
","""event"",""trial"",""time""
""blur"",""7"",""24168""
","""event"",""trial"",""time""
""focus"",""7"",""24572""
","""event"",""trial"",""time""
""fullscreenenter"",""1"",""1503""
","
","","","","","","","","","","","","","","","","","","","","","","","","","","",""
"pit-instructions","36","400925","0.0-2.0-10.0","battery-v0.2","","""event"",""trial"",""time""
""fullscreenenter"",""1"",""1503""
""blur"",""7"",""24168""
""focus"",""7"",""24572""
","""event"",""trial"",""time""
""blur"",""7"",""24168""
","""event"",""trial"",""time""
""focus"",""7"",""24572""
","""event"",""trial"",""time""
""fullscreenenter"",""1"",""1503""
","
","","[{""page_index"":0,""viewing_time"":6603.5},{""page_index"":1,""viewing_time"":7852.900000035763},{""page_index"":2,""viewing_time"":9016.5},{""page_index"":3,""viewing_time"":10288.099999964237},{""page_index"":4,""viewing_time"":7722.800000011921}]","41484.10000002384","","","","","","","","","","","","","","","","","","","","","","","",""
"pit-trial","37","404536","0.0-2.0-11.0-0.0","battery-v0.2","","""event"",""trial"",""time""
""fullscreenenter"",""1"",""1503""
""blur"",""7"",""24168""
""focus"",""7"",""24572""
","""event"",""trial"",""time""
""blur"",""7"",""24168""
","""event"",""trial"",""time""
""focus"",""7"",""24572""
","""event"",""trial"",""time""
""fullscreenenter"",""1"",""1503""
","
","","","755.8000000119209","","","16","20964","2696","&#9761;","elianto","#3366ff99","-1"," ","0","0","[1606.8999999761581]","1","0","2","","","","","","","",""
"pit-trial","38","409390","0.0-2.0-11.0-1.0","battery-v0.2","","""event"",""trial"",""time""
""fullscreenenter"",""1"",""1503""
""blur"",""7"",""24168""
""focus"",""7"",""24572""
","""event"",""trial"",""time""
""blur"",""7"",""24168""
","""event"",""trial"",""time""
""focus"",""7"",""24572""
","""event"",""trial"",""time""
""fullscreenenter"",""1"",""1503""
","
","","","-1","","","16","20964","2696","&#9761;","elianto","#3366ff99","-1","-1","1","+10","[]","0","0","2","","","","","","","",""
"pit-trial","39","414245","0.0-2.0-11.0-2.0","battery-v0.2","","""event"",""trial"",""time""
""fullscreenenter"",""1"",""1503""
""blur"",""7"",""24168""
""focus"",""7"",""24572""
","""event"",""trial"",""time""
""blur"",""7"",""24168""
","""event"",""trial"",""time""
""focus"",""7"",""24572""
","""event"",""trial"",""time""
""fullscreenenter"",""1"",""1503""
","
","","","-1","","","16","20964","2696","&#9761;","elianto","#3366ff99","-1","-1","1","+10","[]","0","0","2","","","","","","","",""
"pit-trial","40","417492","0.0-2.0-11.0-3.0","battery-v0.2","","""event"",""trial"",""time""
""fullscreenenter"",""1"",""1503""
""blur"",""7"",""24168""
""focus"",""7"",""24572""
","""event"",""trial"",""time""
""blur"",""7"",""24168""
","""event"",""trial"",""time""
""focus"",""7"",""24572""
","""event"",""trial"",""time""
""fullscreenenter"",""1"",""1503""
","
","","","392.30000001192093","","","16","20964","2696","&#9761;","elianto","#3366ff99","-1"," ","0","+10","[1244.199999988079]","1","0","2","","","","","","","",""
"pit-trial","41","420620","0.0-2.0-11.0-4.0","battery-v0.2","","""event"",""trial"",""time""
""fullscreenenter"",""1"",""1503""
""blur"",""7"",""24168""
""focus"",""7"",""24572""
","""event"",""trial"",""time""
""blur"",""7"",""24168""
","""event"",""trial"",""time""
""focus"",""7"",""24572""
","""event"",""trial"",""time""
""fullscreenenter"",""1"",""1503""
","
","","","273.89999997615814","","","16","20964","2696","&#9761;","elianto","#3366ff99","-1"," ","0","0","[1124.9000000357628]","1","0","2","","","","","","","",""
"pit-trial","42","423628","0.0-2.0-11.1-0.1","battery-v0.2","","""event"",""trial"",""time""
""fullscreenenter"",""1"",""1503""
""blur"",""7"",""24168""
""focus"",""7"",""24572""
","""event"",""trial"",""time""
""blur"",""7"",""24168""
","""event"",""trial"",""time""
""focus"",""7"",""24572""
","""event"",""trial"",""time""
""fullscreenenter"",""1"",""1503""
","
","","","151.9000000357628","","","16","20964","2696","&#9761;","elianto","#3366ff99","-1"," ","0","0","[1002.7999999523163]","1","0","2","","","","","","","",""
"pit-trial","43","428483","0.0-2.0-11.1-1.1","battery-v0.2","","""event"",""trial"",""time""
""fullscreenenter"",""1"",""1503""
""blur"",""7"",""24168""
""focus"",""7"",""24572""
","""event"",""trial"",""time""
""blur"",""7"",""24168""
","""event"",""trial"",""time""
""focus"",""7"",""24572""
","""event"",""trial"",""time""
""fullscreenenter"",""1"",""1503""
","
","","","-1","","","16","20964","2696","&#9761;","elianto","#3366ff99","-1","-1","1","+10","[]","0","0","2","","","","","","","",""
"pit-trial","44","431507","0.0-2.0-11.1-2.1","battery-v0.2","","""event"",""trial"",""time""
""fullscreenenter"",""1"",""1503""
""blur"",""7"",""24168""
""focus"",""7"",""24572""
","""event"",""trial"",""time""
""blur"",""7"",""24168""
","""event"",""trial"",""time""
""focus"",""7"",""24572""
","""event"",""trial"",""time""
""fullscreenenter"",""1"",""1503""
","
","","","169.70000004768372","","","16","20964","2696","&#9761;","elianto","#3366ff99","-1"," ","0","0","[1021.4000000357628]","1","0","2","","","","","","","",""
"pit-trial","45","434534","0.0-2.0-11.1-3.1","battery-v0.2","","""event"",""trial"",""time""
""fullscreenenter"",""1"",""1503""
""blur"",""7"",""24168""
""focus"",""7"",""24572""
","""event"",""trial"",""time""
""blur"",""7"",""24168""
","""event"",""trial"",""time""
""focus"",""7"",""24572""
","""event"",""trial"",""time""
""fullscreenenter"",""1"",""1503""
","
","","","172.30000001192093","","","16","20964","2696","&#9761;","elianto","#3366ff99","-1"," ","0","+10","[1023.6000000238419]","1","0","2","","","","","","","",""
"pit-trial","46","437583","0.0-2.0-11.1-4.1","battery-v0.2","","""event"",""trial"",""time""
""fullscreenenter"",""1"",""1503""
""blur"",""7"",""24168""
""focus"",""7"",""24572""
","""event"",""trial"",""time""
""blur"",""7"",""24168""
","""event"",""trial"",""time""
""focus"",""7"",""24572""
","""event"",""trial"",""time""
""fullscreenenter"",""1"",""1503""
","
","","","195.69999998807907","","","16","20964","2696","&#9761;","elianto","#3366ff99","-1"," ","0","0","[1045.699999988079]","1","0","2","","","","","","","",""
"pit-trial","47","440695","0.0-2.0-11.2-0.2","battery-v0.2","","""event"",""trial"",""time""
""fullscreenenter"",""1"",""1503""
""blur"",""7"",""24168""
""focus"",""7"",""24572""
","""event"",""trial"",""time""
""blur"",""7"",""24168""
","""event"",""trial"",""time""
""focus"",""7"",""24572""
","""event"",""trial"",""time""
""fullscreenenter"",""1"",""1503""
","
","","","256.39999997615814","","","16","20964","2696","&#9761;","elianto","#3366ff99","-1"," ","0","0","[1107.300000011921]","1","0","2","","","","","","","",""
"pit-trial","48","443727","0.0-2.0-11.2-1.2","battery-v0.2","","""event"",""trial"",""time""
""fullscreenenter"",""1"",""1503""
""blur"",""7"",""24168""
""focus"",""7"",""24572""
","""event"",""trial"",""time""
""blur"",""7"",""24168""
","""event"",""trial"",""time""
""focus"",""7"",""24572""
","""event"",""trial"",""time""
""fullscreenenter"",""1"",""1503""
","
","","","177.19999998807907","","","16","20964","2696","&#9761;","elianto","#3366ff99","-1"," ","0","0","[1028.7999999523163]","1","0","2","","","","","","","",""
"pit-trial","49","446793","0.0-2.0-11.2-2.2","battery-v0.2","","""event"",""trial"",""time""
""fullscreenenter"",""1"",""1503""
""blur"",""7"",""24168""
""focus"",""7"",""24572""
","""event"",""trial"",""time""
""blur"",""7"",""24168""
","""event"",""trial"",""time""
""focus"",""7"",""24572""
","""event"",""trial"",""time""
""fullscreenenter"",""1"",""1503""
","
","","","212.5","","","16","20964","2696","&#9761;","elianto","#3366ff99","-1"," ","0","0","[1063]","1","0","2","","","","","","","",""
"pit-trial","50","449953","0.0-2.0-11.2-3.2","battery-v0.2","","""event"",""trial"",""time""
""fullscreenenter"",""1"",""1503""
""blur"",""7"",""24168""
""focus"",""7"",""24572""
","""event"",""trial"",""time""
""blur"",""7"",""24168""
","""event"",""trial"",""time""
""focus"",""7"",""24572""
","""event"",""trial"",""time""
""fullscreenenter"",""1"",""1503""
","
","","","306.5","","","16","20964","2696","&#9761;","elianto","#3366ff99","-1"," ","0","+10","[1157.800000011921]","1","0","2","","","","","","","",""
"pit-trial","51","453079","0.0-2.0-11.2-4.2","battery-v0.2","","""event"",""trial"",""time""
""fullscreenenter"",""1"",""1503""
""blur"",""7"",""24168""
""focus"",""7"",""24572""
","""event"",""trial"",""time""
""blur"",""7"",""24168""
","""event"",""trial"",""time""
""focus"",""7"",""24572""
","""event"",""trial"",""time""
""fullscreenenter"",""1"",""1503""
","
","","","269.39999997615814","","","16","20964","2696","&#9761;","elianto","#3366ff99","-1"," ","0","0","[1120.699999988079]","1","0","2","","","","","","","",""
"pit-trial","52","457933","0.0-2.0-11.3-0.3","battery-v0.2","","""event"",""trial"",""time""
""fullscreenenter"",""1"",""1503""
""blur"",""7"",""24168""
""focus"",""7"",""24572""
","""event"",""trial"",""time""
""blur"",""7"",""24168""
","""event"",""trial"",""time""
""focus"",""7"",""24572""
","""event"",""trial"",""time""
""fullscreenenter"",""1"",""1503""
","
","","","-1","","","16","20964","2696","&#9761;","elianto","#3366ff99","-1","-1","1","+10","[]","0","0","2","","","","","","","",""
"pit-trial","53","462789","0.0-2.0-11.3-1.3","battery-v0.2","","""event"",""trial"",""time""
""fullscreenenter"",""1"",""1503""
""blur"",""7"",""24168""
""focus"",""7"",""24572""
","""event"",""trial"",""time""
""blur"",""7"",""24168""
","""event"",""trial"",""time""
""focus"",""7"",""24572""
","""event"",""trial"",""time""
""fullscreenenter"",""1"",""1503""
","
","","","-1","","","16","20964","2696","&#9761;","elianto","#3366ff99","-1","-1","1","+10","[]","0","0","2","","","","","","","",""
"pit-trial","54","467645","0.0-2.0-11.3-2.3","battery-v0.2","","""event"",""trial"",""time""
""fullscreenenter"",""1"",""1503""
""blur"",""7"",""24168""
""focus"",""7"",""24572""
","""event"",""trial"",""time""
""blur"",""7"",""24168""
","""event"",""trial"",""time""
""focus"",""7"",""24572""
","""event"",""trial"",""time""
""fullscreenenter"",""1"",""1503""
","
","","","-1","","","16","20964","2696","&#9761;","elianto","#3366ff99","-1","-1","1","+10","[]","0","0","2","","","","","","","",""
"pit-trial","55","472500","0.0-2.0-11.3-3.3","battery-v0.2","","""event"",""trial"",""time""
""fullscreenenter"",""1"",""1503""
""blur"",""7"",""24168""
""focus"",""7"",""24572""
","""event"",""trial"",""time""
""blur"",""7"",""24168""
","""event"",""trial"",""time""
""focus"",""7"",""24572""
","""event"",""trial"",""time""
""fullscreenenter"",""1"",""1503""
","
","","","-1","","","16","20964","2696","&#9761;","elianto","#3366ff99","-1","-1","1","0","[]","0","0","2","","","","","","","",""
"pit-trial","56","477357","0.0-2.0-11.3-4.3","battery-v0.2","","""event"",""trial"",""time""
""fullscreenenter"",""1"",""1503""
""blur"",""7"",""24168""
""focus"",""7"",""24572""
","""event"",""trial"",""time""
""blur"",""7"",""24168""
","""event"",""trial"",""time""
""focus"",""7"",""24572""
","""event"",""trial"",""time""
""fullscreenenter"",""1"",""1503""
","
","","","-1","","","16","20964","2696","&#9761;","elianto","#3366ff99","-1","-1","1","+10","[]","0","0","2","","","","","","","",""
"call-function","57","477359","0.0-2.0-12.0","battery-v0.2","","""event"",""trial"",""time""
""fullscreenenter"",""1"",""1503""
""blur"",""7"",""24168""
""focus"",""7"",""24572""
","""event"",""trial"",""time""
""blur"",""7"",""24168""
","""event"",""trial"",""time""
""focus"",""7"",""24572""
","""event"",""trial"",""time""
""fullscreenenter"",""1"",""1503""
","
","","","","","","","","","","","","","","","","","","","","","","","","","","",""
"pit-instructions","58","510960","0.0-2.0-13.0","battery-v0.2","","""event"",""trial"",""time""
""fullscreenenter"",""1"",""1503""
""blur"",""7"",""24168""
""focus"",""7"",""24572""
","""event"",""trial"",""time""
""blur"",""7"",""24168""
","""event"",""trial"",""time""
""focus"",""7"",""24572""
","""event"",""trial"",""time""
""fullscreenenter"",""1"",""1503""
","
","","[{""page_index"":0,""viewing_time"":6581.300000011921},{""page_index"":1,""viewing_time"":7739.5},{""page_index"":2,""viewing_time"":4323.699999988079},{""page_index"":3,""viewing_time"":10369.5},{""page_index"":4,""viewing_time"":4587.599999964237}]","33602.09999996424","","","","","","","","","","","","","","","","","","","","","","","",""
"pit-trial","59","514339","0.0-2.0-14.0-0.0","battery-v0.2","","""event"",""trial"",""time""
""fullscreenenter"",""1"",""1503""
""blur"",""7"",""24168""
""focus"",""7"",""24572""
","""event"",""trial"",""time""
""blur"",""7"",""24168""
","""event"",""trial"",""time""
""focus"",""7"",""24572""
","""event"",""trial"",""time""
""fullscreenenter"",""1"",""1503""
","
","","","524","","","16","20964","2696","&#9826;","elianto","#f73b6a7A","-1"," ","0","-10","[1375.800000011921]","1","0","3","","","","","","","",""
"pit-trial","60","519194","0.0-2.0-14.0-1.0","battery-v0.2","","""event"",""trial"",""time""
""fullscreenenter"",""1"",""1503""
""blur"",""7"",""24168""
""focus"",""7"",""24572""
","""event"",""trial"",""time""
""blur"",""7"",""24168""
","""event"",""trial"",""time""
""focus"",""7"",""24572""
","""event"",""trial"",""time""
""fullscreenenter"",""1"",""1503""
","
","","","-1","","","16","20964","2696","&#9826;","elianto","#f73b6a7A","-1","-1","1","0","[]","0","0","3","","","","","","","",""
"pit-trial","61","524050","0.0-2.0-14.0-2.0","battery-v0.2","","""event"",""trial"",""time""
""fullscreenenter"",""1"",""1503""
""blur"",""7"",""24168""
""focus"",""7"",""24572""
","""event"",""trial"",""time""
""blur"",""7"",""24168""
","""event"",""trial"",""time""
""focus"",""7"",""24572""
","""event"",""trial"",""time""
""fullscreenenter"",""1"",""1503""
","
","","","-1","","","16","20964","2696","&#9826;","elianto","#f73b6a7A","-1","-1","1","0","[]","0","0","3","","","","","","","",""
"pit-trial","62","528905","0.0-2.0-14.0-3.0","battery-v0.2","","""event"",""trial"",""time""
""fullscreenenter"",""1"",""1503""
""blur"",""7"",""24168""
""focus"",""7"",""24572""
","""event"",""trial"",""time""
""blur"",""7"",""24168""
","""event"",""trial"",""time""
""focus"",""7"",""24572""
","""event"",""trial"",""time""
""fullscreenenter"",""1"",""1503""
","
","","","-1","","","16","20964","2696","&#9826;","elianto","#f73b6a7A","-1","-1","1","-10","[]","0","0","3","","","","","","","",""
"pit-trial","63","533760","0.0-2.0-14.0-4.0","battery-v0.2","","""event"",""trial"",""time""
""fullscreenenter"",""1"",""1503""
""blur"",""7"",""24168""
""focus"",""7"",""24572""
","""event"",""trial"",""time""
""blur"",""7"",""24168""
","""event"",""trial"",""time""
""focus"",""7"",""24572""
","""event"",""trial"",""time""
""fullscreenenter"",""1"",""1503""
","
","","","-1","","","16","20964","2696","&#9826;","elianto","#f73b6a7A","-1","-1","1","0","[]","0","0","3","","","","","","","",""
"pit-trial","64","538615","0.0-2.0-14.1-0.1","battery-v0.2","","""event"",""trial"",""time""
""fullscreenenter"",""1"",""1503""
""blur"",""7"",""24168""
""focus"",""7"",""24572""
","""event"",""trial"",""time""
""blur"",""7"",""24168""
","""event"",""trial"",""time""
""focus"",""7"",""24572""
","""event"",""trial"",""time""
""fullscreenenter"",""1"",""1503""
","
","","","-1","","","16","20964","2696","&#9826;","elianto","#f73b6a7A","-1","-1","1","0","[]","0","0","3","","","","","","","",""
"pit-trial","65","543470","0.0-2.0-14.1-1.1","battery-v0.2","","""event"",""trial"",""time""
""fullscreenenter"",""1"",""1503""
""blur"",""7"",""24168""
""focus"",""7"",""24572""
","""event"",""trial"",""time""
""blur"",""7"",""24168""
","""event"",""trial"",""time""
""focus"",""7"",""24572""
","""event"",""trial"",""time""
""fullscreenenter"",""1"",""1503""
","
","","","-1","","","16","20964","2696","&#9826;","elianto","#f73b6a7A","-1","-1","1","0","[]","0","0","3","","","","","","","",""
"pit-trial","66","548326","0.0-2.0-14.1-2.1","battery-v0.2","","""event"",""trial"",""time""
""fullscreenenter"",""1"",""1503""
""blur"",""7"",""24168""
""focus"",""7"",""24572""
","""event"",""trial"",""time""
""blur"",""7"",""24168""
","""event"",""trial"",""time""
""focus"",""7"",""24572""
","""event"",""trial"",""time""
""fullscreenenter"",""1"",""1503""
","
","","","-1","","","16","20964","2696","&#9826;","elianto","#f73b6a7A","-1","-1","1","0","[]","0","0","3","","","","","","","",""
"pit-trial","67","553181","0.0-2.0-14.1-3.1","battery-v0.2","","""event"",""trial"",""time""
""fullscreenenter"",""1"",""1503""
""blur"",""7"",""24168""
""focus"",""7"",""24572""
","""event"",""trial"",""time""
""blur"",""7"",""24168""
","""event"",""trial"",""time""
""focus"",""7"",""24572""
","""event"",""trial"",""time""
""fullscreenenter"",""1"",""1503""
","
","","","-1","","","16","20964","2696","&#9826;","elianto","#f73b6a7A","-1","-1","1","-10","[]","0","0","3","","","","","","","",""
"pit-trial","68","558036","0.0-2.0-14.1-4.1","battery-v0.2","","""event"",""trial"",""time""
""fullscreenenter"",""1"",""1503""
""blur"",""7"",""24168""
""focus"",""7"",""24572""
","""event"",""trial"",""time""
""blur"",""7"",""24168""
","""event"",""trial"",""time""
""focus"",""7"",""24572""
","""event"",""trial"",""time""
""fullscreenenter"",""1"",""1503""
","
","","","-1","","","16","20964","2696","&#9826;","elianto","#f73b6a7A","-1","-1","1","0","[]","0","0","3","","","","","","","",""
"pit-trial","69","562892","0.0-2.0-14.2-0.2","battery-v0.2","","""event"",""trial"",""time""
""fullscreenenter"",""1"",""1503""
""blur"",""7"",""24168""
""focus"",""7"",""24572""
","""event"",""trial"",""time""
""blur"",""7"",""24168""
","""event"",""trial"",""time""
""focus"",""7"",""24572""
","""event"",""trial"",""time""
""fullscreenenter"",""1"",""1503""
","
","","","-1","","","16","20964","2696","&#9826;","elianto","#f73b6a7A","-1","-1","1","0","[]","0","0","3","","","","","","","",""
"pit-trial","70","567748","0.0-2.0-14.2-1.2","battery-v0.2","","""event"",""trial"",""time""
""fullscreenenter"",""1"",""1503""
""blur"",""7"",""24168""
""focus"",""7"",""24572""
","""event"",""trial"",""time""
""blur"",""7"",""24168""
","""event"",""trial"",""time""
""focus"",""7"",""24572""
","""event"",""trial"",""time""
""fullscreenenter"",""1"",""1503""
","
","","","-1","","","16","20964","2696","&#9826;","elianto","#f73b6a7A","-1","-1","1","0","[]","0","0","3","","","","","","","",""
"pit-trial","71","572604","0.0-2.0-14.2-2.2","battery-v0.2","","""event"",""trial"",""time""
""fullscreenenter"",""1"",""1503""
""blur"",""7"",""24168""
""focus"",""7"",""24572""
","""event"",""trial"",""time""
""blur"",""7"",""24168""
","""event"",""trial"",""time""
""focus"",""7"",""24572""
","""event"",""trial"",""time""
""fullscreenenter"",""1"",""1503""
","
","","","-1","","","16","20964","2696","&#9826;","elianto","#f73b6a7A","-1","-1","1","0","[]","0","0","3","","","","","","","",""
"pit-trial","72","577460","0.0-2.0-14.2-3.2","battery-v0.2","","""event"",""trial"",""time""
""fullscreenenter"",""1"",""1503""
""blur"",""7"",""24168""
""focus"",""7"",""24572""
","""event"",""trial"",""time""
""blur"",""7"",""24168""
","""event"",""trial"",""time""
""focus"",""7"",""24572""
","""event"",""trial"",""time""
""fullscreenenter"",""1"",""1503""
","
","","","-1","","","16","20964","2696","&#9826;","elianto","#f73b6a7A","-1","-1","1","-10","[]","0","0","3","","","","","","","",""
"pit-trial","73","582315","0.0-2.0-14.2-4.2","battery-v0.2","","""event"",""trial"",""time""
""fullscreenenter"",""1"",""1503""
""blur"",""7"",""24168""
""focus"",""7"",""24572""
","""event"",""trial"",""time""
""blur"",""7"",""24168""
","""event"",""trial"",""time""
""focus"",""7"",""24572""
","""event"",""trial"",""time""
""fullscreenenter"",""1"",""1503""
","
","","","-1","","","16","20964","2696","&#9826;","elianto","#f73b6a7A","-1","-1","1","0","[]","0","0","3","","","","","","","",""
"pit-trial","74","587171","0.0-2.0-14.3-0.3","battery-v0.2","","""event"",""trial"",""time""
""fullscreenenter"",""1"",""1503""
""blur"",""7"",""24168""
""focus"",""7"",""24572""
","""event"",""trial"",""time""
""blur"",""7"",""24168""
","""event"",""trial"",""time""
""focus"",""7"",""24572""
","""event"",""trial"",""time""
""fullscreenenter"",""1"",""1503""
","
","","","-1","","","16","20964","2696","&#9826;","elianto","#f73b6a7A","-1","-1","1","0","[]","0","0","3","","","","","","","",""
"pit-trial","75","592027","0.0-2.0-14.3-1.3","battery-v0.2","","""event"",""trial"",""time""
""fullscreenenter"",""1"",""1503""
""blur"",""7"",""24168""
""focus"",""7"",""24572""
","""event"",""trial"",""time""
""blur"",""7"",""24168""
","""event"",""trial"",""time""
""focus"",""7"",""24572""
","""event"",""trial"",""time""
""fullscreenenter"",""1"",""1503""
","
","","","-1","","","16","20964","2696","&#9826;","elianto","#f73b6a7A","-1","-1","1","0","[]","0","0","3","","","","","","","",""
"pit-trial","76","596884","0.0-2.0-14.3-2.3","battery-v0.2","","""event"",""trial"",""time""
""fullscreenenter"",""1"",""1503""
""blur"",""7"",""24168""
""focus"",""7"",""24572""
","""event"",""trial"",""time""
""blur"",""7"",""24168""
","""event"",""trial"",""time""
""focus"",""7"",""24572""
","""event"",""trial"",""time""
""fullscreenenter"",""1"",""1503""
","
","","","-1","","","16","20964","2696","&#9826;","elianto","#f73b6a7A","-1","-1","1","0","[]","0","0","3","","","","","","","",""
"pit-trial","77","601739","0.0-2.0-14.3-3.3","battery-v0.2","","""event"",""trial"",""time""
""fullscreenenter"",""1"",""1503""
""blur"",""7"",""24168""
""focus"",""7"",""24572""
","""event"",""trial"",""time""
""blur"",""7"",""24168""
","""event"",""trial"",""time""
""focus"",""7"",""24572""
","""event"",""trial"",""time""
""fullscreenenter"",""1"",""1503""
","
","","","-1","","","16","20964","2696","&#9826;","elianto","#f73b6a7A","-1","-1","1","-10","[]","0","0","3","","","","","","","",""
"pit-trial","78","606594","0.0-2.0-14.3-4.3","battery-v0.2","","""event"",""trial"",""time""
""fullscreenenter"",""1"",""1503""
""blur"",""7"",""24168""
""focus"",""7"",""24572""
","""event"",""trial"",""time""
""blur"",""7"",""24168""
","""event"",""trial"",""time""
""focus"",""7"",""24572""
","""event"",""trial"",""time""
""fullscreenenter"",""1"",""1503""
","
","","","-1","","","16","20964","2696","&#9826;","elianto","#f73b6a7A","-1","-1","1","0","[]","0","0","3","","","","","","","",""
"call-function","79","606597","0.0-2.0-15.0","battery-v0.2","","""event"",""trial"",""time""
""fullscreenenter"",""1"",""1503""
""blur"",""7"",""24168""
""focus"",""7"",""24572""
","""event"",""trial"",""time""
""blur"",""7"",""24168""
","""event"",""trial"",""time""
""focus"",""7"",""24572""
","""event"",""trial"",""time""
""fullscreenenter"",""1"",""1503""
","
","","","","","","","","","","","","","","","","","","","","","","","","","","",""
"pit-instructions","80","637319","0.0-2.0-16.0","battery-v0.2","","""event"",""trial"",""time""
""fullscreenenter"",""1"",""1503""
""blur"",""7"",""24168""
""focus"",""7"",""24572""
","""event"",""trial"",""time""
""blur"",""7"",""24168""
","""event"",""trial"",""time""
""focus"",""7"",""24572""
","""event"",""trial"",""time""
""fullscreenenter"",""1"",""1503""
","
","","[{""page_index"":0,""viewing_time"":7724.099999964237},{""page_index"":1,""viewing_time"":9731.5},{""page_index"":2,""viewing_time"":7286.400000035763},{""page_index"":3,""viewing_time"":5980.399999976158}]","30723","","","","","","","","","","","","","","","","","","","","","","","",""
"pit-trial","81","640741","0.0-2.0-17.0-0.0","battery-v0.2","","""event"",""trial"",""time""
""fullscreenenter"",""1"",""1503""
""blur"",""7"",""24168""
""focus"",""7"",""24572""
","""event"",""trial"",""time""
""blur"",""7"",""24168""
","""event"",""trial"",""time""
""focus"",""7"",""24572""
","""event"",""trial"",""time""
""fullscreenenter"",""1"",""1503""
","
","","","568.1000000238419","","","16","20964","2696","&#9789;","elianto","#f73b6a7A"," "," ","1","0","[1418.300000011921]","1","0","4","","","","","","","",""
"pit-trial","82","643972","0.0-2.0-17.0-1.0","battery-v0.2","","""event"",""trial"",""time""
""fullscreenenter"",""1"",""1503""
""blur"",""7"",""24168""
""focus"",""7"",""24572""
","""event"",""trial"",""time""
""blur"",""7"",""24168""
","""event"",""trial"",""time""
""focus"",""7"",""24572""
","""event"",""trial"",""time""
""fullscreenenter"",""1"",""1503""
","
","","","376.5","","","16","20964","2696","&#9789;","elianto","#f73b6a7A"," "," ","1","0","[1227.3999999761581]","1","0","4","","","","","","","",""
"pit-trial","83","647016","0.0-2.0-17.0-2.0","battery-v0.2","","""event"",""trial"",""time""
""fullscreenenter"",""1"",""1503""
""blur"",""7"",""24168""
""focus"",""7"",""24572""
","""event"",""trial"",""time""
""blur"",""7"",""24168""
","""event"",""trial"",""time""
""focus"",""7"",""24572""
","""event"",""trial"",""time""
""fullscreenenter"",""1"",""1503""
","
","","","188.80000001192093","","","16","20964","2696","&#9789;","elianto","#f73b6a7A"," "," ","1","0","[1040.0999999642372]","1","0","4","","","","","","","",""
"pit-trial","84","650112","0.0-2.0-17.0-3.0","battery-v0.2","","""event"",""trial"",""time""
""fullscreenenter"",""1"",""1503""
""blur"",""7"",""24168""
""focus"",""7"",""24572""
","""event"",""trial"",""time""
""blur"",""7"",""24168""
","""event"",""trial"",""time""
""focus"",""7"",""24572""
","""event"",""trial"",""time""
""fullscreenenter"",""1"",""1503""
","
","","","242.30000001192093","","","16","20964","2696","&#9789;","elianto","#f73b6a7A"," "," ","1","-10","[1093.1000000238419]","1","0","4","","","","","","","",""
"pit-trial","85","653243","0.0-2.0-17.0-4.0","battery-v0.2","","""event"",""trial"",""time""
""fullscreenenter"",""1"",""1503""
""blur"",""7"",""24168""
""focus"",""7"",""24572""
","""event"",""trial"",""time""
""blur"",""7"",""24168""
","""event"",""trial"",""time""
""focus"",""7"",""24572""
","""event"",""trial"",""time""
""fullscreenenter"",""1"",""1503""
","
","","","276.5","","","16","20964","2696","&#9789;","elianto","#f73b6a7A"," "," ","1","0","[1126.5999999642372]","1","0","4","","","","","","","",""
"pit-trial","86","656530","0.0-2.0-17.1-0.1","battery-v0.2","","""event"",""trial"",""time""
""fullscreenenter"",""1"",""1503""
""blur"",""7"",""24168""
""focus"",""7"",""24572""
","""event"",""trial"",""time""
""blur"",""7"",""24168""
","""event"",""trial"",""time""
""focus"",""7"",""24572""
","""event"",""trial"",""time""
""fullscreenenter"",""1"",""1503""
","
","","","430.0999999642372","","","16","20964","2696","&#9789;","elianto","#f73b6a7A"," "," ","1","0","[1282.6000000238419]","1","0","4","","","","","","","",""
"pit-trial","87","659499","0.0-2.0-17.1-1.1","battery-v0.2","","""event"",""trial"",""time""
""fullscreenenter"",""1"",""1503""
""blur"",""7"",""24168""
""focus"",""7"",""24572""
","""event"",""trial"",""time""
""blur"",""7"",""24168""
","""event"",""trial"",""time""
""focus"",""7"",""24572""
","""event"",""trial"",""time""
""fullscreenenter"",""1"",""1503""
","
","","","115.30000001192093","","","16","20964","2696","&#9789;","elianto","#f73b6a7A"," "," ","1","0","[966.1999999880791]","1","0","4","","","","","","","",""
"pit-trial","88","662741","0.0-2.0-17.1-2.1","battery-v0.2","","""event"",""trial"",""time""
""fullscreenenter"",""1"",""1503""
""blur"",""7"",""24168""
""focus"",""7"",""24572""
","""event"",""trial"",""time""
""blur"",""7"",""24168""
","""event"",""trial"",""time""
""focus"",""7"",""24572""
","""event"",""trial"",""time""
""fullscreenenter"",""1"",""1503""
","
","","","388","","","16","20964","2696","&#9789;","elianto","#f73b6a7A"," "," ","1","0","[151.89999997615814,1239]","2","0","4","","","","","","","",""
"pit-trial","89","666315","0.0-2.0-17.1-3.1","battery-v0.2","","""event"",""trial"",""time""
""fullscreenenter"",""1"",""1503""
""blur"",""7"",""24168""
""focus"",""7"",""24572""
","""event"",""trial"",""time""
""blur"",""7"",""24168""
","""event"",""trial"",""time""
""focus"",""7"",""24572""
","""event"",""trial"",""time""
""fullscreenenter"",""1"",""1503""
","
","","","719.3000000119209","","","16","20964","2696","&#9789;","elianto","#f73b6a7A"," "," ","1","-10","[1570.5]","1","0","4","","","","","","","",""
"pit-trial","90","669945","0.0-2.0-17.1-4.1","battery-v0.2","","""event"",""trial"",""time""
""fullscreenenter"",""1"",""1503""
""blur"",""7"",""24168""
""focus"",""7"",""24572""
","""event"",""trial"",""time""
""blur"",""7"",""24168""
","""event"",""trial"",""time""
""focus"",""7"",""24572""
","""event"",""trial"",""time""
""fullscreenenter"",""1"",""1503""
","
","","","774.3999999761581","","","16","20964","2696","&#9789;","elianto","#f73b6a7A"," "," ","1","0","[1625.6000000238419]","1","0","4","","","","","","","",""
"pit-trial","91","672894","0.0-2.0-17.2-0.2","battery-v0.2","","""event"",""trial"",""time""
""fullscreenenter"",""1"",""1503""
""blur"",""7"",""24168""
""focus"",""7"",""24572""
","""event"",""trial"",""time""
""blur"",""7"",""24168""
","""event"",""trial"",""time""
""focus"",""7"",""24572""
","""event"",""trial"",""time""
""fullscreenenter"",""1"",""1503""
","
","","","93.89999997615814","","","16","20964","2696","&#9789;","elianto","#f73b6a7A"," "," ","1","0","[944.8999999761581,1972.1000000238419]","2","0","4","","","","","","","",""
"pit-trial","92","676879","0.0-2.0-17.2-1.2","battery-v0.2","","""event"",""trial"",""time""
""fullscreenenter"",""1"",""1503""
""blur"",""7"",""24168""
""focus"",""7"",""24572""
","""event"",""trial"",""time""
""blur"",""7"",""24168""
","""event"",""trial"",""time""
""focus"",""7"",""24572""
","""event"",""trial"",""time""
""fullscreenenter"",""1"",""1503""
","
","","","1130.5","","","16","20964","2696","&#9789;","elianto","#f73b6a7A"," "," ","1","0","[1981.9000000357628]","1","0","4","","","","","","","",""
"pit-trial","93","679958","0.0-2.0-17.2-2.2","battery-v0.2","","""event"",""trial"",""time""
""fullscreenenter"",""1"",""1503""
""blur"",""7"",""24168""
""focus"",""7"",""24572""
","""event"",""trial"",""time""
""blur"",""7"",""24168""
","""event"",""trial"",""time""
""focus"",""7"",""24572""
","""event"",""trial"",""time""
""fullscreenenter"",""1"",""1503""
","
","","","225.5","","","16","20964","2696","&#9789;","elianto","#f73b6a7A"," "," ","1","0","[1075.800000011921]","1","0","4","","","","","","","",""
"pit-trial","94","683286","0.0-2.0-17.2-3.2","battery-v0.2","","""event"",""trial"",""time""
""fullscreenenter"",""1"",""1503""
""blur"",""7"",""24168""
""focus"",""7"",""24572""
","""event"",""trial"",""time""
""blur"",""7"",""24168""
","""event"",""trial"",""time""
""focus"",""7"",""24572""
","""event"",""trial"",""time""
""fullscreenenter"",""1"",""1503""
","
","","","471.69999998807907","","","16","20964","2696","&#9789;","elianto","#f73b6a7A"," "," ","1","-10","[1324.0999999642372]","1","0","4","","","","","","","",""
"pit-trial","95","686866","0.0-2.0-17.2-4.2","battery-v0.2","","""event"",""trial"",""time""
""fullscreenenter"",""1"",""1503""
""blur"",""7"",""24168""
""focus"",""7"",""24572""
","""event"",""trial"",""time""
""blur"",""7"",""24168""
","""event"",""trial"",""time""
""focus"",""7"",""24572""
","""event"",""trial"",""time""
""fullscreenenter"",""1"",""1503""
","
","","","725.6999999880791","","","16","20964","2696","&#9789;","elianto","#f73b6a7A"," "," ","1","0","[1576.5999999642372]","1","0","4","","","","","","","",""
"pit-trial","96","689896","0.0-2.0-17.3-0.3","battery-v0.2","","""event"",""trial"",""time""
""fullscreenenter"",""1"",""1503""
""blur"",""7"",""24168""
""focus"",""7"",""24572""
","""event"",""trial"",""time""
""blur"",""7"",""24168""
","""event"",""trial"",""time""
""focus"",""7"",""24572""
","""event"",""trial"",""time""
""fullscreenenter"",""1"",""1503""
","
","","","173.19999998807907","","","16","20964","2696","&#9789;","elianto","#f73b6a7A"," "," ","1","0","[618.3000000119209,1024.800000011921]","2","0","4","","","","","","","",""
"pit-trial","97","692936","0.0-2.0-17.3-1.3","battery-v0.2","","""event"",""trial"",""time""
""fullscreenenter"",""1"",""1503""
""blur"",""7"",""24168""
""focus"",""7"",""24572""
","""event"",""trial"",""time""
""blur"",""7"",""24168""
","""event"",""trial"",""time""
""focus"",""7"",""24572""
","""event"",""trial"",""time""
""fullscreenenter"",""1"",""1503""
","
","","","185","","","16","20964","2696","&#9789;","elianto","#f73b6a7A"," "," ","1","0","[1036.5999999642372]","1","0","4","","","","","","","",""
"pit-trial","98","697791","0.0-2.0-17.3-2.3","battery-v0.2","","""event"",""trial"",""time""
""fullscreenenter"",""1"",""1503""
""blur"",""7"",""24168""
""focus"",""7"",""24572""
","""event"",""trial"",""time""
""blur"",""7"",""24168""
","""event"",""trial"",""time""
""focus"",""7"",""24572""
","""event"",""trial"",""time""
""fullscreenenter"",""1"",""1503""
","
","","","-1","","","16","20964","2696","&#9789;","elianto","#f73b6a7A"," ","-1","0","-10","[3186.800000011921]","1","0","4","","","","","","","",""
"pit-trial","99","700974","0.0-2.0-17.3-3.3","battery-v0.2","","""event"",""trial"",""time""
""fullscreenenter"",""1"",""1503""
""blur"",""7"",""24168""
""focus"",""7"",""24572""
","""event"",""trial"",""time""
""blur"",""7"",""24168""
","""event"",""trial"",""time""
""focus"",""7"",""24572""
","""event"",""trial"",""time""
""fullscreenenter"",""1"",""1503""
","
","","","327.69999998807907","","","16","20964","2696","&#9789;","elianto","#f73b6a7A"," "," ","1","-10","[1178.300000011921]","1","0","4","","","","","","","",""
"pit-trial","100","704116","0.0-2.0-17.3-4.3","battery-v0.2","","""event"",""trial"",""time""
""fullscreenenter"",""1"",""1503""
""blur"",""7"",""24168""
""focus"",""7"",""24572""
","""event"",""trial"",""time""
""blur"",""7"",""24168""
","""event"",""trial"",""time""
""focus"",""7"",""24572""
","""event"",""trial"",""time""
""fullscreenenter"",""1"",""1503""
","
","","","287.89999997615814","","","16","20964","2696","&#9789;","elianto","#f73b6a7A"," "," ","1","0","[711.3000000119209,1139.199999988079]","2","0","4","","","","","","","",""
"call-function","101","704119","0.0-2.0-18.0","battery-v0.2","","""event"",""trial"",""time""
""fullscreenenter"",""1"",""1503""
""blur"",""7"",""24168""
""focus"",""7"",""24572""
","""event"",""trial"",""time""
""blur"",""7"",""24168""
","""event"",""trial"",""time""
""focus"",""7"",""24572""
","""event"",""trial"",""time""
""fullscreenenter"",""1"",""1503""
","
","","","","","","","","","","","","","","","","","","","","","","","","","","",""
"pit-instructions","102","773268","0.0-2.0-19.0","battery-v0.2","","""event"",""trial"",""time""
""fullscreenenter"",""1"",""1503""
""blur"",""7"",""24168""
""focus"",""7"",""24572""
","""event"",""trial"",""time""
""blur"",""7"",""24168""
","""event"",""trial"",""time""
""focus"",""7"",""24572""
","""event"",""trial"",""time""
""fullscreenenter"",""1"",""1503""
","
","","[{""page_index"":0,""viewing_time"":6617.400000035763},{""page_index"":1,""viewing_time"":5920.699999988079},{""page_index"":2,""viewing_time"":12644},{""page_index"":3,""viewing_time"":5672.399999976158},{""page_index"":4,""viewing_time"":9481.5},{""page_index"":5,""viewing_time"":8942.700000047684},{""page_index"":6,""viewing_time"":12181.899999976158},{""page_index"":7,""viewing_time"":4445.699999988079},{""page_index"":8,""viewing_time"":3245.699999988079}]","69152.5","","","","","","","","","","","","","","","","","","","","","","","",""
"pit-comprehension","103","777550","0.0-2.0-20.0-0.0","battery-v0.2","","""event"",""trial"",""time""
""fullscreenenter"",""1"",""1503""
""blur"",""7"",""24168""
""focus"",""7"",""24572""
","""event"",""trial"",""time""
""blur"",""7"",""24168""
","""event"",""trial"",""time""
""focus"",""7"",""24572""
","""event"",""trial"",""time""
""fullscreenenter"",""1"",""1503""
","
","","","4277.899999976158","[""SPACE""]","0","16","20964","2696","","","","","","","","","","","","","","","","","","",""
"pit-instructions","104","780677","0.0-2.0-20.0-1.0","battery-v0.2","","""event"",""trial"",""time""
""fullscreenenter"",""1"",""1503""
""blur"",""7"",""24168""
""focus"",""7"",""24572""
","""event"",""trial"",""time""
""blur"",""7"",""24168""
","""event"",""trial"",""time""
""focus"",""7"",""24572""
","""event"",""trial"",""time""
""fullscreenenter"",""1"",""1503""
","
","","[{""page_index"":0,""viewing_time"":3077.5}]","3078.199999988079","","","","","","","","","","","","","","","","","","","","","","","",""
"pit-comprehension","105","786636","0.0-2.0-21.0-0.0","battery-v0.2","","""event"",""trial"",""time""
""fullscreenenter"",""1"",""1503""
""blur"",""7"",""24168""
""focus"",""7"",""24572""
","""event"",""trial"",""time""
""blur"",""7"",""24168""
","""event"",""trial"",""time""
""focus"",""7"",""24572""
","""event"",""trial"",""time""
""fullscreenenter"",""1"",""1503""
","
","","","5954","[""10""]","0","16","20964","2696","","","","","","","","","","","","","","","","","","",""
"pit-instructions","106","789423","0.0-2.0-21.0-1.0","battery-v0.2","","""event"",""trial"",""time""
""fullscreenenter"",""1"",""1503""
""blur"",""7"",""24168""
""focus"",""7"",""24572""
","""event"",""trial"",""time""
""blur"",""7"",""24168""
","""event"",""trial"",""time""
""focus"",""7"",""24572""
","""event"",""trial"",""time""
""fullscreenenter"",""1"",""1503""
","
","","[{""page_index"":0,""viewing_time"":2745.199999988079}]","2745.399999976158","","","","","","","","","","","","","","","","","","","","","","","",""
"pit-comprehension","107","795860","0.0-2.0-22.0-0.0","battery-v0.2","","""event"",""trial"",""time""
""fullscreenenter"",""1"",""1503""
""blur"",""7"",""24168""
""focus"",""7"",""24572""
","""event"",""trial"",""time""
""blur"",""7"",""24168""
","""event"",""trial"",""time""
""focus"",""7"",""24572""
","""event"",""trial"",""time""
""fullscreenenter"",""1"",""1503""
","
","","","6433.099999964237","[""0""]","0","16","20964","2696","","","","","","","","","","","","","","","","","","",""
"pit-instructions","108","798818","0.0-2.0-22.0-1.0","battery-v0.2","","""event"",""trial"",""time""
""fullscreenenter"",""1"",""1503""
""blur"",""7"",""24168""
""focus"",""7"",""24572""
","""event"",""trial"",""time""
""blur"",""7"",""24168""
","""event"",""trial"",""time""
""focus"",""7"",""24572""
","""event"",""trial"",""time""
""fullscreenenter"",""1"",""1503""
","
","","[{""page_index"":0,""viewing_time"":2909.5}]","2909.800000011921","","","","","","","","","","","","","","","","","","","","","","","",""
"pit-comprehension","109","806980","0.0-2.0-23.0-0.0","battery-v0.2","","""event"",""trial"",""time""
""fullscreenenter"",""1"",""1503""
""blur"",""7"",""24168""
""focus"",""7"",""24572""
","""event"",""trial"",""time""
""blur"",""7"",""24168""
","""event"",""trial"",""time""
""focus"",""7"",""24572""
","""event"",""trial"",""time""
""fullscreenenter"",""1"",""1503""
","
","","","8159.399999976158","[""True""]","0","16","20964","2696","","","","","","","","","","","","","","","","","","",""
"pit-instructions","110","811932","0.0-2.0-23.0-1.0","battery-v0.2","","""event"",""trial"",""time""
""fullscreenenter"",""1"",""1503""
""blur"",""7"",""24168""
""focus"",""7"",""24572""
","""event"",""trial"",""time""
""blur"",""7"",""24168""
","""event"",""trial"",""time""
""focus"",""7"",""24572""
","""event"",""trial"",""time""
""fullscreenenter"",""1"",""1503""
","
","","[{""page_index"":0,""viewing_time"":4906.699999988079}]","4907.299999952316","","","","","","","","","","","","","","","","","","","","","","","",""
"pit-comprehension","111","819707","0.0-2.0-24.0-0.0","battery-v0.2","","""event"",""trial"",""time""
""fullscreenenter"",""1"",""1503""
""blur"",""7"",""24168""
""focus"",""7"",""24572""
","""event"",""trial"",""time""
""blur"",""7"",""24168""
","""event"",""trial"",""time""
""focus"",""7"",""24572""
","""event"",""trial"",""time""
""fullscreenenter"",""1"",""1503""
","
","","","7771.599999964237","[""True""]","0","16","20964","2696","","","","","","","","","","","","","","","","","","",""
"pit-instructions","112","822384","0.0-2.0-24.0-1.0","battery-v0.2","","""event"",""trial"",""time""
""fullscreenenter"",""1"",""1503""
""blur"",""7"",""24168""
""focus"",""7"",""24572""
","""event"",""trial"",""time""
""blur"",""7"",""24168""
","""event"",""trial"",""time""
""focus"",""7"",""24572""
","""event"",""trial"",""time""
""fullscreenenter"",""1"",""1503""
","
","","[{""page_index"":0,""viewing_time"":2640.100000023842}]","2640.5","","","","","","","","","","","","","","","","","","","","","","","",""
"pit-comprehension","113","828657","0.0-2.0-25.0-0.0","battery-v0.2","","""event"",""trial"",""time""
""fullscreenenter"",""1"",""1503""
""blur"",""7"",""24168""
""focus"",""7"",""24572""
","""event"",""trial"",""time""
""blur"",""7"",""24168""
","""event"",""trial"",""time""
""focus"",""7"",""24572""
","""event"",""trial"",""time""
""fullscreenenter"",""1"",""1503""
","
","","","6270.199999988079","[""True""]","0","16","20964","2696","","","","","","","","","","","","","","","","","","",""
"pit-instructions","114","831912","0.0-2.0-25.0-1.0","battery-v0.2","","""event"",""trial"",""time""
""fullscreenenter"",""1"",""1503""
""blur"",""7"",""24168""
""focus"",""7"",""24572""
","""event"",""trial"",""time""
""blur"",""7"",""24168""
","""event"",""trial"",""time""
""focus"",""7"",""24572""
","""event"",""trial"",""time""
""fullscreenenter"",""1"",""1503""
","
","","[{""page_index"":0,""viewing_time"":3208.400000035763}]","3208.699999988079","","","","","","","","","","","","","","","","","","","","","","","",""
"pit-comprehension","115","836959","0.0-2.0-26.0-0.0","battery-v0.2","","""event"",""trial"",""time""
""fullscreenenter"",""1"",""1503""
""blur"",""7"",""24168""
""focus"",""7"",""24572""
","""event"",""trial"",""time""
""blur"",""7"",""24168""
","""event"",""trial"",""time""
""focus"",""7"",""24572""
","""event"",""trial"",""time""
""fullscreenenter"",""1"",""1503""
","
","","","5043.5","[""False""]","0","16","20964","2696","","","","","","","","","","","","","","","","","","",""
"pit-instructions","116","838840","0.0-2.0-26.0-1.0","battery-v0.2","","""event"",""trial"",""time""
""fullscreenenter"",""1"",""1503""
""blur"",""7"",""24168""
""focus"",""7"",""24572""
","""event"",""trial"",""time""
""blur"",""7"",""24168""
","""event"",""trial"",""time""
""focus"",""7"",""24572""
","""event"",""trial"",""time""
""fullscreenenter"",""1"",""1503""
","
","","[{""page_index"":0,""viewing_time"":1832.3999999761581}]","1833.1000000238419","","","","","","","","","","","","","","","","","","","","","","","",""
"pit-instructions","117","853358","0.0-3.0","battery-v0.2","","""event"",""trial"",""time""
""fullscreenenter"",""1"",""1503""
""blur"",""7"",""24168""
""focus"",""7"",""24572""
","""event"",""trial"",""time""
""blur"",""7"",""24168""
","""event"",""trial"",""time""
""focus"",""7"",""24572""
","""event"",""trial"",""time""
""fullscreenenter"",""1"",""1503""
","
","","[{""page_index"":0,""viewing_time"":3324.5},{""page_index"":1,""viewing_time"":5017.800000011921},{""page_index"":2,""viewing_time"":6173.800000011921}]","14516.400000035763","","","","","","","","","","","","","","","","","","","","","","","",""
"pit-trial","118","856802","0.0-4.0","battery-v0.2","","""event"",""trial"",""time""
""fullscreenenter"",""1"",""1503""
""blur"",""7"",""24168""
""focus"",""7"",""24572""
","""event"",""trial"",""time""
""blur"",""7"",""24168""
","""event"",""trial"",""time""
""focus"",""7"",""24572""
","""event"",""trial"",""time""
""fullscreenenter"",""1"",""1503""
","
","","","584.8999999761581","","","16","20964","2696","&#9730;","elianto","#3366ff99"," "," ","1","+10","[1435.699999988079]","1","1","","","20964","1","1","1","win","go","0"
"pit-trial","119","860504","0.0-5.0","battery-v0.2","","""event"",""trial"",""time""
""fullscreenenter"",""1"",""1503""
""blur"",""7"",""24168""
""focus"",""7"",""24572""
","""event"",""trial"",""time""
""blur"",""7"",""24168""
","""event"",""trial"",""time""
""focus"",""7"",""24572""
","""event"",""trial"",""time""
""fullscreenenter"",""1"",""1503""
","
","","","846.8000000119209","","","16","20964","2696","&#9733;","elianto","#3366ff99","-1"," ","0","0","[1697.2999999523163]","1","1","","","20964","2","2","2","win","no-go","0"
"pit-trial","120","864598","0.0-6.0","battery-v0.2","","""event"",""trial"",""time""
""fullscreenenter"",""1"",""1503""
""blur"",""7"",""24168""
""focus"",""7"",""24572""
","""event"",""trial"",""time""
""blur"",""7"",""24168""
","""event"",""trial"",""time""
""focus"",""7"",""24572""
","""event"",""trial"",""time""
""fullscreenenter"",""1"",""1503""
","
","","","1239.3999999761581","","","16","20964","2696","&#9728;","elianto","#f73b6a7A","-1"," ","0","-10","[2090.2000000476837]","1","1","","","20964","3","0","4","lose","no-go","0"
"pit-trial","121","868375","0.0-7.0","battery-v0.2","","""event"",""trial"",""time""
""fullscreenenter"",""1"",""1503""
""blur"",""7"",""24168""
""focus"",""7"",""24572""
","""event"",""trial"",""time""
""blur"",""7"",""24168""
","""event"",""trial"",""time""
""focus"",""7"",""24572""
","""event"",""trial"",""time""
""fullscreenenter"",""1"",""1503""
","
","","","922.1000000238419","","","16","20964","2696","&#9752;","elianto","#f73b6a7A"," "," ","1","0","[1772.300000011921,2405.800000011921]","2","1","","","20964","4","3","3","lose","go","0"
"pit-trial","122","873229","0.0-8.0","battery-v0.2","","""event"",""trial"",""time""
""fullscreenenter"",""1"",""1503""
""blur"",""7"",""24168""
""focus"",""7"",""24572""
","""event"",""trial"",""time""
""blur"",""7"",""24168""
","""event"",""trial"",""time""
""focus"",""7"",""24572""
","""event"",""trial"",""time""
""fullscreenenter"",""1"",""1503""
","
","","","-1","","","16","20964","2696","&#9752;","elianto","#f73b6a7A"," ","-1","0","-10","[]","0","1","","","20964","5","3","3","lose","go","0"
"pit-trial","123","876715","0.0-9.0","battery-v0.2","","""event"",""trial"",""time""
""fullscreenenter"",""1"",""1503""
""blur"",""7"",""24168""
""focus"",""7"",""24572""
","""event"",""trial"",""time""
""blur"",""7"",""24168""
","""event"",""trial"",""time""
""focus"",""7"",""24572""
","""event"",""trial"",""time""
""fullscreenenter"",""1"",""1503""
","
","","","630.6000000238419","","","16","20964","2696","&#9730;","elianto","#3366ff99"," "," ","1","0","[1481.4000000357628]","1","1","","","20964","6","1","1","win","go","1"
"pit-trial","124","881569","0.0-10.0","battery-v0.2","","""event"",""trial"",""time""
""fullscreenenter"",""1"",""1503""
""blur"",""7"",""24168""
""focus"",""7"",""24572""
","""event"",""trial"",""time""
""blur"",""7"",""24168""
","""event"",""trial"",""time""
""focus"",""7"",""24572""
","""event"",""trial"",""time""
""fullscreenenter"",""1"",""1503""
","
","","","-1","","","16","20964","2696","&#9733;","elianto","#3366ff99","-1","-1","1","+10","[]","0","1","","","20964","7","2","2","win","no-go","0"
"pit-trial","125","885683","0.0-11.0","battery-v0.2","","""event"",""trial"",""time""
""fullscreenenter"",""1"",""1503""
""blur"",""7"",""24168""
""focus"",""7"",""24572""
","""event"",""trial"",""time""
""blur"",""7"",""24168""
","""event"",""trial"",""time""
""focus"",""7"",""24572""
","""event"",""trial"",""time""
""fullscreenenter"",""1"",""1503""
","
","","","1257.300000011921","","","16","20964","2696","&#9728;","elianto","#f73b6a7A","-1"," ","0","-10","[2107.699999988079]","1","1","","","20964","8","0","4","lose","no-go","0"
"pit-trial","126","889055","0.0-12.0","battery-v0.2","","""event"",""trial"",""time""
""fullscreenenter"",""1"",""1503""
""blur"",""7"",""24168""
""focus"",""7"",""24572""
","""event"",""trial"",""time""
""blur"",""7"",""24168""
","""event"",""trial"",""time""
""focus"",""7"",""24572""
","""event"",""trial"",""time""
""fullscreenenter"",""1"",""1503""
","
","","","517.5","","","16","20964","2696","&#9730;","elianto","#3366ff99"," "," ","1","+10","[1368.8999999761581]","1","1","","","20964","9","1","1","win","go","0"
"pit-trial","127","893909","0.0-13.0","battery-v0.2","","""event"",""trial"",""time""
""fullscreenenter"",""1"",""1503""
""blur"",""7"",""24168""
""focus"",""7"",""24572""
","""event"",""trial"",""time""
""blur"",""7"",""24168""
","""event"",""trial"",""time""
""focus"",""7"",""24572""
","""event"",""trial"",""time""
""fullscreenenter"",""1"",""1503""
","
","","","-1","","","16","20964","2696","&#9728;","elianto","#f73b6a7A","-1","-1","1","0","[]","0","1","","","20964","10","0","4","lose","no-go","0"
"pit-trial","128","898766","0.0-14.0","battery-v0.2","","""event"",""trial"",""time""
""fullscreenenter"",""1"",""1503""
""blur"",""7"",""24168""
""focus"",""7"",""24572""
","""event"",""trial"",""time""
""blur"",""7"",""24168""
","""event"",""trial"",""time""
""focus"",""7"",""24572""
","""event"",""trial"",""time""
""fullscreenenter"",""1"",""1503""
","
","","","-1","","","16","20964","2696","&#9733;","elianto","#3366ff99","-1","-1","1","+10","[]","0","1","","","20964","11","2","2","win","no-go","0"
"pit-trial","129","903622","0.0-15.0","battery-v0.2","","""event"",""trial"",""time""
""fullscreenenter"",""1"",""1503""
""blur"",""7"",""24168""
""focus"",""7"",""24572""
","""event"",""trial"",""time""
""blur"",""7"",""24168""
","""event"",""trial"",""time""
""focus"",""7"",""24572""
","""event"",""trial"",""time""
""fullscreenenter"",""1"",""1503""
","
","","","-1","","","16","20964","2696","&#9752;","elianto","#f73b6a7A"," ","-1","0","-10","[]","0","1","","","20964","12","3","3","lose","go","0"
"pit-trial","130","907105","0.0-16.0","battery-v0.2","","""event"",""trial"",""time""
""fullscreenenter"",""1"",""1503""
""blur"",""7"",""24168""
""focus"",""7"",""24572""
","""event"",""trial"",""time""
""blur"",""7"",""24168""
","""event"",""trial"",""time""
""focus"",""7"",""24572""
","""event"",""trial"",""time""
""fullscreenenter"",""1"",""1503""
","
","","","627.7999999523163","","","16","20964","2696","&#9730;","elianto","#3366ff99"," "," ","1","0","[1479.4000000357628]","1","1","","","20964","13","1","1","win","go","1"
"pit-trial","131","911962","0.0-17.0","battery-v0.2","","""event"",""trial"",""time""
""fullscreenenter"",""1"",""1503""
""blur"",""7"",""24168""
""focus"",""7"",""24572""
","""event"",""trial"",""time""
""blur"",""7"",""24168""
","""event"",""trial"",""time""
""focus"",""7"",""24572""
","""event"",""trial"",""time""
""fullscreenenter"",""1"",""1503""
","
","","","-1","","","16","20964","2696","&#9728;","elianto","#f73b6a7A","-1","-1","1","0","[]","0","1","","","20964","14","0","4","lose","no-go","0"
"pit-trial","132","916819","0.0-18.0","battery-v0.2","","""event"",""trial"",""time""
""fullscreenenter"",""1"",""1503""
""blur"",""7"",""24168""
""focus"",""7"",""24572""
","""event"",""trial"",""time""
""blur"",""7"",""24168""
","""event"",""trial"",""time""
""focus"",""7"",""24572""
","""event"",""trial"",""time""
""fullscreenenter"",""1"",""1503""
","
","","","-1","","","16","20964","2696","&#9733;","elianto","#3366ff99","-1","-1","1","+10","[]","0","1","","","20964","15","2","2","win","no-go","0"
"pit-trial","133","920275","0.0-19.0","battery-v0.2","","""event"",""trial"",""time""
""fullscreenenter"",""1"",""1503""
""blur"",""7"",""24168""
""focus"",""7"",""24572""
","""event"",""trial"",""time""
""blur"",""7"",""24168""
","""event"",""trial"",""time""
""focus"",""7"",""24572""
","""event"",""trial"",""time""
""fullscreenenter"",""1"",""1503""
","
","","","600.1999999880791","","","16","20964","2696","&#9752;","elianto","#f73b6a7A"," "," ","1","-10","[1451.0999999642372]","1","1","","","20964","16","3","3","lose","go","1"
"pit-trial","134","924193","0.0-20.0","battery-v0.2","","""event"",""trial"",""time""
""fullscreenenter"",""1"",""1503""
""blur"",""7"",""24168""
""focus"",""7"",""24572""
","""event"",""trial"",""time""
""blur"",""7"",""24168""
","""event"",""trial"",""time""
""focus"",""7"",""24572""
","""event"",""trial"",""time""
""fullscreenenter"",""1"",""1503""
","
","","","1062.5","","","16","20964","2696","&#9752;","elianto","#f73b6a7A"," "," ","1","0","[1913.3999999761581]","1","1","","","20964","17","3","3","lose","go","0"
"pit-trial","135","927590","0.0-21.0","battery-v0.2","","""event"",""trial"",""time""
""fullscreenenter"",""1"",""1503""
""blur"",""7"",""24168""
""focus"",""7"",""24572""
","""event"",""trial"",""time""
""blur"",""7"",""24168""
","""event"",""trial"",""time""
""focus"",""7"",""24572""
","""event"",""trial"",""time""
""fullscreenenter"",""1"",""1503""
","
","","","541.3999999761581","","","16","20964","2696","&#9730;","elianto","#3366ff99"," "," ","1","+10","[1392.7000000476837]","1","1","","","20964","18","1","1","win","go","0"
"pit-trial","136","932447","0.0-22.0","battery-v0.2","","""event"",""trial"",""time""
""fullscreenenter"",""1"",""1503""
""blur"",""7"",""24168""
""focus"",""7"",""24572""
","""event"",""trial"",""time""
""blur"",""7"",""24168""
","""event"",""trial"",""time""
""focus"",""7"",""24572""
","""event"",""trial"",""time""
""fullscreenenter"",""1"",""1503""
","
","","","-1","","","16","20964","2696","&#9728;","elianto","#f73b6a7A","-1","-1","1","0","[]","0","1","","","20964","19","0","4","lose","no-go","0"
"pit-trial","137","937302","0.0-23.0","battery-v0.2","","""event"",""trial"",""time""
""fullscreenenter"",""1"",""1503""
""blur"",""7"",""24168""
""focus"",""7"",""24572""
","""event"",""trial"",""time""
""blur"",""7"",""24168""
","""event"",""trial"",""time""
""focus"",""7"",""24572""
","""event"",""trial"",""time""
""fullscreenenter"",""1"",""1503""
","
","","","-1","","","16","20964","2696","&#9733;","elianto","#3366ff99","-1","-1","1","+10","[]","0","1","","","20964","20","2","2","win","no-go","0"
"pit-instructions","138","948693","0.0-24.0","battery-v0.2","","""event"",""trial"",""time""
""fullscreenenter"",""1"",""1503""
""blur"",""7"",""24168""
""focus"",""7"",""24572""
","""event"",""trial"",""time""
""blur"",""7"",""24168""
","""event"",""trial"",""time""
""focus"",""7"",""24572""
","""event"",""trial"",""time""
""fullscreenenter"",""1"",""1503""
","
","","[{""page_index"":0,""viewing_time"":5230.699999988079},{""page_index"":1,""viewing_time"":6157.900000035763}]","11389.100000023842","","","","","","","","","","","","","","","","","","","","","","","",""
"pit-trial","139","952290","0.0-25.0","battery-v0.2","","""event"",""trial"",""time""
""fullscreenenter"",""1"",""1503""
""blur"",""7"",""24168""
""focus"",""7"",""24572""
","""event"",""trial"",""time""
""blur"",""7"",""24168""
","""event"",""trial"",""time""
""focus"",""7"",""24572""
","""event"",""trial"",""time""
""fullscreenenter"",""1"",""1503""
","
","","","740.8000000119209","","","16","20964","2696","j","elianto","#f73b6a7A","-1"," ","0","-10","[1592]","1","2","","","20964","21","0","4","lose","no-go","0"
"pit-trial","140","955642","0.0-26.0","battery-v0.2","","""event"",""trial"",""time""
""fullscreenenter"",""1"",""1503""
""blur"",""7"",""24168""
""focus"",""7"",""24572""
","""event"",""trial"",""time""
""blur"",""7"",""24168""
","""event"",""trial"",""time""
""focus"",""7"",""24572""
","""event"",""trial"",""time""
""fullscreenenter"",""1"",""1503""
","
","","","496.19999998807907","","","16","20964","2696","d","elianto","#3366ff99"," "," ","1","+10","[1348.5]","1","2","","","20964","22","1","1","win","go","0"
"pit-trial","141","959390","0.0-27.0","battery-v0.2","","""event"",""trial"",""time""
""fullscreenenter"",""1"",""1503""
""blur"",""7"",""24168""
""focus"",""7"",""24572""
","""event"",""trial"",""time""
""blur"",""7"",""24168""
","""event"",""trial"",""time""
""focus"",""7"",""24572""
","""event"",""trial"",""time""
""fullscreenenter"",""1"",""1503""
","
","","","892.8999999761581","","","16","20964","2696","e","elianto","#f73b6a7A","-1"," ","0","0","[1743.800000011921]","1","2","","","20964","23","2","4","lose","no-go","1"
"pit-trial","142","963015","0.0-28.0","battery-v0.2","","""event"",""trial"",""time""
""fullscreenenter"",""1"",""1503""
""blur"",""7"",""24168""
""focus"",""7"",""24572""
","""event"",""trial"",""time""
""blur"",""7"",""24168""
","""event"",""trial"",""time""
""focus"",""7"",""24572""
","""event"",""trial"",""time""
""fullscreenenter"",""1"",""1503""
","
","","","771","","","16","20964","2696","w","elianto","#f73b6a7A"," "," ","1","0","[1621.300000011921]","1","2","","","20964","24","3","3","lose","go","0"
"pit-trial","143","966743","0.0-29.0","battery-v0.2","","""event"",""trial"",""time""
""fullscreenenter"",""1"",""1503""
""blur"",""7"",""24168""
""focus"",""7"",""24572""
","""event"",""trial"",""time""
""blur"",""7"",""24168""
","""event"",""trial"",""time""
""focus"",""7"",""24572""
","""event"",""trial"",""time""
""fullscreenenter"",""1"",""1503""
","
","","","874.6000000238419","","","16","20964","2696","w","elianto","#f73b6a7A"," "," ","1","0","[1725]","1","2","","","20964","25","3","3","lose","go","0"
"pit-trial","144","971598","0.0-30.0","battery-v0.2","","""event"",""trial"",""time""
""fullscreenenter"",""1"",""1503""
""blur"",""7"",""24168""
""focus"",""7"",""24572""
","""event"",""trial"",""time""
""blur"",""7"",""24168""
","""event"",""trial"",""time""
""focus"",""7"",""24572""
","""event"",""trial"",""time""
""fullscreenenter"",""1"",""1503""
","
","","","-1","","","16","20964","2696","j","elianto","#f73b6a7A","-1","-1","1","0","[]","0","2","","","20964","26","0","4","lose","no-go","0"
"pit-trial","145","975386","0.0-31.0","battery-v0.2","","""event"",""trial"",""time""
""fullscreenenter"",""1"",""1503""
""blur"",""7"",""24168""
""focus"",""7"",""24572""
","""event"",""trial"",""time""
""blur"",""7"",""24168""
","""event"",""trial"",""time""
""focus"",""7"",""24572""
","""event"",""trial"",""time""
""fullscreenenter"",""1"",""1503""
","
","","","934","","","16","20964","2696","e","elianto","#f73b6a7A","-1"," ","0","0","[1784.5]","1","2","","","20964","27","2","4","lose","no-go","1"
"pit-trial","146","978811","0.0-32.0","battery-v0.2","","""event"",""trial"",""time""
""fullscreenenter"",""1"",""1503""
""blur"",""7"",""24168""
""focus"",""7"",""24572""
","""event"",""trial"",""time""
""blur"",""7"",""24168""
","""event"",""trial"",""time""
""focus"",""7"",""24572""
","""event"",""trial"",""time""
""fullscreenenter"",""1"",""1503""
","
","","","568.8999999761581","","","16","20964","2696","d","elianto","#3366ff99"," "," ","1","+10","[1420.1000000238419]","1","2","","","20964","28","1","1","win","go","0"
"pit-trial","147","983668","0.0-33.0","battery-v0.2","","""event"",""trial"",""time""
""fullscreenenter"",""1"",""1503""
""blur"",""7"",""24168""
""focus"",""7"",""24572""
","""event"",""trial"",""time""
""blur"",""7"",""24168""
","""event"",""trial"",""time""
""focus"",""7"",""24572""
","""event"",""trial"",""time""
""fullscreenenter"",""1"",""1503""
","
","","","-1","","","16","20964","2696","j","elianto","#f73b6a7A","-1","-1","1","0","[]","0","2","","","20964","29","0","4","lose","no-go","0"
"pit-trial","148","987107","0.0-34.0","battery-v0.2","","""event"",""trial"",""time""
""fullscreenenter"",""1"",""1503""
""blur"",""7"",""24168""
""focus"",""7"",""24572""
","""event"",""trial"",""time""
""blur"",""7"",""24168""
","""event"",""trial"",""time""
""focus"",""7"",""24572""
","""event"",""trial"",""time""
""fullscreenenter"",""1"",""1503""
","
","","","582.3999999761581","","","16","20964","2696","e","elianto","#f73b6a7A","-1"," ","0","-10","[1434.0999999642372]","1","2","","","20964","30","2","4","lose","no-go","0"
"pit-trial","149","990416","0.0-35.0","battery-v0.2","","""event"",""trial"",""time""
""fullscreenenter"",""1"",""1503""
""blur"",""7"",""24168""
""focus"",""7"",""24572""
","""event"",""trial"",""time""
""blur"",""7"",""24168""
","""event"",""trial"",""time""
""focus"",""7"",""24572""
","""event"",""trial"",""time""
""fullscreenenter"",""1"",""1503""
","
","","","453.4000000357628","","","16","20964","2696","d","elianto","#3366ff99"," "," ","1","+10","[1304.5]","1","2","","","20964","31","1","1","win","go","0"
"pit-trial","150","993966","0.0-36.0","battery-v0.2","","""event"",""trial"",""time""
""fullscreenenter"",""1"",""1503""
""blur"",""7"",""24168""
""focus"",""7"",""24572""
","""event"",""trial"",""time""
""blur"",""7"",""24168""
","""event"",""trial"",""time""
""focus"",""7"",""24572""
","""event"",""trial"",""time""
""fullscreenenter"",""1"",""1503""
","
","","","694.6000000238419","","","16","20964","2696","w","elianto","#f73b6a7A"," "," ","1","-10","[1546.1000000238419]","1","2","","","20964","32","3","3","lose","go","1"
"pit-trial","151","997276","0.0-37.0","battery-v0.2","","""event"",""trial"",""time""
""fullscreenenter"",""1"",""1503""
""blur"",""7"",""24168""
""focus"",""7"",""24572""
","""event"",""trial"",""time""
""blur"",""7"",""24168""
","""event"",""trial"",""time""
""focus"",""7"",""24572""
","""event"",""trial"",""time""
""fullscreenenter"",""1"",""1503""
","
","","","455","","","16","20964","2696","w","elianto","#f73b6a7A"," "," ","1","0","[1305.300000011921]","1","2","","","20964","33","3","3","lose","go","0"
"pit-trial","152","1000808","0.0-38.0","battery-v0.2","","""event"",""trial"",""time""
""fullscreenenter"",""1"",""1503""
""blur"",""7"",""24168""
""focus"",""7"",""24572""
","""event"",""trial"",""time""
""blur"",""7"",""24168""
","""event"",""trial"",""time""
""focus"",""7"",""24572""
","""event"",""trial"",""time""
""fullscreenenter"",""1"",""1503""
","
","","","677.5","","","16","20964","2696","e","elianto","#f73b6a7A","-1"," ","0","-10","[1528.3999999761581]","1","2","","","20964","34","2","4","lose","no-go","0"
"pit-trial","153","1005663","0.0-39.0","battery-v0.2","","""event"",""trial"",""time""
""fullscreenenter"",""1"",""1503""
""blur"",""7"",""24168""
""focus"",""7"",""24572""
","""event"",""trial"",""time""
""blur"",""7"",""24168""
","""event"",""trial"",""time""
""focus"",""7"",""24572""
","""event"",""trial"",""time""
""fullscreenenter"",""1"",""1503""
","
","","","-1","","","16","20964","2696","j","elianto","#f73b6a7A","-1","-1","1","0","[]","0","2","","","20964","35","0","4","lose","no-go","0"
"pit-trial","154","1008887","0.0-40.0","battery-v0.2","","""event"",""trial"",""time""
""fullscreenenter"",""1"",""1503""
""blur"",""7"",""24168""
""focus"",""7"",""24572""
","""event"",""trial"",""time""
""blur"",""7"",""24168""
","""event"",""trial"",""time""
""focus"",""7"",""24572""
","""event"",""trial"",""time""
""fullscreenenter"",""1"",""1503""
","
","","","368.30000001192093","","","16","20964","2696","d","elianto","#3366ff99"," "," ","1","0","[1219]","1","2","","","20964","36","1","1","win","go","1"
"pit-trial","155","1012253","0.0-41.0","battery-v0.2","","""event"",""trial"",""time""
""fullscreenenter"",""1"",""1503""
""blur"",""7"",""24168""
""focus"",""7"",""24572""
","""event"",""trial"",""time""
""blur"",""7"",""24168""
","""event"",""trial"",""time""
""focus"",""7"",""24572""
","""event"",""trial"",""time""
""fullscreenenter"",""1"",""1503""
","
","","","512.7000000476837","","","16","20964","2696","d","elianto","#3366ff99"," "," ","1","+10","[1363.2000000476837]","1","2","","","20964","37","1","1","win","go","0"
"pit-trial","156","1017109","0.0-42.0","battery-v0.2","","""event"",""trial"",""time""
""fullscreenenter"",""1"",""1503""
""blur"",""7"",""24168""
""focus"",""7"",""24572""
","""event"",""trial"",""time""
""blur"",""7"",""24168""
","""event"",""trial"",""time""
""focus"",""7"",""24572""
","""event"",""trial"",""time""
""fullscreenenter"",""1"",""1503""
","
","","","-1","","","16","20964","2696","j","elianto","#f73b6a7A","-1","-1","1","0","[]","0","2","","","20964","38","0","4","lose","no-go","0"
"pit-trial","157","1020525","0.0-43.0","battery-v0.2","","""event"",""trial"",""time""
""fullscreenenter"",""1"",""1503""
""blur"",""7"",""24168""
""focus"",""7"",""24572""
","""event"",""trial"",""time""
""blur"",""7"",""24168""
","""event"",""trial"",""time""
""focus"",""7"",""24572""
","""event"",""trial"",""time""
""fullscreenenter"",""1"",""1503""
","
","","","560.9000000357628","","","16","20964","2696","e","elianto","#f73b6a7A","-1"," ","0","-10","[1411.9000000357628]","1","2","","","20964","39","2","4","lose","no-go","0"
"pit-trial","158","1024199","0.0-44.0","battery-v0.2","","""event"",""trial"",""time""
""fullscreenenter"",""1"",""1503""
""blur"",""7"",""24168""
""focus"",""7"",""24572""
","""event"",""trial"",""time""
""blur"",""7"",""24168""
","""event"",""trial"",""time""
""focus"",""7"",""24572""
","""event"",""trial"",""time""
""fullscreenenter"",""1"",""1503""
","
","","","817.5","","","16","20964","2696","w","elianto","#f73b6a7A"," "," ","1","-10","[1669.199999988079]","1","2","","","20964","40","3","3","lose","go","1"
"pit-trial","159","1027554","0.0-45.0","battery-v0.2","","""event"",""trial"",""time""
""fullscreenenter"",""1"",""1503""
""blur"",""7"",""24168""
""focus"",""7"",""24572""
","""event"",""trial"",""time""
""blur"",""7"",""24168""
","""event"",""trial"",""time""
""focus"",""7"",""24572""
","""event"",""trial"",""time""
""fullscreenenter"",""1"",""1503""
","
","","","500","","","16","20964","2696","w","elianto","#f73b6a7A"," "," ","1","0","[1351.1000000238419]","1","2","","","20964","41","3","3","lose","go","0"
"pit-trial","160","1031021","0.0-46.0","battery-v0.2","","""event"",""trial"",""time""
""fullscreenenter"",""1"",""1503""
""blur"",""7"",""24168""
""focus"",""7"",""24572""
","""event"",""trial"",""time""
""blur"",""7"",""24168""
","""event"",""trial"",""time""
""focus"",""7"",""24572""
","""event"",""trial"",""time""
""fullscreenenter"",""1"",""1503""
","
","","","613.8000000119209","","","16","20964","2696","e","elianto","#f73b6a7A","-1"," ","0","-10","[1464.4000000357628]","1","2","","","20964","42","2","4","lose","no-go","0"
"pit-trial","161","1034313","0.0-47.0","battery-v0.2","","""event"",""trial"",""time""
""fullscreenenter"",""1"",""1503""
""blur"",""7"",""24168""
""focus"",""7"",""24572""
","""event"",""trial"",""time""
""blur"",""7"",""24168""
","""event"",""trial"",""time""
""focus"",""7"",""24572""
","""event"",""trial"",""time""
""fullscreenenter"",""1"",""1503""
","
","","","437.89999997615814","","","16","20964","2696","d","elianto","#3366ff99"," "," ","1","+10","[1288]","1","2","","","20964","43","1","1","win","go","0"
"pit-trial","162","1039169","0.0-48.0","battery-v0.2","","""event"",""trial"",""time""
""fullscreenenter"",""1"",""1503""
""blur"",""7"",""24168""
""focus"",""7"",""24572""
","""event"",""trial"",""time""
""blur"",""7"",""24168""
","""event"",""trial"",""time""
""focus"",""7"",""24572""
","""event"",""trial"",""time""
""fullscreenenter"",""1"",""1503""
","
","","","-1","","","16","20964","2696","j","elianto","#f73b6a7A","-1","-1","1","0","[]","0","2","","","20964","44","0","4","lose","no-go","0"
"pit-trial","163","1044024","0.0-49.0","battery-v0.2","","""event"",""trial"",""time""
""fullscreenenter"",""1"",""1503""
""blur"",""7"",""24168""
""focus"",""7"",""24572""
","""event"",""trial"",""time""
""blur"",""7"",""24168""
","""event"",""trial"",""time""
""focus"",""7"",""24572""
","""event"",""trial"",""time""
""fullscreenenter"",""1"",""1503""
","
","","","-1","","","16","20964","2696","e","elianto","#f73b6a7A","-1","-1","1","0","[]","0","2","","","20964","45","2","4","lose","no-go","0"
"pit-trial","164","1048880","0.0-50.0","battery-v0.2","","""event"",""trial"",""time""
""fullscreenenter"",""1"",""1503""
""blur"",""7"",""24168""
""focus"",""7"",""24572""
","""event"",""trial"",""time""
""blur"",""7"",""24168""
","""event"",""trial"",""time""
""focus"",""7"",""24572""
","""event"",""trial"",""time""
""fullscreenenter"",""1"",""1503""
","
","","","-1","","","16","20964","2696","j","elianto","#f73b6a7A","-1","-1","1","-10","[]","0","2","","","20964","46","0","4","lose","no-go","1"
"pit-trial","165","1052277","0.0-51.0","battery-v0.2","","""event"",""trial"",""time""
""fullscreenenter"",""1"",""1503""
""blur"",""7"",""24168""
""focus"",""7"",""24572""
","""event"",""trial"",""time""
""blur"",""7"",""24168""
","""event"",""trial"",""time""
""focus"",""7"",""24572""
","""event"",""trial"",""time""
""fullscreenenter"",""1"",""1503""
","
","","","542.8000000119209","","","16","20964","2696","w","elianto","#f73b6a7A"," "," ","1","0","[1393.300000011921]","1","2","","","20964","47","3","3","lose","go","0"
"pit-trial","166","1056058","0.0-52.0","battery-v0.2","","""event"",""trial"",""time""
""fullscreenenter"",""1"",""1503""
""blur"",""7"",""24168""
""focus"",""7"",""24572""
","""event"",""trial"",""time""
""blur"",""7"",""24168""
","""event"",""trial"",""time""
""focus"",""7"",""24572""
","""event"",""trial"",""time""
""fullscreenenter"",""1"",""1503""
","
","","","925.6999999880791","","","16","20964","2696","s","elianto","#3366ff99","-1"," ","0","+10","[1776.199999988079]","1","2","","","20964","48","4","2","win","no-go","1"
"pit-trial","167","1059481","0.0-53.0","battery-v0.2","","""event"",""trial"",""time""
""fullscreenenter"",""1"",""1503""
""blur"",""7"",""24168""
""focus"",""7"",""24572""
","""event"",""trial"",""time""
""blur"",""7"",""24168""
","""event"",""trial"",""time""
""focus"",""7"",""24572""
","""event"",""trial"",""time""
""fullscreenenter"",""1"",""1503""
","
","","","569.0999999642372","","","16","20964","2696","s","elianto","#3366ff99","-1"," ","0","0","[1419.5]","1","2","","","20964","49","4","2","win","no-go","0"
"pit-trial","168","1063223","0.0-54.0","battery-v0.2","","""event"",""trial"",""time""
""fullscreenenter"",""1"",""1503""
""blur"",""7"",""24168""
""focus"",""7"",""24572""
","""event"",""trial"",""time""
""blur"",""7"",""24168""
","""event"",""trial"",""time""
""focus"",""7"",""24572""
","""event"",""trial"",""time""
""fullscreenenter"",""1"",""1503""
","
","","","887.5","","","16","20964","2696","w","elianto","#f73b6a7A"," "," ","1","0","[1738.199999988079]","1","2","","","20964","50","3","3","lose","go","0"
"pit-trial","169","1068078","0.0-55.0","battery-v0.2","","""event"",""trial"",""time""
""fullscreenenter"",""1"",""1503""
""blur"",""7"",""24168""
""focus"",""7"",""24572""
","""event"",""trial"",""time""
""blur"",""7"",""24168""
","""event"",""trial"",""time""
""focus"",""7"",""24572""
","""event"",""trial"",""time""
""fullscreenenter"",""1"",""1503""
","
","","","-1","","","16","20964","2696","j","elianto","#f73b6a7A","-1","-1","1","0","[]","0","2","","","20964","51","0","4","lose","no-go","0"
"pit-trial","170","1071461","0.0-56.0","battery-v0.2","","""event"",""trial"",""time""
""fullscreenenter"",""1"",""1503""
""blur"",""7"",""24168""
""focus"",""7"",""24572""
","""event"",""trial"",""time""
""blur"",""7"",""24168""
","""event"",""trial"",""time""
""focus"",""7"",""24572""
","""event"",""trial"",""time""
""fullscreenenter"",""1"",""1503""
","
","","","528.3999999761581","","","16","20964","2696","d","elianto","#3366ff99"," "," ","1","+10","[1379.5999999642372]","1","2","","","20964","52","1","1","win","go","0"
"pit-trial","171","1074884","0.0-57.0","battery-v0.2","","""event"",""trial"",""time""
""fullscreenenter"",""1"",""1503""
""blur"",""7"",""24168""
""focus"",""7"",""24572""
","""event"",""trial"",""time""
""blur"",""7"",""24168""
","""event"",""trial"",""time""
""focus"",""7"",""24572""
","""event"",""trial"",""time""
""fullscreenenter"",""1"",""1503""
","
","","","567.3000000119209","","","16","20964","2696","s","elianto","#3366ff99","-1"," ","0","0","[1418.300000011921]","1","2","","","20964","53","4","2","win","no-go","0"
"pit-trial","172","1078298","0.0-58.0","battery-v0.2","","""event"",""trial"",""time""
""fullscreenenter"",""1"",""1503""
""blur"",""7"",""24168""
""focus"",""7"",""24572""
","""event"",""trial"",""time""
""blur"",""7"",""24168""
","""event"",""trial"",""time""
""focus"",""7"",""24572""
","""event"",""trial"",""time""
""fullscreenenter"",""1"",""1503""
","
","","","558.9000000357628","","","16","20964","2696","d","elianto","#3366ff99"," "," ","1","+10","[1410.300000011921]","1","2","","","20964","54","1","1","win","go","0"
"pit-trial","173","1083155","0.0-59.0","battery-v0.2","","""event"",""trial"",""time""
""fullscreenenter"",""1"",""1503""
""blur"",""7"",""24168""
""focus"",""7"",""24572""
","""event"",""trial"",""time""
""blur"",""7"",""24168""
","""event"",""trial"",""time""
""focus"",""7"",""24572""
","""event"",""trial"",""time""
""fullscreenenter"",""1"",""1503""
","
","","","-1","","","16","20964","2696","j","elianto","#f73b6a7A","-1","-1","1","-10","[]","0","2","","","20964","55","0","4","lose","no-go","1"
"pit-trial","174","1088011","0.0-60.0","battery-v0.2","","""event"",""trial"",""time""
""fullscreenenter"",""1"",""1503""
""blur"",""7"",""24168""
""focus"",""7"",""24572""
","""event"",""trial"",""time""
""blur"",""7"",""24168""
","""event"",""trial"",""time""
""focus"",""7"",""24572""
","""event"",""trial"",""time""
""fullscreenenter"",""1"",""1503""
","
","","","-1","","","16","20964","2696","e","elianto","#f73b6a7A","-1","-1","1","0","[]","0","2","","","20964","56","2","4","lose","no-go","0"
"pit-trial","175","1092869","0.0-61.0","battery-v0.2","","""event"",""trial"",""time""
""fullscreenenter"",""1"",""1503""
""blur"",""7"",""24168""
""focus"",""7"",""24572""
","""event"",""trial"",""time""
""blur"",""7"",""24168""
","""event"",""trial"",""time""
""focus"",""7"",""24572""
","""event"",""trial"",""time""
""fullscreenenter"",""1"",""1503""
","
","","","-1","","","16","20964","2696","j","elianto","#f73b6a7A","-1","-1","1","0","[]","0","2","","","20964","57","0","4","lose","no-go","0"
"pit-trial","176","1096255","0.0-62.0","battery-v0.2","","""event"",""trial"",""time""
""fullscreenenter"",""1"",""1503""
""blur"",""7"",""24168""
""focus"",""7"",""24572""
","""event"",""trial"",""time""
""blur"",""7"",""24168""
","""event"",""trial"",""time""
""focus"",""7"",""24572""
","""event"",""trial"",""time""
""fullscreenenter"",""1"",""1503""
","
","","","530.9000000357628","","","16","20964","2696","d","elianto","#3366ff99"," "," ","1","0","[1381.8999999761581]","1","2","","","20964","58","1","1","win","go","1"
"pit-trial","177","1099845","0.0-63.0","battery-v0.2","","""event"",""trial"",""time""
""fullscreenenter"",""1"",""1503""
""blur"",""7"",""24168""
""focus"",""7"",""24572""
","""event"",""trial"",""time""
""blur"",""7"",""24168""
","""event"",""trial"",""time""
""focus"",""7"",""24572""
","""event"",""trial"",""time""
""fullscreenenter"",""1"",""1503""
","
","","","734.4000000357628","","","16","20964","2696","s","elianto","#3366ff99","-1"," ","0","0","[1585.1000000238419]","1","2","","","20964","59","4","2","win","no-go","0"
"pit-trial","178","1103381","0.0-64.0","battery-v0.2","","""event"",""trial"",""time""
""fullscreenenter"",""1"",""1503""
""blur"",""7"",""24168""
""focus"",""7"",""24572""
","""event"",""trial"",""time""
""blur"",""7"",""24168""
","""event"",""trial"",""time""
""focus"",""7"",""24572""
","""event"",""trial"",""time""
""fullscreenenter"",""1"",""1503""
","
","","","680.5999999642372","","","16","20964","2696","w","elianto","#f73b6a7A"," "," ","1","0","[1532]","1","2","","","20964","60","3","3","lose","go","0"
"pit-trial","179","1107007","0.0-65.0","battery-v0.2","","""event"",""trial"",""time""
""fullscreenenter"",""1"",""1503""
""blur"",""7"",""24168""
""focus"",""7"",""24572""
","""event"",""trial"",""time""
""blur"",""7"",""24168""
","""event"",""trial"",""time""
""focus"",""7"",""24572""
","""event"",""trial"",""time""
""fullscreenenter"",""1"",""1503""
","
","","","770.5","","","16","20964","2696","s","elianto","#3366ff99","-1"," ","0","+10","[1621.0999999642372]","1","2","","","20964","61","4","2","win","no-go","1"
"pit-trial","180","1110496","0.0-66.0","battery-v0.2","","""event"",""trial"",""time""
""fullscreenenter"",""1"",""1503""
""blur"",""7"",""24168""
""focus"",""7"",""24572""
","""event"",""trial"",""time""
""blur"",""7"",""24168""
","""event"",""trial"",""time""
""focus"",""7"",""24572""
","""event"",""trial"",""time""
""fullscreenenter"",""1"",""1503""
","
","","","634.1000000238419","","","16","20964","2696","w","elianto","#f73b6a7A"," "," ","1","-10","[1484.8999999761581]","1","2","","","20964","62","3","3","lose","go","1"
"pit-trial","181","1114622","0.0-67.0","battery-v0.2","","""event"",""trial"",""time""
""fullscreenenter"",""1"",""1503""
""blur"",""7"",""24168""
""focus"",""7"",""24572""
","""event"",""trial"",""time""
""blur"",""7"",""24168""
","""event"",""trial"",""time""
""focus"",""7"",""24572""
","""event"",""trial"",""time""
""fullscreenenter"",""1"",""1503""
","
","","","1272.5999999642372","","","16","20964","2696","d","elianto","#3366ff99"," "," ","1","0","[2122.899999976158]","1","2","","","20964","63","1","1","win","go","1"
"pit-trial","182","1119476","0.0-68.0","battery-v0.2","","""event"",""trial"",""time""
""fullscreenenter"",""1"",""1503""
""blur"",""7"",""24168""
""focus"",""7"",""24572""
","""event"",""trial"",""time""
""blur"",""7"",""24168""
","""event"",""trial"",""time""
""focus"",""7"",""24572""
","""event"",""trial"",""time""
""fullscreenenter"",""1"",""1503""
","
","","","-1","","","16","20964","2696","e","elianto","#f73b6a7A","-1","-1","1","-10","[]","0","2","","","20964","64","2","4","lose","no-go","1"
"pit-trial","183","1122907","0.0-69.0","battery-v0.2","","""event"",""trial"",""time""
""fullscreenenter"",""1"",""1503""
""blur"",""7"",""24168""
""focus"",""7"",""24572""
","""event"",""trial"",""time""
""blur"",""7"",""24168""
","""event"",""trial"",""time""
""focus"",""7"",""24572""
","""event"",""trial"",""time""
""fullscreenenter"",""1"",""1503""
","
","","","576.6999999880791","","","16","20964","2696","e","elianto","#f73b6a7A","-1"," ","0","-10","[1428.0999999642372]","1","2","","","20964","65","2","4","lose","no-go","0"
"pit-trial","184","1126315","0.0-70.0","battery-v0.2","","""event"",""trial"",""time""
""fullscreenenter"",""1"",""1503""
""blur"",""7"",""24168""
""focus"",""7"",""24572""
","""event"",""trial"",""time""
""blur"",""7"",""24168""
","""event"",""trial"",""time""
""focus"",""7"",""24572""
","""event"",""trial"",""time""
""fullscreenenter"",""1"",""1503""
","
","","","552.5","","","16","20964","2696","s","elianto","#3366ff99","-1"," ","0","0","[1403.1000000238419]","1","2","","","20964","66","4","2","win","no-go","0"
"pit-trial","185","1129715","0.0-71.0","battery-v0.2","","""event"",""trial"",""time""
""fullscreenenter"",""1"",""1503""
""blur"",""7"",""24168""
""focus"",""7"",""24572""
","""event"",""trial"",""time""
""blur"",""7"",""24168""
","""event"",""trial"",""time""
""focus"",""7"",""24572""
","""event"",""trial"",""time""
""fullscreenenter"",""1"",""1503""
","
","","","545","","","16","20964","2696","d","elianto","#3366ff99"," "," ","1","+10","[1396.2000000476837]","1","2","","","20964","67","1","1","win","go","0"
"pit-trial","186","1133184","0.0-72.0","battery-v0.2","","""event"",""trial"",""time""
""fullscreenenter"",""1"",""1503""
""blur"",""7"",""24168""
