"trial_type","trial_index","time_elapsed","internal_node_id","task_version","subject_id","interactions","blur_events","focus_events","fullscreenenter_events","fullscreenexit_events","success","view_history","rt","responses","num_errors","age","subject","participantId","rune","rune_set","hex","correct","choice","accuracy","outcome","keys","total_keys","block","practice","value","sub","trial","stimulus","robot","valence","action","sham"
"pavlovia","0","23","0.0-0.0","battery-v0.2","","""event"",""trial"",""time""
""blur"",""1"",""61388""
""focus"",""1"",""62924""
""fullscreenenter"",""1"",""64026""
","""event"",""trial"",""time""
""blur"",""1"",""61388""
","""event"",""trial"",""time""
""focus"",""1"",""62924""
","""event"",""trial"",""time""
""fullscreenenter"",""1"",""64026""
","
","","","","","","","","","","","","","","","","","","","","","","","","","","",""
"fullscreen","1","64947","0.0-1.0","battery-v0.2","","""event"",""trial"",""time""
""blur"",""1"",""61388""
""focus"",""1"",""62924""
""fullscreenenter"",""1"",""64026""
","""event"",""trial"",""time""
""blur"",""1"",""61388""
","""event"",""trial"",""time""
""focus"",""1"",""62924""
","""event"",""trial"",""time""
""fullscreenenter"",""1"",""64026""
","
","true","","","","","","","","","","","","","","","","","","","","","","","","","",""
"pit-instructions","2","70054","0.0-2.0-0.0","battery-v0.2","","""event"",""trial"",""time""
""blur"",""1"",""61388""
""focus"",""1"",""62924""
""fullscreenenter"",""1"",""64026""
""blur"",""3"",""73583""
""focus"",""3"",""74367""
","""event"",""trial"",""time""
""blur"",""1"",""61388""
""blur"",""3"",""73583""
","""event"",""trial"",""time""
""focus"",""1"",""62924""
""focus"",""3"",""74367""
","""event"",""trial"",""time""
""fullscreenenter"",""1"",""64026""
","
","","[{""page_index"":0,""viewing_time"":5092.199999999953}]","5093.600000000093","","","","","","","","","","","","","","","","","","","","","","","",""
"pit-comprehension","3","74474","0.0-2.0-1.0-0.0","battery-v0.2","","""event"",""trial"",""time""
""blur"",""1"",""61388""
""focus"",""1"",""62924""
""fullscreenenter"",""1"",""64026""
""blur"",""3"",""73583""
""focus"",""3"",""74367""
","""event"",""trial"",""time""
""blur"",""1"",""61388""
""blur"",""3"",""73583""
","""event"",""trial"",""time""
""focus"",""1"",""62924""
""focus"",""3"",""74367""
","""event"",""trial"",""time""
""fullscreenenter"",""1"",""64026""
","
","","","4407.600000000093","[""shark""]","0","25","10860","1301","","","","","","","","","","","","","","","","","","",""
"pit-instructions","4","76219","0.0-2.0-1.0-1.0","battery-v0.2","","""event"",""trial"",""time""
""blur"",""1"",""61388""
""focus"",""1"",""62924""
""fullscreenenter"",""1"",""64026""
""blur"",""3"",""73583""
""focus"",""3"",""74367""
","""event"",""trial"",""time""
""blur"",""1"",""61388""
""blur"",""3"",""73583""
","""event"",""trial"",""time""
""focus"",""1"",""62924""
""focus"",""3"",""74367""
","""event"",""trial"",""time""
""fullscreenenter"",""1"",""64026""
","
","","[{""page_index"":0,""viewing_time"":1712.6000000000931}]","1713.4000000001397","","","","","","","","","","","","","","","","","","","","","","","",""
"pit-comprehension","5","78774","0.0-2.0-2.0-0.0","battery-v0.2","","""event"",""trial"",""time""
""blur"",""1"",""61388""
""focus"",""1"",""62924""
""fullscreenenter"",""1"",""64026""
""blur"",""3"",""73583""
""focus"",""3"",""74367""
","""event"",""trial"",""time""
""blur"",""1"",""61388""
""blur"",""3"",""73583""
","""event"",""trial"",""time""
""focus"",""1"",""62924""
""focus"",""3"",""74367""
","""event"",""trial"",""time""
""fullscreenenter"",""1"",""64026""
","
","","","2542","[""tiger""]","0","25","10860","1301","","","","","","","","","","","","","","","","","","",""
"pit-instructions","6","80256","0.0-2.0-2.0-1.0","battery-v0.2","","""event"",""trial"",""time""
""blur"",""1"",""61388""
""focus"",""1"",""62924""
""fullscreenenter"",""1"",""64026""
""blur"",""3"",""73583""
""focus"",""3"",""74367""
","""event"",""trial"",""time""
""blur"",""1"",""61388""
""blur"",""3"",""73583""
","""event"",""trial"",""time""
""focus"",""1"",""62924""
""focus"",""3"",""74367""
","""event"",""trial"",""time""
""fullscreenenter"",""1"",""64026""
","
","","[{""page_index"":0,""viewing_time"":1466.5999999998603}]","1467.8000000000466","","","","","","","","","","","","","","","","","","","","","","","",""
"pit-instructions","7","618964","0.0-2.0-3.0","battery-v0.2","","""event"",""trial"",""time""
""blur"",""1"",""61388""
""focus"",""1"",""62924""
""fullscreenenter"",""1"",""64026""
""blur"",""3"",""73583""
""focus"",""3"",""74367""
","""event"",""trial"",""time""
""blur"",""1"",""61388""
""blur"",""3"",""73583""
","""event"",""trial"",""time""
""focus"",""1"",""62924""
""focus"",""3"",""74367""
","""event"",""trial"",""time""
""fullscreenenter"",""1"",""64026""
","
","","[{""page_index"":0,""viewing_time"":10167.899999999907},{""page_index"":1,""viewing_time"":284805.30000000005},{""page_index"":2,""viewing_time"":6274.100000000093},{""page_index"":3,""viewing_time"":6961.699999999953},{""page_index"":4,""viewing_time"":7240.899999999907},{""page_index"":5,""viewing_time"":7646.199999999953},{""page_index"":6,""viewing_time"":13945.100000000093},{""page_index"":7,""viewing_time"":136716.19999999995},{""page_index"":8,""viewing_time"":9928.699999999953},{""page_index"":9,""viewing_time"":22829.700000000186},{""page_index"":10,""viewing_time"":9451.100000000093},{""page_index"":11,""viewing_time"":9111.399999999907},{""page_index"":12,""viewing_time"":7066.600000000093},{""page_index"":13,""viewing_time"":6555.199999999721}]","538701.0999999999","","","","","","","","","","","","","","","","","","","","","","","",""
"pit-trial","8","621940","0.0-2.0-4.0-0.0","battery-v0.2","","""event"",""trial"",""time""
""blur"",""1"",""61388""
""focus"",""1"",""62924""
""fullscreenenter"",""1"",""64026""
""blur"",""3"",""73583""
""focus"",""3"",""74367""
","""event"",""trial"",""time""
""blur"",""1"",""61388""
""blur"",""3"",""73583""
","""event"",""trial"",""time""
""focus"",""1"",""62924""
""focus"",""3"",""74367""
","""event"",""trial"",""time""
""fullscreenenter"",""1"",""64026""
","
","","","110.09999999962747","","","25","10860","1301","&#9784;","elianto","#FFFFF080"," "," ","1","&#10004","[963.7000000001863]","1","0","0","","","","","","","",""
"pit-trial","9","625230","0.0-2.0-4.1-0.1","battery-v0.2","","""event"",""trial"",""time""
""blur"",""1"",""61388""
""focus"",""1"",""62924""
""fullscreenenter"",""1"",""64026""
""blur"",""3"",""73583""
""focus"",""3"",""74367""
","""event"",""trial"",""time""
""blur"",""1"",""61388""
""blur"",""3"",""73583""
","""event"",""trial"",""time""
""focus"",""1"",""62924""
""focus"",""3"",""74367""
","""event"",""trial"",""time""
""fullscreenenter"",""1"",""64026""
","
","","","417.5","","","25","10860","1301","&#9784;","elianto","#FFFFF080"," "," ","1","&#10004","[1268.2000000001863]","1","0","0","","","","","","","",""
"pit-trial","10","628470","0.0-2.0-4.2-0.2","battery-v0.2","","""event"",""trial"",""time""
""blur"",""1"",""61388""
""focus"",""1"",""62924""
""fullscreenenter"",""1"",""64026""
""blur"",""3"",""73583""
""focus"",""3"",""74367""
","""event"",""trial"",""time""
""blur"",""1"",""61388""
""blur"",""3"",""73583""
","""event"",""trial"",""time""
""focus"",""1"",""62924""
""focus"",""3"",""74367""
","""event"",""trial"",""time""
""fullscreenenter"",""1"",""64026""
","
","","","374.39999999990687","","","25","10860","1301","&#9784;","elianto","#FFFFF080"," "," ","1","&#10004","[1227.2000000001863]","1","0","0","","","","","","","",""
"pit-trial","11","631576","0.0-2.0-4.3-0.3","battery-v0.2","","""event"",""trial"",""time""
""blur"",""1"",""61388""
""focus"",""1"",""62924""
""fullscreenenter"",""1"",""64026""
""blur"",""3"",""73583""
""focus"",""3"",""74367""
","""event"",""trial"",""time""
""blur"",""1"",""61388""
""blur"",""3"",""73583""
","""event"",""trial"",""time""
""focus"",""1"",""62924""
""focus"",""3"",""74367""
","""event"",""trial"",""time""
""fullscreenenter"",""1"",""64026""
","
","","","240.89999999990687","","","25","10860","1301","&#9784;","elianto","#FFFFF080"," "," ","1","&#10004","[1092.7999999998137]","1","0","0","","","","","","","",""
"pit-trial","12","634580","0.0-2.0-4.4-0.4","battery-v0.2","","""event"",""trial"",""time""
""blur"",""1"",""61388""
""focus"",""1"",""62924""
""fullscreenenter"",""1"",""64026""
""blur"",""3"",""73583""
""focus"",""3"",""74367""
","""event"",""trial"",""time""
""blur"",""1"",""61388""
""blur"",""3"",""73583""
","""event"",""trial"",""time""
""focus"",""1"",""62924""
""focus"",""3"",""74367""
","""event"",""trial"",""time""
""fullscreenenter"",""1"",""64026""
","
","","","145.39999999990687","","","25","10860","1301","&#9784;","elianto","#FFFFF080"," "," ","1","&#10004","[996]","1","0","0","","","","","","","",""
"pit-instructions","13","664387","0.0-2.0-5.0","battery-v0.2","","""event"",""trial"",""time""
""blur"",""1"",""61388""
""focus"",""1"",""62924""
""fullscreenenter"",""1"",""64026""
""blur"",""3"",""73583""
""focus"",""3"",""74367""
","""event"",""trial"",""time""
""blur"",""1"",""61388""
""blur"",""3"",""73583""
","""event"",""trial"",""time""
""focus"",""1"",""62924""
""focus"",""3"",""74367""
","""event"",""trial"",""time""
""fullscreenenter"",""1"",""64026""
","
","","[{""page_index"":0,""viewing_time"":5500.399999999907},{""page_index"":1,""viewing_time"":9214},{""page_index"":2,""viewing_time"":6145.600000000093},{""page_index"":3,""viewing_time"":8935.399999999907}]","29796.899999999907","","","","","","","","","","","","","","","","","","","","","","","",""
"pit-trial","14","669259","0.0-2.0-6.0-0.0","battery-v0.2","","""event"",""trial"",""time""
""blur"",""1"",""61388""
""focus"",""1"",""62924""
""fullscreenenter"",""1"",""64026""
""blur"",""3"",""73583""
""focus"",""3"",""74367""
","""event"",""trial"",""time""
""blur"",""1"",""61388""
""blur"",""3"",""73583""
","""event"",""trial"",""time""
""focus"",""1"",""62924""
""focus"",""3"",""74367""
","""event"",""trial"",""time""
""fullscreenenter"",""1"",""64026""
","
","","","-1","","","25","10860","1301","&#9854;","elianto","#FFFFF080","-1","-1","1","&#10004","[]","0","0","1","","","","","","","",""
"pit-trial","15","674126","0.0-2.0-6.1-0.1","battery-v0.2","","""event"",""trial"",""time""
""blur"",""1"",""61388""
""focus"",""1"",""62924""
""fullscreenenter"",""1"",""64026""
""blur"",""3"",""73583""
""focus"",""3"",""74367""
","""event"",""trial"",""time""
""blur"",""1"",""61388""
""blur"",""3"",""73583""
","""event"",""trial"",""time""
""focus"",""1"",""62924""
""focus"",""3"",""74367""
","""event"",""trial"",""time""
""fullscreenenter"",""1"",""64026""
","
","","","-1","","","25","10860","1301","&#9854;","elianto","#FFFFF080","-1","-1","1","&#10004","[]","0","0","1","","","","","","","",""
"pit-trial","16","678991","0.0-2.0-6.2-0.2","battery-v0.2","","""event"",""trial"",""time""
""blur"",""1"",""61388""
""focus"",""1"",""62924""
""fullscreenenter"",""1"",""64026""
""blur"",""3"",""73583""
""focus"",""3"",""74367""
","""event"",""trial"",""time""
""blur"",""1"",""61388""
""blur"",""3"",""73583""
","""event"",""trial"",""time""
""focus"",""1"",""62924""
""focus"",""3"",""74367""
","""event"",""trial"",""time""
""fullscreenenter"",""1"",""64026""
","
","","","-1","","","25","10860","1301","&#9854;","elianto","#FFFFF080","-1","-1","1","&#10004","[]","0","0","1","","","","","","","",""
"pit-trial","17","683852","0.0-2.0-6.3-0.3","battery-v0.2","","""event"",""trial"",""time""
""blur"",""1"",""61388""
""focus"",""1"",""62924""
""fullscreenenter"",""1"",""64026""
""blur"",""3"",""73583""
""focus"",""3"",""74367""
","""event"",""trial"",""time""
""blur"",""1"",""61388""
""blur"",""3"",""73583""
","""event"",""trial"",""time""
""focus"",""1"",""62924""
""focus"",""3"",""74367""
","""event"",""trial"",""time""
""fullscreenenter"",""1"",""64026""
","
","","","-1","","","25","10860","1301","&#9854;","elianto","#FFFFF080","-1","-1","1","&#10004","[]","0","0","1","","","","","","","",""
"pit-trial","18","688716","0.0-2.0-6.4-0.4","battery-v0.2","","""event"",""trial"",""time""
""blur"",""1"",""61388""
""focus"",""1"",""62924""
""fullscreenenter"",""1"",""64026""
""blur"",""3"",""73583""
""focus"",""3"",""74367""
","""event"",""trial"",""time""
""blur"",""1"",""61388""
""blur"",""3"",""73583""
","""event"",""trial"",""time""
""focus"",""1"",""62924""
""focus"",""3"",""74367""
","""event"",""trial"",""time""
""fullscreenenter"",""1"",""64026""
","
","","","-1","","","25","10860","1301","&#9854;","elianto","#FFFFF080","-1","-1","1","&#10004","[]","0","0","1","","","","","","","",""
"pit-instructions","19","889021","0.0-2.0-7.0","battery-v0.2","","""event"",""trial"",""time""
""blur"",""1"",""61388""
""focus"",""1"",""62924""
""fullscreenenter"",""1"",""64026""
""blur"",""3"",""73583""
""focus"",""3"",""74367""
","""event"",""trial"",""time""
""blur"",""1"",""61388""
""blur"",""3"",""73583""
","""event"",""trial"",""time""
""focus"",""1"",""62924""
""focus"",""3"",""74367""
","""event"",""trial"",""time""
""fullscreenenter"",""1"",""64026""
","
","","[{""page_index"":0,""viewing_time"":47503.10000000009},{""page_index"":1,""viewing_time"":9709.799999999814},{""page_index"":2,""viewing_time"":7162.9000000003725},{""page_index"":3,""viewing_time"":8669.899999999907},{""page_index"":4,""viewing_time"":8628.100000000093},{""page_index"":5,""viewing_time"":5681.899999999907},{""page_index"":6,""viewing_time"":6852.699999999721},{""page_index"":7,""viewing_time"":13917.600000000093},{""page_index"":8,""viewing_time"":8703.100000000093},{""page_index"":9,""viewing_time"":7490},{""page_index"":10,""viewing_time"":11786.899999999907},{""page_index"":11,""viewing_time"":6509.5},{""page_index"":12,""viewing_time"":8664.100000000093},{""page_index"":13,""viewing_time"":9060.100000000093},{""page_index"":14,""viewing_time"":10528.799999999814},{""page_index"":15,""viewing_time"":11679.899999999907},{""page_index"":16,""viewing_time"":9860.100000000093},{""page_index"":17,""viewing_time"":7885.899999999907}]","200295.6000000001","","","","","","","","","","","","","","","","","","","","","","","",""
"pit-trial","20","892800","0.0-2.0-8.0-0.0","battery-v0.2","","""event"",""trial"",""time""
""blur"",""1"",""61388""
""focus"",""1"",""62924""
""fullscreenenter"",""1"",""64026""
""blur"",""3"",""73583""
""focus"",""3"",""74367""
","""event"",""trial"",""time""
""blur"",""1"",""61388""
""blur"",""3"",""73583""
","""event"",""trial"",""time""
""focus"",""1"",""62924""
""focus"",""3"",""74367""
","""event"",""trial"",""time""
""fullscreenenter"",""1"",""64026""
","
","","","916.2999999998137","","","25","10860","1301","&#9776;","elianto","#3366ff99"," "," ","1","+10","[1768.6000000000931]","1","0","1","","","","","","","",""
"pit-trial","21","896209","0.0-2.0-8.0-1.0","battery-v0.2","","""event"",""trial"",""time""
""blur"",""1"",""61388""
""focus"",""1"",""62924""
""fullscreenenter"",""1"",""64026""
""blur"",""3"",""73583""
""focus"",""3"",""74367""
","""event"",""trial"",""time""
""blur"",""1"",""61388""
""blur"",""3"",""73583""
","""event"",""trial"",""time""
""focus"",""1"",""62924""
""focus"",""3"",""74367""
","""event"",""trial"",""time""
""fullscreenenter"",""1"",""64026""
","
","","","550","","","25","10860","1301","&#9776;","elianto","#3366ff99"," "," ","1","+10","[1403.1999999997206]","1","0","1","","","","","","","",""
"pit-trial","22","899480","0.0-2.0-8.0-2.0","battery-v0.2","","""event"",""trial"",""time""
""blur"",""1"",""61388""
""focus"",""1"",""62924""
""fullscreenenter"",""1"",""64026""
""blur"",""3"",""73583""
""focus"",""3"",""74367""
","""event"",""trial"",""time""
""blur"",""1"",""61388""
""blur"",""3"",""73583""
","""event"",""trial"",""time""
""focus"",""1"",""62924""
""focus"",""3"",""74367""
","""event"",""trial"",""time""
""fullscreenenter"",""1"",""64026""
","
","","","407","","","25","10860","1301","&#9776;","elianto","#3366ff99"," "," ","1","+10","[1259.1999999997206]","1","0","1","","","","","","","",""
"pit-trial","23","902749","0.0-2.0-8.0-3.0","battery-v0.2","","""event"",""trial"",""time""
""blur"",""1"",""61388""
""focus"",""1"",""62924""
""fullscreenenter"",""1"",""64026""
""blur"",""3"",""73583""
""focus"",""3"",""74367""
","""event"",""trial"",""time""
""blur"",""1"",""61388""
""blur"",""3"",""73583""
","""event"",""trial"",""time""
""focus"",""1"",""62924""
""focus"",""3"",""74367""
","""event"",""trial"",""time""
""fullscreenenter"",""1"",""64026""
","
","","","410.79999999981374","","","25","10860","1301","&#9776;","elianto","#3366ff99"," "," ","1","0","[1261.1999999997206]","1","0","1","","","","","","","",""
"pit-trial","24","905810","0.0-2.0-8.0-4.0","battery-v0.2","","""event"",""trial"",""time""
""blur"",""1"",""61388""
""focus"",""1"",""62924""
""fullscreenenter"",""1"",""64026""
""blur"",""3"",""73583""
""focus"",""3"",""74367""
","""event"",""trial"",""time""
""blur"",""1"",""61388""
""blur"",""3"",""73583""
","""event"",""trial"",""time""
""focus"",""1"",""62924""
""focus"",""3"",""74367""
","""event"",""trial"",""time""
""fullscreenenter"",""1"",""64026""
","
","","","201.3000000002794","","","25","10860","1301","&#9776;","elianto","#3366ff99"," "," ","1","+10","[1053.1999999997206]","1","0","1","","","","","","","",""
"pit-trial","25","908801","0.0-2.0-8.1-0.1","battery-v0.2","","""event"",""trial"",""time""
""blur"",""1"",""61388""
""focus"",""1"",""62924""
""fullscreenenter"",""1"",""64026""
""blur"",""3"",""73583""
""focus"",""3"",""74367""
","""event"",""trial"",""time""
""blur"",""1"",""61388""
""blur"",""3"",""73583""
","""event"",""trial"",""time""
""focus"",""1"",""62924""
""focus"",""3"",""74367""
","""event"",""trial"",""time""
""fullscreenenter"",""1"",""64026""
","
","","","125.8000000002794","","","25","10860","1301","&#9776;","elianto","#3366ff99"," "," ","1","+10","[980.7000000001863]","1","0","1","","","","","","","",""
"pit-trial","26","911890","0.0-2.0-8.1-1.1","battery-v0.2","","""event"",""trial"",""time""
""blur"",""1"",""61388""
""focus"",""1"",""62924""
""fullscreenenter"",""1"",""64026""
""blur"",""3"",""73583""
""focus"",""3"",""74367""
","""event"",""trial"",""time""
""blur"",""1"",""61388""
""blur"",""3"",""73583""
","""event"",""trial"",""time""
""focus"",""1"",""62924""
""focus"",""3"",""74367""
","""event"",""trial"",""time""
""fullscreenenter"",""1"",""64026""
","
","","","230.60000000009313","","","25","10860","1301","&#9776;","elianto","#3366ff99"," "," ","1","+10","[1082]","1","0","1","","","","","","","",""
"pit-trial","27","914977","0.0-2.0-8.1-2.1","battery-v0.2","","""event"",""trial"",""time""
""blur"",""1"",""61388""
""focus"",""1"",""62924""
""fullscreenenter"",""1"",""64026""
""blur"",""3"",""73583""
""focus"",""3"",""74367""
","""event"",""trial"",""time""
""blur"",""1"",""61388""
""blur"",""3"",""73583""
","""event"",""trial"",""time""
""focus"",""1"",""62924""
""focus"",""3"",""74367""
","""event"",""trial"",""time""
""fullscreenenter"",""1"",""64026""
","
","","","229.70000000018626","","","25","10860","1301","&#9776;","elianto","#3366ff99"," "," ","1","+10","[1081.2000000001863]","1","0","1","","","","","","","",""
"pit-trial","28","918321","0.0-2.0-8.1-3.1","battery-v0.2","","""event"",""trial"",""time""
""blur"",""1"",""61388""
""focus"",""1"",""62924""
""fullscreenenter"",""1"",""64026""
""blur"",""3"",""73583""
""focus"",""3"",""74367""
","""event"",""trial"",""time""
""blur"",""1"",""61388""
""blur"",""3"",""73583""
","""event"",""trial"",""time""
""focus"",""1"",""62924""
""focus"",""3"",""74367""
","""event"",""trial"",""time""
""fullscreenenter"",""1"",""64026""
","
","","","490.1999999997206","","","25","10860","1301","&#9776;","elianto","#3366ff99"," "," ","1","0","[1340.2000000001863]","1","0","1","","","","","","","",""
"pit-trial","29","921532","0.0-2.0-8.1-4.1","battery-v0.2","","""event"",""trial"",""time""
""blur"",""1"",""61388""
""focus"",""1"",""62924""
""fullscreenenter"",""1"",""64026""
""blur"",""3"",""73583""
""focus"",""3"",""74367""
","""event"",""trial"",""time""
""blur"",""1"",""61388""
""blur"",""3"",""73583""
","""event"",""trial"",""time""
""focus"",""1"",""62924""
""focus"",""3"",""74367""
","""event"",""trial"",""time""
""fullscreenenter"",""1"",""64026""
","
","","","353.89999999990687","","","25","10860","1301","&#9776;","elianto","#3366ff99"," "," ","1","+10","[1205.7000000001863,2914.100000000093]","2","0","1","","","","","","","",""
"pit-trial","30","924958","0.0-2.0-8.2-0.2","battery-v0.2","","""event"",""trial"",""time""
""blur"",""1"",""61388""
""focus"",""1"",""62924""
""fullscreenenter"",""1"",""64026""
""blur"",""3"",""73583""
""focus"",""3"",""74367""
","""event"",""trial"",""time""
""blur"",""1"",""61388""
""blur"",""3"",""73583""
","""event"",""trial"",""time""
""focus"",""1"",""62924""
""focus"",""3"",""74367""
","""event"",""trial"",""time""
""fullscreenenter"",""1"",""64026""
","
","","","565.3000000002794","","","25","10860","1301","&#9776;","elianto","#3366ff99"," "," ","1","+10","[1416]","1","0","1","","","","","","","",""
"pit-trial","31","928195","0.0-2.0-8.2-1.2","battery-v0.2","","""event"",""trial"",""time""
""blur"",""1"",""61388""
""focus"",""1"",""62924""
""fullscreenenter"",""1"",""64026""
""blur"",""3"",""73583""
""focus"",""3"",""74367""
","""event"",""trial"",""time""
""blur"",""1"",""61388""
""blur"",""3"",""73583""
","""event"",""trial"",""time""
""focus"",""1"",""62924""
""focus"",""3"",""74367""
","""event"",""trial"",""time""
""fullscreenenter"",""1"",""64026""
","
","","","371.39999999990687","","","25","10860","1301","&#9776;","elianto","#3366ff99"," "," ","1","+10","[1224]","1","0","1","","","","","","","",""
"pit-trial","32","931407","0.0-2.0-8.2-2.2","battery-v0.2","","""event"",""trial"",""time""
""blur"",""1"",""61388""
""focus"",""1"",""62924""
""fullscreenenter"",""1"",""64026""
""blur"",""3"",""73583""
""focus"",""3"",""74367""
","""event"",""trial"",""time""
""blur"",""1"",""61388""
""blur"",""3"",""73583""
","""event"",""trial"",""time""
""focus"",""1"",""62924""
""focus"",""3"",""74367""
","""event"",""trial"",""time""
""fullscreenenter"",""1"",""64026""
","
","","","354","","","25","10860","1301","&#9776;","elianto","#3366ff99"," "," ","1","+10","[1206.8000000002794]","1","0","1","","","","","","","",""
"pit-trial","33","934645","0.0-2.0-8.2-3.2","battery-v0.2","","""event"",""trial"",""time""
""blur"",""1"",""61388""
""focus"",""1"",""62924""
""fullscreenenter"",""1"",""64026""
""blur"",""3"",""73583""
""focus"",""3"",""74367""
","""event"",""trial"",""time""
""blur"",""1"",""61388""
""blur"",""3"",""73583""
","""event"",""trial"",""time""
""focus"",""1"",""62924""
""focus"",""3"",""74367""
","""event"",""trial"",""time""
""fullscreenenter"",""1"",""64026""
","
","","","370.79999999981374","","","25","10860","1301","&#9776;","elianto","#3366ff99"," "," ","1","0","[1223.7999999998137]","1","0","1","","","","","","","",""
"pit-trial","34","937893","0.0-2.0-8.2-4.2","battery-v0.2","","""event"",""trial"",""time""
""blur"",""1"",""61388""
""focus"",""1"",""62924""
""fullscreenenter"",""1"",""64026""
""blur"",""3"",""73583""
""focus"",""3"",""74367""
","""event"",""trial"",""time""
""blur"",""1"",""61388""
""blur"",""3"",""73583""
","""event"",""trial"",""time""
""focus"",""1"",""62924""
""focus"",""3"",""74367""
","""event"",""trial"",""time""
""fullscreenenter"",""1"",""64026""
","
","","","380.89999999990687","","","25","10860","1301","&#9776;","elianto","#3366ff99"," "," ","1","+10","[1233]","1","0","1","","","","","","","",""
"call-function","35","937899","0.0-2.0-9.0","battery-v0.2","","""event"",""trial"",""time""
""blur"",""1"",""61388""
""focus"",""1"",""62924""
""fullscreenenter"",""1"",""64026""
""blur"",""3"",""73583""
""focus"",""3"",""74367""
","""event"",""trial"",""time""
""blur"",""1"",""61388""
""blur"",""3"",""73583""
","""event"",""trial"",""time""
""focus"",""1"",""62924""
""focus"",""3"",""74367""
","""event"",""trial"",""time""
""fullscreenenter"",""1"",""64026""
","
","","","","","","","","","","","","","","","","","","","","","","","","","","",""
"pit-instructions","36","1059727","0.0-2.0-10.0","battery-v0.2","","""event"",""trial"",""time""
""blur"",""1"",""61388""
""focus"",""1"",""62924""
""fullscreenenter"",""1"",""64026""
""blur"",""3"",""73583""
""focus"",""3"",""74367""
","""event"",""trial"",""time""
""blur"",""1"",""61388""
""blur"",""3"",""73583""
","""event"",""trial"",""time""
""focus"",""1"",""62924""
""focus"",""3"",""74367""
","""event"",""trial"",""time""
""fullscreenenter"",""1"",""64026""
","
","","[{""page_index"":0,""viewing_time"":7040.299999999814},{""page_index"":1,""viewing_time"":8020.4000000003725},{""page_index"":2,""viewing_time"":80903.69999999972},{""page_index"":3,""viewing_time"":14501.100000000093},{""page_index"":4,""viewing_time"":11360}]","121825.8999999999","","","","","","","","","","","","","","","","","","","","","","","",""
"pit-trial","37","1063666","0.0-2.0-11.0-0.0","battery-v0.2","","""event"",""trial"",""time""
""blur"",""1"",""61388""
""focus"",""1"",""62924""
""fullscreenenter"",""1"",""64026""
""blur"",""3"",""73583""
""focus"",""3"",""74367""
","""event"",""trial"",""time""
""blur"",""1"",""61388""
""blur"",""3"",""73583""
","""event"",""trial"",""time""
""focus"",""1"",""62924""
""focus"",""3"",""74367""
","""event"",""trial"",""time""
""fullscreenenter"",""1"",""64026""
","
","","","1076.7000000001863","","","25","10860","1301","&#9761;","elianto","#3366ff99","-1"," ","0","0","[1928.7999999998137]","1","0","2","","","","","","","",""
"pit-trial","38","1066936","0.0-2.0-11.0-1.0","battery-v0.2","","""event"",""trial"",""time""
""blur"",""1"",""61388""
""focus"",""1"",""62924""
""fullscreenenter"",""1"",""64026""
""blur"",""3"",""73583""
""focus"",""3"",""74367""
","""event"",""trial"",""time""
""blur"",""1"",""61388""
""blur"",""3"",""73583""
","""event"",""trial"",""time""
""focus"",""1"",""62924""
""focus"",""3"",""74367""
","""event"",""trial"",""time""
""fullscreenenter"",""1"",""64026""
","
","","","407.89999999990687","","","25","10860","1301","&#9761;","elianto","#3366ff99","-1"," ","0","0","[1259]","1","0","2","","","","","","","",""
"pit-trial","39","1070035","0.0-2.0-11.0-2.0","battery-v0.2","","""event"",""trial"",""time""
""blur"",""1"",""61388""
""focus"",""1"",""62924""
""fullscreenenter"",""1"",""64026""
""blur"",""3"",""73583""
""focus"",""3"",""74367""
","""event"",""trial"",""time""
""blur"",""1"",""61388""
""blur"",""3"",""73583""
","""event"",""trial"",""time""
""focus"",""1"",""62924""
""focus"",""3"",""74367""
","""event"",""trial"",""time""
""fullscreenenter"",""1"",""64026""
","
","","","238.29999999981374","","","25","10860","1301","&#9761;","elianto","#3366ff99","-1"," ","0","0","[1089.1999999997206]","1","0","2","","","","","","","",""
"pit-trial","40","1073106","0.0-2.0-11.0-3.0","battery-v0.2","","""event"",""trial"",""time""
""blur"",""1"",""61388""
""focus"",""1"",""62924""
""fullscreenenter"",""1"",""64026""
""blur"",""3"",""73583""
""focus"",""3"",""74367""
","""event"",""trial"",""time""
""blur"",""1"",""61388""
""blur"",""3"",""73583""
","""event"",""trial"",""time""
""focus"",""1"",""62924""
""focus"",""3"",""74367""
","""event"",""trial"",""time""
""fullscreenenter"",""1"",""64026""
","
","","","204.5","","","25","10860","1301","&#9761;","elianto","#3366ff99","-1"," ","0","+10","[1055.8999999999069]","1","0","2","","","","","","","",""
"pit-trial","41","1076164","0.0-2.0-11.0-4.0","battery-v0.2","","""event"",""trial"",""time""
""blur"",""1"",""61388""
""focus"",""1"",""62924""
""fullscreenenter"",""1"",""64026""
""blur"",""3"",""73583""
""focus"",""3"",""74367""
","""event"",""trial"",""time""
""blur"",""1"",""61388""
""blur"",""3"",""73583""
","""event"",""trial"",""time""
""focus"",""1"",""62924""
""focus"",""3"",""74367""
","""event"",""trial"",""time""
""fullscreenenter"",""1"",""64026""
","
","","","198.20000000018626","","","25","10860","1301","&#9761;","elianto","#3366ff99","-1"," ","0","0","[1049.2999999998137]","1","0","2","","","","","","","",""
"pit-trial","42","1079326","0.0-2.0-11.1-0.1","battery-v0.2","","""event"",""trial"",""time""
""blur"",""1"",""61388""
""focus"",""1"",""62924""
""fullscreenenter"",""1"",""64026""
""blur"",""3"",""73583""
""focus"",""3"",""74367""
","""event"",""trial"",""time""
""blur"",""1"",""61388""
""blur"",""3"",""73583""
","""event"",""trial"",""time""
""focus"",""1"",""62924""
""focus"",""3"",""74367""
","""event"",""trial"",""time""
""fullscreenenter"",""1"",""64026""
","
","","","301.6999999997206","","","25","10860","1301","&#9761;","elianto","#3366ff99","-1"," ","0","0","[1156.1999999997206]","1","0","2","","","","","","","",""
"pit-trial","43","1082606","0.0-2.0-11.1-1.1","battery-v0.2","","""event"",""trial"",""time""
""blur"",""1"",""61388""
""focus"",""1"",""62924""
""fullscreenenter"",""1"",""64026""
""blur"",""3"",""73583""
""focus"",""3"",""74367""
","""event"",""trial"",""time""
""blur"",""1"",""61388""
""blur"",""3"",""73583""
","""event"",""trial"",""time""
""focus"",""1"",""62924""
""focus"",""3"",""74367""
","""event"",""trial"",""time""
""fullscreenenter"",""1"",""64026""
","
","","","417.89999999990687","","","25","10860","1301","&#9761;","elianto","#3366ff99","-1"," ","0","0","[1270.1000000000931]","1","0","2","","","","","","","",""
"pit-trial","44","1085876","0.0-2.0-11.1-2.1","battery-v0.2","","""event"",""trial"",""time""
""blur"",""1"",""61388""
""focus"",""1"",""62924""
""fullscreenenter"",""1"",""64026""
""blur"",""3"",""73583""
""focus"",""3"",""74367""
","""event"",""trial"",""time""
""blur"",""1"",""61388""
""blur"",""3"",""73583""
","""event"",""trial"",""time""
""focus"",""1"",""62924""
""focus"",""3"",""74367""
","""event"",""trial"",""time""
""fullscreenenter"",""1"",""64026""
","
","","","409.6999999997206","","","25","10860","1301","&#9761;","elianto","#3366ff99","-1"," ","0","0","[1261.1999999997206]","1","0","2","","","","","","","",""
"pit-trial","45","1088946","0.0-2.0-11.1-3.1","battery-v0.2","","""event"",""trial"",""time""
""blur"",""1"",""61388""
""focus"",""1"",""62924""
""fullscreenenter"",""1"",""64026""
""blur"",""3"",""73583""
""focus"",""3"",""74367""
","""event"",""trial"",""time""
""blur"",""1"",""61388""
""blur"",""3"",""73583""
","""event"",""trial"",""time""
""focus"",""1"",""62924""
""focus"",""3"",""74367""
","""event"",""trial"",""time""
""fullscreenenter"",""1"",""64026""
","
","","","210.79999999981374","","","25","10860","1301","&#9761;","elianto","#3366ff99","-1"," ","0","+10","[1063.3000000002794]","1","0","2","","","","","","","",""
"pit-trial","46","1091957","0.0-2.0-11.1-4.1","battery-v0.2","","""event"",""trial"",""time""
""blur"",""1"",""61388""
""focus"",""1"",""62924""
""fullscreenenter"",""1"",""64026""
""blur"",""3"",""73583""
""focus"",""3"",""74367""
","""event"",""trial"",""time""
""blur"",""1"",""61388""
""blur"",""3"",""73583""
","""event"",""trial"",""time""
""focus"",""1"",""62924""
""focus"",""3"",""74367""
","""event"",""trial"",""time""
""fullscreenenter"",""1"",""64026""
","
","","","143.70000000018626","","","25","10860","1301","&#9761;","elianto","#3366ff99","-1"," ","0","0","[995.8999999999069]","1","0","2","","","","","","","",""
"pit-trial","47","1094932","0.0-2.0-11.2-0.2","battery-v0.2","","""event"",""trial"",""time""
""blur"",""1"",""61388""
""focus"",""1"",""62924""
""fullscreenenter"",""1"",""64026""
""blur"",""3"",""73583""
""focus"",""3"",""74367""
","""event"",""trial"",""time""
""blur"",""1"",""61388""
""blur"",""3"",""73583""
","""event"",""trial"",""time""
""focus"",""1"",""62924""
""focus"",""3"",""74367""
","""event"",""trial"",""time""
""fullscreenenter"",""1"",""64026""
","
","","","110.5","","","25","10860","1301","&#9761;","elianto","#3366ff99","-1"," ","0","0","[961.6000000000931]","1","0","2","","","","","","","",""
"pit-trial","48","1098271","0.0-2.0-11.2-1.2","battery-v0.2","","""event"",""trial"",""time""
""blur"",""1"",""61388""
""focus"",""1"",""62924""
""fullscreenenter"",""1"",""64026""
""blur"",""3"",""73583""
""focus"",""3"",""74367""
","""event"",""trial"",""time""
""blur"",""1"",""61388""
""blur"",""3"",""73583""
","""event"",""trial"",""time""
""focus"",""1"",""62924""
""focus"",""3"",""74367""
","""event"",""trial"",""time""
""fullscreenenter"",""1"",""64026""
","
","","","470.09999999962747","","","25","10860","1301","&#9761;","elianto","#3366ff99","-1"," ","0","0","[1322.8999999999069]","1","0","2","","","","","","","",""
"pit-trial","49","1101583","0.0-2.0-11.2-2.2","battery-v0.2","","""event"",""trial"",""time""
""blur"",""1"",""61388""
""focus"",""1"",""62924""
""fullscreenenter"",""1"",""64026""
""blur"",""3"",""73583""
""focus"",""3"",""74367""
","""event"",""trial"",""time""
""blur"",""1"",""61388""
""blur"",""3"",""73583""
","""event"",""trial"",""time""
""focus"",""1"",""62924""
""focus"",""3"",""74367""
","""event"",""trial"",""time""
""fullscreenenter"",""1"",""64026""
","
","","","453.39999999990687","","","25","10860","1301","&#9761;","elianto","#3366ff99","-1"," ","0","0","[1306.3999999999069]","1","0","2","","","","","","","",""
"pit-trial","50","1104891","0.0-2.0-11.2-3.2","battery-v0.2","","""event"",""trial"",""time""
""blur"",""1"",""61388""
""focus"",""1"",""62924""
""fullscreenenter"",""1"",""64026""
""blur"",""3"",""73583""
""focus"",""3"",""74367""
","""event"",""trial"",""time""
""blur"",""1"",""61388""
""blur"",""3"",""73583""
","""event"",""trial"",""time""
""focus"",""1"",""62924""
""focus"",""3"",""74367""
","""event"",""trial"",""time""
""fullscreenenter"",""1"",""64026""
","
","","","449.5","","","25","10860","1301","&#9761;","elianto","#3366ff99","-1"," ","0","+10","[1301.7000000001863]","1","0","2","","","","","","","",""
"pit-trial","51","1108033","0.0-2.0-11.2-4.2","battery-v0.2","","""event"",""trial"",""time""
""blur"",""1"",""61388""
""focus"",""1"",""62924""
""fullscreenenter"",""1"",""64026""
""blur"",""3"",""73583""
""focus"",""3"",""74367""
","""event"",""trial"",""time""
""blur"",""1"",""61388""
""blur"",""3"",""73583""
","""event"",""trial"",""time""
""focus"",""1"",""62924""
""focus"",""3"",""74367""
","""event"",""trial"",""time""
""fullscreenenter"",""1"",""64026""
","
","","","277.3000000002794","","","25","10860","1301","&#9761;","elianto","#3366ff99","-1"," ","0","0","[1128.2999999998137]","1","0","2","","","","","","","",""
"pit-trial","52","1111210","0.0-2.0-11.3-0.3","battery-v0.2","","""event"",""trial"",""time""
""blur"",""1"",""61388""
""focus"",""1"",""62924""
""fullscreenenter"",""1"",""64026""
""blur"",""3"",""73583""
""focus"",""3"",""74367""
","""event"",""trial"",""time""
""blur"",""1"",""61388""
""blur"",""3"",""73583""
","""event"",""trial"",""time""
""focus"",""1"",""62924""
""focus"",""3"",""74367""
","""event"",""trial"",""time""
""fullscreenenter"",""1"",""64026""
","
","","","302.40000000037253","","","25","10860","1301","&#9761;","elianto","#3366ff99","-1"," ","0","0","[1158]","1","0","2","","","","","","","",""
"pit-trial","53","1114238","0.0-2.0-11.3-1.3","battery-v0.2","","""event"",""trial"",""time""
""blur"",""1"",""61388""
""focus"",""1"",""62924""
""fullscreenenter"",""1"",""64026""
""blur"",""3"",""73583""
""focus"",""3"",""74367""
","""event"",""trial"",""time""
""blur"",""1"",""61388""
""blur"",""3"",""73583""
","""event"",""trial"",""time""
""focus"",""1"",""62924""
""focus"",""3"",""74367""
","""event"",""trial"",""time""
""fullscreenenter"",""1"",""64026""
","
","","","165.79999999981374","","","25","10860","1301","&#9761;","elianto","#3366ff99","-1"," ","0","0","[1017.2999999998137]","1","0","2","","","","","","","",""
"pit-trial","54","1117414","0.0-2.0-11.3-2.3","battery-v0.2","","""event"",""trial"",""time""
""blur"",""1"",""61388""
""focus"",""1"",""62924""
""fullscreenenter"",""1"",""64026""
""blur"",""3"",""73583""
""focus"",""3"",""74367""
","""event"",""trial"",""time""
""blur"",""1"",""61388""
""blur"",""3"",""73583""
","""event"",""trial"",""time""
""focus"",""1"",""62924""
""focus"",""3"",""74367""
","""event"",""trial"",""time""
""fullscreenenter"",""1"",""64026""
","
","","","313.8000000002794","","","25","10860","1301","&#9761;","elianto","#3366ff99","-1"," ","0","0","[1167.5]","1","0","2","","","","","","","",""
"pit-trial","55","1120365","0.0-2.0-11.3-3.3","battery-v0.2","","""event"",""trial"",""time""
""blur"",""1"",""61388""
""focus"",""1"",""62924""
""fullscreenenter"",""1"",""64026""
""blur"",""3"",""73583""
""focus"",""3"",""74367""
","""event"",""trial"",""time""
""blur"",""1"",""61388""
""blur"",""3"",""73583""
","""event"",""trial"",""time""
""focus"",""1"",""62924""
""focus"",""3"",""74367""
","""event"",""trial"",""time""
""fullscreenenter"",""1"",""64026""
","
","","","87.39999999990687","","","25","10860","1301","&#9761;","elianto","#3366ff99","-1"," ","0","+10","[939.3999999999069]","1","0","2","","","","","","","",""
"pit-trial","56","1123269","0.0-2.0-11.3-4.3","battery-v0.2","","""event"",""trial"",""time""
""blur"",""1"",""61388""
""focus"",""1"",""62924""
""fullscreenenter"",""1"",""64026""
""blur"",""3"",""73583""
""focus"",""3"",""74367""
","""event"",""trial"",""time""
""blur"",""1"",""61388""
""blur"",""3"",""73583""
","""event"",""trial"",""time""
""focus"",""1"",""62924""
""focus"",""3"",""74367""
","""event"",""trial"",""time""
""fullscreenenter"",""1"",""64026""
","
","","","42.39999999990687","","","25","10860","1301","&#9761;","elianto","#3366ff99","-1"," ","0","0","[895]","1","0","2","","","","","","","",""
"call-function","57","1123276","0.0-2.0-12.0","battery-v0.2","","""event"",""trial"",""time""
""blur"",""1"",""61388""
""focus"",""1"",""62924""
""fullscreenenter"",""1"",""64026""
""blur"",""3"",""73583""
""focus"",""3"",""74367""
","""event"",""trial"",""time""
""blur"",""1"",""61388""
""blur"",""3"",""73583""
","""event"",""trial"",""time""
""focus"",""1"",""62924""
""focus"",""3"",""74367""
","""event"",""trial"",""time""
""fullscreenenter"",""1"",""64026""
","
","","","","","","","","","","","","","","","","","","","","","","","","","","",""
"pit-instructions","58","1168698","0.0-2.0-13.0","battery-v0.2","","""event"",""trial"",""time""
""blur"",""1"",""61388""
""focus"",""1"",""62924""
""fullscreenenter"",""1"",""64026""
""blur"",""3"",""73583""
""focus"",""3"",""74367""
","""event"",""trial"",""time""
""blur"",""1"",""61388""
""blur"",""3"",""73583""
","""event"",""trial"",""time""
""focus"",""1"",""62924""
""focus"",""3"",""74367""
","""event"",""trial"",""time""
""fullscreenenter"",""1"",""64026""
","
","","[{""page_index"":0,""viewing_time"":8026.700000000186},{""page_index"":1,""viewing_time"":11154.19999999972},{""page_index"":2,""viewing_time"":4784.300000000279},{""page_index"":3,""viewing_time"":13919.899999999907},{""page_index"":4,""viewing_time"":7533.200000000186}]","45419.80000000028","","","","","","","","","","","","","","","","","","","","","","","",""
"pit-trial","59","1172968","0.0-2.0-14.0-0.0","battery-v0.2","","""event"",""trial"",""time""
""blur"",""1"",""61388""
""focus"",""1"",""62924""
""fullscreenenter"",""1"",""64026""
""blur"",""3"",""73583""
""focus"",""3"",""74367""
","""event"",""trial"",""time""
""blur"",""1"",""61388""
""blur"",""3"",""73583""
","""event"",""trial"",""time""
""focus"",""1"",""62924""
""focus"",""3"",""74367""
","""event"",""trial"",""time""
""fullscreenenter"",""1"",""64026""
","
","","","1401","","","25","10860","1301","&#9826;","elianto","#f73b6a7A","-1"," ","0","-10","[2254]","1","0","3","","","","","","","",""
"pit-trial","60","1177838","0.0-2.0-14.0-1.0","battery-v0.2","","""event"",""trial"",""time""
""blur"",""1"",""61388""
""focus"",""1"",""62924""
""fullscreenenter"",""1"",""64026""
""blur"",""3"",""73583""
""focus"",""3"",""74367""
","""event"",""trial"",""time""
""blur"",""1"",""61388""
""blur"",""3"",""73583""
","""event"",""trial"",""time""
""focus"",""1"",""62924""
""focus"",""3"",""74367""
","""event"",""trial"",""time""
""fullscreenenter"",""1"",""64026""
","
","","","-1","","","25","10860","1301","&#9826;","elianto","#f73b6a7A","-1","-1","1","0","[]","0","0","3","","","","","","","",""
"pit-trial","61","1182706","0.0-2.0-14.0-2.0","battery-v0.2","","""event"",""trial"",""time""
""blur"",""1"",""61388""
""focus"",""1"",""62924""
""fullscreenenter"",""1"",""64026""
""blur"",""3"",""73583""
""focus"",""3"",""74367""
","""event"",""trial"",""time""
""blur"",""1"",""61388""
""blur"",""3"",""73583""
","""event"",""trial"",""time""
""focus"",""1"",""62924""
""focus"",""3"",""74367""
","""event"",""trial"",""time""
""fullscreenenter"",""1"",""64026""
","
","","","-1","","","25","10860","1301","&#9826;","elianto","#f73b6a7A","-1","-1","1","0","[]","0","0","3","","","","","","","",""
"pit-trial","62","1187575","0.0-2.0-14.0-3.0","battery-v0.2","","""event"",""trial"",""time""
""blur"",""1"",""61388""
""focus"",""1"",""62924""
""fullscreenenter"",""1"",""64026""
""blur"",""3"",""73583""
""focus"",""3"",""74367""
","""event"",""trial"",""time""
""blur"",""1"",""61388""
""blur"",""3"",""73583""
","""event"",""trial"",""time""
""focus"",""1"",""62924""
""focus"",""3"",""74367""
","""event"",""trial"",""time""
""fullscreenenter"",""1"",""64026""
","
","","","-1","","","25","10860","1301","&#9826;","elianto","#f73b6a7A","-1","-1","1","-10","[]","0","0","3","","","","","","","",""
"pit-trial","63","1192448","0.0-2.0-14.0-4.0","battery-v0.2","","""event"",""trial"",""time""
""blur"",""1"",""61388""
""focus"",""1"",""62924""
""fullscreenenter"",""1"",""64026""
""blur"",""3"",""73583""
""focus"",""3"",""74367""
","""event"",""trial"",""time""
""blur"",""1"",""61388""
""blur"",""3"",""73583""
","""event"",""trial"",""time""
""focus"",""1"",""62924""
""focus"",""3"",""74367""
","""event"",""trial"",""time""
""fullscreenenter"",""1"",""64026""
","
","","","-1","","","25","10860","1301","&#9826;","elianto","#f73b6a7A","-1","-1","1","0","[]","0","0","3","","","","","","","",""
"pit-trial","64","1197311","0.0-2.0-14.1-0.1","battery-v0.2","","""event"",""trial"",""time""
""blur"",""1"",""61388""
""focus"",""1"",""62924""
""fullscreenenter"",""1"",""64026""
""blur"",""3"",""73583""
""focus"",""3"",""74367""
","""event"",""trial"",""time""
""blur"",""1"",""61388""
""blur"",""3"",""73583""
","""event"",""trial"",""time""
""focus"",""1"",""62924""
""focus"",""3"",""74367""
","""event"",""trial"",""time""
""fullscreenenter"",""1"",""64026""
","
","","","-1","","","25","10860","1301","&#9826;","elianto","#f73b6a7A","-1","-1","1","0","[]","0","0","3","","","","","","","",""
"pit-trial","65","1202183","0.0-2.0-14.1-1.1","battery-v0.2","","""event"",""trial"",""time""
""blur"",""1"",""61388""
""focus"",""1"",""62924""
""fullscreenenter"",""1"",""64026""
""blur"",""3"",""73583""
""focus"",""3"",""74367""
","""event"",""trial"",""time""
""blur"",""1"",""61388""
""blur"",""3"",""73583""
","""event"",""trial"",""time""
""focus"",""1"",""62924""
""focus"",""3"",""74367""
","""event"",""trial"",""time""
""fullscreenenter"",""1"",""64026""
","
","","","-1","","","25","10860","1301","&#9826;","elianto","#f73b6a7A","-1","-1","1","0","[]","0","0","3","","","","","","","",""
"pit-trial","66","1207045","0.0-2.0-14.1-2.1","battery-v0.2","","""event"",""trial"",""time""
""blur"",""1"",""61388""
""focus"",""1"",""62924""
""fullscreenenter"",""1"",""64026""
""blur"",""3"",""73583""
""focus"",""3"",""74367""
","""event"",""trial"",""time""
""blur"",""1"",""61388""
""blur"",""3"",""73583""
","""event"",""trial"",""time""
""focus"",""1"",""62924""
""focus"",""3"",""74367""
","""event"",""trial"",""time""
""fullscreenenter"",""1"",""64026""
","
","","","-1","","","25","10860","1301","&#9826;","elianto","#f73b6a7A","-1","-1","1","0","[]","0","0","3","","","","","","","",""
"pit-trial","67","1211915","0.0-2.0-14.1-3.1","battery-v0.2","","""event"",""trial"",""time""
""blur"",""1"",""61388""
""focus"",""1"",""62924""
""fullscreenenter"",""1"",""64026""
""blur"",""3"",""73583""
""focus"",""3"",""74367""
","""event"",""trial"",""time""
""blur"",""1"",""61388""
""blur"",""3"",""73583""
","""event"",""trial"",""time""
""focus"",""1"",""62924""
""focus"",""3"",""74367""
","""event"",""trial"",""time""
""fullscreenenter"",""1"",""64026""
","
","","","-1","","","25","10860","1301","&#9826;","elianto","#f73b6a7A","-1","-1","1","-10","[]","0","0","3","","","","","","","",""
"pit-trial","68","1216785","0.0-2.0-14.1-4.1","battery-v0.2","","""event"",""trial"",""time""
""blur"",""1"",""61388""
""focus"",""1"",""62924""
""fullscreenenter"",""1"",""64026""
""blur"",""3"",""73583""
""focus"",""3"",""74367""
","""event"",""trial"",""time""
""blur"",""1"",""61388""
""blur"",""3"",""73583""
","""event"",""trial"",""time""
""focus"",""1"",""62924""
""focus"",""3"",""74367""
","""event"",""trial"",""time""
""fullscreenenter"",""1"",""64026""
","
","","","-1","","","25","10860","1301","&#9826;","elianto","#f73b6a7A","-1","-1","1","0","[]","0","0","3","","","","","","","",""
"pit-trial","69","1221650","0.0-2.0-14.2-0.2","battery-v0.2","","""event"",""trial"",""time""
""blur"",""1"",""61388""
""focus"",""1"",""62924""
""fullscreenenter"",""1"",""64026""
""blur"",""3"",""73583""
""focus"",""3"",""74367""
","""event"",""trial"",""time""
""blur"",""1"",""61388""
""blur"",""3"",""73583""
","""event"",""trial"",""time""
""focus"",""1"",""62924""
""focus"",""3"",""74367""
","""event"",""trial"",""time""
""fullscreenenter"",""1"",""64026""
","
","","","-1","","","25","10860","1301","&#9826;","elianto","#f73b6a7A","-1","-1","1","0","[]","0","0","3","","","","","","","",""
"pit-trial","70","1226522","0.0-2.0-14.2-1.2","battery-v0.2","","""event"",""trial"",""time""
""blur"",""1"",""61388""
""focus"",""1"",""62924""
""fullscreenenter"",""1"",""64026""
""blur"",""3"",""73583""
""focus"",""3"",""74367""
","""event"",""trial"",""time""
""blur"",""1"",""61388""
""blur"",""3"",""73583""
","""event"",""trial"",""time""
""focus"",""1"",""62924""
""focus"",""3"",""74367""
","""event"",""trial"",""time""
""fullscreenenter"",""1"",""64026""
","
","","","-1","","","25","10860","1301","&#9826;","elianto","#f73b6a7A","-1","-1","1","0","[]","0","0","3","","","","","","","",""
"pit-trial","71","1231387","0.0-2.0-14.2-2.2","battery-v0.2","","""event"",""trial"",""time""
""blur"",""1"",""61388""
""focus"",""1"",""62924""
""fullscreenenter"",""1"",""64026""
""blur"",""3"",""73583""
""focus"",""3"",""74367""
","""event"",""trial"",""time""
""blur"",""1"",""61388""
""blur"",""3"",""73583""
","""event"",""trial"",""time""
""focus"",""1"",""62924""
""focus"",""3"",""74367""
","""event"",""trial"",""time""
""fullscreenenter"",""1"",""64026""
","
","","","-1","","","25","10860","1301","&#9826;","elianto","#f73b6a7A","-1","-1","1","0","[]","0","0","3","","","","","","","",""
"pit-trial","72","1236249","0.0-2.0-14.2-3.2","battery-v0.2","","""event"",""trial"",""time""
""blur"",""1"",""61388""
""focus"",""1"",""62924""
""fullscreenenter"",""1"",""64026""
""blur"",""3"",""73583""
""focus"",""3"",""74367""
","""event"",""trial"",""time""
""blur"",""1"",""61388""
""blur"",""3"",""73583""
","""event"",""trial"",""time""
""focus"",""1"",""62924""
""focus"",""3"",""74367""
","""event"",""trial"",""time""
""fullscreenenter"",""1"",""64026""
","
","","","-1","","","25","10860","1301","&#9826;","elianto","#f73b6a7A","-1","-1","1","-10","[]","0","0","3","","","","","","","",""
"pit-trial","73","1241112","0.0-2.0-14.2-4.2","battery-v0.2","","""event"",""trial"",""time""
""blur"",""1"",""61388""
""focus"",""1"",""62924""
""fullscreenenter"",""1"",""64026""
""blur"",""3"",""73583""
""focus"",""3"",""74367""
","""event"",""trial"",""time""
""blur"",""1"",""61388""
""blur"",""3"",""73583""
","""event"",""trial"",""time""
""focus"",""1"",""62924""
""focus"",""3"",""74367""
","""event"",""trial"",""time""
""fullscreenenter"",""1"",""64026""
","
","","","-1","","","25","10860","1301","&#9826;","elianto","#f73b6a7A","-1","-1","1","0","[]","0","0","3","","","","","","","",""
"pit-trial","74","1245985","0.0-2.0-14.3-0.3","battery-v0.2","","""event"",""trial"",""time""
""blur"",""1"",""61388""
""focus"",""1"",""62924""
""fullscreenenter"",""1"",""64026""
""blur"",""3"",""73583""
""focus"",""3"",""74367""
","""event"",""trial"",""time""
""blur"",""1"",""61388""
""blur"",""3"",""73583""
","""event"",""trial"",""time""
""focus"",""1"",""62924""
""focus"",""3"",""74367""
","""event"",""trial"",""time""
""fullscreenenter"",""1"",""64026""
","
","","","-1","","","25","10860","1301","&#9826;","elianto","#f73b6a7A","-1","-1","1","0","[]","0","0","3","","","","","","","",""
"pit-trial","75","1250848","0.0-2.0-14.3-1.3","battery-v0.2","","""event"",""trial"",""time""
""blur"",""1"",""61388""
""focus"",""1"",""62924""
""fullscreenenter"",""1"",""64026""
""blur"",""3"",""73583""
""focus"",""3"",""74367""
","""event"",""trial"",""time""
""blur"",""1"",""61388""
""blur"",""3"",""73583""
","""event"",""trial"",""time""
""focus"",""1"",""62924""
""focus"",""3"",""74367""
","""event"",""trial"",""time""
""fullscreenenter"",""1"",""64026""
","
","","","-1","","","25","10860","1301","&#9826;","elianto","#f73b6a7A","-1","-1","1","0","[]","0","0","3","","","","","","","",""
"pit-trial","76","1255713","0.0-2.0-14.3-2.3","battery-v0.2","","""event"",""trial"",""time""
""blur"",""1"",""61388""
""focus"",""1"",""62924""
""fullscreenenter"",""1"",""64026""
""blur"",""3"",""73583""
""focus"",""3"",""74367""
","""event"",""trial"",""time""
""blur"",""1"",""61388""
""blur"",""3"",""73583""
","""event"",""trial"",""time""
""focus"",""1"",""62924""
""focus"",""3"",""74367""
","""event"",""trial"",""time""
""fullscreenenter"",""1"",""64026""
","
","","","-1","","","25","10860","1301","&#9826;","elianto","#f73b6a7A","-1","-1","1","0","[]","0","0","3","","","","","","","",""
"pit-trial","77","1260576","0.0-2.0-14.3-3.3","battery-v0.2","","""event"",""trial"",""time""
""blur"",""1"",""61388""
""focus"",""1"",""62924""
""fullscreenenter"",""1"",""64026""
""blur"",""3"",""73583""
""focus"",""3"",""74367""
","""event"",""trial"",""time""
""blur"",""1"",""61388""
""blur"",""3"",""73583""
","""event"",""trial"",""time""
""focus"",""1"",""62924""
""focus"",""3"",""74367""
","""event"",""trial"",""time""
""fullscreenenter"",""1"",""64026""
","
","","","-1","","","25","10860","1301","&#9826;","elianto","#f73b6a7A","-1","-1","1","-10","[]","0","0","3","","","","","","","",""
"pit-trial","78","1265439","0.0-2.0-14.3-4.3","battery-v0.2","","""event"",""trial"",""time""
""blur"",""1"",""61388""
""focus"",""1"",""62924""
""fullscreenenter"",""1"",""64026""
""blur"",""3"",""73583""
""focus"",""3"",""74367""
","""event"",""trial"",""time""
""blur"",""1"",""61388""
""blur"",""3"",""73583""
","""event"",""trial"",""time""
""focus"",""1"",""62924""
""focus"",""3"",""74367""
","""event"",""trial"",""time""
""fullscreenenter"",""1"",""64026""
","
","","","-1","","","25","10860","1301","&#9826;","elianto","#f73b6a7A","-1","-1","1","0","[]","0","0","3","","","","","","","",""
"call-function","79","1265445","0.0-2.0-15.0","battery-v0.2","","""event"",""trial"",""time""
""blur"",""1"",""61388""
""focus"",""1"",""62924""
""fullscreenenter"",""1"",""64026""
""blur"",""3"",""73583""
""focus"",""3"",""74367""
","""event"",""trial"",""time""
""blur"",""1"",""61388""
""blur"",""3"",""73583""
","""event"",""trial"",""time""
""focus"",""1"",""62924""
""focus"",""3"",""74367""
","""event"",""trial"",""time""
""fullscreenenter"",""1"",""64026""
","
","","","","","","","","","","","","","","","","","","","","","","","","","","",""
"pit-instructions","80","1349529","0.0-2.0-16.0","battery-v0.2","","""event"",""trial"",""time""
""blur"",""1"",""61388""
""focus"",""1"",""62924""
""fullscreenenter"",""1"",""64026""
""blur"",""3"",""73583""
""focus"",""3"",""74367""
","""event"",""trial"",""time""
""blur"",""1"",""61388""
""blur"",""3"",""73583""
","""event"",""trial"",""time""
""focus"",""1"",""62924""
""focus"",""3"",""74367""
","""event"",""trial"",""time""
""fullscreenenter"",""1"",""64026""
","
","","[{""page_index"":0,""viewing_time"":58841.39999999991},{""page_index"":1,""viewing_time"":10378.30000000028},{""page_index"":2,""viewing_time"":7402.199999999721},{""page_index"":3,""viewing_time"":7459.899999999907}]","84082.70000000019","","","","","","","","","","","","","","","","","","","","","","","",""
"pit-trial","81","1353339","0.0-2.0-17.0-0.0","battery-v0.2","","""event"",""trial"",""time""
""blur"",""1"",""61388""
""focus"",""1"",""62924""
""fullscreenenter"",""1"",""64026""
""blur"",""3"",""73583""
""focus"",""3"",""74367""
","""event"",""trial"",""time""
""blur"",""1"",""61388""
""blur"",""3"",""73583""
","""event"",""trial"",""time""
""focus"",""1"",""62924""
""focus"",""3"",""74367""
","""event"",""trial"",""time""
""fullscreenenter"",""1"",""64026""
","
","","","938.3999999999069","","","25","10860","1301","&#9789;","elianto","#f73b6a7A"," "," ","1","0","[1793.1999999997206]","1","0","4","","","","","","","",""
"pit-trial","82","1356459","0.0-2.0-17.0-1.0","battery-v0.2","","""event"",""trial"",""time""
""blur"",""1"",""61388""
""focus"",""1"",""62924""
""fullscreenenter"",""1"",""64026""
""blur"",""3"",""73583""
""focus"",""3"",""74367""
","""event"",""trial"",""time""
""blur"",""1"",""61388""
""blur"",""3"",""73583""
","""event"",""trial"",""time""
""focus"",""1"",""62924""
""focus"",""3"",""74367""
","""event"",""trial"",""time""
""fullscreenenter"",""1"",""64026""
","
","","","256.5","","","25","10860","1301","&#9789;","elianto","#f73b6a7A"," "," ","1","0","[1108.6000000000931]","1","0","4","","","","","","","",""
"pit-trial","83","1359519","0.0-2.0-17.0-2.0","battery-v0.2","","""event"",""trial"",""time""
""blur"",""1"",""61388""
""focus"",""1"",""62924""
""fullscreenenter"",""1"",""64026""
""blur"",""3"",""73583""
""focus"",""3"",""74367""
","""event"",""trial"",""time""
""blur"",""1"",""61388""
""blur"",""3"",""73583""
","""event"",""trial"",""time""
""focus"",""1"",""62924""
""focus"",""3"",""74367""
","""event"",""trial"",""time""
""fullscreenenter"",""1"",""64026""
","
","","","196.39999999990687","","","25","10860","1301","&#9789;","elianto","#f73b6a7A"," "," ","1","0","[1047.3999999999069]","1","0","4","","","","","","","",""
"pit-trial","84","1362556","0.0-2.0-17.0-3.0","battery-v0.2","","""event"",""trial"",""time""
""blur"",""1"",""61388""
""focus"",""1"",""62924""
""fullscreenenter"",""1"",""64026""
""blur"",""3"",""73583""
""focus"",""3"",""74367""
","""event"",""trial"",""time""
""blur"",""1"",""61388""
""blur"",""3"",""73583""
","""event"",""trial"",""time""
""focus"",""1"",""62924""
""focus"",""3"",""74367""
","""event"",""trial"",""time""
""fullscreenenter"",""1"",""64026""
","
","","","174.60000000009313","","","25","10860","1301","&#9789;","elianto","#f73b6a7A"," "," ","1","-10","[1026.7000000001863]","1","0","4","","","","","","","",""
"pit-trial","85","1365737","0.0-2.0-17.0-4.0","battery-v0.2","","""event"",""trial"",""time""
""blur"",""1"",""61388""
""focus"",""1"",""62924""
""fullscreenenter"",""1"",""64026""
""blur"",""3"",""73583""
""focus"",""3"",""74367""
","""event"",""trial"",""time""
""blur"",""1"",""61388""
""blur"",""3"",""73583""
","""event"",""trial"",""time""
""focus"",""1"",""62924""
""focus"",""3"",""74367""
","""event"",""trial"",""time""
""fullscreenenter"",""1"",""64026""
","
","","","319.10000000009313","","","25","10860","1301","&#9789;","elianto","#f73b6a7A"," "," ","1","0","[1172.7999999998137]","1","0","4","","","","","","","",""
"pit-trial","86","1369318","0.0-2.0-17.1-0.1","battery-v0.2","","""event"",""trial"",""time""
""blur"",""1"",""61388""
""focus"",""1"",""62924""
""fullscreenenter"",""1"",""64026""
""blur"",""3"",""73583""
""focus"",""3"",""74367""
","""event"",""trial"",""time""
""blur"",""1"",""61388""
""blur"",""3"",""73583""
","""event"",""trial"",""time""
""focus"",""1"",""62924""
""focus"",""3"",""74367""
","""event"",""trial"",""time""
""fullscreenenter"",""1"",""64026""
","
","","","716.2999999998137","","","25","10860","1301","&#9789;","elianto","#f73b6a7A"," "," ","1","0","[1568.2999999998137]","1","0","4","","","","","","","",""
"pit-trial","87","1372488","0.0-2.0-17.1-1.1","battery-v0.2","","""event"",""trial"",""time""
""blur"",""1"",""61388""
""focus"",""1"",""62924""
""fullscreenenter"",""1"",""64026""
""blur"",""3"",""73583""
""focus"",""3"",""74367""
","""event"",""trial"",""time""
""blur"",""1"",""61388""
""blur"",""3"",""73583""
","""event"",""trial"",""time""
""focus"",""1"",""62924""
""focus"",""3"",""74367""
","""event"",""trial"",""time""
""fullscreenenter"",""1"",""64026""
","
","","","308.89999999990687","","","25","10860","1301","&#9789;","elianto","#f73b6a7A"," "," ","1","0","[1161.5]","1","0","4","","","","","","","",""
"pit-trial","88","1376118","0.0-2.0-17.1-2.1","battery-v0.2","","""event"",""trial"",""time""
""blur"",""1"",""61388""
""focus"",""1"",""62924""
""fullscreenenter"",""1"",""64026""
""blur"",""3"",""73583""
""focus"",""3"",""74367""
","""event"",""trial"",""time""
""blur"",""1"",""61388""
""blur"",""3"",""73583""
","""event"",""trial"",""time""
""focus"",""1"",""62924""
""focus"",""3"",""74367""
","""event"",""trial"",""time""
""fullscreenenter"",""1"",""64026""
","
","","","772.2999999998137","","","25","10860","1301","&#9789;","elianto","#f73b6a7A"," "," ","1","0","[680.6000000000931,1623.7000000001863]","2","0","4","","","","","","","",""
"pit-trial","89","1379161","0.0-2.0-17.1-3.1","battery-v0.2","","""event"",""trial"",""time""
""blur"",""1"",""61388""
""focus"",""1"",""62924""
""fullscreenenter"",""1"",""64026""
""blur"",""3"",""73583""
""focus"",""3"",""74367""
","""event"",""trial"",""time""
""blur"",""1"",""61388""
""blur"",""3"",""73583""
","""event"",""trial"",""time""
""focus"",""1"",""62924""
""focus"",""3"",""74367""
","""event"",""trial"",""time""
""fullscreenenter"",""1"",""64026""
","
","","","180.70000000018626","","","25","10860","1301","&#9789;","elianto","#f73b6a7A"," "," ","1","-10","[1032.3999999999069]","1","0","4","","","","","","","",""
"pit-trial","90","1382778","0.0-2.0-17.1-4.1","battery-v0.2","","""event"",""trial"",""time""
""blur"",""1"",""61388""
""focus"",""1"",""62924""
""fullscreenenter"",""1"",""64026""
""blur"",""3"",""73583""
""focus"",""3"",""74367""
","""event"",""trial"",""time""
""blur"",""1"",""61388""
""blur"",""3"",""73583""
","""event"",""trial"",""time""
""focus"",""1"",""62924""
""focus"",""3"",""74367""
","""event"",""trial"",""time""
""fullscreenenter"",""1"",""64026""
","
","","","753.1000000000931","","","25","10860","1301","&#9789;","elianto","#f73b6a7A"," "," ","1","0","[1605.1000000000931]","1","0","4","","","","","","","",""
"pit-trial","91","1386066","0.0-2.0-17.2-0.2","battery-v0.2","","""event"",""trial"",""time""
""blur"",""1"",""61388""
""focus"",""1"",""62924""
""fullscreenenter"",""1"",""64026""
""blur"",""3"",""73583""
""focus"",""3"",""74367""
","""event"",""trial"",""time""
""blur"",""1"",""61388""
""blur"",""3"",""73583""
","""event"",""trial"",""time""
""focus"",""1"",""62924""
""focus"",""3"",""74367""
","""event"",""trial"",""time""
""fullscreenenter"",""1"",""64026""
","
","","","419.5","","","25","10860","1301","&#9789;","elianto","#f73b6a7A"," "," ","1","0","[1270.6999999997206]","1","0","4","","","","","","","",""
"pit-trial","92","1389309","0.0-2.0-17.2-1.2","battery-v0.2","","""event"",""trial"",""time""
""blur"",""1"",""61388""
""focus"",""1"",""62924""
""fullscreenenter"",""1"",""64026""
""blur"",""3"",""73583""
""focus"",""3"",""74367""
","""event"",""trial"",""time""
""blur"",""1"",""61388""
""blur"",""3"",""73583""
","""event"",""trial"",""time""
""focus"",""1"",""62924""
""focus"",""3"",""74367""
","""event"",""trial"",""time""
""fullscreenenter"",""1"",""64026""
","
","","","382.89999999990687","","","25","10860","1301","&#9789;","elianto","#f73b6a7A"," "," ","1","0","[1234.5]","1","0","4","","","","","","","",""
"pit-trial","93","1392768","0.0-2.0-17.2-2.2","battery-v0.2","","""event"",""trial"",""time""
""blur"",""1"",""61388""
""focus"",""1"",""62924""
""fullscreenenter"",""1"",""64026""
""blur"",""3"",""73583""
""focus"",""3"",""74367""
","""event"",""trial"",""time""
""blur"",""1"",""61388""
""blur"",""3"",""73583""
","""event"",""trial"",""time""
""focus"",""1"",""62924""
""focus"",""3"",""74367""
","""event"",""trial"",""time""
""fullscreenenter"",""1"",""64026""
","
","","","592.1999999997206","","","25","10860","1301","&#9789;","elianto","#f73b6a7A"," "," ","1","0","[1444.7999999998137]","1","0","4","","","","","","","",""
"pit-trial","94","1396043","0.0-2.0-17.2-3.2","battery-v0.2","","""event"",""trial"",""time""
""blur"",""1"",""61388""
""focus"",""1"",""62924""
""fullscreenenter"",""1"",""64026""
""blur"",""3"",""73583""
""focus"",""3"",""74367""
","""event"",""trial"",""time""
""blur"",""1"",""61388""
""blur"",""3"",""73583""
","""event"",""trial"",""time""
""focus"",""1"",""62924""
""focus"",""3"",""74367""
","""event"",""trial"",""time""
""fullscreenenter"",""1"",""64026""
","
","","","416.1999999997206","","","25","10860","1301","&#9789;","elianto","#f73b6a7A"," "," ","1","-10","[330.40000000037253,1268.6000000000931]","2","0","4","","","","","","","",""
"pit-trial","95","1399285","0.0-2.0-17.2-4.2","battery-v0.2","","""event"",""trial"",""time""
""blur"",""1"",""61388""
""focus"",""1"",""62924""
""fullscreenenter"",""1"",""64026""
""blur"",""3"",""73583""
""focus"",""3"",""74367""
","""event"",""trial"",""time""
""blur"",""1"",""61388""
""blur"",""3"",""73583""
","""event"",""trial"",""time""
""focus"",""1"",""62924""
""focus"",""3"",""74367""
","""event"",""trial"",""time""
""fullscreenenter"",""1"",""64026""
","
","","","376.6999999997206","","","25","10860","1301","&#9789;","elianto","#f73b6a7A"," "," ","1","0","[1229.3999999999069]","1","0","4","","","","","","","",""
"pit-trial","96","1402393","0.0-2.0-17.3-0.3","battery-v0.2","","""event"",""trial"",""time""
""blur"",""1"",""61388""
""focus"",""1"",""62924""
""fullscreenenter"",""1"",""64026""
""blur"",""3"",""73583""
""focus"",""3"",""74367""
","""event"",""trial"",""time""
""blur"",""1"",""61388""
""blur"",""3"",""73583""
","""event"",""trial"",""time""
""focus"",""1"",""62924""
""focus"",""3"",""74367""
","""event"",""trial"",""time""
""fullscreenenter"",""1"",""64026""
","
","","","247.6999999997206","","","25","10860","1301","&#9789;","elianto","#f73b6a7A"," "," ","1","0","[1099.5999999996275]","1","0","4","","","","","","","",""
"pit-trial","97","1405708","0.0-2.0-17.3-1.3","battery-v0.2","","""event"",""trial"",""time""
""blur"",""1"",""61388""
""focus"",""1"",""62924""
""fullscreenenter"",""1"",""64026""
""blur"",""3"",""73583""
""focus"",""3"",""74367""
","""event"",""trial"",""time""
""blur"",""1"",""61388""
""blur"",""3"",""73583""
","""event"",""trial"",""time""
""focus"",""1"",""62924""
""focus"",""3"",""74367""
","""event"",""trial"",""time""
""fullscreenenter"",""1"",""64026""
","
","","","447.60000000009313","","","25","10860","1301","&#9789;","elianto","#f73b6a7A"," "," ","1","0","[1299.6999999997206]","1","0","4","","","","","","","",""
"pit-trial","98","1409044","0.0-2.0-17.3-2.3","battery-v0.2","","""event"",""trial"",""time""
""blur"",""1"",""61388""
""focus"",""1"",""62924""
""fullscreenenter"",""1"",""64026""
""blur"",""3"",""73583""
""focus"",""3"",""74367""
","""event"",""trial"",""time""
""blur"",""1"",""61388""
""blur"",""3"",""73583""
","""event"",""trial"",""time""
""focus"",""1"",""62924""
""focus"",""3"",""74367""
","""event"",""trial"",""time""
""fullscreenenter"",""1"",""64026""
","
","","","475.89999999990687","","","25","10860","1301","&#9789;","elianto","#f73b6a7A"," "," ","1","0","[1327.7999999998137]","1","0","4","","","","","","","",""
"pit-trial","99","1412193","0.0-2.0-17.3-3.3","battery-v0.2","","""event"",""trial"",""time""
""blur"",""1"",""61388""
""focus"",""1"",""62924""
""fullscreenenter"",""1"",""64026""
""blur"",""3"",""73583""
""focus"",""3"",""74367""
","""event"",""trial"",""time""
""blur"",""1"",""61388""
""blur"",""3"",""73583""
","""event"",""trial"",""time""
""focus"",""1"",""62924""
""focus"",""3"",""74367""
","""event"",""trial"",""time""
""fullscreenenter"",""1"",""64026""
","
","","","290.89999999990687","","","25","10860","1301","&#9789;","elianto","#f73b6a7A"," "," ","1","-10","[265.70000000018626,1143.1000000000931]","2","0","4","","","","","","","",""
"pit-trial","100","1415267","0.0-2.0-17.3-4.3","battery-v0.2","","""event"",""trial"",""time""
""blur"",""1"",""61388""
""focus"",""1"",""62924""
""fullscreenenter"",""1"",""64026""
""blur"",""3"",""73583""
""focus"",""3"",""74367""
","""event"",""trial"",""time""
""blur"",""1"",""61388""
""blur"",""3"",""73583""
","""event"",""trial"",""time""
""focus"",""1"",""62924""
""focus"",""3"",""74367""
","""event"",""trial"",""time""
""fullscreenenter"",""1"",""64026""
","
","","","210.40000000037253","","","25","10860","1301","&#9789;","elianto","#f73b6a7A"," "," ","1","0","[1064]","1","0","4","","","","","","","",""
"call-function","101","1415273","0.0-2.0-18.0","battery-v0.2","","""event"",""trial"",""time""
""blur"",""1"",""61388""
""focus"",""1"",""62924""
""fullscreenenter"",""1"",""64026""
""blur"",""3"",""73583""
""focus"",""3"",""74367""
","""event"",""trial"",""time""
""blur"",""1"",""61388""
""blur"",""3"",""73583""
","""event"",""trial"",""time""
""focus"",""1"",""62924""
""focus"",""3"",""74367""
","""event"",""trial"",""time""
""fullscreenenter"",""1"",""64026""
","
","","","","","","","","","","","","","","","","","","","","","","","","","","",""
"pit-instructions","102","1590526","0.0-2.0-19.0","battery-v0.2","","""event"",""trial"",""time""
""blur"",""1"",""61388""
""focus"",""1"",""62924""
""fullscreenenter"",""1"",""64026""
""blur"",""3"",""73583""
""focus"",""3"",""74367""
","""event"",""trial"",""time""
""blur"",""1"",""61388""
""blur"",""3"",""73583""
","""event"",""trial"",""time""
""focus"",""1"",""62924""
""focus"",""3"",""74367""
","""event"",""trial"",""time""
""fullscreenenter"",""1"",""64026""
","
","","[{""page_index"":0,""viewing_time"":11630.80000000028},{""page_index"":1,""viewing_time"":8356.399999999907},{""page_index"":2,""viewing_time"":17341.200000000186},{""page_index"":3,""viewing_time"":10600.5},{""page_index"":4,""viewing_time"":11906.5},{""page_index"":5,""viewing_time"":9257.299999999814},{""page_index"":6,""viewing_time"":89862.6000000001},{""page_index"":7,""viewing_time"":10434.799999999814},{""page_index"":8,""viewing_time"":5860}]","175251.1000000001","","","","","","","","","","","","","","","","","","","","","","","",""
"pit-comprehension","103","1595996","0.0-2.0-20.0-0.0","battery-v0.2","","""event"",""trial"",""time""
""blur"",""1"",""61388""
""focus"",""1"",""62924""
""fullscreenenter"",""1"",""64026""
""blur"",""3"",""73583""
""focus"",""3"",""74367""
","""event"",""trial"",""time""
""blur"",""1"",""61388""
""blur"",""3"",""73583""
","""event"",""trial"",""time""
""focus"",""1"",""62924""
""focus"",""3"",""74367""
","""event"",""trial"",""time""
""fullscreenenter"",""1"",""64026""
","
","","","5456","[""SPACE""]","0","25","10860","1301","","","","","","","","","","","","","","","","","","",""
"pit-instructions","104","1599732","0.0-2.0-20.0-1.0","battery-v0.2","","""event"",""trial"",""time""
""blur"",""1"",""61388""
""focus"",""1"",""62924""
""fullscreenenter"",""1"",""64026""
""blur"",""3"",""73583""
""focus"",""3"",""74367""
","""event"",""trial"",""time""
""blur"",""1"",""61388""
""blur"",""3"",""73583""
","""event"",""trial"",""time""
""focus"",""1"",""62924""
""focus"",""3"",""74367""
","""event"",""trial"",""time""
""fullscreenenter"",""1"",""64026""
","
","","[{""page_index"":0,""viewing_time"":3611.8000000002794}]","3612.600000000093","","","","","","","","","","","","","","","","","","","","","","","",""
"pit-comprehension","105","1605041","0.0-2.0-21.0-0.0","battery-v0.2","","""event"",""trial"",""time""
""blur"",""1"",""61388""
""focus"",""1"",""62924""
""fullscreenenter"",""1"",""64026""
""blur"",""3"",""73583""
""focus"",""3"",""74367""
","""event"",""trial"",""time""
""blur"",""1"",""61388""
""blur"",""3"",""73583""
","""event"",""trial"",""time""
""focus"",""1"",""62924""
""focus"",""3"",""74367""
","""event"",""trial"",""time""
""fullscreenenter"",""1"",""64026""
","
","","","5297.0999999996275","[""-10""]","1","25","10860","1301","","","","","","","","","","","","","","","","","","",""
"pit-instructions","106","1608681","0.0-2.0-21.0-1.0","battery-v0.2","","""event"",""trial"",""time""
""blur"",""1"",""61388""
""focus"",""1"",""62924""
""fullscreenenter"",""1"",""64026""
""blur"",""3"",""73583""
""focus"",""3"",""74367""
","""event"",""trial"",""time""
""blur"",""1"",""61388""
""blur"",""3"",""73583""
","""event"",""trial"",""time""
""focus"",""1"",""62924""
""focus"",""3"",""74367""
","""event"",""trial"",""time""
""fullscreenenter"",""1"",""64026""
","
","","[{""page_index"":0,""viewing_time"":3604.100000000093}]","3605.100000000093","","","","","","","","","","","","","","","","","","","","","","","",""
"pit-instructions","107","1609877","0.0-2.0-21.0-2.0-0.0","battery-v0.2","","""event"",""trial"",""time""
""blur"",""1"",""61388""
""focus"",""1"",""62924""
""fullscreenenter"",""1"",""64026""
""blur"",""3"",""73583""
""focus"",""3"",""74367""
","""event"",""trial"",""time""
""blur"",""1"",""61388""
""blur"",""3"",""73583""
","""event"",""trial"",""time""
""focus"",""1"",""62924""
""focus"",""3"",""74367""
","""event"",""trial"",""time""
""fullscreenenter"",""1"",""64026""
","
","","[{""page_index"":0,""viewing_time"":1187.3000000002794}]","1187.9000000003725","","","","","","","","","","","","","","","","","","","","","","","",""
"pit-comprehension","108","1616381","0.0-2.0-21.1-0.1","battery-v0.2","","""event"",""trial"",""time""
""blur"",""1"",""61388""
""focus"",""1"",""62924""
""fullscreenenter"",""1"",""64026""
""blur"",""3"",""73583""
""focus"",""3"",""74367""
","""event"",""trial"",""time""
""blur"",""1"",""61388""
""blur"",""3"",""73583""
","""event"",""trial"",""time""
""focus"",""1"",""62924""
""focus"",""3"",""74367""
","""event"",""trial"",""time""
""fullscreenenter"",""1"",""64026""
","
","","","6496.5","[""10""]","0","25","10860","1301","","","","","","","","","","","","","","","","","","",""
"pit-instructions","109","1618203","0.0-2.0-21.1-1.1","battery-v0.2","","""event"",""trial"",""time""
""blur"",""1"",""61388""
""focus"",""1"",""62924""
""fullscreenenter"",""1"",""64026""
""blur"",""3"",""73583""
""focus"",""3"",""74367""
","""event"",""trial"",""time""
""blur"",""1"",""61388""
""blur"",""3"",""73583""
","""event"",""trial"",""time""
""focus"",""1"",""62924""
""focus"",""3"",""74367""
","""event"",""trial"",""time""
""fullscreenenter"",""1"",""64026""
","
","","[{""page_index"":0,""viewing_time"":1755}]","1756","","","","","","","","","","","","","","","","","","","","","","","",""
"pit-comprehension","110","1626304","0.0-2.0-22.0-0.0","battery-v0.2","","""event"",""trial"",""time""
""blur"",""1"",""61388""
""focus"",""1"",""62924""
""fullscreenenter"",""1"",""64026""
""blur"",""3"",""73583""
""focus"",""3"",""74367""
","""event"",""trial"",""time""
""blur"",""1"",""61388""
""blur"",""3"",""73583""
","""event"",""trial"",""time""
""focus"",""1"",""62924""
""focus"",""3"",""74367""
","""event"",""trial"",""time""
""fullscreenenter"",""1"",""64026""
","
","","","8086.699999999721","[""0""]","0","25","10860","1301","","","","","","","","","","","","","","","","","","",""
"pit-instructions","111","1630284","0.0-2.0-22.0-1.0","battery-v0.2","","""event"",""trial"",""time""
""blur"",""1"",""61388""
""focus"",""1"",""62924""
""fullscreenenter"",""1"",""64026""
""blur"",""3"",""73583""
""focus"",""3"",""74367""
","""event"",""trial"",""time""
""blur"",""1"",""61388""
""blur"",""3"",""73583""
","""event"",""trial"",""time""
""focus"",""1"",""62924""
""focus"",""3"",""74367""
","""event"",""trial"",""time""
""fullscreenenter"",""1"",""64026""
","
","","[{""page_index"":0,""viewing_time"":3873.8000000002794}]","3874.2000000001863","","","","","","","","","","","","","","","","","","","","","","","",""
"pit-comprehension","112","1639061","0.0-2.0-23.0-0.0","battery-v0.2","","""event"",""trial"",""time""
""blur"",""1"",""61388""
""focus"",""1"",""62924""
""fullscreenenter"",""1"",""64026""
""blur"",""3"",""73583""
""focus"",""3"",""74367""
","""event"",""trial"",""time""
""blur"",""1"",""61388""
""blur"",""3"",""73583""
","""event"",""trial"",""time""
""focus"",""1"",""62924""
""focus"",""3"",""74367""
","""event"",""trial"",""time""
""fullscreenenter"",""1"",""64026""
","
","","","8772.600000000093","[""True""]","0","25","10860","1301","","","","","","","","","","","","","","","","","","",""
"pit-instructions","113","1642054","0.0-2.0-23.0-1.0","battery-v0.2","","""event"",""trial"",""time""
""blur"",""1"",""61388""
""focus"",""1"",""62924""
""fullscreenenter"",""1"",""64026""
""blur"",""3"",""73583""
""focus"",""3"",""74367""
","""event"",""trial"",""time""
""blur"",""1"",""61388""
""blur"",""3"",""73583""
","""event"",""trial"",""time""
""focus"",""1"",""62924""
""focus"",""3"",""74367""
","""event"",""trial"",""time""
""fullscreenenter"",""1"",""64026""
","
","","[{""page_index"":0,""viewing_time"":2959.2999999998137}]","2960.2999999998137","","","","","","","","","","","","","","","","","","","","","","","",""
"pit-comprehension","114","1650203","0.0-2.0-24.0-0.0","battery-v0.2","","""event"",""trial"",""time""
""blur"",""1"",""61388""
""focus"",""1"",""62924""
""fullscreenenter"",""1"",""64026""
""blur"",""3"",""73583""
""focus"",""3"",""74367""
","""event"",""trial"",""time""
""blur"",""1"",""61388""
""blur"",""3"",""73583""
","""event"",""trial"",""time""
""focus"",""1"",""62924""
""focus"",""3"",""74367""
","""event"",""trial"",""time""
""fullscreenenter"",""1"",""64026""
","
","","","8140","[""True""]","0","25","10860","1301","","","","","","","","","","","","","","","","","","",""
"pit-instructions","115","1651899","0.0-2.0-24.0-1.0","battery-v0.2","","""event"",""trial"",""time""
""blur"",""1"",""61388""
""focus"",""1"",""62924""
""fullscreenenter"",""1"",""64026""
""blur"",""3"",""73583""
""focus"",""3"",""74367""
","""event"",""trial"",""time""
""blur"",""1"",""61388""
""blur"",""3"",""73583""
","""event"",""trial"",""time""
""focus"",""1"",""62924""
""focus"",""3"",""74367""
","""event"",""trial"",""time""
""fullscreenenter"",""1"",""64026""
","
","","[{""page_index"":0,""viewing_time"":1568.7000000001863}]","1569.6000000000931","","","","","","","","","","","","","","","","","","","","","","","",""
"pit-comprehension","116","1659226","0.0-2.0-25.0-0.0","battery-v0.2","","""event"",""trial"",""time""
""blur"",""1"",""61388""
""focus"",""1"",""62924""
""fullscreenenter"",""1"",""64026""
""blur"",""3"",""73583""
""focus"",""3"",""74367""
","""event"",""trial"",""time""
""blur"",""1"",""61388""
""blur"",""3"",""73583""
","""event"",""trial"",""time""
""focus"",""1"",""62924""
""focus"",""3"",""74367""
","""event"",""trial"",""time""
""fullscreenenter"",""1"",""64026""
","
","","","7314.600000000093","[""True""]","0","25","10860","1301","","","","","","","","","","","","","","","","","","",""
"pit-instructions","117","1662243","0.0-2.0-25.0-1.0","battery-v0.2","","""event"",""trial"",""time""
""blur"",""1"",""61388""
""focus"",""1"",""62924""
""fullscreenenter"",""1"",""64026""
""blur"",""3"",""73583""
""focus"",""3"",""74367""
","""event"",""trial"",""time""
""blur"",""1"",""61388""
""blur"",""3"",""73583""
","""event"",""trial"",""time""
""focus"",""1"",""62924""
""focus"",""3"",""74367""
","""event"",""trial"",""time""
""fullscreenenter"",""1"",""64026""
","
","","[{""page_index"":0,""viewing_time"":2873.600000000093}]","2875","","","","","","","","","","","","","","","","","","","","","","","",""
"pit-comprehension","118","1669841","0.0-2.0-26.0-0.0","battery-v0.2","","""event"",""trial"",""time""
""blur"",""1"",""61388""
""focus"",""1"",""62924""
""fullscreenenter"",""1"",""64026""
""blur"",""3"",""73583""
""focus"",""3"",""74367""
","""event"",""trial"",""time""
""blur"",""1"",""61388""
""blur"",""3"",""73583""
","""event"",""trial"",""time""
""focus"",""1"",""62924""
""focus"",""3"",""74367""
","""event"",""trial"",""time""
""fullscreenenter"",""1"",""64026""
","
","","","7585.600000000093","[""True""]","1","25","10860","1301","","","","","","","","","","","","","","","","","","",""
"pit-instructions","119","1674603","0.0-2.0-26.0-1.0","battery-v0.2","","""event"",""trial"",""time""
""blur"",""1"",""61388""
""focus"",""1"",""62924""
""fullscreenenter"",""1"",""64026""
""blur"",""3"",""73583""
""focus"",""3"",""74367""
","""event"",""trial"",""time""
""blur"",""1"",""61388""
""blur"",""3"",""73583""
","""event"",""trial"",""time""
""focus"",""1"",""62924""
""focus"",""3"",""74367""
","""event"",""trial"",""time""
""fullscreenenter"",""1"",""64026""
","
","","[{""page_index"":0,""viewing_time"":4728.800000000279}]","4729.899999999907","","","","","","","","","","","","","","","","","","","","","","","",""
"pit-instructions","120","1676974","0.0-2.0-26.0-2.0-0.0","battery-v0.2","","""event"",""trial"",""time""
""blur"",""1"",""61388""
""focus"",""1"",""62924""
""fullscreenenter"",""1"",""64026""
""blur"",""3"",""73583""
""focus"",""3"",""74367""
","""event"",""trial"",""time""
""blur"",""1"",""61388""
""blur"",""3"",""73583""
","""event"",""trial"",""time""
""focus"",""1"",""62924""
""focus"",""3"",""74367""
","""event"",""trial"",""time""
""fullscreenenter"",""1"",""64026""
","
","","[{""page_index"":0,""viewing_time"":2359.6999999997206}]","2361","","","","","","","","","","","","","","","","","","","","","","","",""
"pit-comprehension","121","1682165","0.0-2.0-26.1-0.1","battery-v0.2","","""event"",""trial"",""time""
""blur"",""1"",""61388""
""focus"",""1"",""62924""
""fullscreenenter"",""1"",""64026""
""blur"",""3"",""73583""
""focus"",""3"",""74367""
","""event"",""trial"",""time""
""blur"",""1"",""61388""
""blur"",""3"",""73583""
","""event"",""trial"",""time""
""focus"",""1"",""62924""
""focus"",""3"",""74367""
","""event"",""trial"",""time""
""fullscreenenter"",""1"",""64026""
","
","","","5182.200000000186","[""False""]","0","25","10860","1301","","","","","","","","","","","","","","","","","","",""
"pit-instructions","122","1685458","0.0-2.0-26.1-1.1","battery-v0.2","","""event"",""trial"",""time""
""blur"",""1"",""61388""
""focus"",""1"",""62924""
""fullscreenenter"",""1"",""64026""
""blur"",""3"",""73583""
""focus"",""3"",""74367""
","""event"",""trial"",""time""
""blur"",""1"",""61388""
""blur"",""3"",""73583""
","""event"",""trial"",""time""
""focus"",""1"",""62924""
""focus"",""3"",""74367""
","""event"",""trial"",""time""
""fullscreenenter"",""1"",""64026""
","
","","[{""page_index"":0,""viewing_time"":3154.1999999997206}]","3154.5999999996275","","","","","","","","","","","","","","","","","","","","","","","",""
"pit-instructions","123","1707899","0.0-3.0","battery-v0.2","","""event"",""trial"",""time""
""blur"",""1"",""61388""
""focus"",""1"",""62924""
""fullscreenenter"",""1"",""64026""
""blur"",""3"",""73583""
""focus"",""3"",""74367""
","""event"",""trial"",""time""
""blur"",""1"",""61388""
""blur"",""3"",""73583""
","""event"",""trial"",""time""
""focus"",""1"",""62924""
""focus"",""3"",""74367""
","""event"",""trial"",""time""
""fullscreenenter"",""1"",""64026""
","
","","[{""page_index"":0,""viewing_time"":5584.4000000003725},{""page_index"":1,""viewing_time"":6811.699999999721},{""page_index"":2,""viewing_time"":10041}]","22438","","","","","","","","","","","","","","","","","","","","","","","",""
"pit-trial","124","1711519","0.0-4.0","battery-v0.2","","""event"",""trial"",""time""
""blur"",""1"",""61388""
""focus"",""1"",""62924""
""fullscreenenter"",""1"",""64026""
""blur"",""3"",""73583""
""focus"",""3"",""74367""
","""event"",""trial"",""time""
""blur"",""1"",""61388""
""blur"",""3"",""73583""
","""event"",""trial"",""time""
""focus"",""1"",""62924""
""focus"",""3"",""74367""
","""event"",""trial"",""time""
""fullscreenenter"",""1"",""64026""
","
","","","754.1999999997206","","","25","10860","1301","&#9728;","elianto","#f73b6a7A","-1"," ","0","0","[1604.5]","1","1","","","10860","1","0","4","lose","no-go","1"
"pit-trial","125","1714774","0.0-5.0","battery-v0.2","","""event"",""trial"",""time""
""blur"",""1"",""61388""
""focus"",""1"",""62924""
""fullscreenenter"",""1"",""64026""
""blur"",""3"",""73583""
""focus"",""3"",""74367""
","""event"",""trial"",""time""
""blur"",""1"",""61388""
""blur"",""3"",""73583""
","""event"",""trial"",""time""
""focus"",""1"",""62924""
""focus"",""3"",""74367""
","""event"",""trial"",""time""
""fullscreenenter"",""1"",""64026""
","
","","","390.70000000018626","","","25","10860","1301","&#9730;","elianto","#3366ff99"," "," ","1","+10","[1243.8999999999069]","1","1","","","10860","2","1","1","win","go","0"
"pit-trial","126","1718009","0.0-6.0","battery-v0.2","","""event"",""trial"",""time""
""blur"",""1"",""61388""
""focus"",""1"",""62924""
""fullscreenenter"",""1"",""64026""
""blur"",""3"",""73583""
""focus"",""3"",""74367""
","""event"",""trial"",""time""
""blur"",""1"",""61388""
""blur"",""3"",""73583""
","""event"",""trial"",""time""
""focus"",""1"",""62924""
""focus"",""3"",""74367""
","""event"",""trial"",""time""
""fullscreenenter"",""1"",""64026""
","
","","","375.90000000037253","","","25","10860","1301","&#9752;","elianto","#f73b6a7A"," "," ","1","-10","[1227.5]","1","1","","","10860","3","3","3","lose","go","1"
"pit-trial","127","1721251","0.0-7.0","battery-v0.2","","""event"",""trial"",""time""
""blur"",""1"",""61388""
""focus"",""1"",""62924""
""fullscreenenter"",""1"",""64026""
""blur"",""3"",""73583""
""focus"",""3"",""74367""
","""event"",""trial"",""time""
""blur"",""1"",""61388""
""blur"",""3"",""73583""
","""event"",""trial"",""time""
""focus"",""1"",""62924""
""focus"",""3"",""74367""
","""event"",""trial"",""time""
""fullscreenenter"",""1"",""64026""
","
","","","381.1999999997206","","","25","10860","1301","&#9733;","elianto","#3366ff99","-1"," ","0","+10","[1232.6999999997206]","1","1","","","10860","4","2","2","win","no-go","1"
"pit-trial","128","1724241","0.0-8.0","battery-v0.2","","""event"",""trial"",""time""
""blur"",""1"",""61388""
""focus"",""1"",""62924""
""fullscreenenter"",""1"",""64026""
""blur"",""3"",""73583""
""focus"",""3"",""74367""
","""event"",""trial"",""time""
""blur"",""1"",""61388""
""blur"",""3"",""73583""
","""event"",""trial"",""time""
""focus"",""1"",""62924""
""focus"",""3"",""74367""
","""event"",""trial"",""time""
""fullscreenenter"",""1"",""64026""
","
","","","131.89999999990687","","","25","10860","1301","&#9752;","elianto","#f73b6a7A"," "," ","1","0","[981.9000000003725]","1","1","","","10860","5","3","3","lose","go","0"
"pit-trial","129","1727381","0.0-9.0","battery-v0.2","","""event"",""trial"",""time""
""blur"",""1"",""61388""
""focus"",""1"",""62924""
""fullscreenenter"",""1"",""64026""
""blur"",""3"",""73583""
""focus"",""3"",""74367""
","""event"",""trial"",""time""
""blur"",""1"",""61388""
""blur"",""3"",""73583""
","""event"",""trial"",""time""
""focus"",""1"",""62924""
""focus"",""3"",""74367""
","""event"",""trial"",""time""
""fullscreenenter"",""1"",""64026""
","
","","","277.5","","","25","10860","1301","&#9730;","elianto","#3366ff99"," "," ","1","+10","[1130.3999999999069]","1","1","","","10860","6","1","1","win","go","0"
"pit-trial","130","1730420","0.0-10.0","battery-v0.2","","""event"",""trial"",""time""
""blur"",""1"",""61388""
""focus"",""1"",""62924""
""fullscreenenter"",""1"",""64026""
""blur"",""3"",""73583""
""focus"",""3"",""74367""
","""event"",""trial"",""time""
""blur"",""1"",""61388""
""blur"",""3"",""73583""
","""event"",""trial"",""time""
""focus"",""1"",""62924""
""focus"",""3"",""74367""
","""event"",""trial"",""time""
""fullscreenenter"",""1"",""64026""
","
","","","174.8000000002794","","","25","10860","1301","&#9733;","elianto","#3366ff99","-1"," ","0","0","[1025.7000000001863]","1","1","","","10860","7","2","2","win","no-go","0"
"pit-trial","131","1733441","0.0-11.0","battery-v0.2","","""event"",""trial"",""time""
""blur"",""1"",""61388""
""focus"",""1"",""62924""
""fullscreenenter"",""1"",""64026""
""blur"",""3"",""73583""
""focus"",""3"",""74367""
","""event"",""trial"",""time""
""blur"",""1"",""61388""
""blur"",""3"",""73583""
","""event"",""trial"",""time""
""focus"",""1"",""62924""
""focus"",""3"",""74367""
","""event"",""trial"",""time""
""fullscreenenter"",""1"",""64026""
","
","","","155.20000000018626","","","25","10860","1301","&#9728;","elianto","#f73b6a7A","-1"," ","0","-10","[1006.6000000000931]","1","1","","","10860","8","0","4","lose","no-go","0"
"pit-trial","132","1736661","0.0-12.0","battery-v0.2","","""event"",""trial"",""time""
""blur"",""1"",""61388""
""focus"",""1"",""62924""
""fullscreenenter"",""1"",""64026""
""blur"",""3"",""73583""
""focus"",""3"",""74367""
","""event"",""trial"",""time""
""blur"",""1"",""61388""
""blur"",""3"",""73583""
","""event"",""trial"",""time""
""focus"",""1"",""62924""
""focus"",""3"",""74367""
","""event"",""trial"",""time""
""fullscreenenter"",""1"",""64026""
","
","","","360.60000000009313","","","25","10860","1301","&#9730;","elianto","#3366ff99"," "," ","1","+10","[1212.1999999997206]","1","1","","","10860","9","1","1","win","go","0"
"pit-trial","133","1740464","0.0-13.0","battery-v0.2","","""event"",""trial"",""time""
""blur"",""1"",""61388""
""focus"",""1"",""62924""
""fullscreenenter"",""1"",""64026""
""blur"",""3"",""73583""
""focus"",""3"",""74367""
","""event"",""trial"",""time""
""blur"",""1"",""61388""
""blur"",""3"",""73583""
","""event"",""trial"",""time""
""focus"",""1"",""62924""
""focus"",""3"",""74367""
","""event"",""trial"",""time""
""fullscreenenter"",""1"",""64026""
","
","","","940.2999999998137","","","25","10860","1301","&#9733;","elianto","#3366ff99","-1"," ","0","0","[1792.7000000001863]","1","1","","","10860","10","2","2","win","no-go","0"
"pit-trial","134","1745328","0.0-14.0","battery-v0.2","","""event"",""trial"",""time""
""blur"",""1"",""61388""
""focus"",""1"",""62924""
""fullscreenenter"",""1"",""64026""
""blur"",""3"",""73583""
""focus"",""3"",""74367""
","""event"",""trial"",""time""
""blur"",""1"",""61388""
""blur"",""3"",""73583""
","""event"",""trial"",""time""
""focus"",""1"",""62924""
""focus"",""3"",""74367""
","""event"",""trial"",""time""
""fullscreenenter"",""1"",""64026""
","
","","","-1","","","25","10860","1301","&#9728;","elianto","#f73b6a7A","-1","-1","1","0","[]","0","1","","","10860","11","0","4","lose","no-go","0"
"pit-trial","135","1748606","0.0-15.0","battery-v0.2","","""event"",""trial"",""time""
""blur"",""1"",""61388""
""focus"",""1"",""62924""
""fullscreenenter"",""1"",""64026""
""blur"",""3"",""73583""
""focus"",""3"",""74367""
","""event"",""trial"",""time""
""blur"",""1"",""61388""
""blur"",""3"",""73583""
","""event"",""trial"",""time""
""focus"",""1"",""62924""
""focus"",""3"",""74367""
","""event"",""trial"",""time""
""fullscreenenter"",""1"",""64026""
","
","","","415.10000000009313","","","25","10860","1301","&#9752;","elianto","#f73b6a7A"," "," ","1","0","[1267.3999999999069]","1","1","","","10860","12","3","3","lose","go","0"
"pit-trial","136","1752028","0.0-16.0","battery-v0.2","","""event"",""trial"",""time""
""blur"",""1"",""61388""
""focus"",""1"",""62924""
""fullscreenenter"",""1"",""64026""
""blur"",""3"",""73583""
""focus"",""3"",""74367""
","""event"",""trial"",""time""
""blur"",""1"",""61388""
""blur"",""3"",""73583""
","""event"",""trial"",""time""
""focus"",""1"",""62924""
""focus"",""3"",""74367""
","""event"",""trial"",""time""
""fullscreenenter"",""1"",""64026""
","
","","","554.7000000001863","","","25","10860","1301","&#9733;","elianto","#3366ff99","-1"," ","0","+10","[1407.8999999999069]","1","1","","","10860","13","2","2","win","no-go","1"
"pit-trial","137","1756891","0.0-17.0","battery-v0.2","","""event"",""trial"",""time""
""blur"",""1"",""61388""
""focus"",""1"",""62924""
""fullscreenenter"",""1"",""64026""
""blur"",""3"",""73583""
""focus"",""3"",""74367""
","""event"",""trial"",""time""
""blur"",""1"",""61388""
""blur"",""3"",""73583""
","""event"",""trial"",""time""
""focus"",""1"",""62924""
""focus"",""3"",""74367""
","""event"",""trial"",""time""
""fullscreenenter"",""1"",""64026""
","
","","","-1","","","25","10860","1301","&#9728;","elianto","#f73b6a7A","-1","-1","1","-10","[]","0","1","","","10860","14","0","4","lose","no-go","1"
"pit-trial","138","1760825","0.0-18.0","battery-v0.2","","""event"",""trial"",""time""
""blur"",""1"",""61388""
""focus"",""1"",""62924""
""fullscreenenter"",""1"",""64026""
""blur"",""3"",""73583""
""focus"",""3"",""74367""
","""event"",""trial"",""time""
""blur"",""1"",""61388""
""blur"",""3"",""73583""
","""event"",""trial"",""time""
""focus"",""1"",""62924""
""focus"",""3"",""74367""
","""event"",""trial"",""time""
""fullscreenenter"",""1"",""64026""
","
","","","1066.3999999999069","","","25","10860","1301","&#9752;","elianto","#f73b6a7A"," "," ","1","-10","[1919.1999999997206]","1","1","","","10860","15","3","3","lose","go","1"
"pit-trial","139","1764265","0.0-19.0","battery-v0.2","","""event"",""trial"",""time""
""blur"",""1"",""61388""
""focus"",""1"",""62924""
""fullscreenenter"",""1"",""64026""
""blur"",""3"",""73583""
""focus"",""3"",""74367""
","""event"",""trial"",""time""
""blur"",""1"",""61388""
""blur"",""3"",""73583""
","""event"",""trial"",""time""
""focus"",""1"",""62924""
""focus"",""3"",""74367""
","""event"",""trial"",""time""
""fullscreenenter"",""1"",""64026""
","
","","","572","","","25","10860","1301","&#9730;","elianto","#3366ff99"," "," ","1","+10","[1425.1000000000931]","1","1","","","10860","16","1","1","win","go","0"
"pit-trial","140","1769124","0.0-20.0","battery-v0.2","","""event"",""trial"",""time""
""blur"",""1"",""61388""
""focus"",""1"",""62924""
""fullscreenenter"",""1"",""64026""
""blur"",""3"",""73583""
""focus"",""3"",""74367""
","""event"",""trial"",""time""
""blur"",""1"",""61388""
""blur"",""3"",""73583""
","""event"",""trial"",""time""
""focus"",""1"",""62924""
""focus"",""3"",""74367""
","""event"",""trial"",""time""
""fullscreenenter"",""1"",""64026""
","
","","","-1","","","25","10860","1301","&#9752;","elianto","#f73b6a7A"," ","-1","0","-10","[]","0","1","","","10860","17","3","3","lose","go","0"
"pit-trial","141","1772757","0.0-21.0","battery-v0.2","","""event"",""trial"",""time""
""blur"",""1"",""61388""
""focus"",""1"",""62924""
""fullscreenenter"",""1"",""64026""
""blur"",""3"",""73583""
""focus"",""3"",""74367""
","""event"",""trial"",""time""
""blur"",""1"",""61388""
""blur"",""3"",""73583""
","""event"",""trial"",""time""
""focus"",""1"",""62924""
""focus"",""3"",""74367""
","""event"",""trial"",""time""
""fullscreenenter"",""1"",""64026""
","
","","","774.7000000001863","","","25","10860","1301","&#9733;","elianto","#3366ff99","-1"," ","0","0","[1625.2000000001863]","1","1","","","10860","18","2","2","win","no-go","0"
"pit-trial","142","1777631","0.0-22.0","battery-v0.2","","""event"",""trial"",""time""
""blur"",""1"",""61388""
""focus"",""1"",""62924""
""fullscreenenter"",""1"",""64026""
""blur"",""3"",""73583""
""focus"",""3"",""74367""
","""event"",""trial"",""time""
""blur"",""1"",""61388""
""blur"",""3"",""73583""
","""event"",""trial"",""time""
""focus"",""1"",""62924""
""focus"",""3"",""74367""
","""event"",""trial"",""time""
""fullscreenenter"",""1"",""64026""
","
","","","-1","","","25","10860","1301","&#9730;","elianto","#3366ff99"," ","-1","0","0","[3188.100000000093]","1","1","","","10860","19","1","1","win","go","0"
"pit-trial","143","1781951","0.0-23.0","battery-v0.2","","""event"",""trial"",""time""
""blur"",""1"",""61388""
""focus"",""1"",""62924""
""fullscreenenter"",""1"",""64026""
""blur"",""3"",""73583""
""focus"",""3"",""74367""
","""event"",""trial"",""time""
""blur"",""1"",""61388""
""blur"",""3"",""73583""
","""event"",""trial"",""time""
""focus"",""1"",""62924""
""focus"",""3"",""74367""
","""event"",""trial"",""time""
""fullscreenenter"",""1"",""64026""
","
","","","1454.2999999998137","","","25","10860","1301","&#9728;","elianto","#f73b6a7A","-1"," ","0","-10","[2306.2999999998137]","1","1","","","10860","20","0","4","lose","no-go","0"
"pit-instructions","144","1796369","0.0-24.0","battery-v0.2","","""event"",""trial"",""time""
""blur"",""1"",""61388""
""focus"",""1"",""62924""
""fullscreenenter"",""1"",""64026""
""blur"",""3"",""73583""
""focus"",""3"",""74367""
","""event"",""trial"",""time""
""blur"",""1"",""61388""
""blur"",""3"",""73583""
","""event"",""trial"",""time""
""focus"",""1"",""62924""
""focus"",""3"",""74367""
","""event"",""trial"",""time""
""fullscreenenter"",""1"",""64026""
","
","","[{""page_index"":0,""viewing_time"":6097},{""page_index"":1,""viewing_time"":8316}]","14413.600000000093","","","","","","","","","","","","","","","","","","","","","","","",""
"pit-trial","145","1801240","0.0-25.0","battery-v0.2","","""event"",""trial"",""time""
""blur"",""1"",""61388""
""focus"",""1"",""62924""
""fullscreenenter"",""1"",""64026""
""blur"",""3"",""73583""
""focus"",""3"",""74367""
","""event"",""trial"",""time""
""blur"",""1"",""61388""
""blur"",""3"",""73583""
","""event"",""trial"",""time""
""focus"",""1"",""62924""
""focus"",""3"",""74367""
","""event"",""trial"",""time""
""fullscreenenter"",""1"",""64026""
","
","","","-1","","","25","10860","1301","j","elianto","#f73b6a7A","-1","-1","1","0","[]","0","2","","","10860","21","0","4","lose","no-go","0"
"pit-trial","146","1804600","0.0-26.0","battery-v0.2","","""event"",""trial"",""time""
""blur"",""1"",""61388""
""focus"",""1"",""62924""
""fullscreenenter"",""1"",""64026""
""blur"",""3"",""73583""
""focus"",""3"",""74367""
","""event"",""trial"",""time""
""blur"",""1"",""61388""
""blur"",""3"",""73583""
","""event"",""trial"",""time""
""focus"",""1"",""62924""
""focus"",""3"",""74367""
","""event"",""trial"",""time""
""fullscreenenter"",""1"",""64026""
","
","","","493.5","","","25","10860","1301","d","elianto","#3366ff99"," "," ","1","+10","[1345.1000000000931]","1","2","","","10860","22","1","1","win","go","0"
"pit-trial","147","1809460","0.0-27.0","battery-v0.2","","""event"",""trial"",""time""
""blur"",""1"",""61388""
""focus"",""1"",""62924""
""fullscreenenter"",""1"",""64026""
""blur"",""3"",""73583""
""focus"",""3"",""74367""
","""event"",""trial"",""time""
""blur"",""1"",""61388""
""blur"",""3"",""73583""
","""event"",""trial"",""time""
""focus"",""1"",""62924""
""focus"",""3"",""74367""
","""event"",""trial"",""time""
""fullscreenenter"",""1"",""64026""
","
","","","-1","","","25","10860","1301","e","elianto","#f73b6a7A","-1","-1","1","0","[]","0","2","","","10860","23","2","4","lose","no-go","0"
"pit-trial","148","1814322","0.0-28.0","battery-v0.2","","""event"",""trial"",""time""
""blur"",""1"",""61388""
""focus"",""1"",""62924""
""fullscreenenter"",""1"",""64026""
""blur"",""3"",""73583""
""focus"",""3"",""74367""
","""event"",""trial"",""time""
""blur"",""1"",""61388""
""blur"",""3"",""73583""
","""event"",""trial"",""time""
""focus"",""1"",""62924""
""focus"",""3"",""74367""
","""event"",""trial"",""time""
""fullscreenenter"",""1"",""64026""
","
","","","-1","","","25","10860","1301","w","elianto","#f73b6a7A"," ","-1","0","-10","[3720.3000000002794]","1","2","","","10860","24","3","3","lose","go","0"
"pit-trial","149","1818111","0.0-29.0","battery-v0.2","","""event"",""trial"",""time""
""blur"",""1"",""61388""
""focus"",""1"",""62924""
""fullscreenenter"",""1"",""64026""
""blur"",""3"",""73583""
""focus"",""3"",""74367""
","""event"",""trial"",""time""
""blur"",""1"",""61388""
""blur"",""3"",""73583""
","""event"",""trial"",""time""
""focus"",""1"",""62924""
""focus"",""3"",""74367""
","""event"",""trial"",""time""
""fullscreenenter"",""1"",""64026""
","
","","","924.5","","","25","10860","1301","e","elianto","#f73b6a7A","-1"," ","0","-10","[1775.6000000000931]","1","2","","","10860","25","2","4","lose","no-go","0"
"pit-trial","150","1821581","0.0-30.0","battery-v0.2","","""event"",""trial"",""time""
""blur"",""1"",""61388""
""focus"",""1"",""62924""
""fullscreenenter"",""1"",""64026""
""blur"",""3"",""73583""
""focus"",""3"",""74367""
","""event"",""trial"",""time""
""blur"",""1"",""61388""
""blur"",""3"",""73583""
","""event"",""trial"",""time""
""focus"",""1"",""62924""
""focus"",""3"",""74367""
","""event"",""trial"",""time""
""fullscreenenter"",""1"",""64026""
","
","","","603.9000000003725","","","25","10860","1301","d","elianto","#3366ff99"," "," ","1","+10","[1454]","1","2","","","10860","26","1","1","win","go","0"
"pit-trial","151","1825077","0.0-31.0","battery-v0.2","","""event"",""trial"",""time""
""blur"",""1"",""61388""
""focus"",""1"",""62924""
""fullscreenenter"",""1"",""64026""
""blur"",""3"",""73583""
""focus"",""3"",""74367""
","""event"",""trial"",""time""
""blur"",""1"",""61388""
""blur"",""3"",""73583""
","""event"",""trial"",""time""
""focus"",""1"",""62924""
""focus"",""3"",""74367""
","""event"",""trial"",""time""
""fullscreenenter"",""1"",""64026""
","
","","","630.2000000001863","","","25","10860","1301","j","elianto","#f73b6a7A","-1"," ","0","-10","[1486]","1","2","","","10860","27","0","4","lose","no-go","0"
"pit-trial","152","1829945","0.0-32.0","battery-v0.2","","""event"",""trial"",""time""
""blur"",""1"",""61388""
""focus"",""1"",""62924""
""fullscreenenter"",""1"",""64026""
""blur"",""3"",""73583""
""focus"",""3"",""74367""
","""event"",""trial"",""time""
""blur"",""1"",""61388""
""blur"",""3"",""73583""
","""event"",""trial"",""time""
""focus"",""1"",""62924""
""focus"",""3"",""74367""
