"trial_type","trial_index","time_elapsed","internal_node_id","task_version","subject_id","interactions","blur_events","focus_events","fullscreenenter_events","fullscreenexit_events","success","view_history","rt","responses","num_errors","age","subject","participantId","rune","rune_set","hex","correct","choice","accuracy","outcome","keys","total_keys","block","practice","value","sub","trial","stimulus","robot","valence","action","sham"
"pavlovia","0","6","0.0-0.0","battery-v0.2","","""event"",""trial"",""time""
""fullscreenenter"",""1"",""1261""
","
","
","""event"",""trial"",""time""
""fullscreenenter"",""1"",""1261""
","
","","","","","","","","","","","","","","","","","","","","","","","","","","",""
"fullscreen","1","2245","0.0-1.0","battery-v0.2","","""event"",""trial"",""time""
""fullscreenenter"",""1"",""1261""
","
","
","""event"",""trial"",""time""
""fullscreenenter"",""1"",""1261""
","
","true","","","","","","","","","","","","","","","","","","","","","","","","","",""
"pit-instructions","2","10829","0.0-2.0-0.0","battery-v0.2","","""event"",""trial"",""time""
""fullscreenenter"",""1"",""1261""
","
","
","""event"",""trial"",""time""
""fullscreenenter"",""1"",""1261""
","
","","[{""page_index"":0,""viewing_time"":8574.399999976158}]","8574.899999976158","","","","","","","","","","","","","","","","","","","","","","","",""
"pit-comprehension","3","15607","0.0-2.0-1.0-0.0","battery-v0.2","","""event"",""trial"",""time""
""fullscreenenter"",""1"",""1261""
","
","
","""event"",""trial"",""time""
""fullscreenenter"",""1"",""1261""
","
","","","4772.199999928474","[""shark""]","0","14","20092","7138","","","","","","","","","","","","","","","","","","",""
"pit-instructions","4","18209","0.0-2.0-1.0-1.0","battery-v0.2","","""event"",""trial"",""time""
""fullscreenenter"",""1"",""1261""
","
","
","""event"",""trial"",""time""
""fullscreenenter"",""1"",""1261""
","
","","[{""page_index"":0,""viewing_time"":2586.7000000476837}]","2587.7999999523163","","","","","","","","","","","","","","","","","","","","","","","",""
"pit-comprehension","5","21088","0.0-2.0-2.0-0.0","battery-v0.2","","""event"",""trial"",""time""
""fullscreenenter"",""1"",""1261""
","
","
","""event"",""trial"",""time""
""fullscreenenter"",""1"",""1261""
","
","","","2870.8000000715256","[""tiger""]","0","14","20092","7138","","","","","","","","","","","","","","","","","","",""
"pit-instructions","6","21676","0.0-2.0-2.0-1.0","battery-v0.2","","""event"",""trial"",""time""
""fullscreenenter"",""1"",""1261""
","
","
","""event"",""trial"",""time""
""fullscreenenter"",""1"",""1261""
","
","","[{""page_index"":0,""viewing_time"":585.1999999284744}]","585.3999999761581","","","","","","","","","","","","","","","","","","","","","","","",""
"pit-instructions","7","120646","0.0-2.0-3.0","battery-v0.2","","""event"",""trial"",""time""
""fullscreenenter"",""1"",""1261""
","
","
","""event"",""trial"",""time""
""fullscreenenter"",""1"",""1261""
","
","","[{""page_index"":0,""viewing_time"":9141.699999928474},{""page_index"":1,""viewing_time"":6761.100000023842},{""page_index"":2,""viewing_time"":6588.700000047684},{""page_index"":3,""viewing_time"":5874.100000023842},{""page_index"":4,""viewing_time"":7716.5},{""page_index"":5,""viewing_time"":6355.5},{""page_index"":6,""viewing_time"":7543.299999952316},{""page_index"":7,""viewing_time"":6585.399999976158},{""page_index"":8,""viewing_time"":6774.100000023842},{""page_index"":9,""viewing_time"":7844.200000047684},{""page_index"":10,""viewing_time"":9028.199999928474},{""page_index"":11,""viewing_time"":6893.100000023842},{""page_index"":12,""viewing_time"":6880.600000023842},{""page_index"":13,""viewing_time"":4977.799999952316}]","98966.19999992847","","","","","","","","","","","","","","","","","","","","","","","",""
"pit-trial","8","124174","0.0-2.0-4.0-0.0","battery-v0.2","","""event"",""trial"",""time""
""fullscreenenter"",""1"",""1261""
","
","
","""event"",""trial"",""time""
""fullscreenenter"",""1"",""1261""
","
","","","651.3999999761581","","","14","20092","7138","&#9784;","elianto","#FFFFF080"," "," ","1","&#10004","[499.8000000715256,1510.6000000238419]","2","0","0","","","","","","","",""
"pit-trial","9","127659","0.0-2.0-4.1-0.1","battery-v0.2","","""event"",""trial"",""time""
""fullscreenenter"",""1"",""1261""
","
","
","""event"",""trial"",""time""
""fullscreenenter"",""1"",""1261""
","
","","","625.5","","","14","20092","7138","&#9784;","elianto","#FFFFF080"," "," ","1","&#10004","[1477.1999999284744]","1","0","0","","","","","","","",""
"pit-trial","10","131108","0.0-2.0-4.2-0.2","battery-v0.2","","""event"",""trial"",""time""
""fullscreenenter"",""1"",""1261""
","
","
","""event"",""trial"",""time""
""fullscreenenter"",""1"",""1261""
","
","","","588.2000000476837","","","14","20092","7138","&#9784;","elianto","#FFFFF080"," "," ","1","&#10004","[1443.6000000238419]","1","0","0","","","","","","","",""
"pit-trial","11","134557","0.0-2.0-4.3-0.3","battery-v0.2","","""event"",""trial"",""time""
""fullscreenenter"",""1"",""1261""
","
","
","""event"",""trial"",""time""
""fullscreenenter"",""1"",""1261""
","
","","","581.5","","","14","20092","7138","&#9784;","elianto","#FFFFF080"," "," ","1","&#10004","[1433.6999999284744]","1","0","0","","","","","","","",""
"pit-trial","12","137925","0.0-2.0-4.4-0.4","battery-v0.2","","""event"",""trial"",""time""
""fullscreenenter"",""1"",""1261""
","
","
","""event"",""trial"",""time""
""fullscreenenter"",""1"",""1261""
","
","","","508.3000000715256","","","14","20092","7138","&#9784;","elianto","#FFFFF080"," "," ","1","&#10004","[1360.6000000238419]","1","0","0","","","","","","","",""
"pit-instructions","13","161068","0.0-2.0-5.0","battery-v0.2","","""event"",""trial"",""time""
""fullscreenenter"",""1"",""1261""
","
","
","""event"",""trial"",""time""
""fullscreenenter"",""1"",""1261""
","
","","[{""page_index"":0,""viewing_time"":4524.399999976158},{""page_index"":1,""viewing_time"":5064.700000047684},{""page_index"":2,""viewing_time"":4820.600000023842},{""page_index"":3,""viewing_time"":8728}]","23138.200000047684","","","","","","","","","","","","","","","","","","","","","","","",""
"pit-trial","14","165949","0.0-2.0-6.0-0.0","battery-v0.2","","""event"",""trial"",""time""
""fullscreenenter"",""1"",""1261""
","
","
","""event"",""trial"",""time""
""fullscreenenter"",""1"",""1261""
","
","","","-1","","","14","20092","7138","&#9854;","elianto","#FFFFF080","-1","-1","1","&#10004","[]","0","0","1","","","","","","","",""
"pit-trial","15","170817","0.0-2.0-6.1-0.1","battery-v0.2","","""event"",""trial"",""time""
""fullscreenenter"",""1"",""1261""
","
","
","""event"",""trial"",""time""
""fullscreenenter"",""1"",""1261""
","
","","","-1","","","14","20092","7138","&#9854;","elianto","#FFFFF080","-1","-1","1","&#10004","[]","0","0","1","","","","","","","",""
"pit-trial","16","175684","0.0-2.0-6.2-0.2","battery-v0.2","","""event"",""trial"",""time""
""fullscreenenter"",""1"",""1261""
","
","
","""event"",""trial"",""time""
""fullscreenenter"",""1"",""1261""
","
","","","-1","","","14","20092","7138","&#9854;","elianto","#FFFFF080","-1","-1","1","&#10004","[]","0","0","1","","","","","","","",""
"pit-trial","17","180554","0.0-2.0-6.3-0.3","battery-v0.2","","""event"",""trial"",""time""
""fullscreenenter"",""1"",""1261""
","
","
","""event"",""trial"",""time""
""fullscreenenter"",""1"",""1261""
","
","","","-1","","","14","20092","7138","&#9854;","elianto","#FFFFF080","-1","-1","1","&#10004","[]","0","0","1","","","","","","","",""
"pit-trial","18","185428","0.0-2.0-6.4-0.4","battery-v0.2","","""event"",""trial"",""time""
""fullscreenenter"",""1"",""1261""
","
","
","""event"",""trial"",""time""
""fullscreenenter"",""1"",""1261""
","
","","","-1","","","14","20092","7138","&#9854;","elianto","#FFFFF080","-1","-1","1","&#10004","[]","0","0","1","","","","","","","",""
"pit-instructions","19","301794","0.0-2.0-7.0","battery-v0.2","","""event"",""trial"",""time""
""fullscreenenter"",""1"",""1261""
","
","
","""event"",""trial"",""time""
""fullscreenenter"",""1"",""1261""
","
","","[{""page_index"":0,""viewing_time"":5691.399999976158},{""page_index"":1,""viewing_time"":7253.399999976158},{""page_index"":2,""viewing_time"":7251.200000047684},{""page_index"":3,""viewing_time"":6195.699999928474},{""page_index"":4,""viewing_time"":5137.399999976158},{""page_index"":5,""viewing_time"":5546.600000023842},{""page_index"":6,""viewing_time"":5433.700000047684},{""page_index"":7,""viewing_time"":7990.100000023842},{""page_index"":8,""viewing_time"":6375.599999904633},{""page_index"":9,""viewing_time"":5442.100000023842},{""page_index"":10,""viewing_time"":7660},{""page_index"":11,""viewing_time"":4583.5},{""page_index"":12,""viewing_time"":6900.100000023842},{""page_index"":13,""viewing_time"":7322.299999952316},{""page_index"":14,""viewing_time"":7614.400000095367},{""page_index"":15,""viewing_time"":6559.199999928474},{""page_index"":16,""viewing_time"":6814},{""page_index"":17,""viewing_time"":6584.399999976158}]","116355.89999997616","","","","","","","","","","","","","","","","","","","","","","","",""
"pit-trial","20","305772","0.0-2.0-8.0-0.0","battery-v0.2","","""event"",""trial"",""time""
""fullscreenenter"",""1"",""1261""
","
","
","""event"",""trial"",""time""
""fullscreenenter"",""1"",""1261""
","
","","","1110.3999999761581","","","14","20092","7138","&#9776;","elianto","#3366ff99"," "," ","1","+10","[1964]","1","0","1","","","","","","","",""
"pit-trial","21","309336","0.0-2.0-8.0-1.0","battery-v0.2","","""event"",""trial"",""time""
""fullscreenenter"",""1"",""1261""
","
","
","""event"",""trial"",""time""
""fullscreenenter"",""1"",""1261""
","
","","","704.2000000476837","","","14","20092","7138","&#9776;","elianto","#3366ff99"," "," ","1","+10","[156.29999995231628,1554.3999999761581]","2","0","1","","","","","","","",""
"pit-trial","22","312705","0.0-2.0-8.0-2.0","battery-v0.2","","""event"",""trial"",""time""
""fullscreenenter"",""1"",""1261""
","
","
","""event"",""trial"",""time""
""fullscreenenter"",""1"",""1261""
","
","","","500","","","14","20092","7138","&#9776;","elianto","#3366ff99"," "," ","1","+10","[1350.8000000715256]","1","0","1","","","","","","","",""
"pit-trial","23","316005","0.0-2.0-8.0-3.0","battery-v0.2","","""event"",""trial"",""time""
""fullscreenenter"",""1"",""1261""
","
","
","""event"",""trial"",""time""
""fullscreenenter"",""1"",""1261""
","
","","","424.6999999284744","","","14","20092","7138","&#9776;","elianto","#3366ff99"," "," ","1","0","[1280.5999999046326]","1","0","1","","","","","","","",""
"pit-trial","24","319135","0.0-2.0-8.0-4.0","battery-v0.2","","""event"",""trial"",""time""
""fullscreenenter"",""1"",""1261""
","
","
","""event"",""trial"",""time""
""fullscreenenter"",""1"",""1261""
","
","","","255.29999995231628","","","14","20092","7138","&#9776;","elianto","#3366ff99"," "," ","1","+10","[1110.8999999761581]","1","0","1","","","","","","","",""
"pit-trial","25","322465","0.0-2.0-8.1-0.1","battery-v0.2","","""event"",""trial"",""time""
""fullscreenenter"",""1"",""1261""
","
","
","""event"",""trial"",""time""
""fullscreenenter"",""1"",""1261""
","
","","","460.89999997615814","","","14","20092","7138","&#9776;","elianto","#3366ff99"," "," ","1","+10","[1320.7000000476837]","1","0","1","","","","","","","",""
"pit-trial","26","325766","0.0-2.0-8.1-1.1","battery-v0.2","","""event"",""trial"",""time""
""fullscreenenter"",""1"",""1261""
","
","
","""event"",""trial"",""time""
""fullscreenenter"",""1"",""1261""
","
","","","443.5","","","14","20092","7138","&#9776;","elianto","#3366ff99"," "," ","1","+10","[1295.1999999284744]","1","0","1","","","","","","","",""
"pit-trial","27","328905","0.0-2.0-8.1-2.1","battery-v0.2","","""event"",""trial"",""time""
""fullscreenenter"",""1"",""1261""
","
","
","""event"",""trial"",""time""
""fullscreenenter"",""1"",""1261""
","
","","","276.60000002384186","","","14","20092","7138","&#9776;","elianto","#3366ff99"," "," ","1","+10","[1126.7999999523163]","1","0","1","","","","","","","",""
"pit-trial","28","332545","0.0-2.0-8.1-3.1","battery-v0.2","","""event"",""trial"",""time""
""fullscreenenter"",""1"",""1261""
","
","
","""event"",""trial"",""time""
""fullscreenenter"",""1"",""1261""
","
","","","780.1000000238419","","","14","20092","7138","&#9776;","elianto","#3366ff99"," "," ","1","0","[1631.7999999523163]","1","0","1","","","","","","","",""
"pit-trial","29","335875","0.0-2.0-8.1-4.1","battery-v0.2","","""event"",""trial"",""time""
""fullscreenenter"",""1"",""1261""
","
","
","""event"",""trial"",""time""
""fullscreenenter"",""1"",""1261""
","
","","","474.10000002384186","","","14","20092","7138","&#9776;","elianto","#3366ff99"," "," ","1","+10","[1325.4000000953674]","1","0","1","","","","","","","",""
"pit-trial","30","339243","0.0-2.0-8.2-0.2","battery-v0.2","","""event"",""trial"",""time""
""fullscreenenter"",""1"",""1261""
","
","
","""event"",""trial"",""time""
""fullscreenenter"",""1"",""1261""
","
","","","505.60000002384186","","","14","20092","7138","&#9776;","elianto","#3366ff99"," "," ","1","+10","[1356]","1","0","1","","","","","","","",""
"pit-trial","31","342428","0.0-2.0-8.2-1.2","battery-v0.2","","""event"",""trial"",""time""
""fullscreenenter"",""1"",""1261""
","
","
","""event"",""trial"",""time""
""fullscreenenter"",""1"",""1261""
","
","","","328.2000000476837","","","14","20092","7138","&#9776;","elianto","#3366ff99"," "," ","1","+10","[1180.6000000238419]","1","0","1","","","","","","","",""
"pit-trial","32","345736","0.0-2.0-8.2-2.2","battery-v0.2","","""event"",""trial"",""time""
""fullscreenenter"",""1"",""1261""
","
","
","""event"",""trial"",""time""
""fullscreenenter"",""1"",""1261""
","
","","","441.89999997615814","","","14","20092","7138","&#9776;","elianto","#3366ff99"," "," ","1","+10","[1296.1000000238419]","1","0","1","","","","","","","",""
"pit-trial","33","349001","0.0-2.0-8.2-3.2","battery-v0.2","","""event"",""trial"",""time""
""fullscreenenter"",""1"",""1261""
","
","
","""event"",""trial"",""time""
""fullscreenenter"",""1"",""1261""
","
","","","407.2000000476837","","","14","20092","7138","&#9776;","elianto","#3366ff99"," "," ","1","0","[1260.1000000238419]","1","0","1","","","","","","","",""
"pit-trial","34","352348","0.0-2.0-8.2-4.2","battery-v0.2","","""event"",""trial"",""time""
""fullscreenenter"",""1"",""1261""
","
","
","""event"",""trial"",""time""
""fullscreenenter"",""1"",""1261""
","
","","","482","","","14","20092","7138","&#9776;","elianto","#3366ff99"," "," ","1","+10","[1334.2000000476837]","1","0","1","","","","","","","",""
"call-function","35","352353","0.0-2.0-9.0","battery-v0.2","","""event"",""trial"",""time""
""fullscreenenter"",""1"",""1261""
","
","
","""event"",""trial"",""time""
""fullscreenenter"",""1"",""1261""
","
","","","","","","","","","","","","","","","","","","","","","","","","","","",""
"pit-instructions","36","393552","0.0-2.0-10.0","battery-v0.2","","""event"",""trial"",""time""
""fullscreenenter"",""1"",""1261""
","
","
","""event"",""trial"",""time""
""fullscreenenter"",""1"",""1261""
","
","","[{""page_index"":0,""viewing_time"":7992.700000047684},{""page_index"":1,""viewing_time"":6691.899999976158},{""page_index"":2,""viewing_time"":9288.899999976158},{""page_index"":3,""viewing_time"":8754.300000071526},{""page_index"":4,""viewing_time"":8469.799999952316}]","41198.200000047684","","","","","","","","","","","","","","","","","","","","","","","",""
"pit-trial","37","398426","0.0-2.0-11.0-0.0","battery-v0.2","","""event"",""trial"",""time""
""fullscreenenter"",""1"",""1261""
","
","
","""event"",""trial"",""time""
""fullscreenenter"",""1"",""1261""
","
","","","-1","","","14","20092","7138","&#9761;","elianto","#3366ff99","-1","-1","1","+10","[]","0","0","2","","","","","","","",""
"pit-trial","38","403307","0.0-2.0-11.0-1.0","battery-v0.2","","""event"",""trial"",""time""
""fullscreenenter"",""1"",""1261""
","
","
","""event"",""trial"",""time""
""fullscreenenter"",""1"",""1261""
","
","","","-1","","","14","20092","7138","&#9761;","elianto","#3366ff99","-1","-1","1","+10","[]","0","0","2","","","","","","","",""
"pit-trial","39","408194","0.0-2.0-11.0-2.0","battery-v0.2","","""event"",""trial"",""time""
""fullscreenenter"",""1"",""1261""
","
","
","""event"",""trial"",""time""
""fullscreenenter"",""1"",""1261""
","
","","","-1","","","14","20092","7138","&#9761;","elianto","#3366ff99","-1","-1","1","+10","[]","0","0","2","","","","","","","",""
"pit-trial","40","413054","0.0-2.0-11.0-3.0","battery-v0.2","","""event"",""trial"",""time""
""fullscreenenter"",""1"",""1261""
","
","
","""event"",""trial"",""time""
""fullscreenenter"",""1"",""1261""
","
","","","-1","","","14","20092","7138","&#9761;","elianto","#3366ff99","-1","-1","1","0","[]","0","0","2","","","","","","","",""
"pit-trial","41","417937","0.0-2.0-11.0-4.0","battery-v0.2","","""event"",""trial"",""time""
""fullscreenenter"",""1"",""1261""
","
","
","""event"",""trial"",""time""
""fullscreenenter"",""1"",""1261""
","
","","","-1","","","14","20092","7138","&#9761;","elianto","#3366ff99","-1","-1","1","+10","[]","0","0","2","","","","","","","",""
"pit-trial","42","422815","0.0-2.0-11.1-0.1","battery-v0.2","","""event"",""trial"",""time""
""fullscreenenter"",""1"",""1261""
","
","
","""event"",""trial"",""time""
""fullscreenenter"",""1"",""1261""
","
","","","-1","","","14","20092","7138","&#9761;","elianto","#3366ff99","-1","-1","1","+10","[]","0","0","2","","","","","","","",""
"pit-trial","43","427687","0.0-2.0-11.1-1.1","battery-v0.2","","""event"",""trial"",""time""
""fullscreenenter"",""1"",""1261""
","
","
","""event"",""trial"",""time""
""fullscreenenter"",""1"",""1261""
","
","","","-1","","","14","20092","7138","&#9761;","elianto","#3366ff99","-1","-1","1","+10","[]","0","0","2","","","","","","","",""
"pit-trial","44","432551","0.0-2.0-11.1-2.1","battery-v0.2","","""event"",""trial"",""time""
""fullscreenenter"",""1"",""1261""
","
","
","""event"",""trial"",""time""
""fullscreenenter"",""1"",""1261""
","
","","","-1","","","14","20092","7138","&#9761;","elianto","#3366ff99","-1","-1","1","+10","[]","0","0","2","","","","","","","",""
"pit-trial","45","437416","0.0-2.0-11.1-3.1","battery-v0.2","","""event"",""trial"",""time""
""fullscreenenter"",""1"",""1261""
","
","
","""event"",""trial"",""time""
""fullscreenenter"",""1"",""1261""
","
","","","-1","","","14","20092","7138","&#9761;","elianto","#3366ff99","-1","-1","1","0","[]","0","0","2","","","","","","","",""
"pit-trial","46","442285","0.0-2.0-11.1-4.1","battery-v0.2","","""event"",""trial"",""time""
""fullscreenenter"",""1"",""1261""
","
","
","""event"",""trial"",""time""
""fullscreenenter"",""1"",""1261""
","
","","","-1","","","14","20092","7138","&#9761;","elianto","#3366ff99","-1","-1","1","+10","[]","0","0","2","","","","","","","",""
"pit-trial","47","447154","0.0-2.0-11.2-0.2","battery-v0.2","","""event"",""trial"",""time""
""fullscreenenter"",""1"",""1261""
","
","
","""event"",""trial"",""time""
""fullscreenenter"",""1"",""1261""
","
","","","-1","","","14","20092","7138","&#9761;","elianto","#3366ff99","-1","-1","1","+10","[]","0","0","2","","","","","","","",""
"pit-trial","48","452021","0.0-2.0-11.2-1.2","battery-v0.2","","""event"",""trial"",""time""
""fullscreenenter"",""1"",""1261""
","
","
","""event"",""trial"",""time""
""fullscreenenter"",""1"",""1261""
","
","","","-1","","","14","20092","7138","&#9761;","elianto","#3366ff99","-1","-1","1","+10","[]","0","0","2","","","","","","","",""
"pit-trial","49","456889","0.0-2.0-11.2-2.2","battery-v0.2","","""event"",""trial"",""time""
""fullscreenenter"",""1"",""1261""
","
","
","""event"",""trial"",""time""
""fullscreenenter"",""1"",""1261""
","
","","","-1","","","14","20092","7138","&#9761;","elianto","#3366ff99","-1","-1","1","+10","[]","0","0","2","","","","","","","",""
"pit-trial","50","461757","0.0-2.0-11.2-3.2","battery-v0.2","","""event"",""trial"",""time""
""fullscreenenter"",""1"",""1261""
","
","
","""event"",""trial"",""time""
""fullscreenenter"",""1"",""1261""
","
","","","-1","","","14","20092","7138","&#9761;","elianto","#3366ff99","-1","-1","1","0","[]","0","0","2","","","","","","","",""
"pit-trial","51","466638","0.0-2.0-11.2-4.2","battery-v0.2","","""event"",""trial"",""time""
""fullscreenenter"",""1"",""1261""
","
","
","""event"",""trial"",""time""
""fullscreenenter"",""1"",""1261""
","
","","","-1","","","14","20092","7138","&#9761;","elianto","#3366ff99","-1","-1","1","+10","[]","0","0","2","","","","","","","",""
"pit-trial","52","471504","0.0-2.0-11.3-0.3","battery-v0.2","","""event"",""trial"",""time""
""fullscreenenter"",""1"",""1261""
","
","
","""event"",""trial"",""time""
""fullscreenenter"",""1"",""1261""
","
","","","-1","","","14","20092","7138","&#9761;","elianto","#3366ff99","-1","-1","1","+10","[]","0","0","2","","","","","","","",""
"pit-trial","53","476366","0.0-2.0-11.3-1.3","battery-v0.2","","""event"",""trial"",""time""
""fullscreenenter"",""1"",""1261""
","
","
","""event"",""trial"",""time""
""fullscreenenter"",""1"",""1261""
","
","","","-1","","","14","20092","7138","&#9761;","elianto","#3366ff99","-1","-1","1","+10","[]","0","0","2","","","","","","","",""
"pit-trial","54","481231","0.0-2.0-11.3-2.3","battery-v0.2","","""event"",""trial"",""time""
""fullscreenenter"",""1"",""1261""
","
","
","""event"",""trial"",""time""
""fullscreenenter"",""1"",""1261""
","
","","","-1","","","14","20092","7138","&#9761;","elianto","#3366ff99","-1","-1","1","+10","[]","0","0","2","","","","","","","",""
"pit-trial","55","486089","0.0-2.0-11.3-3.3","battery-v0.2","","""event"",""trial"",""time""
""fullscreenenter"",""1"",""1261""
","
","
","""event"",""trial"",""time""
""fullscreenenter"",""1"",""1261""
","
","","","-1","","","14","20092","7138","&#9761;","elianto","#3366ff99","-1","-1","1","0","[]","0","0","2","","","","","","","",""
"pit-trial","56","490969","0.0-2.0-11.3-4.3","battery-v0.2","","""event"",""trial"",""time""
""fullscreenenter"",""1"",""1261""
","
","
","""event"",""trial"",""time""
""fullscreenenter"",""1"",""1261""
","
","","","-1","","","14","20092","7138","&#9761;","elianto","#3366ff99","-1","-1","1","+10","[]","0","0","2","","","","","","","",""
"call-function","57","490972","0.0-2.0-12.0","battery-v0.2","","""event"",""trial"",""time""
""fullscreenenter"",""1"",""1261""
","
","
","""event"",""trial"",""time""
""fullscreenenter"",""1"",""1261""
","
","","","","","","","","","","","","","","","","","","","","","","","","","","",""
"pit-instructions","58","527930","0.0-2.0-13.0","battery-v0.2","","""event"",""trial"",""time""
""fullscreenenter"",""1"",""1261""
","
","
","""event"",""trial"",""time""
""fullscreenenter"",""1"",""1261""
","
","","[{""page_index"":0,""viewing_time"":5459.600000023842},{""page_index"":1,""viewing_time"":7337.200000047684},{""page_index"":2,""viewing_time"":5735.299999952316},{""page_index"":3,""viewing_time"":12078.899999976158},{""page_index"":4,""viewing_time"":6345}]","36958.700000047684","","","","","","","","","","","","","","","","","","","","","","","",""
"pit-trial","59","531364","0.0-2.0-14.0-0.0","battery-v0.2","","""event"",""trial"",""time""
""fullscreenenter"",""1"",""1261""
","
","
","""event"",""trial"",""time""
""fullscreenenter"",""1"",""1261""
","
","","","563.1000000238419","","","14","20092","7138","&#9826;","elianto","#f73b6a7A","-1"," ","0","-10","[1416.8999999761581]","1","0","3","","","","","","","",""
"pit-trial","60","536235","0.0-2.0-14.0-1.0","battery-v0.2","","""event"",""trial"",""time""
""fullscreenenter"",""1"",""1261""
","
","
","""event"",""trial"",""time""
""fullscreenenter"",""1"",""1261""
","
","","","-1","","","14","20092","7138","&#9826;","elianto","#f73b6a7A","-1","-1","1","0","[]","0","0","3","","","","","","","",""
"pit-trial","61","541100","0.0-2.0-14.0-2.0","battery-v0.2","","""event"",""trial"",""time""
""fullscreenenter"",""1"",""1261""
","
","
","""event"",""trial"",""time""
""fullscreenenter"",""1"",""1261""
","
","","","-1","","","14","20092","7138","&#9826;","elianto","#f73b6a7A","-1","-1","1","0","[]","0","0","3","","","","","","","",""
"pit-trial","62","545985","0.0-2.0-14.0-3.0","battery-v0.2","","""event"",""trial"",""time""
""fullscreenenter"",""1"",""1261""
","
","
","""event"",""trial"",""time""
""fullscreenenter"",""1"",""1261""
","
","","","-1","","","14","20092","7138","&#9826;","elianto","#f73b6a7A","-1","-1","1","-10","[]","0","0","3","","","","","","","",""
"pit-trial","63","550862","0.0-2.0-14.0-4.0","battery-v0.2","","""event"",""trial"",""time""
""fullscreenenter"",""1"",""1261""
","
","
","""event"",""trial"",""time""
""fullscreenenter"",""1"",""1261""
","
","","","-1","","","14","20092","7138","&#9826;","elianto","#f73b6a7A","-1","-1","1","0","[]","0","0","3","","","","","","","",""
"pit-trial","64","555735","0.0-2.0-14.1-0.1","battery-v0.2","","""event"",""trial"",""time""
""fullscreenenter"",""1"",""1261""
","
","
","""event"",""trial"",""time""
""fullscreenenter"",""1"",""1261""
","
","","","-1","","","14","20092","7138","&#9826;","elianto","#f73b6a7A","-1","-1","1","0","[]","0","0","3","","","","","","","",""
"pit-trial","65","560594","0.0-2.0-14.1-1.1","battery-v0.2","","""event"",""trial"",""time""
""fullscreenenter"",""1"",""1261""
","
","
","""event"",""trial"",""time""
""fullscreenenter"",""1"",""1261""
","
","","","-1","","","14","20092","7138","&#9826;","elianto","#f73b6a7A","-1","-1","1","0","[]","0","0","3","","","","","","","",""
"pit-trial","66","565458","0.0-2.0-14.1-2.1","battery-v0.2","","""event"",""trial"",""time""
""fullscreenenter"",""1"",""1261""
","
","
","""event"",""trial"",""time""
""fullscreenenter"",""1"",""1261""
","
","","","-1","","","14","20092","7138","&#9826;","elianto","#f73b6a7A","-1","-1","1","0","[]","0","0","3","","","","","","","",""
"pit-trial","67","570323","0.0-2.0-14.1-3.1","battery-v0.2","","""event"",""trial"",""time""
""fullscreenenter"",""1"",""1261""
","
","
","""event"",""trial"",""time""
""fullscreenenter"",""1"",""1261""
","
","","","-1","","","14","20092","7138","&#9826;","elianto","#f73b6a7A","-1","-1","1","-10","[]","0","0","3","","","","","","","",""
"pit-trial","68","575203","0.0-2.0-14.1-4.1","battery-v0.2","","""event"",""trial"",""time""
""fullscreenenter"",""1"",""1261""
","
","
","""event"",""trial"",""time""
""fullscreenenter"",""1"",""1261""
","
","","","-1","","","14","20092","7138","&#9826;","elianto","#f73b6a7A","-1","-1","1","0","[]","0","0","3","","","","","","","",""
"pit-trial","69","580064","0.0-2.0-14.2-0.2","battery-v0.2","","""event"",""trial"",""time""
""fullscreenenter"",""1"",""1261""
","
","
","""event"",""trial"",""time""
""fullscreenenter"",""1"",""1261""
","
","","","-1","","","14","20092","7138","&#9826;","elianto","#f73b6a7A","-1","-1","1","0","[]","0","0","3","","","","","","","",""
"pit-trial","70","584947","0.0-2.0-14.2-1.2","battery-v0.2","","""event"",""trial"",""time""
""fullscreenenter"",""1"",""1261""
","
","
","""event"",""trial"",""time""
""fullscreenenter"",""1"",""1261""
","
","","","-1","","","14","20092","7138","&#9826;","elianto","#f73b6a7A","-1","-1","1","0","[]","0","0","3","","","","","","","",""
"pit-trial","71","589806","0.0-2.0-14.2-2.2","battery-v0.2","","""event"",""trial"",""time""
""fullscreenenter"",""1"",""1261""
","
","
","""event"",""trial"",""time""
""fullscreenenter"",""1"",""1261""
","
","","","-1","","","14","20092","7138","&#9826;","elianto","#f73b6a7A","-1","-1","1","0","[]","0","0","3","","","","","","","",""
"pit-trial","72","594669","0.0-2.0-14.2-3.2","battery-v0.2","","""event"",""trial"",""time""
""fullscreenenter"",""1"",""1261""
","
","
","""event"",""trial"",""time""
""fullscreenenter"",""1"",""1261""
","
","","","-1","","","14","20092","7138","&#9826;","elianto","#f73b6a7A","-1","-1","1","-10","[]","0","0","3","","","","","","","",""
"pit-trial","73","599535","0.0-2.0-14.2-4.2","battery-v0.2","","""event"",""trial"",""time""
""fullscreenenter"",""1"",""1261""
","
","
","""event"",""trial"",""time""
""fullscreenenter"",""1"",""1261""
","
","","","-1","","","14","20092","7138","&#9826;","elianto","#f73b6a7A","-1","-1","1","0","[]","0","0","3","","","","","","","",""
"pit-trial","74","604406","0.0-2.0-14.3-0.3","battery-v0.2","","""event"",""trial"",""time""
""fullscreenenter"",""1"",""1261""
","
","
","""event"",""trial"",""time""
""fullscreenenter"",""1"",""1261""
","
","","","-1","","","14","20092","7138","&#9826;","elianto","#f73b6a7A","-1","-1","1","0","[]","0","0","3","","","","","","","",""
"pit-trial","75","609285","0.0-2.0-14.3-1.3","battery-v0.2","","""event"",""trial"",""time""
""fullscreenenter"",""1"",""1261""
","
","
","""event"",""trial"",""time""
""fullscreenenter"",""1"",""1261""
","
","","","-1","","","14","20092","7138","&#9826;","elianto","#f73b6a7A","-1","-1","1","0","[]","0","0","3","","","","","","","",""
"pit-trial","76","614152","0.0-2.0-14.3-2.3","battery-v0.2","","""event"",""trial"",""time""
""fullscreenenter"",""1"",""1261""
","
","
","""event"",""trial"",""time""
""fullscreenenter"",""1"",""1261""
","
","","","-1","","","14","20092","7138","&#9826;","elianto","#f73b6a7A","-1","-1","1","0","[]","0","0","3","","","","","","","",""
"pit-trial","77","619028","0.0-2.0-14.3-3.3","battery-v0.2","","""event"",""trial"",""time""
""fullscreenenter"",""1"",""1261""
","
","
","""event"",""trial"",""time""
""fullscreenenter"",""1"",""1261""
","
","","","-1","","","14","20092","7138","&#9826;","elianto","#f73b6a7A","-1","-1","1","-10","[]","0","0","3","","","","","","","",""
"pit-trial","78","623902","0.0-2.0-14.3-4.3","battery-v0.2","","""event"",""trial"",""time""
""fullscreenenter"",""1"",""1261""
","
","
","""event"",""trial"",""time""
""fullscreenenter"",""1"",""1261""
","
","","","-1","","","14","20092","7138","&#9826;","elianto","#f73b6a7A","-1","-1","1","0","[]","0","0","3","","","","","","","",""
"call-function","79","623904","0.0-2.0-15.0","battery-v0.2","","""event"",""trial"",""time""
""fullscreenenter"",""1"",""1261""
","
","
","""event"",""trial"",""time""
""fullscreenenter"",""1"",""1261""
","
","","","","","","","","","","","","","","","","","","","","","","","","","","",""
"pit-instructions","80","650152","0.0-2.0-16.0","battery-v0.2","","""event"",""trial"",""time""
""fullscreenenter"",""1"",""1261""
","
","
","""event"",""trial"",""time""
""fullscreenenter"",""1"",""1261""
","
","","[{""page_index"":0,""viewing_time"":8012.600000023842},{""page_index"":1,""viewing_time"":8147.899999976158},{""page_index"":2,""viewing_time"":4932.600000023842},{""page_index"":3,""viewing_time"":5143.799999952316}]","26238.300000071526","","","","","","","","","","","","","","","","","","","","","","","",""
"pit-trial","81","653156","0.0-2.0-17.0-0.0","battery-v0.2","","""event"",""trial"",""time""
""fullscreenenter"",""1"",""1261""
","
","
","""event"",""trial"",""time""
""fullscreenenter"",""1"",""1261""
","
","","","137.5","","","14","20092","7138","&#9789;","elianto","#f73b6a7A"," "," ","1","0","[988.8000000715256]","1","0","4","","","","","","","",""
"pit-trial","82","656227","0.0-2.0-17.0-1.0","battery-v0.2","","""event"",""trial"",""time""
""fullscreenenter"",""1"",""1261""
","
","
","""event"",""trial"",""time""
""fullscreenenter"",""1"",""1261""
","
","","","209.60000002384186","","","14","20092","7138","&#9789;","elianto","#f73b6a7A"," "," ","1","0","[1059.8000000715256]","1","0","4","","","","","","","",""
"pit-trial","83","659321","0.0-2.0-17.0-2.0","battery-v0.2","","""event"",""trial"",""time""
""fullscreenenter"",""1"",""1261""
","
","
","""event"",""trial"",""time""
""fullscreenenter"",""1"",""1261""
","
","","","231.10000002384186","","","14","20092","7138","&#9789;","elianto","#f73b6a7A"," "," ","1","0","[1088.0999999046326]","1","0","4","","","","","","","",""
"pit-trial","84","663824","0.0-2.0-17.0-3.0","battery-v0.2","","""event"",""trial"",""time""
""fullscreenenter"",""1"",""1261""
","
","
","""event"",""trial"",""time""
""fullscreenenter"",""1"",""1261""
","
","","","1642.2999999523163","","","14","20092","7138","&#9789;","elianto","#f73b6a7A"," "," ","1","-10","[712.7999999523163,2499.100000023842]","2","0","4","","","","","","","",""
"pit-trial","85","666786","0.0-2.0-17.0-4.0","battery-v0.2","","""event"",""trial"",""time""
""fullscreenenter"",""1"",""1261""
","
","
","""event"",""trial"",""time""
""fullscreenenter"",""1"",""1261""
","
","","","97.30000007152557","","","14","20092","7138","&#9789;","elianto","#f73b6a7A"," "," ","1","0","[950.6000000238419]","1","0","4","","","","","","","",""
"pit-trial","86","669872","0.0-2.0-17.1-0.1","battery-v0.2","","""event"",""trial"",""time""
""fullscreenenter"",""1"",""1261""
","
","
","""event"",""trial"",""time""
""fullscreenenter"",""1"",""1261""
","
","","","211.70000004768372","","","14","20092","7138","&#9789;","elianto","#f73b6a7A"," "," ","1","0","[599.6000000238419,1065.8000000715256]","2","0","4","","","","","","","",""
"pit-trial","87","672936","0.0-2.0-17.1-1.1","battery-v0.2","","""event"",""trial"",""time""
""fullscreenenter"",""1"",""1261""
","
","
","""event"",""trial"",""time""
""fullscreenenter"",""1"",""1261""
","
","","","189.10000002384186","","","14","20092","7138","&#9789;","elianto","#f73b6a7A"," "," ","1","0","[1051.6999999284744]","1","0","4","","","","","","","",""
"pit-trial","88","675929","0.0-2.0-17.1-2.1","battery-v0.2","","""event"",""trial"",""time""
""fullscreenenter"",""1"",""1261""
","
","
","""event"",""trial"",""time""
""fullscreenenter"",""1"",""1261""
","
","","","130.10000002384186","","","14","20092","7138","&#9789;","elianto","#f73b6a7A"," "," ","1","0","[986.8000000715256]","1","0","4","","","","","","","",""
"pit-trial","89","678798","0.0-2.0-17.1-3.1","battery-v0.2","","""event"",""trial"",""time""
""fullscreenenter"",""1"",""1261""
","
","
","""event"",""trial"",""time""
""fullscreenenter"",""1"",""1261""
","
","","","6","","","14","20092","7138","&#9789;","elianto","#f73b6a7A"," "," ","1","-10","[860.7000000476837]","1","0","4","","","","","","","",""
"pit-trial","90","681764","0.0-2.0-17.1-4.1","battery-v0.2","","""event"",""trial"",""time""
""fullscreenenter"",""1"",""1261""
","
","
","""event"",""trial"",""time""
""fullscreenenter"",""1"",""1261""
","
","","","109.20000004768372","","","14","20092","7138","&#9789;","elianto","#f73b6a7A"," "," ","1","0","[960.1000000238419]","1","0","4","","","","","","","",""
"pit-trial","91","684781","0.0-2.0-17.2-0.2","battery-v0.2","","""event"",""trial"",""time""
""fullscreenenter"",""1"",""1261""
","
","
","""event"",""trial"",""time""
""fullscreenenter"",""1"",""1261""
","
","","","157.19999992847443","","","14","20092","7138","&#9789;","elianto","#f73b6a7A"," "," ","1","0","[1009.1000000238419]","1","0","4","","","","","","","",""
"pit-trial","92","687886","0.0-2.0-17.2-1.2","battery-v0.2","","""event"",""trial"",""time""
""fullscreenenter"",""1"",""1261""
","
","
","""event"",""trial"",""time""
""fullscreenenter"",""1"",""1261""
","
","","","249.60000002384186","","","14","20092","7138","&#9789;","elianto","#f73b6a7A"," "," ","1","0","[1101.2000000476837]","1","0","4","","","","","","","",""
"pit-trial","93","690976","0.0-2.0-17.2-2.2","battery-v0.2","","""event"",""trial"",""time""
""fullscreenenter"",""1"",""1261""
","
","
","""event"",""trial"",""time""
""fullscreenenter"",""1"",""1261""
","
","","","232.89999997615814","","","14","20092","7138","&#9789;","elianto","#f73b6a7A"," "," ","1","0","[1085.6000000238419]","1","0","4","","","","","","","",""
"pit-trial","94","694056","0.0-2.0-17.2-3.2","battery-v0.2","","""event"",""trial"",""time""
""fullscreenenter"",""1"",""1261""
","
","
","""event"",""trial"",""time""
""fullscreenenter"",""1"",""1261""
","
","","","219","","","14","20092","7138","&#9789;","elianto","#f73b6a7A"," "," ","1","-10","[1073.8999999761581]","1","0","4","","","","","","","",""
"pit-trial","95","697078","0.0-2.0-17.2-4.2","battery-v0.2","","""event"",""trial"",""time""
""fullscreenenter"",""1"",""1261""
","
","
","""event"",""trial"",""time""
""fullscreenenter"",""1"",""1261""
","
","","","156.20000004768372","","","14","20092","7138","&#9789;","elianto","#f73b6a7A"," "," ","1","0","[1010.8999999761581]","1","0","4","","","","","","","",""
"pit-trial","96","700146","0.0-2.0-17.3-0.3","battery-v0.2","","""event"",""trial"",""time""
""fullscreenenter"",""1"",""1261""
","
","
","""event"",""trial"",""time""
""fullscreenenter"",""1"",""1261""
","
","","","205.20000004768372","","","14","20092","7138","&#9789;","elianto","#f73b6a7A"," "," ","1","0","[1060.2999999523163]","1","0","4","","","","","","","",""
"pit-trial","97","703139","0.0-2.0-17.3-1.3","battery-v0.2","","""event"",""trial"",""time""
""fullscreenenter"",""1"",""1261""
","
","
","""event"",""trial"",""time""
""fullscreenenter"",""1"",""1261""
","
","","","128.29999995231628","","","14","20092","7138","&#9789;","elianto","#f73b6a7A"," "," ","1","0","[984.6000000238419]","1","0","4","","","","","","","",""
"pit-trial","98","706189","0.0-2.0-17.3-2.3","battery-v0.2","","""event"",""trial"",""time""
""fullscreenenter"",""1"",""1261""
","
","
","""event"",""trial"",""time""
""fullscreenenter"",""1"",""1261""
","
","","","185.09999990463257","","","14","20092","7138","&#9789;","elianto","#f73b6a7A"," "," ","1","0","[589.1000000238419,1037.5]","2","0","4","","","","","","","",""
"pit-trial","99","709210","0.0-2.0-17.3-3.3","battery-v0.2","","""event"",""trial"",""time""
""fullscreenenter"",""1"",""1261""
","
","
","""event"",""trial"",""time""
""fullscreenenter"",""1"",""1261""
","
","","","157.69999992847443","","","14","20092","7138","&#9789;","elianto","#f73b6a7A"," "," ","1","-10","[1012.3999999761581]","1","0","4","","","","","","","",""
"pit-trial","100","712236","0.0-2.0-17.3-4.3","battery-v0.2","","""event"",""trial"",""time""
""fullscreenenter"",""1"",""1261""
","
","
","""event"",""trial"",""time""
""fullscreenenter"",""1"",""1261""
","
","","","161.10000002384186","","","14","20092","7138","&#9789;","elianto","#f73b6a7A"," "," ","1","0","[1016.3000000715256]","1","0","4","","","","","","","",""
"call-function","101","712238","0.0-2.0-18.0","battery-v0.2","","""event"",""trial"",""time""
""fullscreenenter"",""1"",""1261""
","
","
","""event"",""trial"",""time""
""fullscreenenter"",""1"",""1261""
","
","","","","","","","","","","","","","","","","","","","","","","","","","","",""
"pit-instructions","102","779678","0.0-2.0-19.0","battery-v0.2","","""event"",""trial"",""time""
""fullscreenenter"",""1"",""1261""
","
","
","""event"",""trial"",""time""
""fullscreenenter"",""1"",""1261""
","
","","[{""page_index"":0,""viewing_time"":8819.100000023842},{""page_index"":1,""viewing_time"":5408.799999952316},{""page_index"":2,""viewing_time"":9459.200000047684},{""page_index"":3,""viewing_time"":7126.200000047684},{""page_index"":4,""viewing_time"":8443.799999952316},{""page_index"":5,""viewing_time"":9109.399999976158},{""page_index"":6,""viewing_time"":8603.300000071526},{""page_index"":7,""viewing_time"":6366.299999952316},{""page_index"":8,""viewing_time"":4101.799999952316}]","67439.80000007153","","","","","","","","","","","","","","","","","","","","","","","",""
"pit-comprehension","103","784113","0.0-2.0-20.0-0.0","battery-v0.2","","""event"",""trial"",""time""
""fullscreenenter"",""1"",""1261""
","
","
","""event"",""trial"",""time""
""fullscreenenter"",""1"",""1261""
","
","","","4425.5","[""SPACE""]","0","14","20092","7138","","","","","","","","","","","","","","","","","","",""
"pit-instructions","104","790667","0.0-2.0-20.0-1.0","battery-v0.2","","""event"",""trial"",""time""
""fullscreenenter"",""1"",""1261""
","
","
","""event"",""trial"",""time""
""fullscreenenter"",""1"",""1261""
","
","","[{""page_index"":0,""viewing_time"":6496.700000047684}]","6497.300000071526","","","","","","","","","","","","","","","","","","","","","","","",""
"pit-comprehension","105","796980","0.0-2.0-21.0-0.0","battery-v0.2","","""event"",""trial"",""time""
""fullscreenenter"",""1"",""1261""
","
","
","""event"",""trial"",""time""
""fullscreenenter"",""1"",""1261""
","
","","","6305.799999952316","[""10""]","0","14","20092","7138","","","","","","","","","","","","","","","","","","",""
"pit-instructions","106","798787","0.0-2.0-21.0-1.0","battery-v0.2","","""event"",""trial"",""time""
""fullscreenenter"",""1"",""1261""
","
","
","""event"",""trial"",""time""
""fullscreenenter"",""1"",""1261""
","
","","[{""page_index"":0,""viewing_time"":1755.5}]","1756.5999999046326","","","","","","","","","","","","","","","","","","","","","","","",""
"pit-comprehension","107","805823","0.0-2.0-22.0-0.0","battery-v0.2","","""event"",""trial"",""time""
""fullscreenenter"",""1"",""1261""
","
","
","""event"",""trial"",""time""
""fullscreenenter"",""1"",""1261""
","
","","","7026.200000047684","[""0""]","0","14","20092","7138","","","","","","","","","","","","","","","","","","",""
"pit-instructions","108","807573","0.0-2.0-22.0-1.0","battery-v0.2","","""event"",""trial"",""time""
""fullscreenenter"",""1"",""1261""
","
","
","""event"",""trial"",""time""
""fullscreenenter"",""1"",""1261""
","
","","[{""page_index"":0,""viewing_time"":1693.0999999046326}]","1694.2999999523163","","","","","","","","","","","","","","","","","","","","","","","",""
"pit-comprehension","109","819006","0.0-2.0-23.0-0.0","battery-v0.2","","""event"",""trial"",""time""
""fullscreenenter"",""1"",""1261""
","
","
","""event"",""trial"",""time""
""fullscreenenter"",""1"",""1261""
","
","","","11425.100000023842","[""False""]","1","14","20092","7138","","","","","","","","","","","","","","","","","","",""
"pit-instructions","110","822598","0.0-2.0-23.0-1.0","battery-v0.2","","""event"",""trial"",""time""
""fullscreenenter"",""1"",""1261""
","
","
","""event"",""trial"",""time""
""fullscreenenter"",""1"",""1261""
","
","","[{""page_index"":0,""viewing_time"":3543.5999999046326}]","3545.7999999523163","","","","","","","","","","","","","","","","","","","","","","","",""
"pit-instructions","111","826435","0.0-2.0-23.0-2.0-0.0","battery-v0.2","","""event"",""trial"",""time""
""fullscreenenter"",""1"",""1261""
","
","
","""event"",""trial"",""time""
""fullscreenenter"",""1"",""1261""
","
","","[{""page_index"":0,""viewing_time"":3830}]","3832.5","","","","","","","","","","","","","","","","","","","","","","","",""
"pit-comprehension","112","835010","0.0-2.0-23.1-0.1","battery-v0.2","","""event"",""trial"",""time""
""fullscreenenter"",""1"",""1261""
","
","
","""event"",""trial"",""time""
""fullscreenenter"",""1"",""1261""
","
","","","8568.600000023842","[""True""]","0","14","20092","7138","","","","","","","","","","","","","","","","","","",""
"pit-instructions","113","837361","0.0-2.0-23.1-1.1","battery-v0.2","","""event"",""trial"",""time""
""fullscreenenter"",""1"",""1261""
","
","
","""event"",""trial"",""time""
""fullscreenenter"",""1"",""1261""
","
","","[{""page_index"":0,""viewing_time"":2283.399999976158}]","2286.0999999046326","","","","","","","","","","","","","","","","","","","","","","","",""
"pit-comprehension","114","844998","0.0-2.0-24.0-0.0","battery-v0.2","","""event"",""trial"",""time""
""fullscreenenter"",""1"",""1261""
","
","
","""event"",""trial"",""time""
""fullscreenenter"",""1"",""1261""
","
","","","7628.600000023842","[""True""]","0","14","20092","7138","","","","","","","","","","","","","","","","","","",""
"pit-instructions","115","846946","0.0-2.0-24.0-1.0","battery-v0.2","","""event"",""trial"",""time""
""fullscreenenter"",""1"",""1261""
","
","
","""event"",""trial"",""time""
""fullscreenenter"",""1"",""1261""
","
","","[{""page_index"":0,""viewing_time"":1900.0999999046326}]","1900.6999999284744","","","","","","","","","","","","","","","","","","","","","","","",""
"pit-comprehension","116","853735","0.0-2.0-25.0-0.0","battery-v0.2","","""event"",""trial"",""time""
""fullscreenenter"",""1"",""1261""
","
","
","""event"",""trial"",""time""
""fullscreenenter"",""1"",""1261""
","
","","","6779.899999976158","[""True""]","0","14","20092","7138","","","","","","","","","","","","","","","","","","",""
"pit-instructions","117","855501","0.0-2.0-25.0-1.0","battery-v0.2","","""event"",""trial"",""time""
""fullscreenenter"",""1"",""1261""
","
","
","""event"",""trial"",""time""
""fullscreenenter"",""1"",""1261""
","
","","[{""page_index"":0,""viewing_time"":1714.6000000238419}]","1715.4000000953674","","","","","","","","","","","","","","","","","","","","","","","",""
"pit-comprehension","118","861820","0.0-2.0-26.0-0.0","battery-v0.2","","""event"",""trial"",""time""
""fullscreenenter"",""1"",""1261""
","
","
","""event"",""trial"",""time""
""fullscreenenter"",""1"",""1261""
","
","","","6306.399999976158","[""False""]","0","14","20092","7138","","","","","","","","","","","","","","","","","","",""
"pit-instructions","119","863556","0.0-2.0-26.0-1.0","battery-v0.2","","""event"",""trial"",""time""
""fullscreenenter"",""1"",""1261""
","
","
","""event"",""trial"",""time""
""fullscreenenter"",""1"",""1261""
","
","","[{""page_index"":0,""viewing_time"":1657.6000000238419}]","1658.3999999761581","","","","","","","","","","","","","","","","","","","","","","","",""
"pit-instructions","120","882168","0.0-3.0","battery-v0.2","","""event"",""trial"",""time""
""fullscreenenter"",""1"",""1261""
","
","
","""event"",""trial"",""time""
""fullscreenenter"",""1"",""1261""
","
","","[{""page_index"":0,""viewing_time"":5749.899999976158},{""page_index"":1,""viewing_time"":5140.5},{""page_index"":2,""viewing_time"":7715}]","18606.800000071526","","","","","","","","","","","","","","","","","","","","","","","",""
"pit-trial","121","886658","0.0-4.0","battery-v0.2","","""event"",""trial"",""time""
""fullscreenenter"",""1"",""1261""
","
","
","""event"",""trial"",""time""
""fullscreenenter"",""1"",""1261""
","
","","","1612.7000000476837","","","14","20092","7138","&#9752;","elianto","#f73b6a7A"," "," ","1","0","[2463.3000000715256]","1","1","","","20092","1","3","3","lose","go","0"
"pit-trial","122","891528","0.0-5.0","battery-v0.2","","""event"",""trial"",""time""
""fullscreenenter"",""1"",""1261""
","
","
","""event"",""trial"",""time""
""fullscreenenter"",""1"",""1261""
","
","","","-1","","","14","20092","7138","&#9728;","elianto","#f73b6a7A","-1","-1","1","-10","[]","0","1","","","20092","2","0","4","lose","no-go","1"
"pit-trial","123","895411","0.0-6.0","battery-v0.2","","""event"",""trial"",""time""
""fullscreenenter"",""1"",""1261""
","
","
","""event"",""trial"",""time""
""fullscreenenter"",""1"",""1261""
","
","","","1018.3999999761581","","","14","20092","7138","&#9730;","elianto","#3366ff99"," "," ","1","+10","[1869.5]","1","1","","","20092","3","1","1","win","go","0"
"pit-trial","124","899111","0.0-7.0","battery-v0.2","","""event"",""trial"",""time""
""fullscreenenter"",""1"",""1261""
","
","
","""event"",""trial"",""time""
""fullscreenenter"",""1"",""1261""
","
","","","825.9000000953674","","","14","20092","7138","&#9733;","elianto","#3366ff99","-1"," ","0","+10","[1684.5]","1","1","","","20092","4","2","2","win","no-go","1"
"pit-trial","125","902573","0.0-8.0","battery-v0.2","","""event"",""trial"",""time""
""fullscreenenter"",""1"",""1261""
","
","
","""event"",""trial"",""time""
""fullscreenenter"",""1"",""1261""
","
","","","583.8000000715256","","","14","20092","7138","&#9730;","elianto","#3366ff99"," "," ","1","+10","[1448]","1","1","","","20092","5","1","1","win","go","0"
"pit-trial","126","906770","0.0-9.0","battery-v0.2","","""event"",""trial"",""time""
""fullscreenenter"",""1"",""1261""
","
","
","""event"",""trial"",""time""
""fullscreenenter"",""1"",""1261""
","
","","","1334.0999999046326","","","14","20092","7138","&#9752;","elianto","#f73b6a7A"," "," ","1","0","[2185.2999999523163]","1","1","","","20092","6","3","3","lose","go","0"
"pit-trial","127","910241","0.0-10.0","battery-v0.2","","""event"",""trial"",""time""
""fullscreenenter"",""1"",""1261""
","
","
","""event"",""trial"",""time""
""fullscreenenter"",""1"",""1261""
","
","","","607.6999999284744","","","14","20092","7138","&#9733;","elianto","#3366ff99","-1"," ","0","0","[1457.7000000476837]","1","1","","","20092","7","2","2","win","no-go","0"
"pit-trial","128","914571","0.0-11.0","battery-v0.2","","""event"",""trial"",""time""
""fullscreenenter"",""1"",""1261""
","
","
","""event"",""trial"",""time""
""fullscreenenter"",""1"",""1261""
","
","","","1451.3999999761581","","","14","20092","7138","&#9728;","elianto","#f73b6a7A","-1"," ","0","-10","[2311.600000023842]","1","1","","","20092","8","0","4","lose","no-go","0"
"pit-trial","129","919438","0.0-12.0","battery-v0.2","","""event"",""trial"",""time""
""fullscreenenter"",""1"",""1261""
","
","
","""event"",""trial"",""time""
""fullscreenenter"",""1"",""1261""
","
","","","-1","","","14","20092","7138","&#9752;","elianto","#f73b6a7A"," ","-1","0","-10","[]","0","1","","","20092","9","3","3","lose","go","0"
"pit-trial","130","922748","0.0-13.0","battery-v0.2","","""event"",""trial"",""time""
""fullscreenenter"",""1"",""1261""
","
","
","""event"",""trial"",""time""
""fullscreenenter"",""1"",""1261""
","
","","","443.7000000476837","","","14","20092","7138","&#9730;","elianto","#3366ff99"," "," ","1","+10","[1301.6000000238419]","1","1","","","20092","10","1","1","win","go","0"
"pit-trial","131","926916","0.0-14.0","battery-v0.2","","""event"",""trial"",""time""
""fullscreenenter"",""1"",""1261""
","
","
","""event"",""trial"",""time""
""fullscreenenter"",""1"",""1261""
","
","","","1309.3000000715256","","","14","20092","7138","&#9728;","elianto","#f73b6a7A","-1"," ","0","-10","[2159.600000023842]","1","1","","","20092","11","0","4","lose","no-go","0"
"pit-trial","132","930329","0.0-15.0","battery-v0.2","","""event"",""trial"",""time""
""fullscreenenter"",""1"",""1261""
","
","
","""event"",""trial"",""time""
""fullscreenenter"",""1"",""1261""
","
","","","551.7000000476837","","","14","20092","7138","&#9733;","elianto","#3366ff99","-1"," ","0","0","[1402.2999999523163]","1","1","","","20092","12","2","2","win","no-go","0"
"pit-trial","133","935192","0.0-16.0","battery-v0.2","","""event"",""trial"",""time""
""fullscreenenter"",""1"",""1261""
","
","
","""event"",""trial"",""time""
""fullscreenenter"",""1"",""1261""
","
","","","-1","","","14","20092","7138","&#9728;","elianto","#f73b6a7A","-1","-1","1","0","[]","0","1","","","20092","13","0","4","lose","no-go","0"
"pit-trial","134","938868","0.0-17.0","battery-v0.2","","""event"",""trial"",""time""
""fullscreenenter"",""1"",""1261""
","
","
","""event"",""trial"",""time""
""fullscreenenter"",""1"",""1261""
","
","","","814.3999999761581","","","14","20092","7138","&#9730;","elianto","#3366ff99"," "," ","1","+10","[1671.2000000476837]","1","1","","","20092","14","1","1","win","go","0"
"pit-trial","135","942939","0.0-18.0","battery-v0.2","","""event"",""trial"",""time""
""fullscreenenter"",""1"",""1261""
","
","
","""event"",""trial"",""time""
""fullscreenenter"",""1"",""1261""
","
","","","1202.5999999046326","","","14","20092","7138","&#9752;","elianto","#f73b6a7A"," "," ","1","-10","[2061.2999999523163]","1","1","","","20092","15","3","3","lose","go","1"
"pit-trial","136","946428","0.0-19.0","battery-v0.2","","""event"",""trial"",""time""
""fullscreenenter"",""1"",""1261""
","
","
","""event"",""trial"",""time""
""fullscreenenter"",""1"",""1261""
","
","","","619","","","14","20092","7138","&#9733;","elianto","#3366ff99","-1"," ","0","0","[1478.5]","1","1","","","20092","16","2","2","win","no-go","0"
"pit-trial","137","951293","0.0-20.0","battery-v0.2","","""event"",""trial"",""time""
""fullscreenenter"",""1"",""1261""
","
","
","""event"",""trial"",""time""
""fullscreenenter"",""1"",""1261""
","
","","","-1","","","14","20092","7138","&#9728;","elianto","#f73b6a7A","-1","-1","1","0","[]","0","1","","","20092","17","0","4","lose","no-go","0"
"pit-trial","138","954608","0.0-21.0","battery-v0.2","","""event"",""trial"",""time""
""fullscreenenter"",""1"",""1261""
","
","
","""event"",""trial"",""time""
""fullscreenenter"",""1"",""1261""
","
","","","457.8000000715256","","","14","20092","7138","&#9730;","elianto","#3366ff99"," "," ","1","+10","[1308.3000000715256]","1","1","","","20092","18","1","1","win","go","0"
"pit-trial","139","958474","0.0-22.0","battery-v0.2","","""event"",""trial"",""time""
""fullscreenenter"",""1"",""1261""
","
","
","""event"",""trial"",""time""
""fullscreenenter"",""1"",""1261""
","
","","","996.2000000476837","","","14","20092","7138","&#9733;","elianto","#3366ff99","-1"," ","0","0","[1854.6000000238419]","1","1","","","20092","19","2","2","win","no-go","0"
"pit-trial","140","963339","0.0-23.0","battery-v0.2","","""event"",""trial"",""time""
""fullscreenenter"",""1"",""1261""
","
","
","""event"",""trial"",""time""
""fullscreenenter"",""1"",""1261""
","
","","","-1","","","14","20092","7138","&#9752;","elianto","#f73b6a7A"," ","-1","0","-10","[]","0","1","","","20092","20","3","3","lose","go","0"
"pit-instructions","141","977118","0.0-24.0","battery-v0.2","","""event"",""trial"",""time""
""fullscreenenter"",""1"",""1261""
","
","
","""event"",""trial"",""time""
""fullscreenenter"",""1"",""1261""
","
","","[{""page_index"":0,""viewing_time"":7102},{""page_index"":1,""viewing_time"":6674.399999976158}]","13777","","","","","","","","","","","","","","","","","","","","","","","",""
"pit-trial","142","980987","0.0-25.0","battery-v0.2","","""event"",""trial"",""time""
""fullscreenenter"",""1"",""1261""
","
","
","""event"",""trial"",""time""
""fullscreenenter"",""1"",""1261""
","
","","","995.6999999284744","","","14","20092","7138","r","elianto","#3366ff99","-1"," ","0","0","[1848.3999999761581]","1","2","","","20092","21","1","2","win","no-go","0"
"pit-trial","143","985852","0.0-26.0","battery-v0.2","","""event"",""trial"",""time""
""fullscreenenter"",""1"",""1261""
","
","
","""event"",""trial"",""time""
""fullscreenenter"",""1"",""1261""
","
","","","-1","","","14","20092","7138","y","elianto","#f73b6a7A"," ","-1","0","-10","[]","0","2","","","20092","22","2","3","lose","go","0"
"pit-trial","144","990350","0.0-27.0","battery-v0.2","","""event"",""trial"",""time""
""fullscreenenter"",""1"",""1261""
","
","
","""event"",""trial"",""time""
""fullscreenenter"",""1"",""1261""
","
","","","1628.6000000238419","","","14","20092","7138","h","elianto","#f73b6a7A","-1"," ","0","-10","[2478.6999999284744]","1","2","","","20092","23","3","4","lose","no-go","0"
"pit-trial","145","994274","0.0-28.0","battery-v0.2","","""event"",""trial"",""time""
""fullscreenenter"",""1"",""1261""
","
","
","""event"",""trial"",""time""
""fullscreenenter"",""1"",""1261""
","
","","","1063","","","14","20092","7138","m","elianto","#f73b6a7A"," "," ","1","-10","[1919.2999999523163]","1","2","","","20092","24","0","3","lose","go","1"
"pit-trial","146","997657","0.0-29.0","battery-v0.2","","""event"",""trial"",""time""
""fullscreenenter"",""1"",""1261""
","
","
","""event"",""trial"",""time""
""fullscreenenter"",""1"",""1261""
","
","","","516.8000000715256","","","14","20092","7138","r","elianto","#3366ff99","-1"," ","0","0","[1372.2000000476837]","1","2","","","20092","25","1","2","win","no-go","0"
"pit-trial","147","1001188","0.0-30.0","battery-v0.2","","""event"",""trial"",""time""
""fullscreenenter"",""1"",""1261""
","
","
","""event"",""trial"",""time""
""fullscreenenter"",""1"",""1261""
","
","","","666.3999999761581","","","14","20092","7138","h","elianto","#f73b6a7A","-1"," ","0","-10","[1517.3999999761581]","1","2","","","20092","26","3","4","lose","no-go","0"
"pit-trial","148","1006065","0.0-31.0","battery-v0.2","","""event"",""trial"",""time""
""fullscreenenter"",""1"",""1261""
","
","
","""event"",""trial"",""time""
""fullscreenenter"",""1"",""1261""
","
","","","-1","","","14","20092","7138","y","elianto","#f73b6a7A"," ","-1","0","0","[]","0","2","","","20092","27","2","3","lose","go","1"
"pit-trial","149","1010955","0.0-32.0","battery-v0.2","","""event"",""trial"",""time""
""fullscreenenter"",""1"",""1261""
","
","
","""event"",""trial"",""time""
""fullscreenenter"",""1"",""1261""
","
","","","-1","","","14","20092","7138","m","elianto","#f73b6a7A"," ","-1","0","-10","[]","0","2","","","20092","28","0","3","lose","go","0"
"pit-trial","150","1014296","0.0-33.0","battery-v0.2","","""event"",""trial"",""time""
""fullscreenenter"",""1"",""1261""
","
","
","""event"",""trial"",""time""
""fullscreenenter"",""1"",""1261""
","
","","","484.90000009536743","","","14","20092","7138","r","elianto","#3366ff99","-1"," ","0","0","[1336.3999999761581]","1","2","","","20092","29","1","2","win","no-go","0"
"pit-trial","151","1019166","0.0-34.0","battery-v0.2","","""event"",""trial"",""time""
""fullscreenenter"",""1"",""1261""
","
","
","""event"",""trial"",""time""
""fullscreenenter"",""1"",""1261""
","
","","","-1","","","14","20092","7138","y","elianto","#f73b6a7A"," ","-1","0","-10","[]","0","2","","","20092","30","2","3","lose","go","0"
"pit-trial","152","1024033","0.0-35.0","battery-v0.2","","""event"",""trial"",""time""
""fullscreenenter"",""1"",""1261""
","
","
","""event"",""trial"",""time""
""fullscreenenter"",""1"",""1261""
","
","","","-1","","","14","20092","7138","h","elianto","#f73b6a7A","-1","-1","1","0","[]","0","2","","","20092","31","3","4","lose","no-go","0"
"pit-trial","153","1028496","0.0-36.0","battery-v0.2","","""event"",""trial"",""time""
""fullscreenenter"",""1"",""1261""
","
","
","""event"",""trial"",""time""
""fullscreenenter"",""1"",""1261""
","
","","","1595.6999999284744","","","14","20092","7138","m","elianto","#f73b6a7A"," "," ","1","0","[2450.899999976158]","1","2","","","20092","32","0","3","lose","go","0"
"pit-trial","154","1032536","0.0-37.0","battery-v0.2","","""event"",""trial"",""time""
""fullscreenenter"",""1"",""1261""
","
","
","""event"",""trial"",""time""
""fullscreenenter"",""1"",""1261""
","
","","","1180.6999999284744","","","14","20092","7138","m","elianto","#f73b6a7A"," "," ","1","0","[2033.1999999284744]","1","2","","","20092","33","0","3","lose","go","0"
"pit-trial","155","1035911","0.0-38.0","battery-v0.2","","""event"",""trial"",""time""
""fullscreenenter"",""1"",""1261""
","
","
","""event"",""trial"",""time""
""fullscreenenter"",""1"",""1261""
","
","","","506.2000000476837","","","14","20092","7138","r","elianto","#3366ff99","-1"," ","0","0","[1367.2000000476837]","1","2","","","20092","34","1","2","win","no-go","0"
"pit-trial","156","1040774","0.0-39.0","battery-v0.2","","""event"",""trial"",""time""
""fullscreenenter"",""1"",""1261""
","
","
","""event"",""trial"",""time""
""fullscreenenter"",""1"",""1261""
","
","","","-1","","","14","20092","7138","h","elianto","#f73b6a7A","-1","-1","1","-10","[]","0","2","","","20092","35","3","4","lose","no-go","1"
"pit-trial","157","1045630","0.0-40.0","battery-v0.2","","""event"",""trial"",""time""
""fullscreenenter"",""1"",""1261""
","
","
","""event"",""trial"",""time""
""fullscreenenter"",""1"",""1261""
","
","","","-1","","","14","20092","7138","y","elianto","#f73b6a7A"," ","-1","0","-10","[]","0","2","","","20092","36","2","3","lose","go","0"
"pit-trial","158","1049027","0.0-41.0","battery-v0.2","","""event"",""trial"",""time""
""fullscreenenter"",""1"",""1261""
","
","
","""event"",""trial"",""time""
""fullscreenenter"",""1"",""1261""
","
","","","535.3999999761581","","","14","20092","7138","r","elianto","#3366ff99","-1"," ","0","0","[1393.3999999761581]","1","2","","","20092","37","1","2","win","no-go","0"
"pit-trial","159","1052747","0.0-42.0","battery-v0.2","","""event"",""trial"",""time""
""fullscreenenter"",""1"",""1261""
","
","
","""event"",""trial"",""time""
""fullscreenenter"",""1"",""1261""
","
","","","854.2000000476837","","","14","20092","7138","m","elianto","#f73b6a7A"," "," ","1","0","[1709.6999999284744]","1","2","","","20092","38","0","3","lose","go","0"
"pit-trial","160","1057612","0.0-43.0","battery-v0.2","","""event"",""trial"",""time""
""fullscreenenter"",""1"",""1261""
","
","
","""event"",""trial"",""time""
""fullscreenenter"",""1"",""1261""
","
","","","-1","","","14","20092","7138","h","elianto","#f73b6a7A","-1","-1","1","0","[]","0","2","","","20092","39","3","4","lose","no-go","0"
"pit-trial","161","1062477","0.0-44.0","battery-v0.2","","""event"",""trial"",""time""
""fullscreenenter"",""1"",""1261""
","
","
","""event"",""trial"",""time""
""fullscreenenter"",""1"",""1261""
","
","","","-1","","","14","20092","7138","y","elianto","#f73b6a7A"," ","-1","0","-10","[]","0","2","","","20092","40","2","3","lose","go","0"
"pit-trial","162","1066051","0.0-45.0","battery-v0.2","","""event"",""trial"",""time""
""fullscreenenter"",""1"",""1261""
","
","
","""event"",""trial"",""time""
""fullscreenenter"",""1"",""1261""
","
","","","704.8999999761581","","","14","20092","7138","m","elianto","#f73b6a7A"," "," ","1","0","[1564.7000000476837]","1","2","","","20092","41","0","3","lose","go","0"
"pit-trial","163","1069491","0.0-46.0","battery-v0.2","","""event"",""trial"",""time""
""fullscreenenter"",""1"",""1261""
","
","
","""event"",""trial"",""time""
""fullscreenenter"",""1"",""1261""
","
","","","581","","","14","20092","7138","r","elianto","#3366ff99","-1"," ","0","0","[1431.6999999284744]","1","2","","","20092","42","1","2","win","no-go","0"
"pit-trial","164","1074360","0.0-47.0","battery-v0.2","","""event"",""trial"",""time""
""fullscreenenter"",""1"",""1261""
","
","
","""event"",""trial"",""time""
""fullscreenenter"",""1"",""1261""
","
","","","-1","","","14","20092","7138","h","elianto","#f73b6a7A","-1","-1","1","0","[]","0","2","","","20092","43","3","4","lose","no-go","0"
"pit-trial","165","1078291","0.0-48.0","battery-v0.2","","""event"",""trial"",""time""
""fullscreenenter"",""1"",""1261""
","
","
","""event"",""trial"",""time""
""fullscreenenter"",""1"",""1261""
","
","","","1062.6000000238419","","","14","20092","7138","y","elianto","#f73b6a7A"," "," ","1","0","[1921.7999999523163]","1","2","","","20092","44","2","3","lose","go","0"
"pit-trial","166","1081838","0.0-49.0","battery-v0.2","","""event"",""trial"",""time""
""fullscreenenter"",""1"",""1261""
","
","
","""event"",""trial"",""time""
""fullscreenenter"",""1"",""1261""
","
","","","683.5999999046326","","","14","20092","7138","m","elianto","#f73b6a7A"," "," ","1","0","[1539.6999999284744]","1","2","","","20092","45","0","3","lose","go","0"
"pit-trial","167","1085485","0.0-50.0","battery-v0.2","","""event"",""trial"",""time""
""fullscreenenter"",""1"",""1261""
","
","
","""event"",""trial"",""time""
""fullscreenenter"",""1"",""1261""
","
","","","779.8000000715256","","","14","20092","7138","y","elianto","#f73b6a7A"," "," ","1","0","[1640]","1","2","","","20092","46","2","3","lose","go","0"
"pit-trial","168","1090348","0.0-51.0","battery-v0.2","","""event"",""trial"",""time""
""fullscreenenter"",""1"",""1261""
","
","
","""event"",""trial"",""time""
""fullscreenenter"",""1"",""1261""
","
","","","-1","","","14","20092","7138","h","elianto","#f73b6a7A","-1","-1","1","0","[]","0","2","","","20092","47","3","4","lose","no-go","0"
"pit-trial","169","1093775","0.0-52.0","battery-v0.2","","""event"",""trial"",""time""
""fullscreenenter"",""1"",""1261""
","
","
","""event"",""trial"",""time""
""fullscreenenter"",""1"",""1261""
","
","","","562.5999999046326","","","14","20092","7138","r","elianto","#3366ff99","-1"," ","0","0","[1419.1999999284744]","1","2","","","20092","48","1","2","win","no-go","0"
"pit-trial","170","1097382","0.0-53.0","battery-v0.2","","""event"",""trial"",""time""
""fullscreenenter"",""1"",""1261""
","
","
","""event"",""trial"",""time""
""fullscreenenter"",""1"",""1261""
","
","","","751","","","14","20092","7138","y","elianto","#f73b6a7A"," "," ","1","0","[1601.2999999523163]","1","2","","","20092","49","2","3","lose","go","0"
"pit-trial","171","1100818","0.0-54.0","battery-v0.2","","""event"",""trial"",""time""
""fullscreenenter"",""1"",""1261""
","
","
","""event"",""trial"",""time""
""fullscreenenter"",""1"",""1261""
","
","","","579.7000000476837","","","14","20092","7138","m","elianto","#f73b6a7A"," "," ","1","0","[1432]","1","2","","","20092","50","0","3","lose","go","0"
"pit-trial","172","1104358","0.0-55.0","battery-v0.2","","""event"",""trial"",""time""
""fullscreenenter"",""1"",""1261""
","
","
","""event"",""trial"",""time""
""fullscreenenter"",""1"",""1261""
","
","","","675.2999999523163","","","14","20092","7138","r","elianto","#3366ff99","-1"," ","0","0","[1530.1000000238419]","1","2","","","20092","51","1","2","win","no-go","0"
"pit-trial","173","1109229","0.0-56.0","battery-v0.2","","""event"",""trial"",""time""
""fullscreenenter"",""1"",""1261""
","
","
","""event"",""trial"",""time""
""fullscreenenter"",""1"",""1261""
","
","","","-1","","","14","20092","7138","h","elianto","#f73b6a7A","-1","-1","1","0","[]","0","2","","","20092","52","3","4","lose","no-go","0"
"pit-trial","174","1112875","0.0-57.0","battery-v0.2","","""event"",""trial"",""time""
""fullscreenenter"",""1"",""1261""
","
","
","""event"",""trial"",""time""
""fullscreenenter"",""1"",""1261""
","
","","","786.3999999761581","","","14","20092","7138","m","elianto","#f73b6a7A"," "," ","1","0","[1640.7999999523163]","1","2","","","20092","53","0","3","lose","go","0"
"pit-trial","175","1116705","0.0-58.0","battery-v0.2","","""event"",""trial"",""time""
""fullscreenenter"",""1"",""1261""
","
","
","""event"",""trial"",""time""
""fullscreenenter"",""1"",""1261""
","
","","","971.5","","","14","20092","7138","y","elianto","#f73b6a7A"," "," ","1","0","[1826.3999999761581]","1","2","","","20092","54","2","3","lose","go","0"
"pit-trial","176","1121584","0.0-59.0","battery-v0.2","","""event"",""trial"",""time""
""fullscreenenter"",""1"",""1261""
","
","
","""event"",""trial"",""time""
""fullscreenenter"",""1"",""1261""
","
","","","-1","","","14","20092","7138","h","elianto","#f73b6a7A","-1","-1","1","0","[]","0","2","","","20092","55","3","4","lose","no-go","0"
"pit-trial","177","1125137","0.0-60.0","battery-v0.2","","""event"",""trial"",""time""
""fullscreenenter"",""1"",""1261""
","
","
","""event"",""trial"",""time""
""fullscreenenter"",""1"",""1261""
","
","","","690.1999999284744","","","14","20092","7138","r","elianto","#3366ff99","-1"," ","0","0","[1541]","1","2","","","20092","56","1","2","win","no-go","0"
"pit-trial","178","1128994","0.0-61.0","battery-v0.2","","""event"",""trial"",""time""
""fullscreenenter"",""1"",""1261""
","
","
","""event"",""trial"",""time""
""fullscreenenter"",""1"",""1261""
","
","","","994","","","14","20092","7138","z","elianto","#3366ff99"," "," ","1","+10","[1849.1000000238419]","1","2","","","20092","57","4","1","win","go","0"
"pit-trial","179","1133858","0.0-62.0","battery-v0.2","","""event"",""trial"",""time""
""fullscreenenter"",""1"",""1261""
","
","
","""event"",""trial"",""time""
""fullscreenenter"",""1"",""1261""
","
","","","-1","","","14","20092","7138","h","elianto","#f73b6a7A","-1","-1","1","0","[]","0","2","","","20092","58","3","4","lose","no-go","0"
"pit-trial","180","1137830","0.0-63.0","battery-v0.2","","""event"",""trial"",""time""
""fullscreenenter"",""1"",""1261""
","
","
","""event"",""trial"",""time""
""fullscreenenter"",""1"",""1261""
","
","","","1109.5","","","14","20092","7138","y","elianto","#f73b6a7A"," "," ","1","0","[1961.7000000476837]","1","2","","","20092","59","2","3","lose","go","0"
"pit-trial","181","1141453","0.0-64.0","battery-v0.2","","""event"",""trial"",""time""
""fullscreenenter"",""1"",""1261""
","
","
","""event"",""trial"",""time""
""fullscreenenter"",""1"",""1261""
","
","","","764.1000000238419","","","14","20092","7138","m","elianto","#f73b6a7A"," "," ","1","0","[1615.7000000476837]","1","2","","","20092","60","0","3","lose","go","0"
"pit-trial","182","1145260","0.0-65.0","battery-v0.2","","""event"",""trial"",""time""
""fullscreenenter"",""1"",""1261""
","
","
","""event"",""trial"",""time""
""fullscreenenter"",""1"",""1261""
","
","","","934.6000000238419","","","14","20092","7138","y","elianto","#f73b6a7A"," "," ","1","-10","[1793.5]","1","2","","","20092","61","2","3","lose","go","1"
"pit-trial","183","1148690","0.0-66.0","battery-v0.2","","""event"",""trial"",""time""
""fullscreenenter"",""1"",""1261""
","
","
","""event"",""trial"",""time""
""fullscreenenter"",""1"",""1261""
","
","","","571","","","14","20092","7138","z","elianto","#3366ff99"," "," ","1","+10","[1423.0999999046326]","1","2","","","20092","62","4","1","win","go","0"
"pit-trial","184","1152043","0.0-67.0","battery-v0.2","","""event"",""trial"",""time""
""fullscreenenter"",""1"",""1261""
","
","
","""event"",""trial"",""time""
""fullscreenenter"",""1"",""1261""
","
","","","495.60000002384186","","","14","20092","7138","r","elianto","#3366ff99","-1"," ","0","0","[1347.7000000476837]","1","2","","","20092","63","1","2","win","no-go","0"
"pit-trial","185","1156907","0.0-68.0","battery-v0.2","","""event"",""trial"",""time""
""fullscreenenter"",""1"",""1261""
","
","
","""event"",""trial"",""time""
""fullscreenenter"",""1"",""1261""
","
","","","-1","","","14","20092","7138","h","elianto","#f73b6a7A","-1","-1","1","0","[]","0","2","","","20092","64","3","4","lose","no-go","0"
"pit-trial","186","1160239","0.0-69.0","battery-v0.2","","""event"",""trial"",""time""
""fullscreenenter"",""1"",""1261""
","
","
","""event"",""trial"",""time""
""fullscreenenter"",""1"",""1261""
","
","","","474.7000000476837","","","14","20092","7138","c","elianto","#3366ff99","-1"," ","0","0","[1326.8999999761581]","1","2","","","20092","65","5","2","win","no-go","0"
"pit-trial","187","1165104","0.0-70.0","battery-v0.2","","""event"",""trial"",""time""
""fullscreenenter"",""1"",""1261""
","
","
","""event"",""trial"",""time""
""fullscreenenter"",""1"",""1261""
","
","","","-1","","","14","20092","7138","h","elianto","#f73b6a7A","-1","-1","1","0","[]","0","2","","","20092","66","3","4","lose","no-go","0"
"pit-trial","188","1168888","0.0-71.0","battery-v0.2","","""event"",""trial"",""time""
""fullscreenenter"",""1"",""1261""
","
","
","""event"",""trial"",""time""
""fullscreenenter"",""1"",""1261""
","
","","","921.7000000476837","","","14","20092","7138","z","elianto","#3366ff99"," "," ","1","0","[1773.6000000238419]","1","2","","","20092","67","4","1","win","go","1"
"pit-trial","189","1172268","0.0-72.0","battery-v0.2","","""event"",""trial"",""time""
""fullscreenenter"",""1"",""1261""
","
","
","""event"",""trial"",""time""
""fullscreenenter"",""1"",""1261""
","
","","","518.2999999523163","","","14","20092","7138","r","elianto","#3366ff99","-1"," ","0","0","[1372.1000000238419]","1","2","","","20092","68","1","2","win","no-go","0"
"pit-trial","190","1176138","0.0-73.0","battery-v0.2","","""event"",""trial"",""time""
""fullscreenenter"",""1"",""1261""
","
","
","""event"",""trial"",""time""
""fullscreenenter"",""1"",""1261""
","
","","","1016.4000000953674","","","14","20092","7138","y","elianto","#f73b6a7A"," "," ","1","0","[1866.5]","1","2","","","20092","69","2","3","lose","go","0"
"pit-trial","191","1179616","0.0-74.0","battery-v0.2","","""event"",""trial"",""time""
""fullscreenenter"",""1"",""1261""
","
","
","""event"",""trial"",""time""
""fullscreenenter"",""1"",""1261""
","
","","","620.7999999523163","","","14","20092","7138","c","elianto","#3366ff99","-1"," ","0","0","[1473]","1","2","","","20092","70","5","2","win","no-go","0"
"pit-trial","192","1183055","0.0-75.0","battery-v0.2","","""event"",""trial"",""time""
""fullscreenenter"",""1"",""1261""
","
","
","""event"",""trial"",""time""
""fullscreenenter"",""1"",""1261""
","
","","","580.9000000953674","","","14","20092","7138","z","elianto","#3366ff99"," "," ","1","+10","[1433.8999999761581]","1","2","","","20092","71","4","1","win","go","0"
"pit-trial","193","1186387","0.0-76.0","battery-v0.2","","""event"",""trial"",""time""
""fullscreenenter"",""1"",""1261""
","
","
","""event"",""trial"",""time""
""fullscreenenter"",""1"",""1261""
","
","","","465","","","14","20092","7138","r","elianto","#3366ff99","-1"," ","0","0","[1320.8999999761581]","1","2","","","20092","72","1","2","win","no-go","0"
"pit-trial","194","1189770","0.0-77.0","battery-v0.2","","""event"",""trial"",""time""
""fullscreenenter"",""1"",""1261""
","
","
","""event"",""trial"",""time""
""fullscreenenter"",""1"",""1261""
","
","","","524.2999999523163","","","14","20092","7138","r","elianto","#3366ff99","-1"," ","0","0","[1375.5999999046326]","1","2","","","20092","73","1","2","win","no-go","0"
"pit-trial","195","1193172","0.0-78.0","battery-v0.2","","""event"",""trial"",""time""
""fullscreenenter"",""1"",""1261""
","
","
","""event"",""trial"",""time""
""fullscreenenter"",""1"",""1261""
","
","","","538.3999999761581","","","14","20092","7138","c","elianto","#3366ff99","-1"," ","0","0","[1391.7999999523163]","1","2","","","20092","74","5","2","win","no-go","0"
"pit-trial","196","1198032","0.0-79.0","battery-v0.2","","""event"",""trial"",""time""
""fullscreenenter"",""1"",""1261""
","
","
","""event"",""trial"",""time""
""fullscreenenter"",""1"",""1261""
","
","","","-1","","","14","20092","7138","h","elianto","#f73b6a7A","-1","-1","1","0","[]","0","2","","","20092","75","3","4","lose","no-go","0"
"pit-trial","197","1201516","0.0-80.0","battery-v0.2","","""event"",""trial"",""time""
""fullscreenenter"",""1"",""1261""
","
","
","""event"",""trial"",""time""
""fullscreenenter"",""1"",""1261""
","
","","","614.7000000476837","","","14","20092","7138","z","elianto","#3366ff99"," "," ","1","+10","[1474.6000000238419]","1","2","","","20092","76","4","1","win","go","0"
"pit-trial","198","1205022","0.0-81.0","battery-v0.2","","""event"",""trial"",""time""
""fullscreenenter"",""1"",""1261""
","
","
","""event"",""trial"",""time""
""fullscreenenter"",""1"",""1261""
","
","","","644","","","14","20092","7138","c","elianto","#3366ff99","-1"," ","0","0","[1501.3999999761581]","1","2","","","20092","77","5","2","win","no-go","0"
"pit-trial","199","1208509","0.0-82.0","battery-v0.2","","""event"",""trial"",""time""
""fullscreenenter"",""1"",""1261""
","
","
","""event"",""trial"",""time""
""fullscreenenter"",""1"",""1261""
","
","","","618.0999999046326","","","14","20092","7138","z","elianto","#3366ff99"," "," ","1","+10","[1474.7000000476837]","1","2","","","20092","78","4","1","win","go","0"
"pit-trial","200","1211956","0.0-83.0","battery-v0.2","","""event"",""trial"",""time""
""fullscreenenter"",""1"",""1261""
","
","
","""event"",""trial"",""time""
""fullscreenenter"",""1"",""1261""
","
","","","583.3999999761581","","","14","20092","7138","z","elianto","#3366ff99"," "," ","1","0","[1436]","1","2","","","20092","79","4","1","win","go","1"
"pit-trial","201","1216839","0.0-84.0","battery-v0.2","","""event"",""trial"",""time""
""fullscreenenter"",""1"",""1261""
","
","
","""event"",""trial"",""time""
""fullscreenenter"",""1"",""1261""
","
","","","-1","","","14","20092","7138","h","elianto","#f73b6a7A","-1","-1","1","0","[]","0","2","","","20092","80","3","4","lose","no-go","0"
"pit-trial","202","1220379","0.0-85.0","battery-v0.2","","""event"",""trial"",""time""
""fullscreenenter"",""1"",""1261""
","
","
","""event"",""trial"",""time""
""fullscreenenter"",""1"",""1261""
","
","","","681","","","14","20092","7138","c","elianto","#3366ff99","-1"," ","0","0","[1531.3999999761581]","1","2","","","20092","81","5","2","win","no-go","0"
"pit-trial","203","1225257","0.0-86.0","battery-v0.2","","""event"",""trial"",""time""
""fullscreenenter"",""1"",""1261""
","
","
","""event"",""trial"",""time""
""fullscreenenter"",""1"",""1261""
","
","","","-1","","","14","20092","7138","h","elianto","#f73b6a7A","-1","-1","1","0","[]","0","2","","","20092","82","3","4","lose","no-go","0"
"pit-trial","204","1228663","0.0-87.0","battery-v0.2","","""event"",""trial"",""time""
""fullscreenenter"",""1"",""1261""
","
","
","""event"",""trial"",""time""
""fullscreenenter"",""1"",""1261""
","
","","","540.2000000476837","","","14","20092","7138","z","elianto","#3366ff99"," "," ","1","+10","[1394.6999999284744]","1","2","","","20092","83","4","1","win","go","0"
"pit-trial","205","1232676","0.0-88.0","battery-v0.2","","""event"",""trial"",""time""
""fullscreenenter"",""1"",""1261""
","
","
","""event"",""trial"",""time""
""fullscreenenter"",""1"",""1261""
","
","","","1153.7000000476837","","","14","20092","7138","t","elianto","#f73b6a7A","-1"," ","0","-10","[2008.8000000715256]","1","2","","","20092","84","7","4","lose","no-go","0"
"pit-trial","206","1237548","0.0-89.0","battery-v0.2","","""event"",""trial"",""time""
""fullscreenenter"",""1"",""1261""
","
","
","""event"",""trial"",""time""
""fullscreenenter"",""1"",""1261""
","
","","","-1","","","14","20092","7138","t","elianto","#f73b6a7A","-1","-1","1","0","[]","0","2","","","20092","85","7","4","lose","no-go","0"
"pit-trial","207","1241087","0.0-90.0","battery-v0.2","","""event"",""trial"",""time""
""fullscreenenter"",""1"",""1261""
","
","
","""event"",""trial"",""time""
""fullscreenenter"",""1"",""1261""
","
","","","681.2999999523163","","","14","20092","7138","c","elianto","#3366ff99","-1"," ","0","0","[1533.6999999284744]","1","2","","","20092","86","5","2","win","no-go","0"
"pit-trial","208","1244504","0.0-91.0","battery-v0.2","","""event"",""trial"",""time""
""fullscreenenter"",""1"",""1261""
","
","
","""event"",""trial"",""time""
""fullscreenenter"",""1"",""1261""
","
","","","550.2000000476837","","","14","20092","7138","z","elianto","#3366ff99"," "," ","1","+10","[1406.8000000715256]","1","2","","","20092","87","4","1","win","go","0"
"pit-trial","209","1248338","0.0-92.0","battery-v0.2","","""event"",""trial"",""time""
""fullscreenenter"",""1"",""1261""
","
","
","""event"",""trial"",""time""
""fullscreenenter"",""1"",""1261""
","
","","","963.6999999284744","","","14","20092","7138","b","elianto","#f73b6a7A"," "," ","1","0","[1824.1999999284744]","1","2","","","20092","88","6","3","lose","go","0"
"pit-trial","210","1251753","0.0-93.0","battery-v0.2","","""event"",""trial"",""time""
""fullscreenenter"",""1"",""1261""
","
","
","""event"",""trial"",""time""
""fullscreenenter"",""1"",""1261""
","
","","","547.3999999761581","","","14","20092","7138","c","elianto","#3366ff99","-1"," ","0","0","[1403.6000000238419]","1","2","","","20092","89","5","2","win","no-go","0"
"pit-trial","211","1255174","0.0-94.0","battery-v0.2","","""event"",""trial"",""time""
""fullscreenenter"",""1"",""1261""
","
","
","""event"",""trial"",""time""
""fullscreenenter"",""1"",""1261""
","
","","","551.8999999761581","","","14","20092","7138","z","elianto","#3366ff99"," "," ","1","+10","[1409.6000000238419]","1","2","","","20092","90","4","1","win","go","0"
"pit-trial","212","1260051","0.0-95.0","battery-v0.2","","""event"",""trial"",""time""
""fullscreenenter"",""1"",""1261""
","
","
","""event"",""trial"",""time""
""fullscreenenter"",""1"",""1261""
","
","","","-1","","","14","20092","7138","b","elianto","#f73b6a7A"," ","-1","0","-10","[]","0","2","","","20092","91","6","3","lose","go","0"
"pit-trial","213","1264923","0.0-96.0","battery-v0.2","","""event"",""trial"",""time""
""fullscreenenter"",""1"",""1261""
","
","
","""event"",""trial"",""time""
""fullscreenenter"",""1"",""1261""
","
","","","-1","","","14","20092","7138","t","elianto","#f73b6a7A","-1","-1","1","0","[]","0","2","","","20092","92","7","4","lose","no-go","0"
"pit-trial","214","1268828","0.0-97.0","battery-v0.2","","""event"",""trial"",""time""
""fullscreenenter"",""1"",""1261""
","
","
","""event"",""trial"",""time""
""fullscreenenter"",""1"",""1261""
","
","","","1049.8999999761581","","","14","20092","7138","b","elianto","#f73b6a7A"," "," ","1","0","[1901]","1","2","","","20092","93","6","3","lose","go","0"
"pit-trial","215","1272219","0.0-98.0","battery-v0.2","","""event"",""trial"",""time""
""fullscreenenter"",""1"",""1261""
","
","
","""event"",""trial"",""time""
""fullscreenenter"",""1"",""1261""
","
","","","532.2999999523163","","","14","20092","7138","c","elianto","#3366ff99","-1"," ","0","0","[1385.3999999761581]","1","2","","","20092","94","5","2","win","no-go","0"
"pit-trial","216","1275523","0.0-99.0","battery-v0.2","","""event"",""trial"",""time""
""fullscreenenter"",""1"",""1261""
","
","
","""event"",""trial"",""time""
""fullscreenenter"",""1"",""1261""
","
","","","445.59999990463257","","","14","20092","7138","f","elianto","#3366ff99"," "," ","1","+10","[1299.7999999523163]","1","2","","","20092","95","8","1","win","go","0"
"pit-trial","217","1280385","0.0-100.0","battery-v0.2","","""event"",""trial"",""time""
""fullscreenenter"",""1"",""1261""
","
","
","""event"",""trial"",""time""
""fullscreenenter"",""1"",""1261""
","
","","","-1","","","14","20092","7138","t","elianto","#f73b6a7A","-1","-1","1","0","[]","0","2","","","20092","96","7","4","lose","no-go","0"
"pit-trial","218","1283913","0.0-101.0","battery-v0.2","","""event"",""trial"",""time""
""fullscreenenter"",""1"",""1261""
","
","
","""event"",""trial"",""time""
""fullscreenenter"",""1"",""1261""
","
","","","664.6999999284744","","","14","20092","7138","b","elianto","#f73b6a7A"," "," ","1","0","[1516.1000000238419]","1","2","","","20092","97","6","3","lose","go","0"
"pit-trial","219","1287528","0.0-102.0","battery-v0.2","","""event"",""trial"",""time""
""fullscreenenter"",""1"",""1261""
","
","
","""event"",""trial"",""time""
""fullscreenenter"",""1"",""1261""
","
","","","749.8999999761581","","","14","20092","7138","f","elianto","#3366ff99"," "," ","1","0","[1602.8999999761581]","1","2","","","20092","98","8","1","win","go","1"
"pit-trial","220","1291039","0.0-103.0","battery-v0.2","","""event"",""trial"",""time""
""fullscreenenter"",""1"",""1261""
","
","
","""event"",""trial"",""time""
""fullscreenenter"",""1"",""1261""
","
","","","647.2999999523163","","","14","20092","7138","c","elianto","#3366ff99","-1"," ","0","0","[1500.6999999284744]","1","2","","","20092","99","5","2","win","no-go","0"
"pit-trial","221","1295904","0.0-104.0","battery-v0.2","","""event"",""trial"",""time""
""fullscreenenter"",""1"",""1261""
","
","
","""event"",""trial"",""time""
""fullscreenenter"",""1"",""1261""
","
","","","-1","","","14","20092","7138","t","elianto","#f73b6a7A","-1","-1","1","-10","[]","0","2","","","20092","100","7","4","lose","no-go","1"
"pit-trial","222","1299868","0.0-105.0","battery-v0.2","","""event"",""trial"",""time""
""fullscreenenter"",""1"",""1261""
","
","
","""event"",""trial"",""time""
""fullscreenenter"",""1"",""1261""
","
","","","1100.3000000715256","","","14","20092","7138","t","elianto","#f73b6a7A","-1"," ","0","0","[1952.1000000238419]","1","2","","","20092","101","7","4","lose","no-go","1"
"pit-trial","223","1303329","0.0-106.0","battery-v0.2","","""event"",""trial"",""time""
""fullscreenenter"",""1"",""1261""
","
","
","""event"",""trial"",""time""
""fullscreenenter"",""1"",""1261""
","
","","","595.6000000238419","","","14","20092","7138","f","elianto","#3366ff99"," "," ","1","0","[1450.1000000238419]","1","2","","","20092","102","8","1","win","go","1"
"pit-trial","224","1306777","0.0-107.0","battery-v0.2","","""event"",""trial"",""time""
""fullscreenenter"",""1"",""1261""
","
","
","""event"",""trial"",""time""
""fullscreenenter"",""1"",""1261""
","
","","","588.6999999284744","","","14","20092","7138","c","elianto","#3366ff99","-1"," ","0","0","[1439.1999999284744]","1","2","","","20092","103","5","2","win","no-go","0"
"pit-trial","225","1310183","0.0-108.0","battery-v0.2","","""event"",""trial"",""time""
""fullscreenenter"",""1"",""1261""
","
","
","""event"",""trial"",""time""
""fullscreenenter"",""1"",""1261""
","
","","","545.8999999761581","","","14","20092","7138","n","elianto","#3366ff99"," "," ","1","+10","[1396.0999999046326]","1","2","","","20092","104","9","1","win","go","0"
"pit-trial","226","1314390","0.0-109.0","battery-v0.2","","""event"",""trial"",""time""
""fullscreenenter"",""1"",""1261""
","
","
","""event"",""trial"",""time""
""fullscreenenter"",""1"",""1261""
","
","","","1346.8999999761581","","","14","20092","7138","b","elianto","#f73b6a7A"," "," ","1","0","[2199.6999999284744]","1","2","","","20092","105","6","3","lose","go","0"
"pit-trial","227","1317831","0.0-110.0","battery-v0.2","","""event"",""trial"",""time""
""fullscreenenter"",""1"",""1261""
","
","
","""event"",""trial"",""time""
""fullscreenenter"",""1"",""1261""
","
","","","582.3000000715256","","","14","20092","7138","n","elianto","#3366ff99"," "," ","1","+10","[1433.7000000476837]","1","2","","","20092","106","9","1","win","go","0"
"pit-trial","228","1321428","0.0-111.0","battery-v0.2","","""event"",""trial"",""time""
""fullscreenenter"",""1"",""1261""
","
","
","""event"",""trial"",""time""
""fullscreenenter"",""1"",""1261""
","
","","","733.4000000953674","","","14","20092","7138","z","elianto","#3366ff99"," "," ","1","+10","[1589.6000000238419]","1","2","","","20092","107","4","1","win","go","0"
"pit-trial","229","1324977","0.0-112.0","battery-v0.2","","""event"",""trial"",""time""
""fullscreenenter"",""1"",""1261""
","
","
","""event"",""trial"",""time""
""fullscreenenter"",""1"",""1261""
","
","","","690.2000000476837","","","14","20092","7138","f","elianto","#3366ff99"," "," ","1","0","[1544.5]","1","2","","","20092","108","8","1","win","go","1"
"pit-trial","230","1328337","0.0-113.0","battery-v0.2","","""event"",""trial"",""time""
""fullscreenenter"",""1"",""1261""
","
","
","""event"",""trial"",""time""
""fullscreenenter"",""1"",""1261""
","
","","","495.7999999523163","","","14","20092","7138","n","elianto","#3366ff99"," "," ","1","0","[1346.6999999284744]","1","2","","","20092","109","9","1","win","go","1"
"pit-trial","231","1331991","0.0-114.0","battery-v0.2","","""event"",""trial"",""time""
""fullscreenenter"",""1"",""1261""
","
","
","""event"",""trial"",""time""
""fullscreenenter"",""1"",""1261""
","
","","","797.5","","","14","20092","7138","b","elianto","#f73b6a7A"," "," ","1","0","[1648.1000000238419]","1","2","","","20092","110","6","3","lose","go","0"
"pit-trial","232","1335395","0.0-115.0","battery-v0.2","","""event"",""trial"",""time""
""fullscreenenter"",""1"",""1261""
","
","
","""event"",""trial"",""time""
""fullscreenenter"",""1"",""1261""
","
","","","544.2999999523163","","","14","20092","7138","f","elianto","#3366ff99"," "," ","1","+10","[1396.2999999523163]","1","2","","","20092","111","8","1","win","go","0"
"pit-trial","233","1339005","0.0-116.0","battery-v0.2","","""event"",""trial"",""time""
""fullscreenenter"",""1"",""1261""
","
","
","""event"",""trial"",""time""
""fullscreenenter"",""1"",""1261""
","
","","","750.0999999046326","","","14","20092","7138","c","elianto","#3366ff99","-1"," ","0","0","[1600.7999999523163]","1","2","","","20092","112","5","2","win","no-go","0"
"pit-trial","234","1342370","0.0-117.0","battery-v0.2","","""event"",""trial"",""time""
""fullscreenenter"",""1"",""1261""
","
","
","""event"",""trial"",""time""
""fullscreenenter"",""1"",""1261""
","
","","","507.89999997615814","","","14","20092","7138","n","elianto","#3366ff99"," "," ","1","+10","[1360.1000000238419]","1","2","","","20092","113","9","1","win","go","0"
"pit-trial","235","1345907","0.0-118.0","battery-v0.2","","""event"",""trial"",""time""
""fullscreenenter"",""1"",""1261""
","
","
","""event"",""trial"",""time""
""fullscreenenter"",""1"",""1261""
","
","","","675.2999999523163","","","14","20092","7138","f","elianto","#3366ff99"," "," ","1","+10","[1527.6000000238419]","1","2","","","20092","114","8","1","win","go","0"
"pit-trial","236","1349386","0.0-119.0","battery-v0.2","","""event"",""trial"",""time""
""fullscreenenter"",""1"",""1261""
","
","
","""event"",""trial"",""time""
""fullscreenenter"",""1"",""1261""
","
","","","615.5","","","14","20092","7138","c","elianto","#3366ff99","-1"," ","0","0","[1472.5]","1","2","","","20092","115","5","2","win","no-go","0"
"pit-trial","237","1352935","0.0-120.0","battery-v0.2","","""event"",""trial"",""time""
""fullscreenenter"",""1"",""1261""
","
","
","""event"",""trial"",""time""
""fullscreenenter"",""1"",""1261""
","
","","","687.2999999523163","","","14","20092","7138","b","elianto","#f73b6a7A"," "," ","1","0","[1539.8999999761581]","1","2","","","20092","116","6","3","lose","go","0"
"pit-trial","238","1356898","0.0-121.0","battery-v0.2","","""event"",""trial"",""time""
""fullscreenenter"",""1"",""1261""
","
","
","""event"",""trial"",""time""
""fullscreenenter"",""1"",""1261""
","
","","","1107.6000000238419","","","14","20092","7138","b","elianto","#f73b6a7A"," "," ","1","0","[1958.8999999761581]","1","2","","","20092","117","6","3","lose","go","0"
"pit-trial","239","1360499","0.0-122.0","battery-v0.2","","""event"",""trial"",""time""
""fullscreenenter"",""1"",""1261""
","
","
","""event"",""trial"",""time""
""fullscreenenter"",""1"",""1261""
","
","","","736.8999999761581","","","14","20092","7138","n","elianto","#3366ff99"," "," ","1","+10","[1591.7999999523163]","1","2","","","20092","118","9","1","win","go","0"
"pit-trial","240","1363774","0.0-123.0","battery-v0.2","","""event"",""trial"",""time""
""fullscreenenter"",""1"",""1261""
","
","
","""event"",""trial"",""time""
""fullscreenenter"",""1"",""1261""
","
","","","413","","","14","20092","7138","c","elianto","#3366ff99","-1"," ","0","0","[1263.7999999523163]","1","2","","","20092","119","5","2","win","no-go","0"
"pit-trial","241","1367151","0.0-124.0","battery-v0.2","","""event"",""trial"",""time""
""fullscreenenter"",""1"",""1261""
","
","
","""event"",""trial"",""time""
""fullscreenenter"",""1"",""1261""
","
","","","519.7999999523163","","","14","20092","7138","f","elianto","#3366ff99"," "," ","1","+10","[1373.1999999284744]","1","2","","","20092","120","8","1","win","go","0"
"pit-trial","242","1372021","0.0-125.0","battery-v0.2","","""event"",""trial"",""time""
""fullscreenenter"",""1"",""1261""
","
","
","""event"",""trial"",""time""
""fullscreenenter"",""1"",""1261""
","
","","","-1","","","14","20092","7138","t","elianto","#f73b6a7A","-1","-1","1","0","[]","0","2","","","20092","121","7","4","lose","no-go","0"
"pit-trial","243","1375548","0.0-126.0","battery-v0.2","","""event"",""trial"",""time""
""fullscreenenter"",""1"",""1261""
","
","
","""event"",""trial"",""time""
""fullscreenenter"",""1"",""1261""
","
","","","665","","","14","20092","7138","f","elianto","#3366ff99"," "," ","1","+10","[1516.7999999523163]","1","2","","","20092","122","8","1","win","go","0"
"pit-trial","244","1379148","0.0-127.0","battery-v0.2","","""event"",""trial"",""time""
""fullscreenenter"",""1"",""1261""
","
","
","""event"",""trial"",""time""
""fullscreenenter"",""1"",""1261""
","
","","","728.6999999284744","","","14","20092","7138","n","elianto","#3366ff99"," "," ","1","+10","[1585.2999999523163]","1","2","","","20092","123","9","1","win","go","0"
"pit-trial","245","1382446","0.0-128.0","battery-v0.2","","""event"",""trial"",""time""
""fullscreenenter"",""1"",""1261""
","
","
","""event"",""trial"",""time""
""fullscreenenter"",""1"",""1261""
","
","","","431.2999999523163","","","14","20092","7138","b","elianto","#f73b6a7A"," "," ","1","0","[1288.5]","1","2","","","20092","124","6","3","lose","go","0"
"pit-trial","246","1385779","0.0-129.0","battery-v0.2","","""event"",""trial"",""time""
""fullscreenenter"",""1"",""1261""
","
","
","""event"",""trial"",""time""
""fullscreenenter"",""1"",""1261""
","
","","","478.2000000476837","","","14","20092","7138","n","elianto","#3366ff99"," "," ","1","+10","[1328.3999999761581]","1","2","","","20092","125","9","1","win","go","0"
"pit-trial","247","1390656","0.0-130.0","battery-v0.2","","""event"",""trial"",""time""
""fullscreenenter"",""1"",""1261""
","
","
","""event"",""trial"",""time""
""fullscreenenter"",""1"",""1261""
","
","","","-1","","","14","20092","7138","t","elianto","#f73b6a7A","-1","-1","1","0","[]","0","2","","","20092","126","7","4","lose","no-go","0"
"pit-trial","248","1394233","0.0-131.0","battery-v0.2","","""event"",""trial"",""time""
""fullscreenenter"",""1"",""1261""
","
","
","""event"",""trial"",""time""
""fullscreenenter"",""1"",""1261""
","
","","","707.2000000476837","","","14","20092","7138","b","elianto","#f73b6a7A"," "," ","1","-10","[1569.5]","1","2","","","20092","127","6","3","lose","go","1"
"pit-trial","249","1397668","0.0-132.0","battery-v0.2","","""event"",""trial"",""time""
""fullscreenenter"",""1"",""1261""
","
","
","""event"",""trial"",""time""
""fullscreenenter"",""1"",""1261""
","
","","","579.8999999761581","","","14","20092","7138","f","elianto","#3366ff99"," "," ","1","+10","[1430.1999999284744]","1","2","","","20092","128","8","1","win","go","0"
"pit-trial","250","1401018","0.0-133.0","battery-v0.2","","""event"",""trial"",""time""
""fullscreenenter"",""1"",""1261""
","
","
","""event"",""trial"",""time""
""fullscreenenter"",""1"",""1261""
","
","","","490.40000009536743","","","14","20092","7138","n","elianto","#3366ff99"," "," ","1","+10","[1344.1000000238419]","1","2","","","20092","129","9","1","win","go","0"
"pit-trial","251","1405122","0.0-134.0","battery-v0.2","","""event"",""trial"",""time""
""fullscreenenter"",""1"",""1261""
","
","
","""event"",""trial"",""time""
""fullscreenenter"",""1"",""1261""
","
","","","1243.9000000953674","","","14","20092","7138","t","elianto","#f73b6a7A","-1"," ","0","-10","[2097.100000023842]","1","2","","","20092","130","7","4","lose","no-go","0"
"pit-trial","252","1408614","0.0-135.0","battery-v0.2","","""event"",""trial"",""time""
""fullscreenenter"",""1"",""1261""
","
","
","""event"",""trial"",""time""
""fullscreenenter"",""1"",""1261""
","
","","","631.3999999761581","","","14","20092","7138","b","elianto","#f73b6a7A"," "," ","1","0","[1486.6000000238419]","1","2","","","20092","131","6","3","lose","go","0"
"pit-trial","253","1411831","0.0-136.0","battery-v0.2","","""event"",""trial"",""time""
""fullscreenenter"",""1"",""1261""
","
","
","""event"",""trial"",""time""
""fullscreenenter"",""1"",""1261""
","
","","","358.60000002384186","","","14","20092","7138","f","elianto","#3366ff99"," "," ","1","+10","[1213]","1","2","","","20092","132","8","1","win","go","0"
"pit-trial","254","1415166","0.0-137.0","battery-v0.2","","""event"",""trial"",""time""
""fullscreenenter"",""1"",""1261""
","
","
","""event"",""trial"",""time""
""fullscreenenter"",""1"",""1261""
","
","","","472.7999999523163","","","14","20092","7138","b","elianto","#f73b6a7A"," "," ","1","0","[1326.0999999046326]","1","2","","","20092","133","6","3","lose","go","0"
"pit-trial","255","1418268","0.0-138.0","battery-v0.2","","""event"",""trial"",""time""
""fullscreenenter"",""1"",""1261""
","
","
","""event"",""trial"",""time""
""fullscreenenter"",""1"",""1261""
","
","","","238.89999997615814","","","14","20092","7138","t","elianto","#f73b6a7A","-1"," ","0","-10","[1090]","1","2","","","20092","134","7","4","lose","no-go","0"
"pit-trial","256","1421442","0.0-139.0","battery-v0.2","","""event"",""trial"",""time""
""fullscreenenter"",""1"",""1261""
","
","
","""event"",""trial"",""time""
""fullscreenenter"",""1"",""1261""
","
","","","315","","","14","20092","7138","n","elianto","#3366ff99"," "," ","1","0","[1169.6000000238419]","1","2","","","20092","135","9","1","win","go","1"
"pit-trial","257","1424408","0.0-140.0","battery-v0.2","","""event"",""trial"",""time""
""fullscreenenter"",""1"",""1261""
","
","
","""event"",""trial"",""time""
""fullscreenenter"",""1"",""1261""
","
","","","103.60000002384186","","","14","20092","7138","f","elianto","#3366ff99"," "," ","1","+10","[960.5]","1","2","","","20092","136","8","1","win","go","0"
"pit-trial","258","1427485","0.0-141.0","battery-v0.2","","""event"",""trial"",""time""
""fullscreenenter"",""1"",""1261""
","
","
","""event"",""trial"",""time""
""fullscreenenter"",""1"",""1261""
","
","","","208.89999997615814","","","14","20092","7138","n","elianto","#3366ff99"," "," ","1","+10","[1065.1999999284744]","1","2","","","20092","137","9","1","win","go","0"
"pit-trial","259","1430895","0.0-142.0","battery-v0.2","","""event"",""trial"",""time""
""fullscreenenter"",""1"",""1261""
","
","
","""event"",""trial"",""time""
""fullscreenenter"",""1"",""1261""
","
","","","552.6000000238419","","","14","20092","7138","f","elianto","#3366ff99"," "," ","1","0","[1405]","1","2","","","20092","138","8","1","win","go","1"
"pit-trial","260","1433984","0.0-143.0","battery-v0.2","","""event"",""trial"",""time""
""fullscreenenter"",""1"",""1261""
","
","
","""event"",""trial"",""time""
""fullscreenenter"",""1"",""1261""
","
","","","231.70000004768372","","","14","20092","7138","b","elianto","#f73b6a7A"," "," ","1","0","[1084]","1","2","","","20092","139","6","3","lose","go","0"
"pit-trial","261","1438842","0.0-144.0","battery-v0.2","","""event"",""trial"",""time""
""fullscreenenter"",""1"",""1261""
","
","
","""event"",""trial"",""time""
""fullscreenenter"",""1"",""1261""
","
","","","-1","","","14","20092","7138","t","elianto","#f73b6a7A","-1","-1","1","-10","[4215.5]","1","2","","","20092","140","7","4","lose","no-go","1"
"pit-instructions","262","1532057","0.0-145.0","battery-v0.2","","""event"",""trial"",""time""
""fullscreenenter"",""1"",""1261""
","
","
","""event"",""trial"",""time""
""fullscreenenter"",""1"",""1261""
","
","","[{""page_index"":0,""viewing_time"":84133.70000004768},{""page_index"":1,""viewing_time"":9072.200000047684}]","93207.90000009537","","","","","","","","","","","","","","","","","","","","","","","",""
"pit-trial","263","1536313","0.0-146.0","battery-v0.2","","""event"",""trial"",""time""
""fullscreenenter"",""1"",""1261""
","
","
","""event"",""trial"",""time""
""fullscreenenter"",""1"",""1261""
","
","","","1381.7999999523163","","","14","20092","7138","g","elianto","#f73b6a7A"," "," ","1","0","[2232.600000023842]","1","3","","","20092","141","3","3","lose","go","0"
"pit-trial","264","1539840","0.0-147.0","battery-v0.2","","""event"",""trial"",""time""
""fullscreenenter"",""1"",""1261""
","
","
