"trial_type","trial_index","time_elapsed","internal_node_id","task_version","subject_id","interactions","blur_events","focus_events","fullscreenenter_events","fullscreenexit_events","success","view_history","rt","responses","num_errors","age","subject","participantId","rune","rune_set","hex","correct","choice","accuracy","outcome","keys","total_keys","block","practice","value","sub","trial","stimulus","robot","valence","action","sham"
"pavlovia","0","12","0.0-0.0","battery-v0.2","","""event"",""trial"",""time""
""fullscreenenter"",""1"",""2514""
","
","
","""event"",""trial"",""time""
""fullscreenenter"",""1"",""2514""
","
","","","","","","","","","","","","","","","","","","","","","","","","","","",""
"fullscreen","1","3473","0.0-1.0","battery-v0.2","","""event"",""trial"",""time""
""fullscreenenter"",""1"",""2514""
","
","
","""event"",""trial"",""time""
""fullscreenenter"",""1"",""2514""
","
","true","","","","","","","","","","","","","","","","","","","","","","","","","",""
"pit-instructions","2","7284","0.0-2.0-0.0","battery-v0.2","","""event"",""trial"",""time""
""fullscreenenter"",""1"",""2514""
","
","
","""event"",""trial"",""time""
""fullscreenenter"",""1"",""2514""
","
","","[{""page_index"":0,""viewing_time"":3807.5}]","3808","","","","","","","","","","","","","","","","","","","","","","","",""
"pit-comprehension","3","10663","0.0-2.0-1.0-0.0","battery-v0.2","","""event"",""trial"",""time""
""fullscreenenter"",""1"",""2514""
","
","
","""event"",""trial"",""time""
""fullscreenenter"",""1"",""2514""
","
","","","3375.199998855591","[""shark""]","0","10","14074","5906","","","","","","","","","","","","","","","","","","",""
"pit-instructions","4","14945","0.0-2.0-1.0-1.0","battery-v0.2","","""event"",""trial"",""time""
""fullscreenenter"",""1"",""2514""
","
","
","""event"",""trial"",""time""
""fullscreenenter"",""1"",""2514""
","
","","[{""page_index"":0,""viewing_time"":4268.700000762939}]","4269","","","","","","","","","","","","","","","","","","","","","","","",""
"pit-comprehension","5","17825","0.0-2.0-2.0-0.0","battery-v0.2","","""event"",""trial"",""time""
""fullscreenenter"",""1"",""2514""
","
","
","""event"",""trial"",""time""
""fullscreenenter"",""1"",""2514""
","
","","","2875.6000003814697","[""tiger""]","0","10","14074","5906","","","","","","","","","","","","","","","","","","",""
"pit-instructions","6","19860","0.0-2.0-2.0-1.0","battery-v0.2","","""event"",""trial"",""time""
""fullscreenenter"",""1"",""2514""
","
","
","""event"",""trial"",""time""
""fullscreenenter"",""1"",""2514""
","
","","[{""page_index"":0,""viewing_time"":2032.1999988555908}]","2032.3999996185303","","","","","","","","","","","","","","","","","","","","","","","",""
"pit-instructions","7","122252","0.0-2.0-3.0","battery-v0.2","","""event"",""trial"",""time""
""fullscreenenter"",""1"",""2514""
","
","
","""event"",""trial"",""time""
""fullscreenenter"",""1"",""2514""
","
","","[{""page_index"":0,""viewing_time"":11223.79999923706},{""page_index"":1,""viewing_time"":6038.200000762939},{""page_index"":2,""viewing_time"":6689.799999237061},{""page_index"":3,""viewing_time"":5462.39999961853},{""page_index"":4,""viewing_time"":5298},{""page_index"":5,""viewing_time"":6704.5},{""page_index"":6,""viewing_time"":7552},{""page_index"":7,""viewing_time"":7340.10000038147},{""page_index"":8,""viewing_time"":6567.60000038147},{""page_index"":9,""viewing_time"":8580.5},{""page_index"":10,""viewing_time"":7706.799999237061},{""page_index"":11,""viewing_time"":11175.80000114441},{""page_index"":12,""viewing_time"":6804.199998855591},{""page_index"":13,""viewing_time"":5245}]","102389.09999847412","","","","","","","","","","","","","","","","","","","","","","","",""
"pit-trial","8","125853","0.0-2.0-4.0-0.0","battery-v0.2","","""event"",""trial"",""time""
""fullscreenenter"",""1"",""2514""
","
","
","""event"",""trial"",""time""
""fullscreenenter"",""1"",""2514""
","
","","","734.5","","","10","14074","5906","&#9784;","elianto","#FFFFF080"," "," ","1","&#10004","[1585.7999992370605]","1","0","0","","","","","","","",""
"pit-trial","9","129266","0.0-2.0-4.1-0.1","battery-v0.2","","""event"",""trial"",""time""
""fullscreenenter"",""1"",""2514""
","
","
","""event"",""trial"",""time""
""fullscreenenter"",""1"",""2514""
","
","","","540.5999984741211","","","10","14074","5906","&#9784;","elianto","#FFFFF080"," "," ","1","&#10004","[1401.599998474121]","1","0","0","","","","","","","",""
"pit-trial","10","132700","0.0-2.0-4.2-0.2","battery-v0.2","","""event"",""trial"",""time""
""fullscreenenter"",""1"",""2514""
","
","
","""event"",""trial"",""time""
""fullscreenenter"",""1"",""2514""
","
","","","567.5999984741211","","","10","14074","5906","&#9784;","elianto","#FFFFF080"," "," ","1","&#10004","[1418.2000007629395]","1","0","0","","","","","","","",""
"pit-trial","11","136254","0.0-2.0-4.3-0.3","battery-v0.2","","""event"",""trial"",""time""
""fullscreenenter"",""1"",""2514""
","
","
","""event"",""trial"",""time""
""fullscreenenter"",""1"",""2514""
","
","","","690.1000003814697","","","10","14074","5906","&#9784;","elianto","#FFFFF080"," "," ","1","&#10004","[1541.8000011444092]","1","0","0","","","","","","","",""
"pit-trial","12","140893","0.0-2.0-4.4-0.4","battery-v0.2","","""event"",""trial"",""time""
""fullscreenenter"",""1"",""2514""
","
","
","""event"",""trial"",""time""
""fullscreenenter"",""1"",""2514""
","
","","","1771.7999992370605","","","10","14074","5906","&#9784;","elianto","#FFFFF080"," "," ","1","&#10004","[2622.6000003814697]","1","0","0","","","","","","","",""
"pit-instructions","13","166894","0.0-2.0-5.0","battery-v0.2","","""event"",""trial"",""time""
""fullscreenenter"",""1"",""2514""
","
","
","""event"",""trial"",""time""
""fullscreenenter"",""1"",""2514""
","
","","[{""page_index"":0,""viewing_time"":4725.200000762939},{""page_index"":1,""viewing_time"":5127.89999961853},{""page_index"":2,""viewing_time"":9942},{""page_index"":3,""viewing_time"":6200.299999237061}]","25995.89999961853","","","","","","","","","","","","","","","","","","","","","","","",""
"pit-trial","14","171771","0.0-2.0-6.0-0.0","battery-v0.2","","""event"",""trial"",""time""
""fullscreenenter"",""1"",""2514""
","
","
","""event"",""trial"",""time""
""fullscreenenter"",""1"",""2514""
","
","","","-1","","","10","14074","5906","&#9854;","elianto","#FFFFF080","-1","-1","1","&#10004","[]","0","0","1","","","","","","","",""
"pit-trial","15","176642","0.0-2.0-6.1-0.1","battery-v0.2","","""event"",""trial"",""time""
""fullscreenenter"",""1"",""2514""
","
","
","""event"",""trial"",""time""
""fullscreenenter"",""1"",""2514""
","
","","","-1","","","10","14074","5906","&#9854;","elianto","#FFFFF080","-1","-1","1","&#10004","[]","0","0","1","","","","","","","",""
"pit-trial","16","181510","0.0-2.0-6.2-0.2","battery-v0.2","","""event"",""trial"",""time""
""fullscreenenter"",""1"",""2514""
","
","
","""event"",""trial"",""time""
""fullscreenenter"",""1"",""2514""
","
","","","-1","","","10","14074","5906","&#9854;","elianto","#FFFFF080","-1","-1","1","&#10004","[]","0","0","1","","","","","","","",""
"pit-trial","17","186389","0.0-2.0-6.3-0.3","battery-v0.2","","""event"",""trial"",""time""
""fullscreenenter"",""1"",""2514""
","
","
","""event"",""trial"",""time""
""fullscreenenter"",""1"",""2514""
","
","","","-1","","","10","14074","5906","&#9854;","elianto","#FFFFF080","-1","-1","1","&#10004","[]","0","0","1","","","","","","","",""
"pit-trial","18","191265","0.0-2.0-6.4-0.4","battery-v0.2","","""event"",""trial"",""time""
""fullscreenenter"",""1"",""2514""
","
","
","""event"",""trial"",""time""
""fullscreenenter"",""1"",""2514""
","
","","","-1","","","10","14074","5906","&#9854;","elianto","#FFFFF080","-1","-1","1","&#10004","[]","0","0","1","","","","","","","",""
"pit-instructions","19","327189","0.0-2.0-7.0","battery-v0.2","","""event"",""trial"",""time""
""fullscreenenter"",""1"",""2514""
","
","
","""event"",""trial"",""time""
""fullscreenenter"",""1"",""2514""
","
","","[{""page_index"":0,""viewing_time"":5539.800001144409},{""page_index"":1,""viewing_time"":7750.5},{""page_index"":2,""viewing_time"":7098.10000038147},{""page_index"":3,""viewing_time"":7066},{""page_index"":4,""viewing_time"":8723.19999885559},{""page_index"":5,""viewing_time"":6936.700000762939},{""page_index"":6,""viewing_time"":4831.799999237061},{""page_index"":7,""viewing_time"":7873.5},{""page_index"":8,""viewing_time"":6441.200000762939},{""page_index"":9,""viewing_time"":13567.69999885559},{""page_index"":10,""viewing_time"":10791.30000114441},{""page_index"":11,""viewing_time"":4977.5},{""page_index"":12,""viewing_time"":8370.60000038147},{""page_index"":13,""viewing_time"":7052.299999237061},{""page_index"":14,""viewing_time"":8392.60000038147},{""page_index"":15,""viewing_time"":6025.299999237061},{""page_index"":16,""viewing_time"":8156.300001144409},{""page_index"":17,""viewing_time"":6322}]","135917.10000038147","","","","","","","","","","","","","","","","","","","","","","","",""
"pit-trial","20","330729","0.0-2.0-8.0-0.0","battery-v0.2","","""event"",""trial"",""time""
""fullscreenenter"",""1"",""2514""
","
","
","""event"",""trial"",""time""
""fullscreenenter"",""1"",""2514""
","
","","","681.1999988555908","","","10","14074","5906","&#9776;","elianto","#3366ff99"," "," ","1","+10","[1532.1000003814697]","1","0","1","","","","","","","",""
"pit-trial","21","334019","0.0-2.0-8.0-1.0","battery-v0.2","","""event"",""trial"",""time""
""fullscreenenter"",""1"",""2514""
","
","
","""event"",""trial"",""time""
""fullscreenenter"",""1"",""2514""
","
","","","420.20000076293945","","","10","14074","5906","&#9776;","elianto","#3366ff99"," "," ","1","+10","[1273.5]","1","0","1","","","","","","","",""
"pit-trial","22","337207","0.0-2.0-8.0-2.0","battery-v0.2","","""event"",""trial"",""time""
""fullscreenenter"",""1"",""2514""
","
","
","""event"",""trial"",""time""
""fullscreenenter"",""1"",""2514""
","
","","","324.8999996185303","","","10","14074","5906","&#9776;","elianto","#3366ff99"," "," ","1","+10","[1177.099998474121]","1","0","1","","","","","","","",""
"pit-trial","23","340611","0.0-2.0-8.0-3.0","battery-v0.2","","""event"",""trial"",""time""
""fullscreenenter"",""1"",""2514""
","
","
","""event"",""trial"",""time""
""fullscreenenter"",""1"",""2514""
","
","","","537.1000003814697","","","10","14074","5906","&#9776;","elianto","#3366ff99"," "," ","1","0","[1388.5]","1","0","1","","","","","","","",""
"pit-trial","24","343893","0.0-2.0-8.0-4.0","battery-v0.2","","""event"",""trial"",""time""
""fullscreenenter"",""1"",""2514""
","
","
","""event"",""trial"",""time""
""fullscreenenter"",""1"",""2514""
","
","","","422.5","","","10","14074","5906","&#9776;","elianto","#3366ff99"," "," ","1","+10","[1276.2000007629395]","1","0","1","","","","","","","",""
"pit-trial","25","347339","0.0-2.0-8.1-0.1","battery-v0.2","","""event"",""trial"",""time""
""fullscreenenter"",""1"",""2514""
","
","
","""event"",""trial"",""time""
""fullscreenenter"",""1"",""2514""
","
","","","576.1000003814697","","","10","14074","5906","&#9776;","elianto","#3366ff99"," "," ","1","+10","[1427.5]","1","0","1","","","","","","","",""
"pit-trial","26","350613","0.0-2.0-8.1-1.1","battery-v0.2","","""event"",""trial"",""time""
""fullscreenenter"",""1"",""2514""
","
","
","""event"",""trial"",""time""
""fullscreenenter"",""1"",""2514""
","
","","","397.3999996185303","","","10","14074","5906","&#9776;","elianto","#3366ff99"," "," ","1","+10","[1253.6999988555908]","1","0","1","","","","","","","",""
"pit-trial","27","354679","0.0-2.0-8.1-2.1","battery-v0.2","","""event"",""trial"",""time""
""fullscreenenter"",""1"",""2514""
","
","
","""event"",""trial"",""time""
""fullscreenenter"",""1"",""2514""
","
","","","1203.2999992370605","","","10","14074","5906","&#9776;","elianto","#3366ff99"," "," ","1","+10","[2055.2999992370605]","1","0","1","","","","","","","",""
"pit-trial","28","358243","0.0-2.0-8.1-3.1","battery-v0.2","","""event"",""trial"",""time""
""fullscreenenter"",""1"",""2514""
","
","
","""event"",""trial"",""time""
""fullscreenenter"",""1"",""2514""
","
","","","707.8999996185303","","","10","14074","5906","&#9776;","elianto","#3366ff99"," "," ","1","0","[1560]","1","0","1","","","","","","","",""
"pit-trial","29","361749","0.0-2.0-8.1-4.1","battery-v0.2","","""event"",""trial"",""time""
""fullscreenenter"",""1"",""2514""
","
","
","""event"",""trial"",""time""
""fullscreenenter"",""1"",""2514""
","
","","","651.5","","","10","14074","5906","&#9776;","elianto","#3366ff99"," "," ","1","+10","[1501.8000011444092]","1","0","1","","","","","","","",""
"pit-trial","30","365226","0.0-2.0-8.2-0.2","battery-v0.2","","""event"",""trial"",""time""
""fullscreenenter"",""1"",""2514""
","
","
","""event"",""trial"",""time""
""fullscreenenter"",""1"",""2514""
","
","","","620.8000011444092","","","10","14074","5906","&#9776;","elianto","#3366ff99"," "," ","1","+10","[1470.8999996185303]","1","0","1","","","","","","","",""
"pit-trial","31","369246","0.0-2.0-8.2-1.2","battery-v0.2","","""event"",""trial"",""time""
""fullscreenenter"",""1"",""2514""
","
","
","""event"",""trial"",""time""
""fullscreenenter"",""1"",""2514""
","
","","","1165.3999996185303","","","10","14074","5906","&#9776;","elianto","#3366ff99"," "," ","1","+10","[2016]","1","0","1","","","","","","","",""
"pit-trial","32","373538","0.0-2.0-8.2-2.2","battery-v0.2","","""event"",""trial"",""time""
""fullscreenenter"",""1"",""2514""
","
","
","""event"",""trial"",""time""
""fullscreenenter"",""1"",""2514""
","
","","","1437.8999996185303","","","10","14074","5906","&#9776;","elianto","#3366ff99"," "," ","1","+10","[2288]","1","0","1","","","","","","","",""
"pit-trial","33","376827","0.0-2.0-8.2-3.2","battery-v0.2","","""event"",""trial"",""time""
""fullscreenenter"",""1"",""2514""
","
","
","""event"",""trial"",""time""
""fullscreenenter"",""1"",""2514""
","
","","","432","","","10","14074","5906","&#9776;","elianto","#3366ff99"," "," ","1","0","[1283.3999996185303]","1","0","1","","","","","","","",""
"pit-trial","34","379973","0.0-2.0-8.2-4.2","battery-v0.2","","""event"",""trial"",""time""
""fullscreenenter"",""1"",""2514""
","
","
","""event"",""trial"",""time""
""fullscreenenter"",""1"",""2514""
","
","","","289.8999996185303","","","10","14074","5906","&#9776;","elianto","#3366ff99"," "," ","1","+10","[1142]","1","0","1","","","","","","","",""
"call-function","35","379977","0.0-2.0-9.0","battery-v0.2","","""event"",""trial"",""time""
""fullscreenenter"",""1"",""2514""
","
","
","""event"",""trial"",""time""
""fullscreenenter"",""1"",""2514""
","
","","","","","","","","","","","","","","","","","","","","","","","","","","",""
"pit-instructions","36","430286","0.0-2.0-10.0","battery-v0.2","","""event"",""trial"",""time""
""fullscreenenter"",""1"",""2514""
","
","
","""event"",""trial"",""time""
""fullscreenenter"",""1"",""2514""
","
","","[{""page_index"":0,""viewing_time"":16822.80000114441},{""page_index"":1,""viewing_time"":8099.39999961853},{""page_index"":2,""viewing_time"":9670.20000076294},{""page_index"":3,""viewing_time"":8554.5},{""page_index"":4,""viewing_time"":7159.89999961853}]","50307.20000076294","","","","","","","","","","","","","","","","","","","","","","","",""
"pit-trial","37","435152","0.0-2.0-11.0-0.0","battery-v0.2","","""event"",""trial"",""time""
""fullscreenenter"",""1"",""2514""
","
","
","""event"",""trial"",""time""
""fullscreenenter"",""1"",""2514""
","
","","","-1","","","10","14074","5906","&#9761;","elianto","#3366ff99","-1","-1","1","+10","[]","0","0","2","","","","","","","",""
"pit-trial","38","440023","0.0-2.0-11.0-1.0","battery-v0.2","","""event"",""trial"",""time""
""fullscreenenter"",""1"",""2514""
","
","
","""event"",""trial"",""time""
""fullscreenenter"",""1"",""2514""
","
","","","-1","","","10","14074","5906","&#9761;","elianto","#3366ff99","-1","-1","1","+10","[]","0","0","2","","","","","","","",""
"pit-trial","39","444902","0.0-2.0-11.0-2.0","battery-v0.2","","""event"",""trial"",""time""
""fullscreenenter"",""1"",""2514""
","
","
","""event"",""trial"",""time""
""fullscreenenter"",""1"",""2514""
","
","","","-1","","","10","14074","5906","&#9761;","elianto","#3366ff99","-1","-1","1","+10","[]","0","0","2","","","","","","","",""
"pit-trial","40","449775","0.0-2.0-11.0-3.0","battery-v0.2","","""event"",""trial"",""time""
""fullscreenenter"",""1"",""2514""
","
","
","""event"",""trial"",""time""
""fullscreenenter"",""1"",""2514""
","
","","","-1","","","10","14074","5906","&#9761;","elianto","#3366ff99","-1","-1","1","0","[]","0","0","2","","","","","","","",""
"pit-trial","41","454647","0.0-2.0-11.0-4.0","battery-v0.2","","""event"",""trial"",""time""
""fullscreenenter"",""1"",""2514""
","
","
","""event"",""trial"",""time""
""fullscreenenter"",""1"",""2514""
","
","","","-1","","","10","14074","5906","&#9761;","elianto","#3366ff99","-1","-1","1","+10","[]","0","0","2","","","","","","","",""
"pit-trial","42","459515","0.0-2.0-11.1-0.1","battery-v0.2","","""event"",""trial"",""time""
""fullscreenenter"",""1"",""2514""
","
","
","""event"",""trial"",""time""
""fullscreenenter"",""1"",""2514""
","
","","","-1","","","10","14074","5906","&#9761;","elianto","#3366ff99","-1","-1","1","+10","[]","0","0","2","","","","","","","",""
"pit-trial","43","464370","0.0-2.0-11.1-1.1","battery-v0.2","","""event"",""trial"",""time""
""fullscreenenter"",""1"",""2514""
","
","
","""event"",""trial"",""time""
""fullscreenenter"",""1"",""2514""
","
","","","-1","","","10","14074","5906","&#9761;","elianto","#3366ff99","-1","-1","1","+10","[]","0","0","2","","","","","","","",""
"pit-trial","44","469225","0.0-2.0-11.1-2.1","battery-v0.2","","""event"",""trial"",""time""
""fullscreenenter"",""1"",""2514""
","
","
","""event"",""trial"",""time""
""fullscreenenter"",""1"",""2514""
","
","","","-1","","","10","14074","5906","&#9761;","elianto","#3366ff99","-1","-1","1","+10","[]","0","0","2","","","","","","","",""
"pit-trial","45","474080","0.0-2.0-11.1-3.1","battery-v0.2","","""event"",""trial"",""time""
""fullscreenenter"",""1"",""2514""
","
","
","""event"",""trial"",""time""
""fullscreenenter"",""1"",""2514""
","
","","","-1","","","10","14074","5906","&#9761;","elianto","#3366ff99","-1","-1","1","0","[]","0","0","2","","","","","","","",""
"pit-trial","46","478936","0.0-2.0-11.1-4.1","battery-v0.2","","""event"",""trial"",""time""
""fullscreenenter"",""1"",""2514""
","
","
","""event"",""trial"",""time""
""fullscreenenter"",""1"",""2514""
","
","","","-1","","","10","14074","5906","&#9761;","elianto","#3366ff99","-1","-1","1","+10","[]","0","0","2","","","","","","","",""
"pit-trial","47","483794","0.0-2.0-11.2-0.2","battery-v0.2","","""event"",""trial"",""time""
""fullscreenenter"",""1"",""2514""
","
","
","""event"",""trial"",""time""
""fullscreenenter"",""1"",""2514""
","
","","","-1","","","10","14074","5906","&#9761;","elianto","#3366ff99","-1","-1","1","+10","[]","0","0","2","","","","","","","",""
"pit-trial","48","488648","0.0-2.0-11.2-1.2","battery-v0.2","","""event"",""trial"",""time""
""fullscreenenter"",""1"",""2514""
","
","
","""event"",""trial"",""time""
""fullscreenenter"",""1"",""2514""
","
","","","-1","","","10","14074","5906","&#9761;","elianto","#3366ff99","-1","-1","1","+10","[]","0","0","2","","","","","","","",""
"pit-trial","49","493507","0.0-2.0-11.2-2.2","battery-v0.2","","""event"",""trial"",""time""
""fullscreenenter"",""1"",""2514""
","
","
","""event"",""trial"",""time""
""fullscreenenter"",""1"",""2514""
","
","","","-1","","","10","14074","5906","&#9761;","elianto","#3366ff99","-1","-1","1","+10","[]","0","0","2","","","","","","","",""
"pit-trial","50","498363","0.0-2.0-11.2-3.2","battery-v0.2","","""event"",""trial"",""time""
""fullscreenenter"",""1"",""2514""
","
","
","""event"",""trial"",""time""
""fullscreenenter"",""1"",""2514""
","
","","","-1","","","10","14074","5906","&#9761;","elianto","#3366ff99","-1","-1","1","0","[]","0","0","2","","","","","","","",""
"pit-trial","51","503221","0.0-2.0-11.2-4.2","battery-v0.2","","""event"",""trial"",""time""
""fullscreenenter"",""1"",""2514""
","
","
","""event"",""trial"",""time""
""fullscreenenter"",""1"",""2514""
","
","","","-1","","","10","14074","5906","&#9761;","elianto","#3366ff99","-1","-1","1","+10","[]","0","0","2","","","","","","","",""
"pit-trial","52","508076","0.0-2.0-11.3-0.3","battery-v0.2","","""event"",""trial"",""time""
""fullscreenenter"",""1"",""2514""
","
","
","""event"",""trial"",""time""
""fullscreenenter"",""1"",""2514""
","
","","","-1","","","10","14074","5906","&#9761;","elianto","#3366ff99","-1","-1","1","+10","[]","0","0","2","","","","","","","",""
"pit-trial","53","512932","0.0-2.0-11.3-1.3","battery-v0.2","","""event"",""trial"",""time""
""fullscreenenter"",""1"",""2514""
","
","
","""event"",""trial"",""time""
""fullscreenenter"",""1"",""2514""
","
","","","-1","","","10","14074","5906","&#9761;","elianto","#3366ff99","-1","-1","1","+10","[]","0","0","2","","","","","","","",""
"pit-trial","54","517785","0.0-2.0-11.3-2.3","battery-v0.2","","""event"",""trial"",""time""
""fullscreenenter"",""1"",""2514""
","
","
","""event"",""trial"",""time""
""fullscreenenter"",""1"",""2514""
","
","","","-1","","","10","14074","5906","&#9761;","elianto","#3366ff99","-1","-1","1","+10","[]","0","0","2","","","","","","","",""
"pit-trial","55","522640","0.0-2.0-11.3-3.3","battery-v0.2","","""event"",""trial"",""time""
""fullscreenenter"",""1"",""2514""
","
","
","""event"",""trial"",""time""
""fullscreenenter"",""1"",""2514""
","
","","","-1","","","10","14074","5906","&#9761;","elianto","#3366ff99","-1","-1","1","0","[]","0","0","2","","","","","","","",""
"pit-trial","56","527495","0.0-2.0-11.3-4.3","battery-v0.2","","""event"",""trial"",""time""
""fullscreenenter"",""1"",""2514""
","
","
","""event"",""trial"",""time""
""fullscreenenter"",""1"",""2514""
","
","","","-1","","","10","14074","5906","&#9761;","elianto","#3366ff99","-1","-1","1","+10","[]","0","0","2","","","","","","","",""
"call-function","57","527497","0.0-2.0-12.0","battery-v0.2","","""event"",""trial"",""time""
""fullscreenenter"",""1"",""2514""
","
","
","""event"",""trial"",""time""
""fullscreenenter"",""1"",""2514""
","
","","","","","","","","","","","","","","","","","","","","","","","","","","",""
"pit-instructions","58","571004","0.0-2.0-13.0","battery-v0.2","","""event"",""trial"",""time""
""fullscreenenter"",""1"",""2514""
","
","
","""event"",""trial"",""time""
""fullscreenenter"",""1"",""2514""
","
","","[{""page_index"":0,""viewing_time"":7306.699998855591},{""page_index"":1,""viewing_time"":15311.70000076294},{""page_index"":2,""viewing_time"":3840.1000003814697},{""page_index"":3,""viewing_time"":10522.79999923706},{""page_index"":4,""viewing_time"":6523.700000762939}]","43505.79999923706","","","","","","","","","","","","","","","","","","","","","","","",""
"pit-trial","59","574475","0.0-2.0-14.0-0.0","battery-v0.2","","""event"",""trial"",""time""
""fullscreenenter"",""1"",""2514""
","
","
","""event"",""trial"",""time""
""fullscreenenter"",""1"",""2514""
","
","","","616.6000003814697","","","10","14074","5906","&#9826;","elianto","#f73b6a7A","-1"," ","0","-10","[1466.6000003814697]","1","0","3","","","","","","","",""
"pit-trial","60","579346","0.0-2.0-14.0-1.0","battery-v0.2","","""event"",""trial"",""time""
""fullscreenenter"",""1"",""2514""
","
","
","""event"",""trial"",""time""
""fullscreenenter"",""1"",""2514""
","
","","","-1","","","10","14074","5906","&#9826;","elianto","#f73b6a7A","-1","-1","1","0","[]","0","0","3","","","","","","","",""
"pit-trial","61","584205","0.0-2.0-14.0-2.0","battery-v0.2","","""event"",""trial"",""time""
""fullscreenenter"",""1"",""2514""
","
","
","""event"",""trial"",""time""
""fullscreenenter"",""1"",""2514""
","
","","","-1","","","10","14074","5906","&#9826;","elianto","#f73b6a7A","-1","-1","1","0","[]","0","0","3","","","","","","","",""
"pit-trial","62","589078","0.0-2.0-14.0-3.0","battery-v0.2","","""event"",""trial"",""time""
""fullscreenenter"",""1"",""2514""
","
","
","""event"",""trial"",""time""
""fullscreenenter"",""1"",""2514""
","
","","","-1","","","10","14074","5906","&#9826;","elianto","#f73b6a7A","-1","-1","1","-10","[]","0","0","3","","","","","","","",""
"pit-trial","63","593957","0.0-2.0-14.0-4.0","battery-v0.2","","""event"",""trial"",""time""
""fullscreenenter"",""1"",""2514""
","
","
","""event"",""trial"",""time""
""fullscreenenter"",""1"",""2514""
","
","","","-1","","","10","14074","5906","&#9826;","elianto","#f73b6a7A","-1","-1","1","0","[]","0","0","3","","","","","","","",""
"pit-trial","64","598832","0.0-2.0-14.1-0.1","battery-v0.2","","""event"",""trial"",""time""
""fullscreenenter"",""1"",""2514""
","
","
","""event"",""trial"",""time""
""fullscreenenter"",""1"",""2514""
","
","","","-1","","","10","14074","5906","&#9826;","elianto","#f73b6a7A","-1","-1","1","0","[]","0","0","3","","","","","","","",""
"pit-trial","65","603686","0.0-2.0-14.1-1.1","battery-v0.2","","""event"",""trial"",""time""
""fullscreenenter"",""1"",""2514""
","
","
","""event"",""trial"",""time""
""fullscreenenter"",""1"",""2514""
","
","","","-1","","","10","14074","5906","&#9826;","elianto","#f73b6a7A","-1","-1","1","0","[]","0","0","3","","","","","","","",""
"pit-trial","66","608540","0.0-2.0-14.1-2.1","battery-v0.2","","""event"",""trial"",""time""
""fullscreenenter"",""1"",""2514""
","
","
","""event"",""trial"",""time""
""fullscreenenter"",""1"",""2514""
","
","","","-1","","","10","14074","5906","&#9826;","elianto","#f73b6a7A","-1","-1","1","0","[]","0","0","3","","","","","","","",""
"pit-trial","67","613397","0.0-2.0-14.1-3.1","battery-v0.2","","""event"",""trial"",""time""
""fullscreenenter"",""1"",""2514""
","
","
","""event"",""trial"",""time""
""fullscreenenter"",""1"",""2514""
","
","","","-1","","","10","14074","5906","&#9826;","elianto","#f73b6a7A","-1","-1","1","-10","[]","0","0","3","","","","","","","",""
"pit-trial","68","618254","0.0-2.0-14.1-4.1","battery-v0.2","","""event"",""trial"",""time""
""fullscreenenter"",""1"",""2514""
","
","
","""event"",""trial"",""time""
""fullscreenenter"",""1"",""2514""
","
","","","-1","","","10","14074","5906","&#9826;","elianto","#f73b6a7A","-1","-1","1","0","[]","0","0","3","","","","","","","",""
"pit-trial","69","623111","0.0-2.0-14.2-0.2","battery-v0.2","","""event"",""trial"",""time""
""fullscreenenter"",""1"",""2514""
","
","
","""event"",""trial"",""time""
""fullscreenenter"",""1"",""2514""
","
","","","-1","","","10","14074","5906","&#9826;","elianto","#f73b6a7A","-1","-1","1","0","[]","0","0","3","","","","","","","",""
"pit-trial","70","627966","0.0-2.0-14.2-1.2","battery-v0.2","","""event"",""trial"",""time""
""fullscreenenter"",""1"",""2514""
","
","
","""event"",""trial"",""time""
""fullscreenenter"",""1"",""2514""
","
","","","-1","","","10","14074","5906","&#9826;","elianto","#f73b6a7A","-1","-1","1","0","[]","0","0","3","","","","","","","",""
"pit-trial","71","632822","0.0-2.0-14.2-2.2","battery-v0.2","","""event"",""trial"",""time""
""fullscreenenter"",""1"",""2514""
","
","
","""event"",""trial"",""time""
""fullscreenenter"",""1"",""2514""
","
","","","-1","","","10","14074","5906","&#9826;","elianto","#f73b6a7A","-1","-1","1","0","[]","0","0","3","","","","","","","",""
"pit-trial","72","637678","0.0-2.0-14.2-3.2","battery-v0.2","","""event"",""trial"",""time""
""fullscreenenter"",""1"",""2514""
","
","
","""event"",""trial"",""time""
""fullscreenenter"",""1"",""2514""
","
","","","-1","","","10","14074","5906","&#9826;","elianto","#f73b6a7A","-1","-1","1","-10","[]","0","0","3","","","","","","","",""
"pit-trial","73","642535","0.0-2.0-14.2-4.2","battery-v0.2","","""event"",""trial"",""time""
""fullscreenenter"",""1"",""2514""
","
","
","""event"",""trial"",""time""
""fullscreenenter"",""1"",""2514""
","
","","","-1","","","10","14074","5906","&#9826;","elianto","#f73b6a7A","-1","-1","1","0","[]","0","0","3","","","","","","","",""
"pit-trial","74","647392","0.0-2.0-14.3-0.3","battery-v0.2","","""event"",""trial"",""time""
""fullscreenenter"",""1"",""2514""
","
","
","""event"",""trial"",""time""
""fullscreenenter"",""1"",""2514""
","
","","","-1","","","10","14074","5906","&#9826;","elianto","#f73b6a7A","-1","-1","1","0","[]","0","0","3","","","","","","","",""
"pit-trial","75","652249","0.0-2.0-14.3-1.3","battery-v0.2","","""event"",""trial"",""time""
""fullscreenenter"",""1"",""2514""
","
","
","""event"",""trial"",""time""
""fullscreenenter"",""1"",""2514""
","
","","","-1","","","10","14074","5906","&#9826;","elianto","#f73b6a7A","-1","-1","1","0","[]","0","0","3","","","","","","","",""
"pit-trial","76","657103","0.0-2.0-14.3-2.3","battery-v0.2","","""event"",""trial"",""time""
""fullscreenenter"",""1"",""2514""
","
","
","""event"",""trial"",""time""
""fullscreenenter"",""1"",""2514""
","
","","","-1","","","10","14074","5906","&#9826;","elianto","#f73b6a7A","-1","-1","1","0","[]","0","0","3","","","","","","","",""
"pit-trial","77","661958","0.0-2.0-14.3-3.3","battery-v0.2","","""event"",""trial"",""time""
""fullscreenenter"",""1"",""2514""
","
","
","""event"",""trial"",""time""
""fullscreenenter"",""1"",""2514""
","
","","","-1","","","10","14074","5906","&#9826;","elianto","#f73b6a7A","-1","-1","1","-10","[]","0","0","3","","","","","","","",""
"pit-trial","78","666814","0.0-2.0-14.3-4.3","battery-v0.2","","""event"",""trial"",""time""
""fullscreenenter"",""1"",""2514""
","
","
","""event"",""trial"",""time""
""fullscreenenter"",""1"",""2514""
","
","","","-1","","","10","14074","5906","&#9826;","elianto","#f73b6a7A","-1","-1","1","0","[]","0","0","3","","","","","","","",""
"call-function","79","666818","0.0-2.0-15.0","battery-v0.2","","""event"",""trial"",""time""
""fullscreenenter"",""1"",""2514""
","
","
","""event"",""trial"",""time""
""fullscreenenter"",""1"",""2514""
","
","","","","","","","","","","","","","","","","","","","","","","","","","","",""
"pit-instructions","80","692752","0.0-2.0-16.0","battery-v0.2","","""event"",""trial"",""time""
""fullscreenenter"",""1"",""2514""
","
","
","""event"",""trial"",""time""
""fullscreenenter"",""1"",""2514""
","
","","[{""page_index"":0,""viewing_time"":6658.700000762939},{""page_index"":1,""viewing_time"":8151},{""page_index"":2,""viewing_time"":5331.39999961853},{""page_index"":3,""viewing_time"":5790.5}]","25932.60000038147","","","","","","","","","","","","","","","","","","","","","","","",""
"pit-trial","81","696255","0.0-2.0-17.0-0.0","battery-v0.2","","""event"",""trial"",""time""
""fullscreenenter"",""1"",""2514""
","
","
","""event"",""trial"",""time""
""fullscreenenter"",""1"",""2514""
","
","","","644.5999984741211","","","10","14074","5906","&#9789;","elianto","#f73b6a7A"," "," ","1","0","[1496.6000003814697]","1","0","4","","","","","","","",""
"pit-trial","82","699660","0.0-2.0-17.0-1.0","battery-v0.2","","""event"",""trial"",""time""
""fullscreenenter"",""1"",""2514""
","
","
","""event"",""trial"",""time""
""fullscreenenter"",""1"",""2514""
","
","","","547.1000003814697","","","10","14074","5906","&#9789;","elianto","#f73b6a7A"," "," ","1","0","[1399.7999992370605]","1","0","4","","","","","","","",""
"pit-trial","83","702748","0.0-2.0-17.0-2.0","battery-v0.2","","""event"",""trial"",""time""
""fullscreenenter"",""1"",""2514""
","
","
","""event"",""trial"",""time""
""fullscreenenter"",""1"",""2514""
","
","","","221.79999923706055","","","10","14074","5906","&#9789;","elianto","#f73b6a7A"," "," ","1","0","[1074.099998474121]","1","0","4","","","","","","","",""
"pit-trial","84","706109","0.0-2.0-17.0-3.0","battery-v0.2","","""event"",""trial"",""time""
""fullscreenenter"",""1"",""2514""
","
","
","""event"",""trial"",""time""
""fullscreenenter"",""1"",""2514""
","
","","","492.20000076293945","","","10","14074","5906","&#9789;","elianto","#f73b6a7A"," "," ","1","-10","[187.79999923706055,1351.3999996185303]","2","0","4","","","","","","","",""
"pit-trial","85","709262","0.0-2.0-17.0-4.0","battery-v0.2","","""event"",""trial"",""time""
""fullscreenenter"",""1"",""2514""
","
","
","""event"",""trial"",""time""
""fullscreenenter"",""1"",""2514""
","
","","","293.1999988555908","","","10","14074","5906","&#9789;","elianto","#f73b6a7A"," "," ","1","0","[1148.5]","1","0","4","","","","","","","",""
"pit-trial","86","712936","0.0-2.0-17.1-0.1","battery-v0.2","","""event"",""trial"",""time""
""fullscreenenter"",""1"",""2514""
","
","
","""event"",""trial"",""time""
""fullscreenenter"",""1"",""2514""
","
","","","811.6000003814697","","","10","14074","5906","&#9789;","elianto","#f73b6a7A"," "," ","1","0","[278.3000011444092,1662.6000003814697]","2","0","4","","","","","","","",""
"pit-trial","87","716289","0.0-2.0-17.1-1.1","battery-v0.2","","""event"",""trial"",""time""
""fullscreenenter"",""1"",""2514""
","
","
","""event"",""trial"",""time""
""fullscreenenter"",""1"",""2514""
","
","","","487.5","","","10","14074","5906","&#9789;","elianto","#f73b6a7A"," "," ","1","0","[1339.7999992370605]","1","0","4","","","","","","","",""
"pit-trial","88","719383","0.0-2.0-17.1-2.1","battery-v0.2","","""event"",""trial"",""time""
""fullscreenenter"",""1"",""2514""
","
","
","""event"",""trial"",""time""
""fullscreenenter"",""1"",""2514""
","
","","","231.0999984741211","","","10","14074","5906","&#9789;","elianto","#f73b6a7A"," "," ","1","0","[1081.6999988555908]","1","0","4","","","","","","","",""
"pit-trial","89","722655","0.0-2.0-17.1-3.1","battery-v0.2","","""event"",""trial"",""time""
""fullscreenenter"",""1"",""2514""
","
","
","""event"",""trial"",""time""
""fullscreenenter"",""1"",""2514""
","
","","","419.4000015258789","","","10","14074","5906","&#9789;","elianto","#f73b6a7A"," "," ","1","-10","[1270.3000011444092]","1","0","4","","","","","","","",""
"pit-trial","90","726085","0.0-2.0-17.1-4.1","battery-v0.2","","""event"",""trial"",""time""
""fullscreenenter"",""1"",""2514""
","
","
","""event"",""trial"",""time""
""fullscreenenter"",""1"",""2514""
","
","","","573.6000003814697","","","10","14074","5906","&#9789;","elianto","#f73b6a7A"," "," ","1","0","[1425.3999996185303]","1","0","4","","","","","","","",""
"pit-trial","91","729230","0.0-2.0-17.2-0.2","battery-v0.2","","""event"",""trial"",""time""
""fullscreenenter"",""1"",""2514""
","
","
","""event"",""trial"",""time""
""fullscreenenter"",""1"",""2514""
","
","","","289.3999996185303","","","10","14074","5906","&#9789;","elianto","#f73b6a7A"," "," ","1","0","[1140.3999996185303]","1","0","4","","","","","","","",""
"pit-trial","92","732536","0.0-2.0-17.2-1.2","battery-v0.2","","""event"",""trial"",""time""
""fullscreenenter"",""1"",""2514""
","
","
","""event"",""trial"",""time""
""fullscreenenter"",""1"",""2514""
","
","","","450.0999984741211","","","10","14074","5906","&#9789;","elianto","#f73b6a7A"," "," ","1","0","[1302.2000007629395]","1","0","4","","","","","","","",""
"pit-trial","93","736068","0.0-2.0-17.2-2.2","battery-v0.2","","""event"",""trial"",""time""
""fullscreenenter"",""1"",""2514""
","
","
","""event"",""trial"",""time""
""fullscreenenter"",""1"",""2514""
","
","","","675","","","10","14074","5906","&#9789;","elianto","#f73b6a7A"," "," ","1","0","[1525.7999992370605]","1","0","4","","","","","","","",""
"pit-trial","94","739467","0.0-2.0-17.2-3.2","battery-v0.2","","""event"",""trial"",""time""
""fullscreenenter"",""1"",""2514""
","
","
","""event"",""trial"",""time""
""fullscreenenter"",""1"",""2514""
","
","","","544.1000003814697","","","10","14074","5906","&#9789;","elianto","#f73b6a7A"," "," ","1","-10","[1394.3999996185303]","1","0","4","","","","","","","",""
"pit-trial","95","742641","0.0-2.0-17.2-4.2","battery-v0.2","","""event"",""trial"",""time""
""fullscreenenter"",""1"",""2514""
","
","
","""event"",""trial"",""time""
""fullscreenenter"",""1"",""2514""
","
","","","318.8000011444092","","","10","14074","5906","&#9789;","elianto","#f73b6a7A"," "," ","1","0","[1169.5]","1","0","4","","","","","","","",""
"pit-trial","96","745754","0.0-2.0-17.3-0.3","battery-v0.2","","""event"",""trial"",""time""
""fullscreenenter"",""1"",""2514""
","
","
","""event"",""trial"",""time""
""fullscreenenter"",""1"",""2514""
","
","","","257.29999923706055","","","10","14074","5906","&#9789;","elianto","#f73b6a7A"," "," ","1","0","[1107.7999992370605]","1","0","4","","","","","","","",""
"pit-trial","97","748898","0.0-2.0-17.3-1.3","battery-v0.2","","""event"",""trial"",""time""
""fullscreenenter"",""1"",""2514""
","
","
","""event"",""trial"",""time""
""fullscreenenter"",""1"",""2514""
","
","","","288.9000015258789","","","10","14074","5906","&#9789;","elianto","#f73b6a7A"," "," ","1","0","[1139.5]","1","0","4","","","","","","","",""
"pit-trial","98","752371","0.0-2.0-17.3-2.3","battery-v0.2","","""event"",""trial"",""time""
""fullscreenenter"",""1"",""2514""
","
","
","""event"",""trial"",""time""
""fullscreenenter"",""1"",""2514""
","
","","","619.6000003814697","","","10","14074","5906","&#9789;","elianto","#f73b6a7A"," "," ","1","0","[1469.6999988555908]","1","0","4","","","","","","","",""
"pit-trial","99","756009","0.0-2.0-17.3-3.3","battery-v0.2","","""event"",""trial"",""time""
""fullscreenenter"",""1"",""2514""
","
","
","""event"",""trial"",""time""
""fullscreenenter"",""1"",""2514""
","
","","","783.7999992370605","","","10","14074","5906","&#9789;","elianto","#f73b6a7A"," "," ","1","-10","[1634.2999992370605]","1","0","4","","","","","","","",""
"pit-trial","100","759162","0.0-2.0-17.3-4.3","battery-v0.2","","""event"",""trial"",""time""
""fullscreenenter"",""1"",""2514""
","
","
","""event"",""trial"",""time""
""fullscreenenter"",""1"",""2514""
","
","","","298.29999923706055","","","10","14074","5906","&#9789;","elianto","#f73b6a7A"," "," ","1","0","[1149.7999992370605]","1","0","4","","","","","","","",""
"call-function","101","759166","0.0-2.0-18.0","battery-v0.2","","""event"",""trial"",""time""
""fullscreenenter"",""1"",""2514""
","
","
","""event"",""trial"",""time""
""fullscreenenter"",""1"",""2514""
","
","","","","","","","","","","","","","","","","","","","","","","","","","","",""
"pit-instructions","102","836891","0.0-2.0-19.0","battery-v0.2","","""event"",""trial"",""time""
""fullscreenenter"",""1"",""2514""
","
","
","""event"",""trial"",""time""
""fullscreenenter"",""1"",""2514""
","
","","[{""page_index"":0,""viewing_time"":9612},{""page_index"":1,""viewing_time"":7051.700000762939},{""page_index"":2,""viewing_time"":17542.89999961853},{""page_index"":3,""viewing_time"":7358.700000762939},{""page_index"":4,""viewing_time"":8984.79999923706},{""page_index"":5,""viewing_time"":8669.70000076294},{""page_index"":6,""viewing_time"":8430},{""page_index"":7,""viewing_time"":5593.199998855591},{""page_index"":8,""viewing_time"":4480.200000762939}]","77724","","","","","","","","","","","","","","","","","","","","","","","",""
"pit-comprehension","103","843786","0.0-2.0-20.0-0.0","battery-v0.2","","""event"",""trial"",""time""
""fullscreenenter"",""1"",""2514""
","
","
","""event"",""trial"",""time""
""fullscreenenter"",""1"",""2514""
","
","","","6888.39999961853","[""SPACE""]","0","10","14074","5906","","","","","","","","","","","","","","","","","","",""
"pit-instructions","104","846781","0.0-2.0-20.0-1.0","battery-v0.2","","""event"",""trial"",""time""
""fullscreenenter"",""1"",""2514""
","
","
","""event"",""trial"",""time""
""fullscreenenter"",""1"",""2514""
","
","","[{""page_index"":0,""viewing_time"":2949.099998474121}]","2950","","","","","","","","","","","","","","","","","","","","","","","",""
"pit-comprehension","105","851376","0.0-2.0-21.0-0.0","battery-v0.2","","""event"",""trial"",""time""
""fullscreenenter"",""1"",""2514""
","
","
","""event"",""trial"",""time""
""fullscreenenter"",""1"",""2514""
","
","","","4590.10000038147","[""10""]","0","10","14074","5906","","","","","","","","","","","","","","","","","","",""
"pit-instructions","106","856622","0.0-2.0-21.0-1.0","battery-v0.2","","""event"",""trial"",""time""
""fullscreenenter"",""1"",""2514""
","
","
","""event"",""trial"",""time""
""fullscreenenter"",""1"",""2514""
","
","","[{""page_index"":0,""viewing_time"":5213.199998855591}]","5214","","","","","","","","","","","","","","","","","","","","","","","",""
"pit-comprehension","107","863330","0.0-2.0-22.0-0.0","battery-v0.2","","""event"",""trial"",""time""
""fullscreenenter"",""1"",""2514""
","
","
","""event"",""trial"",""time""
""fullscreenenter"",""1"",""2514""
","
","","","6701.800001144409","[""0""]","0","10","14074","5906","","","","","","","","","","","","","","","","","","",""
"pit-instructions","108","866340","0.0-2.0-22.0-1.0","battery-v0.2","","""event"",""trial"",""time""
""fullscreenenter"",""1"",""2514""
","
","
","""event"",""trial"",""time""
""fullscreenenter"",""1"",""2514""
","
","","[{""page_index"":0,""viewing_time"":2973.2999992370605}]","2974.2000007629395","","","","","","","","","","","","","","","","","","","","","","","",""
"pit-comprehension","109","876103","0.0-2.0-23.0-0.0","battery-v0.2","","""event"",""trial"",""time""
""fullscreenenter"",""1"",""2514""
","
","
","""event"",""trial"",""time""
""fullscreenenter"",""1"",""2514""
","
","","","9758.099998474121","[""True""]","0","10","14074","5906","","","","","","","","","","","","","","","","","","",""
"pit-instructions","110","877714","0.0-2.0-23.0-1.0","battery-v0.2","","""event"",""trial"",""time""
""fullscreenenter"",""1"",""2514""
","
","
","""event"",""trial"",""time""
""fullscreenenter"",""1"",""2514""
","
","","[{""page_index"":0,""viewing_time"":1581}]","1581.2000007629395","","","","","","","","","","","","","","","","","","","","","","","",""
"pit-comprehension","111","885507","0.0-2.0-24.0-0.0","battery-v0.2","","""event"",""trial"",""time""
""fullscreenenter"",""1"",""2514""
","
","
","""event"",""trial"",""time""
""fullscreenenter"",""1"",""2514""
","
","","","7790.599998474121","[""True""]","0","10","14074","5906","","","","","","","","","","","","","","","","","","",""
"pit-instructions","112","887226","0.0-2.0-24.0-1.0","battery-v0.2","","""event"",""trial"",""time""
""fullscreenenter"",""1"",""2514""
","
","
","""event"",""trial"",""time""
""fullscreenenter"",""1"",""2514""
","
","","[{""page_index"":0,""viewing_time"":1688.3999996185303}]","1688.8000011444092","","","","","","","","","","","","","","","","","","","","","","","",""
"pit-comprehension","113","893697","0.0-2.0-25.0-0.0","battery-v0.2","","""event"",""trial"",""time""
""fullscreenenter"",""1"",""2514""
","
","
","""event"",""trial"",""time""
""fullscreenenter"",""1"",""2514""
","
","","","6466.900001525879","[""True""]","0","10","14074","5906","","","","","","","","","","","","","","","","","","",""
"pit-instructions","114","895143","0.0-2.0-25.0-1.0","battery-v0.2","","""event"",""trial"",""time""
""fullscreenenter"",""1"",""2514""
","
","
","""event"",""trial"",""time""
""fullscreenenter"",""1"",""2514""
","
","","[{""page_index"":0,""viewing_time"":1397.3999996185303}]","1398.2000007629395","","","","","","","","","","","","","","","","","","","","","","","",""
"pit-comprehension","115","899802","0.0-2.0-26.0-0.0","battery-v0.2","","""event"",""trial"",""time""
""fullscreenenter"",""1"",""2514""
","
","
","""event"",""trial"",""time""
""fullscreenenter"",""1"",""2514""
","
","","","4653.800001144409","[""False""]","0","10","14074","5906","","","","","","","","","","","","","","","","","","",""
"pit-instructions","116","901199","0.0-2.0-26.0-1.0","battery-v0.2","","""event"",""trial"",""time""
""fullscreenenter"",""1"",""2514""
","
","
","""event"",""trial"",""time""
""fullscreenenter"",""1"",""2514""
","
","","[{""page_index"":0,""viewing_time"":1353.7999992370605}]","1354.7999992370605","","","","","","","","","","","","","","","","","","","","","","","",""
"pit-instructions","117","919210","0.0-3.0","battery-v0.2","","""event"",""trial"",""time""
""fullscreenenter"",""1"",""2514""
","
","
","""event"",""trial"",""time""
""fullscreenenter"",""1"",""2514""
","
","","[{""page_index"":0,""viewing_time"":3787.5},{""page_index"":1,""viewing_time"":5043.300001144409},{""page_index"":2,""viewing_time"":9176}]","18007.5","","","","","","","","","","","","","","","","","","","","","","","",""
"pit-trial","118","922916","0.0-4.0","battery-v0.2","","""event"",""trial"",""time""
""fullscreenenter"",""1"",""2514""
","
","
","""event"",""trial"",""time""
""fullscreenenter"",""1"",""2514""
","
","","","824.9000015258789","","","10","14074","5906","&#9733;","elianto","#3366ff99","-1"," ","0","0","[1676.8999996185303]","1","1","","","14074","1","2","2","win","no-go","0"
"pit-trial","119","926685","0.0-5.0","battery-v0.2","","""event"",""trial"",""time""
""fullscreenenter"",""1"",""2514""
","
","
","""event"",""trial"",""time""
""fullscreenenter"",""1"",""2514""
","
","","","902.6000003814697","","","10","14074","5906","&#9752;","elianto","#f73b6a7A"," "," ","1","0","[1760.1000003814697]","1","1","","","14074","2","3","3","lose","go","0"
"pit-trial","120","930408","0.0-6.0","battery-v0.2","","""event"",""trial"",""time""
""fullscreenenter"",""1"",""2514""
","
","
","""event"",""trial"",""time""
""fullscreenenter"",""1"",""2514""
","
","","","853.8999996185303","","","10","14074","5906","&#9728;","elianto","#f73b6a7A","-1"," ","0","-10","[1704.3000011444092]","1","1","","","14074","3","0","4","lose","no-go","0"
"pit-trial","121","934150","0.0-7.0","battery-v0.2","","""event"",""trial"",""time""
""fullscreenenter"",""1"",""2514""
","
","
","""event"",""trial"",""time""
""fullscreenenter"",""1"",""2514""
","
","","","882.3999996185303","","","10","14074","5906","&#9730;","elianto","#3366ff99"," "," ","1","0","[1733.5]","1","1","","","14074","4","1","1","win","go","1"
"pit-trial","122","939016","0.0-8.0","battery-v0.2","","""event"",""trial"",""time""
""fullscreenenter"",""1"",""2514""
","
","
","""event"",""trial"",""time""
""fullscreenenter"",""1"",""2514""
","
","","","-1","","","10","14074","5906","&#9733;","elianto","#3366ff99","-1","-1","1","+10","[]","0","1","","","14074","5","2","2","win","no-go","0"
"pit-trial","123","942431","0.0-9.0","battery-v0.2","","""event"",""trial"",""time""
""fullscreenenter"",""1"",""2514""
","
","
","""event"",""trial"",""time""
""fullscreenenter"",""1"",""2514""
","
","","","542.3999996185303","","","10","14074","5906","&#9752;","elianto","#f73b6a7A"," "," ","1","-10","[1396.7999992370605]","1","1","","","14074","6","3","3","lose","go","1"
"pit-trial","124","947304","0.0-10.0","battery-v0.2","","""event"",""trial"",""time""
""fullscreenenter"",""1"",""2514""
","
","
","""event"",""trial"",""time""
""fullscreenenter"",""1"",""2514""
","
","","","-1","","","10","14074","5906","&#9728;","elianto","#f73b6a7A","-1","-1","1","0","[]","0","1","","","14074","7","0","4","lose","no-go","0"
"pit-trial","125","952163","0.0-11.0","battery-v0.2","","""event"",""trial"",""time""
""fullscreenenter"",""1"",""2514""
","
","
","""event"",""trial"",""time""
""fullscreenenter"",""1"",""2514""
","
","","","-1","","","10","14074","5906","&#9730;","elianto","#3366ff99"," ","-1","0","0","[]","0","1","","","14074","8","1","1","win","go","0"
"pit-trial","126","955929","0.0-12.0","battery-v0.2","","""event"",""trial"",""time""
""fullscreenenter"",""1"",""2514""
","
","
","""event"",""trial"",""time""
""fullscreenenter"",""1"",""2514""
","
","","","907.3999996185303","","","10","14074","5906","&#9730;","elianto","#3366ff99"," "," ","1","+10","[1758.7999992370605]","1","1","","","14074","9","1","1","win","go","0"
"pit-trial","127","960329","0.0-13.0","battery-v0.2","","""event"",""trial"",""time""
""fullscreenenter"",""1"",""2514""
","
","
","""event"",""trial"",""time""
""fullscreenenter"",""1"",""2514""
","
","","","1545.6000003814697","","","10","14074","5906","&#9752;","elianto","#f73b6a7A"," "," ","1","0","[2396.1000003814697]","1","1","","","14074","10","3","3","lose","go","0"
"pit-trial","128","965185","0.0-14.0","battery-v0.2","","""event"",""trial"",""time""
""fullscreenenter"",""1"",""2514""
","
","
","""event"",""trial"",""time""
""fullscreenenter"",""1"",""2514""
","
","","","-1","","","10","14074","5906","&#9728;","elianto","#f73b6a7A","-1","-1","1","0","[]","0","1","","","14074","11","0","4","lose","no-go","0"
"pit-trial","129","968671","0.0-15.0","battery-v0.2","","""event"",""trial"",""time""
""fullscreenenter"",""1"",""2514""
","
","
","""event"",""trial"",""time""
""fullscreenenter"",""1"",""2514""
","
","","","629.1000003814697","","","10","14074","5906","&#9733;","elianto","#3366ff99","-1"," ","0","+10","[1481.2000007629395]","1","1","","","14074","12","2","2","win","no-go","1"
"pit-trial","130","973532","0.0-16.0","battery-v0.2","","""event"",""trial"",""time""
""fullscreenenter"",""1"",""2514""
","
","
","""event"",""trial"",""time""
""fullscreenenter"",""1"",""2514""
","
","","","-1","","","10","14074","5906","&#9728;","elianto","#f73b6a7A","-1","-1","1","0","[]","0","1","","","14074","13","0","4","lose","no-go","0"
"pit-trial","131","977997","0.0-17.0","battery-v0.2","","""event"",""trial"",""time""
""fullscreenenter"",""1"",""2514""
","
","
","""event"",""trial"",""time""
""fullscreenenter"",""1"",""2514""
","
","","","1595.7000007629395","","","10","14074","5906","&#9752;","elianto","#f73b6a7A"," "," ","1","0","[2446.2999992370605]","1","1","","","14074","14","3","3","lose","go","0"
"pit-trial","132","982047","0.0-18.0","battery-v0.2","","""event"",""trial"",""time""
""fullscreenenter"",""1"",""2514""
","
","
","""event"",""trial"",""time""
""fullscreenenter"",""1"",""2514""
","
","","","1195.1000003814697","","","10","14074","5906","&#9730;","elianto","#3366ff99"," "," ","1","+10","[2045.7000007629395]","1","1","","","14074","15","1","1","win","go","0"
"pit-trial","133","986900","0.0-19.0","battery-v0.2","","""event"",""trial"",""time""
""fullscreenenter"",""1"",""2514""
","
","
","""event"",""trial"",""time""
""fullscreenenter"",""1"",""2514""
","
","","","-1","","","10","14074","5906","&#9733;","elianto","#3366ff99","-1","-1","1","+10","[]","0","1","","","14074","16","2","2","win","no-go","0"
"pit-trial","134","991063","0.0-20.0","battery-v0.2","","""event"",""trial"",""time""
""fullscreenenter"",""1"",""2514""
","
","
","""event"",""trial"",""time""
""fullscreenenter"",""1"",""2514""
","
","","","1309.3999996185303","","","10","14074","5906","&#9730;","elianto","#3366ff99"," "," ","1","+10","[2159.5]","1","1","","","14074","17","1","1","win","go","0"
"pit-trial","135","995919","0.0-21.0","battery-v0.2","","""event"",""trial"",""time""
""fullscreenenter"",""1"",""2514""
","
","
","""event"",""trial"",""time""
""fullscreenenter"",""1"",""2514""
","
","","","-1","","","10","14074","5906","&#9728;","elianto","#f73b6a7A","-1","-1","1","0","[]","0","1","","","14074","18","0","4","lose","no-go","0"
"pit-trial","136","1000776","0.0-22.0","battery-v0.2","","""event"",""trial"",""time""
""fullscreenenter"",""1"",""2514""
","
","
","""event"",""trial"",""time""
""fullscreenenter"",""1"",""2514""
","
","","","-1","","","10","14074","5906","&#9733;","elianto","#3366ff99","-1","-1","1","+10","[]","0","1","","","14074","19","2","2","win","no-go","0"
"pit-trial","137","1004853","0.0-23.0","battery-v0.2","","""event"",""trial"",""time""
""fullscreenenter"",""1"",""2514""
","
","
","""event"",""trial"",""time""
""fullscreenenter"",""1"",""2514""
","
","","","1220.099998474121","","","10","14074","5906","&#9752;","elianto","#f73b6a7A"," "," ","1","-10","[2072.1000003814697]","1","1","","","14074","20","3","3","lose","go","1"
"pit-instructions","138","1017998","0.0-24.0","battery-v0.2","","""event"",""trial"",""time""
""fullscreenenter"",""1"",""2514""
","
","
","""event"",""trial"",""time""
""fullscreenenter"",""1"",""2514""
","
","","[{""page_index"":0,""viewing_time"":6044.10000038147},{""page_index"":1,""viewing_time"":7097.299999237061}]","13142","","","","","","","","","","","","","","","","","","","","","","","",""
"pit-trial","139","1021495","0.0-25.0","battery-v0.2","","""event"",""trial"",""time""
""fullscreenenter"",""1"",""2514""
","
","
","""event"",""trial"",""time""
""fullscreenenter"",""1"",""2514""
","
","","","624.2000007629395","","","10","14074","5906","d","elianto","#3366ff99"," "," ","1","+10","[1485.5]","1","2","","","14074","21","1","1","win","go","0"
"pit-trial","140","1026374","0.0-26.0","battery-v0.2","","""event"",""trial"",""time""
""fullscreenenter"",""1"",""2514""
","
","
","""event"",""trial"",""time""
""fullscreenenter"",""1"",""2514""
","
","","","-1","","","10","14074","5906","j","elianto","#f73b6a7A","-1","-1","1","0","[]","0","2","","","14074","22","0","4","lose","no-go","0"
"pit-trial","141","1030635","0.0-27.0","battery-v0.2","","""event"",""trial"",""time""
""fullscreenenter"",""1"",""2514""
","
","
","""event"",""trial"",""time""
""fullscreenenter"",""1"",""2514""
","
","","","1402.5","","","10","14074","5906","w","elianto","#f73b6a7A"," "," ","1","0","[2255.699998855591]","1","2","","","14074","23","3","3","lose","go","0"
"pit-trial","142","1035504","0.0-28.0","battery-v0.2","","""event"",""trial"",""time""
""fullscreenenter"",""1"",""2514""
","
","
","""event"",""trial"",""time""
""fullscreenenter"",""1"",""2514""
","
","","","-1","","","10","14074","5906","e","elianto","#f73b6a7A","-1","-1","1","-10","[]","0","2","","","14074","24","2","4","lose","no-go","1"
"pit-trial","143","1039719","0.0-29.0","battery-v0.2","","""event"",""trial"",""time""
""fullscreenenter"",""1"",""2514""
","
","
","""event"",""trial"",""time""
""fullscreenenter"",""1"",""2514""
","
","","","1351.3000011444092","","","10","14074","5906","d","elianto","#3366ff99"," "," ","1","0","[2204]","1","2","","","14074","25","1","1","win","go","1"
"pit-trial","144","1044597","0.0-30.0","battery-v0.2","","""event"",""trial"",""time""
""fullscreenenter"",""1"",""2514""
","
","
","""event"",""trial"",""time""
""fullscreenenter"",""1"",""2514""
","
","","","-1","","","10","14074","5906","j","elianto","#f73b6a7A","-1","-1","1","0","[]","0","2","","","14074","26","0","4","lose","no-go","0"
"pit-trial","145","1048533","0.0-31.0","battery-v0.2","","""event"",""trial"",""time""
""fullscreenenter"",""1"",""2514""
","
","
","""event"",""trial"",""time""
""fullscreenenter"",""1"",""2514""
","
","","","1078.900001525879","","","10","14074","5906","e","elianto","#f73b6a7A","-1"," ","0","-10","[1931.8000011444092]","1","2","","","14074","27","2","4","lose","no-go","0"
"pit-trial","146","1052673","0.0-32.0","battery-v0.2","","""event"",""trial"",""time""
""fullscreenenter"",""1"",""2514""
","
","
","""event"",""trial"",""time""
""fullscreenenter"",""1"",""2514""
","
","","","1283.5","","","10","14074","5906","w","elianto","#f73b6a7A"," "," ","1","-10","[2134.599998474121]","1","2","","","14074","28","3","3","lose","go","1"
"pit-trial","147","1057527","0.0-33.0","battery-v0.2","","""event"",""trial"",""time""
""fullscreenenter"",""1"",""2514""
","
","
","""event"",""trial"",""time""
""fullscreenenter"",""1"",""2514""
","
","","","-1","","","10","14074","5906","j","elianto","#f73b6a7A","-1","-1","1","0","[]","0","2","","","14074","29","0","4","lose","no-go","0"
"pit-trial","148","1062384","0.0-34.0","battery-v0.2","","""event"",""trial"",""time""
""fullscreenenter"",""1"",""2514""
","
","
","""event"",""trial"",""time""
""fullscreenenter"",""1"",""2514""
","
","","","-1","","","10","14074","5906","e","elianto","#f73b6a7A","-1","-1","1","-10","[]","0","2","","","14074","30","2","4","lose","no-go","1"
"pit-trial","149","1065995","0.0-35.0","battery-v0.2","","""event"",""trial"",""time""
""fullscreenenter"",""1"",""2514""
","
","
","""event"",""trial"",""time""
""fullscreenenter"",""1"",""2514""
","
","","","753.2000007629395","","","10","14074","5906","d","elianto","#3366ff99"," "," ","1","0","[1606.1000003814697]","1","2","","","14074","31","1","1","win","go","1"
"pit-trial","150","1070852","0.0-36.0","battery-v0.2","","""event"",""trial"",""time""
""fullscreenenter"",""1"",""2514""
","
","
","""event"",""trial"",""time""
""fullscreenenter"",""1"",""2514""
","
","","","-1","","","10","14074","5906","w","elianto","#f73b6a7A"," ","-1","0","0","[]","0","2","","","14074","32","3","3","lose","go","1"
"pit-trial","151","1075017","0.0-37.0","battery-v0.2","","""event"",""trial"",""time""
""fullscreenenter"",""1"",""2514""
","
","
","""event"",""trial"",""time""
""fullscreenenter"",""1"",""2514""
","
","","","1306.3000011444092","","","10","14074","5906","d","elianto","#3366ff99"," "," ","1","0","[2158.6000003814697]","1","2","","","14074","33","1","1","win","go","1"
"pit-trial","152","1079874","0.0-38.0","battery-v0.2","","""event"",""trial"",""time""
""fullscreenenter"",""1"",""2514""
","
","
","""event"",""trial"",""time""
""fullscreenenter"",""1"",""2514""
","
","","","-1","","","10","14074","5906","w","elianto","#f73b6a7A"," ","-1","0","-10","[]","0","2","","","14074","34","3","3","lose","go","0"
"pit-trial","153","1084730","0.0-39.0","battery-v0.2","","""event"",""trial"",""time""
""fullscreenenter"",""1"",""2514""
","
","
","""event"",""trial"",""time""
""fullscreenenter"",""1"",""2514""
","
","","","-1","","","10","14074","5906","j","elianto","#f73b6a7A","-1","-1","1","0","[]","0","2","","","14074","35","0","4","lose","no-go","0"
"pit-trial","154","1088429","0.0-40.0","battery-v0.2","","""event"",""trial"",""time""
""fullscreenenter"",""1"",""2514""
","
","
","""event"",""trial"",""time""
""fullscreenenter"",""1"",""2514""
","
","","","843.3000011444092","","","10","14074","5906","e","elianto","#f73b6a7A","-1"," ","0","-10","[1694.400001525879]","1","2","","","14074","36","2","4","lose","no-go","0"
"pit-trial","155","1093284","0.0-41.0","battery-v0.2","","""event"",""trial"",""time""
""fullscreenenter"",""1"",""2514""
","
","
","""event"",""trial"",""time""
""fullscreenenter"",""1"",""2514""
","
","","","-1","","","10","14074","5906","j","elianto","#f73b6a7A","-1","-1","1","-10","[]","0","2","","","14074","37","0","4","lose","no-go","1"
"pit-trial","156","1098141","0.0-42.0","battery-v0.2","","""event"",""trial"",""time""
""fullscreenenter"",""1"",""2514""
","
","
","""event"",""trial"",""time""
""fullscreenenter"",""1"",""2514""
","
","","","-1","","","10","14074","5906","d","elianto","#3366ff99"," ","-1","0","+10","[]","0","2","","","14074","38","1","1","win","go","1"
"pit-trial","157","1102996","0.0-43.0","battery-v0.2","","""event"",""trial"",""time""
""fullscreenenter"",""1"",""2514""
","
","
","""event"",""trial"",""time""
""fullscreenenter"",""1"",""2514""
","
","","","-1","","","10","14074","5906","w","elianto","#f73b6a7A"," ","-1","0","-10","[]","0","2","","","14074","39","3","3","lose","go","0"
"pit-trial","158","1107854","0.0-44.0","battery-v0.2","","""event"",""trial"",""time""
""fullscreenenter"",""1"",""2514""
","
","
","""event"",""trial"",""time""
""fullscreenenter"",""1"",""2514""
","
","","","-1","","","10","14074","5906","e","elianto","#f73b6a7A","-1","-1","1","0","[]","0","2","","","14074","40","2","4","lose","no-go","0"
"pit-trial","159","1111871","0.0-45.0","battery-v0.2","","""event"",""trial"",""time""
""fullscreenenter"",""1"",""2514""
","
","
","""event"",""trial"",""time""
""fullscreenenter"",""1"",""2514""
","
","","","1159.099998474121","","","10","14074","5906","w","elianto","#f73b6a7A"," "," ","1","0","[2011]","1","2","","","14074","41","3","3","lose","go","0"
"pit-trial","160","1116727","0.0-46.0","battery-v0.2","","""event"",""trial"",""time""
""fullscreenenter"",""1"",""2514""
","
","
","""event"",""trial"",""time""
""fullscreenenter"",""1"",""2514""
","
","","","-1","","","10","14074","5906","d","elianto","#3366ff99"," ","-1","0","0","[]","0","2","","","14074","42","1","1","win","go","0"
"pit-trial","161","1121582","0.0-47.0","battery-v0.2","","""event"",""trial"",""time""
""fullscreenenter"",""1"",""2514""
","
","
","""event"",""trial"",""time""
""fullscreenenter"",""1"",""2514""
","
","","","-1","","","10","14074","5906","e","elianto","#f73b6a7A","-1","-1","1","0","[]","0","2","","","14074","43","2","4","lose","no-go","0"
"pit-trial","162","1126438","0.0-48.0","battery-v0.2","","""event"",""trial"",""time""
""fullscreenenter"",""1"",""2514""
","
","
","""event"",""trial"",""time""
""fullscreenenter"",""1"",""2514""
","
","","","-1","","","10","14074","5906","j","elianto","#f73b6a7A","-1","-1","1","0","[]","0","2","","","14074","44","0","4","lose","no-go","0"
"pit-trial","163","1131296","0.0-49.0","battery-v0.2","","""event"",""trial"",""time""
""fullscreenenter"",""1"",""2514""
","
","
","""event"",""trial"",""time""
""fullscreenenter"",""1"",""2514""
","
","","","-1","","","10","14074","5906","j","elianto","#f73b6a7A","-1","-1","1","0","[]","0","2","","","14074","45","0","4","lose","no-go","0"
"pit-trial","164","1135167","0.0-50.0","battery-v0.2","","""event"",""trial"",""time""
""fullscreenenter"",""1"",""2514""
","
","
","""event"",""trial"",""time""
""fullscreenenter"",""1"",""2514""
","
","","","1012.8999996185303","","","10","14074","5906","w","elianto","#f73b6a7A"," "," ","1","0","[1864.8999996185303]","1","2","","","14074","46","3","3","lose","go","0"
"pit-trial","165","1139632","0.0-51.0","battery-v0.2","","""event"",""trial"",""time""
""fullscreenenter"",""1"",""2514""
","
","
","""event"",""trial"",""time""
""fullscreenenter"",""1"",""2514""
","
","","","1609.099998474121","","","10","14074","5906","s","elianto","#3366ff99","-1"," ","0","0","[2459.6000003814697]","1","2","","","14074","47","4","2","win","no-go","0"
"pit-trial","166","1144488","0.0-52.0","battery-v0.2","","""event"",""trial"",""time""
""fullscreenenter"",""1"",""2514""
","
","
","""event"",""trial"",""time""
""fullscreenenter"",""1"",""2514""
","
","","","-1","","","10","14074","5906","e","elianto","#f73b6a7A","-1","-1","1","-10","[]","0","2","","","14074","48","2","4","lose","no-go","1"
"pit-trial","167","1149345","0.0-53.0","battery-v0.2","","""event"",""trial"",""time""
""fullscreenenter"",""1"",""2514""
","
","
","""event"",""trial"",""time""
""fullscreenenter"",""1"",""2514""
","
","","","-1","","","10","14074","5906","d","elianto","#3366ff99"," ","-1","0","0","[]","0","2","","","14074","49","1","1","win","go","0"
"pit-trial","168","1154199","0.0-54.0","battery-v0.2","","""event"",""trial"",""time""
""fullscreenenter"",""1"",""2514""
","
","
","""event"",""trial"",""time""
""fullscreenenter"",""1"",""2514""
","
","","","-1","","","10","14074","5906","j","elianto","#f73b6a7A","-1","-1","1","0","[]","0","2","","","14074","50","0","4","lose","no-go","0"
"pit-trial","169","1159056","0.0-55.0","battery-v0.2","","""event"",""trial"",""time""
""fullscreenenter"",""1"",""2514""
","
","
","""event"",""trial"",""time""
""fullscreenenter"",""1"",""2514""
","
","","","-1","","","10","14074","5906","s","elianto","#3366ff99","-1","-1","1","+10","[]","0","2","","","14074","51","4","2","win","no-go","0"
"pit-trial","170","1162815","0.0-56.0","battery-v0.2","","""event"",""trial"",""time""
""fullscreenenter"",""1"",""2514""
","
","
","""event"",""trial"",""time""
""fullscreenenter"",""1"",""2514""
","
","","","904.3999996185303","","","10","14074","5906","w","elianto","#f73b6a7A"," "," ","1","0","[1756.3999996185303]","1","2","","","14074","52","3","3","lose","go","0"
"pit-trial","171","1167670","0.0-57.0","battery-v0.2","","""event"",""trial"",""time""
""fullscreenenter"",""1"",""2514""
","
","
","""event"",""trial"",""time""
""fullscreenenter"",""1"",""2514""
","
","","","-1","","","10","14074","5906","d","elianto","#3366ff99"," ","-1","0","0","[]","0","2","","","14074","53","1","1","win","go","0"
"pit-trial","172","1172536","0.0-58.0","battery-v0.2","","""event"",""trial"",""time""
""fullscreenenter"",""1"",""2514""
","
","
","""event"",""trial"",""time""
""fullscreenenter"",""1"",""2514""
","
","","","-1","","","10","14074","5906","e","elianto","#f73b6a7A","-1","-1","1","0","[]","0","2","","","14074","54","2","4","lose","no-go","0"
"pit-trial","173","1177394","0.0-59.0","battery-v0.2","","""event"",""trial"",""time""
""fullscreenenter"",""1"",""2514""
","
","
","""event"",""trial"",""time""
""fullscreenenter"",""1"",""2514""
","
","","","-1","","","10","14074","5906","s","elianto","#3366ff99","-1","-1","1","+10","[]","0","2","","","14074","55","4","2","win","no-go","0"
"pit-trial","174","1182248","0.0-60.0","battery-v0.2","","""event"",""trial"",""time""
""fullscreenenter"",""1"",""2514""
","
","
","""event"",""trial"",""time""
""fullscreenenter"",""1"",""2514""
","
","","","-1","","","10","14074","5906","j","elianto","#f73b6a7A","-1","-1","1","0","[]","0","2","","","14074","56","0","4","lose","no-go","0"
"pit-trial","175","1186160","0.0-61.0","battery-v0.2","","""event"",""trial"",""time""
""fullscreenenter"",""1"",""2514""
","
","
","""event"",""trial"",""time""
""fullscreenenter"",""1"",""2514""
","
","","","1056","","","10","14074","5906","w","elianto","#f73b6a7A"," "," ","1","-10","[1907.1999988555908]","1","2","","","14074","57","3","3","lose","go","1"
"pit-trial","176","1190195","0.0-62.0","battery-v0.2","","""event"",""trial"",""time""
""fullscreenenter"",""1"",""2514""
","
","
","""event"",""trial"",""time""
""fullscreenenter"",""1"",""2514""
","
","","","1178.3999996185303","","","10","14074","5906","d","elianto","#3366ff99"," "," ","1","+10","[2030.2999992370605]","1","2","","","14074","58","1","1","win","go","0"
"pit-trial","177","1195050","0.0-63.0","battery-v0.2","","""event"",""trial"",""time""
""fullscreenenter"",""1"",""2514""
","
","
","""event"",""trial"",""time""
""fullscreenenter"",""1"",""2514""
","
","","","-1","","","10","14074","5906","j","elianto","#f73b6a7A","-1","-1","1","0","[]","0","2","","","14074","59","0","4","lose","no-go","0"
"pit-trial","178","1199904","0.0-64.0","battery-v0.2","","""event"",""trial"",""time""
""fullscreenenter"",""1"",""2514""
","
","
","""event"",""trial"",""time""
""fullscreenenter"",""1"",""2514""
","
","","","-1","","","10","14074","5906","s","elianto","#3366ff99","-1","-1","1","+10","[]","0","2","","","14074","60","4","2","win","no-go","0"
"pit-trial","179","1204760","0.0-65.0","battery-v0.2","","""event"",""trial"",""time""
""fullscreenenter"",""1"",""2514""
","
","
","""event"",""trial"",""time""
""fullscreenenter"",""1"",""2514""
","
","","","-1","","","10","14074","5906","s","elianto","#3366ff99","-1","-1","1","+10","[]","0","2","","","14074","61","4","2","win","no-go","0"
"pit-trial","180","1208391","0.0-66.0","battery-v0.2","","""event"",""trial"",""time""
""fullscreenenter"",""1"",""2514""
","
","
","""event"",""trial"",""time""
""fullscreenenter"",""1"",""2514""
","
","","","775","","","10","14074","5906","w","elianto","#f73b6a7A"," "," ","1","0","[1625.3999996185303]","1","2","","","14074","62","3","3","lose","go","0"
"pit-trial","181","1213247","0.0-67.0","battery-v0.2","","""event"",""trial"",""time""
""fullscreenenter"",""1"",""2514""
","
","
","""event"",""trial"",""time""
""fullscreenenter"",""1"",""2514""
","
","","","-1","","","10","14074","5906","e","elianto","#f73b6a7A","-1","-1","1","0","[]","0","2","","","14074","63","2","4","lose","no-go","0"
"pit-trial","182","1217237","0.0-68.0","battery-v0.2","","""event"",""trial"",""time""
""fullscreenenter"",""1"",""2514""
","
","
","""event"",""trial"",""time""
""fullscreenenter"",""1"",""2514""
","
","","","1134.3000011444092","","","10","14074","5906","d","elianto","#3366ff99"," "," ","1","+10","[1986.3999996185303]","1","2","","","14074","64","1","1","win","go","0"
"pit-trial","183","1221334","0.0-69.0","battery-v0.2","","""event"",""trial"",""time""
""fullscreenenter"",""1"",""2514""
","
","
","""event"",""trial"",""time""
""fullscreenenter"",""1"",""2514""
","
","","","1242.2000007629395","","","10","14074","5906","d","elianto","#3366ff99"," "," ","1","0","[2092.7000007629395]","1","2","","","14074","65","1","1","win","go","1"
"pit-trial","184","1226194","0.0-70.0","battery-v0.2","","""event"",""trial"",""time""
""fullscreenenter"",""1"",""2514""
","
","
","""event"",""trial"",""time""
""fullscreenenter"",""1"",""2514""
","
","","","-1","","","10","14074","5906","s","elianto","#3366ff99","-1","-1","1","+10","[]","0","2","","","14074","66","4","2","win","no-go","0"
"pit-trial","185","1230742","0.0-71.0","battery-v0.2","","""event"",""trial"",""time""
""fullscreenenter"",""1"",""2514""
","
","
","""event"",""trial"",""time""
""fullscreenenter"",""1"",""2514""
","
","","","1691.900001525879","","","10","14074","5906","w","elianto","#f73b6a7A"," "," ","1","-10","[2541.7999992370605]","1","2","","","14074","67","3","3","lose","go","1"
"pit-trial","186","1235598","0.0-72.0","battery-v0.2","","""event"",""trial"",""time""
""fullscreenenter"",""1"",""2514""
","
","
","""event"",""trial"",""time""
""fullscreenenter"",""1"",""2514""
","
","","","-1","","","10","14074","5906","e","elianto","#f73b6a7A","-1","-1","1","0","[]","0","2","","","14074","68","2","4","lose","no-go","0"
"pit-trial","187","1239529","0.0-73.0","battery-v0.2","","""event"",""trial"",""time""
""fullscreenenter"",""1"",""2514""
","
","
","""event"",""trial"",""time""
""fullscreenenter"",""1"",""2514""
","
","","","1075.7999992370605","","","10","14074","5906","w","elianto","#f73b6a7A"," "," ","1","0","[1925.7000007629395]","1","2","","","14074","69","3","3","lose","go","0"
"pit-trial","188","1244135","0.0-74.0","battery-v0.2","","""event"",""trial"",""time""
""fullscreenenter"",""1"",""2514""
","
","
","""event"",""trial"",""time""
""fullscreenenter"",""1"",""2514""
","
","","","1751.8999996185303","","","10","14074","5906","d","elianto","#3366ff99"," "," ","1","+10","[2602.8999996185303]","1","2","","","14074","70","1","1","win","go","0"
"pit-trial","189","1248903","0.0-75.0","battery-v0.2","","""event"",""trial"",""time""
""fullscreenenter"",""1"",""2514""
","
","
","""event"",""trial"",""time""
""fullscreenenter"",""1"",""2514""
","
","","","1910.5","","","10","14074","5906","p","elianto","#3366ff99"," "," ","1","+10","[2762.5]","1","2","","","14074","71","5","1","win","go","0"
"pit-trial","190","1253758","0.0-76.0","battery-v0.2","","""event"",""trial"",""time""
""fullscreenenter"",""1"",""2514""
","
","
","""event"",""trial"",""time""
""fullscreenenter"",""1"",""2514""
","
","","","-1","","","10","14074","5906","s","elianto","#3366ff99","-1","-1","1","+10","[]","0","2","","","14074","72","4","2","win","no-go","0"
"pit-trial","191","1258335","0.0-77.0","battery-v0.2","","""event"",""trial"",""time""
""fullscreenenter"",""1"",""2514""
","
","
","""event"",""trial"",""time""
""fullscreenenter"",""1"",""2514""
","
","","","1714.3999996185303","","","10","14074","5906","d","elianto","#3366ff99"," "," ","1","+10","[2564.699998855591]","1","2","","","14074","73","1","1","win","go","0"
"pit-trial","192","1262196","0.0-78.0","battery-v0.2","","""event"",""trial"",""time""
""fullscreenenter"",""1"",""2514""
","
","
","""event"",""trial"",""time""
""fullscreenenter"",""1"",""2514""
","
","","","1006.1000003814697","","","10","14074","5906","w","elianto","#f73b6a7A"," "," ","1","-10","[1856.599998474121]","1","2","","","14074","74","3","3","lose","go","1"
"pit-trial","193","1266322","0.0-79.0","battery-v0.2","","""event"",""trial"",""time""
""fullscreenenter"",""1"",""2514""
","
","
","""event"",""trial"",""time""
""fullscreenenter"",""1"",""2514""
","
","","","1271.3999996185303","","","10","14074","5906","p","elianto","#3366ff99"," "," ","1","+10","[2122.1000003814697]","1","2","","","14074","75","5","1","win","go","0"
"pit-trial","194","1270360","0.0-80.0","battery-v0.2","","""event"",""trial"",""time""
""fullscreenenter"",""1"",""2514""
","
","
","""event"",""trial"",""time""
""fullscreenenter"",""1"",""2514""
","
","","","1180.8999996185303","","","10","14074","5906","s","elianto","#3366ff99","-1"," ","0","0","[2033]","1","2","","","14074","76","4","2","win","no-go","0"
"pit-trial","195","1275216","0.0-81.0","battery-v0.2","","""event"",""trial"",""time""
""fullscreenenter"",""1"",""2514""
","
","
","""event"",""trial"",""time""
""fullscreenenter"",""1"",""2514""
","
","","","-1","","","10","14074","5906","s","elianto","#3366ff99","-1","-1","1","+10","[]","0","2","","","14074","77","4","2","win","no-go","0"
"pit-trial","196","1279265","0.0-82.0","battery-v0.2","","""event"",""trial"",""time""
""fullscreenenter"",""1"",""2514""
","
","
","""event"",""trial"",""time""
""fullscreenenter"",""1"",""2514""
","
","","","1194.2999992370605","","","10","14074","5906","w","elianto","#f73b6a7A"," "," ","1","0","[2045]","1","2","","","14074","78","3","3","lose","go","0"
"pit-trial","197","1283975","0.0-83.0","battery-v0.2","","""event"",""trial"",""time""
""fullscreenenter"",""1"",""2514""
","
","
","""event"",""trial"",""time""
""fullscreenenter"",""1"",""2514""
","
","","","1851.1000003814697","","","10","14074","5906","p","elianto","#3366ff99"," "," ","1","+10","[2703.2000007629395]","1","2","","","14074","79","5","1","win","go","0"
"pit-trial","198","1288216","0.0-84.0","battery-v0.2","","""event"",""trial"",""time""
""fullscreenenter"",""1"",""2514""
","
","
","""event"",""trial"",""time""
""fullscreenenter"",""1"",""2514""
","
","","","1385.5","","","10","14074","5906","g","elianto","#f73b6a7A","-1"," ","0","-10","[2235.7000007629395]","1","2","","","14074","80","6","4","lose","no-go","0"
"pit-trial","199","1293072","0.0-85.0","battery-v0.2","","""event"",""trial"",""time""
""fullscreenenter"",""1"",""2514""
","
","
","""event"",""trial"",""time""
""fullscreenenter"",""1"",""2514""
","
","","","-1","","","10","14074","5906","a","elianto","#f73b6a7A"," ","-1","0","-10","[]","0","2","","","14074","81","7","3","lose","go","0"
"pit-trial","200","1297929","0.0-86.0","battery-v0.2","","""event"",""trial"",""time""
""fullscreenenter"",""1"",""2514""
","
","
","""event"",""trial"",""time""
""fullscreenenter"",""1"",""2514""
","
","","","-1","","","10","14074","5906","s","elianto","#3366ff99","-1","-1","1","+10","[]","0","2","","","14074","82","4","2","win","no-go","0"
"pit-trial","201","1301690","0.0-87.0","battery-v0.2","","""event"",""trial"",""time""
""fullscreenenter"",""1"",""2514""
","
","
","""event"",""trial"",""time""
""fullscreenenter"",""1"",""2514""
","
","","","908.4000015258789","","","10","14074","5906","g","elianto","#f73b6a7A","-1"," ","0","-10","[1758.7000007629395]","1","2","","","14074","83","6","4","lose","no-go","0"
"pit-trial","202","1305912","0.0-88.0","battery-v0.2","","""event"",""trial"",""time""
""fullscreenenter"",""1"",""2514""
","
","
","""event"",""trial"",""time""
""fullscreenenter"",""1"",""2514""
","
","","","1362.6999988555908","","","10","14074","5906","p","elianto","#3366ff99"," "," ","1","+10","[2215.7000007629395]","1","2","","","14074","84","5","1","win","go","0"
"pit-trial","203","1310533","0.0-89.0","battery-v0.2","","""event"",""trial"",""time""
""fullscreenenter"",""1"",""2514""
","
","
","""event"",""trial"",""time""
""fullscreenenter"",""1"",""2514""
","
","","","1768.1000003814697","","","10","14074","5906","a","elianto","#f73b6a7A"," "," ","1","0","[2618.099998474121]","1","2","","","14074","85","7","3","lose","go","0"
"pit-trial","204","1315388","0.0-90.0","battery-v0.2","","""event"",""trial"",""time""
""fullscreenenter"",""1"",""2514""
","
","
","""event"",""trial"",""time""
""fullscreenenter"",""1"",""2514""
","
","","","-1","","","10","14074","5906","g","elianto","#f73b6a7A","-1","-1","1","0","[]","0","2","","","14074","86","6","4","lose","no-go","0"
"pit-trial","205","1319618","0.0-91.0","battery-v0.2","","""event"",""trial"",""time""
""fullscreenenter"",""1"",""2514""
","
","
","""event"",""trial"",""time""
""fullscreenenter"",""1"",""2514""
","
","","","1375.6000003814697","","","10","14074","5906","p","elianto","#3366ff99"," "," ","1","+10","[2226.300001144409]","1","2","","","14074","87","5","1","win","go","0"
"pit-trial","206","1324476","0.0-92.0","battery-v0.2","","""event"",""trial"",""time""
""fullscreenenter"",""1"",""2514""
","
","
","""event"",""trial"",""time""
""fullscreenenter"",""1"",""2514""
","
","","","-1","","","10","14074","5906","s","elianto","#3366ff99","-1","-1","1","+10","[]","0","2","","","14074","88","4","2","win","no-go","0"
"pit-trial","207","1329333","0.0-93.0","battery-v0.2","","""event"",""trial"",""time""
""fullscreenenter"",""1"",""2514""
","
","
","""event"",""trial"",""time""
""fullscreenenter"",""1"",""2514""
","
","","","-1","","","10","14074","5906","a","elianto","#f73b6a7A"," ","-1","0","-10","[]","0","2","","","14074","89","7","3","lose","go","0"
"pit-trial","208","1333329","0.0-94.0","battery-v0.2","","""event"",""trial"",""time""
""fullscreenenter"",""1"",""2514""
","
","
","""event"",""trial"",""time""
""fullscreenenter"",""1"",""2514""
","
","","","1139.8999996185303","","","10","14074","5906","p","elianto","#3366ff99"," "," ","1","0","[1992.1000003814697]","1","2","","","14074","90","5","1","win","go","1"
"pit-trial","209","1338187","0.0-95.0","battery-v0.2","","""event"",""trial"",""time""
""fullscreenenter"",""1"",""2514""
","
","
","""event"",""trial"",""time""
""fullscreenenter"",""1"",""2514""
","
","","","-1","","","10","14074","5906","g","elianto","#f73b6a7A","-1","-1","1","0","[]","0","2","","","14074","91","6","4","lose","no-go","0"
"pit-trial","210","1343045","0.0-96.0","battery-v0.2","","""event"",""trial"",""time""
""fullscreenenter"",""1"",""2514""
","
","
","""event"",""trial"",""time""
""fullscreenenter"",""1"",""2514""
","
","","","-1","","","10","14074","5906","s","elianto","#3366ff99","-1","-1","1","+10","[]","0","2","","","14074","92","4","2","win","no-go","0"
"pit-trial","211","1346791","0.0-97.0","battery-v0.2","","""event"",""trial"",""time""
""fullscreenenter"",""1"",""2514""
","
","
","""event"",""trial"",""time""
""fullscreenenter"",""1"",""2514""
","
","","","889.1999988555908","","","10","14074","5906","p","elianto","#3366ff99"," "," ","1","+10","[1740.3999996185303]","1","2","","","14074","93","5","1","win","go","0"
"pit-trial","212","1351072","0.0-98.0","battery-v0.2","","""event"",""trial"",""time""
""fullscreenenter"",""1"",""2514""
","
","
","""event"",""trial"",""time""
""fullscreenenter"",""1"",""2514""
","
","","","1426.2000007629395","","","10","14074","5906","a","elianto","#f73b6a7A"," "," ","1","0","[2277.2999992370605]","1","2","","","14074","94","7","3","lose","go","0"
"pit-trial","213","1355153","0.0-99.0","battery-v0.2","","""event"",""trial"",""time""
""fullscreenenter"",""1"",""2514""
","
","
","""event"",""trial"",""time""
""fullscreenenter"",""1"",""2514""
","
","","","1222.7999992370605","","","10","14074","5906","l","elianto","#3366ff99","-1"," ","0","0","[2076]","1","2","","","14074","95","8","2","win","no-go","0"
"pit-trial","214","1360018","0.0-100.0","battery-v0.2","","""event"",""trial"",""time""
""fullscreenenter"",""1"",""2514""
","
","
","""event"",""trial"",""time""
""fullscreenenter"",""1"",""2514""
","
","","","-1","","","10","14074","5906","g","elianto","#f73b6a7A","-1","-1","1","-10","[]","0","2","","","14074","96","6","4","lose","no-go","1"
"pit-trial","215","1363854","0.0-101.0","battery-v0.2","","""event"",""trial"",""time""
""fullscreenenter"",""1"",""2514""
","
","
","""event"",""trial"",""time""
""fullscreenenter"",""1"",""2514""
","
","","","969.3999996185303","","","10","14074","5906","p","elianto","#3366ff99"," "," ","1","0","[1822]","1","2","","","14074","97","5","1","win","go","1"
"pit-trial","216","1368711","0.0-102.0","battery-v0.2","","""event"",""trial"",""time""
""fullscreenenter"",""1"",""2514""
","
","
","""event"",""trial"",""time""
""fullscreenenter"",""1"",""2514""
","
","","","-1","","","10","14074","5906","l","elianto","#3366ff99","-1","-1","1","0","[]","0","2","","","14074","98","8","2","win","no-go","1"
"pit-trial","217","1372751","0.0-103.0","battery-v0.2","","""event"",""trial"",""time""
""fullscreenenter"",""1"",""2514""
","
","
","""event"",""trial"",""time""
""fullscreenenter"",""1"",""2514""
","
","","","1174.2000007629395","","","10","14074","5906","a","elianto","#f73b6a7A"," "," ","1","0","[2024.5]","1","2","","","14074","99","7","3","lose","go","0"
"pit-trial","218","1377608","0.0-104.0","battery-v0.2","","""event"",""trial"",""time""
""fullscreenenter"",""1"",""2514""
","
","
","""event"",""trial"",""time""
""fullscreenenter"",""1"",""2514""
","
","","","-1","","","10","14074","5906","g","elianto","#f73b6a7A","-1","-1","1","-10","[]","0","2","","","14074","100","6","4","lose","no-go","1"
"pit-trial","219","1381951","0.0-105.0","battery-v0.2","","""event"",""trial"",""time""
""fullscreenenter"",""1"",""2514""
","
","
","""event"",""trial"",""time""
""fullscreenenter"",""1"",""2514""
","
","","","1488.6000003814697","","","10","14074","5906","u","elianto","#3366ff99","-1"," ","0","0","[2338.6000003814697]","1","2","","","14074","101","9","2","win","no-go","0"
"pit-trial","220","1386107","0.0-106.0","battery-v0.2","","""event"",""trial"",""time""
""fullscreenenter"",""1"",""2514""
","
","
","""event"",""trial"",""time""
""fullscreenenter"",""1"",""2514""
","
","","","1300.2000007629395","","","10","14074","5906","p","elianto","#3366ff99"," "," ","1","+10","[2152.3999996185303]","1","2","","","14074","102","5","1","win","go","0"
"pit-trial","221","1390964","0.0-107.0","battery-v0.2","","""event"",""trial"",""time""
""fullscreenenter"",""1"",""2514""
","
","
","""event"",""trial"",""time""
""fullscreenenter"",""1"",""2514""
","
","","","-1","","","10","14074","5906","l","elianto","#3366ff99","-1","-1","1","+10","[]","0","2","","","14074","103","8","2","win","no-go","0"
"pit-trial","222","1394540","0.0-108.0","battery-v0.2","","""event"",""trial"",""time""
""fullscreenenter"",""1"",""2514""
","
","
","""event"",""trial"",""time""
""fullscreenenter"",""1"",""2514""
","
","","","721.8000011444092","","","10","14074","5906","g","elianto","#f73b6a7A","-1"," ","0","0","[1572.5]","1","2","","","14074","104","6","4","lose","no-go","1"
"pit-trial","223","1398688","0.0-109.0","battery-v0.2","","""event"",""trial"",""time""
""fullscreenenter"",""1"",""2514""
","
","
","""event"",""trial"",""time""
""fullscreenenter"",""1"",""2514""
","
","","","1292.7999992370605","","","10","14074","5906","p","elianto","#3366ff99"," "," ","1","0","[2144.2000007629395]","1","2","","","14074","105","5","1","win","go","1"
"pit-trial","224","1403543","0.0-110.0","battery-v0.2","","""event"",""trial"",""time""
""fullscreenenter"",""1"",""2514""
","
","
","""event"",""trial"",""time""
""fullscreenenter"",""1"",""2514""
","
","","","-1","","","10","14074","5906","l","elianto","#3366ff99","-1","-1","1","+10","[]","0","2","","","14074","106","8","2","win","no-go","0"
"pit-trial","225","1407584","0.0-111.0","battery-v0.2","","""event"",""trial"",""time""
""fullscreenenter"",""1"",""2514""
","
","
","""event"",""trial"",""time""
""fullscreenenter"",""1"",""2514""
","
","","","1185.2000007629395","","","10","14074","5906","u","elianto","#3366ff99","-1"," ","0","0","[2036.3000011444092]","1","2","","","14074","107","9","2","win","no-go","0"
"pit-trial","226","1412439","0.0-112.0","battery-v0.2","","""event"",""trial"",""time""
""fullscreenenter"",""1"",""2514""
","
","
","""event"",""trial"",""time""
""fullscreenenter"",""1"",""2514""
","
","","","-1","","","10","14074","5906","g","elianto","#f73b6a7A","-1","-1","1","0","[]","0","2","","","14074","108","6","4","lose","no-go","0"
"pit-trial","227","1416299","0.0-113.0","battery-v0.2","","""event"",""trial"",""time""
""fullscreenenter"",""1"",""2514""
","
","
","""event"",""trial"",""time""
""fullscreenenter"",""1"",""2514""
","
","","","1005.7000007629395","","","10","14074","5906","p","elianto","#3366ff99"," "," ","1","+10","[1856.6999988555908]","1","2","","","14074","109","5","1","win","go","0"
"pit-trial","228","1420160","0.0-114.0","battery-v0.2","","""event"",""trial"",""time""
""fullscreenenter"",""1"",""2514""
","
","
","""event"",""trial"",""time""
""fullscreenenter"",""1"",""2514""
","
","","","1001.4000015258789","","","10","14074","5906","l","elianto","#3366ff99","-1"," ","0","0","[1851.7000007629395]","1","2","","","14074","110","8","2","win","no-go","0"
"pit-trial","229","1425018","0.0-115.0","battery-v0.2","","""event"",""trial"",""time""
""fullscreenenter"",""1"",""2514""
","
","
","""event"",""trial"",""time""
""fullscreenenter"",""1"",""2514""
","
","","","-1","","","10","14074","5906","g","elianto","#f73b6a7A","-1","-1","1","0","[]","0","2","","","14074","111","6","4","lose","no-go","0"
"pit-trial","230","1429882","0.0-116.0","battery-v0.2","","""event"",""trial"",""time""
""fullscreenenter"",""1"",""2514""
","
","
","""event"",""trial"",""time""
""fullscreenenter"",""1"",""2514""
","
","","","-1","","","10","14074","5906","u","elianto","#3366ff99","-1","-1","1","+10","[]","0","2","","","14074","112","9","2","win","no-go","0"
"pit-trial","231","1433873","0.0-117.0","battery-v0.2","","""event"",""trial"",""time""
""fullscreenenter"",""1"",""2514""
","
","
","""event"",""trial"",""time""
""fullscreenenter"",""1"",""2514""
","
","","","1136.8000011444092","","","10","14074","5906","p","elianto","#3366ff99"," "," ","1","0","[1987.8000011444092]","1","2","","","14074","113","5","1","win","go","1"
"pit-trial","232","1438730","0.0-118.0","battery-v0.2","","""event"",""trial"",""time""
""fullscreenenter"",""1"",""2514""
","
","
","""event"",""trial"",""time""
""fullscreenenter"",""1"",""2514""
","
","","","-1","","","10","14074","5906","l","elianto","#3366ff99","-1","-1","1","+10","[]","0","2","","","14074","114","8","2","win","no-go","0"
"pit-trial","233","1443343","0.0-119.0","battery-v0.2","","""event"",""trial"",""time""
""fullscreenenter"",""1"",""2514""
","
","
","""event"",""trial"",""time""
""fullscreenenter"",""1"",""2514""
","
","","","1756.2000007629395","","","10","14074","5906","a","elianto","#f73b6a7A"," "," ","1","0","[2608.800001144409]","1","2","","","14074","115","7","3","lose","go","0"
"pit-trial","234","1448205","0.0-120.0","battery-v0.2","","""event"",""trial"",""time""
""fullscreenenter"",""1"",""2514""
","
","
","""event"",""trial"",""time""
""fullscreenenter"",""1"",""2514""
","
","","","-1","","","10","14074","5906","u","elianto","#3366ff99","-1","-1","1","+10","[]","0","2","","","14074","116","9","2","win","no-go","0"
"pit-trial","235","1453059","0.0-121.0","battery-v0.2","","""event"",""trial"",""time""
""fullscreenenter"",""1"",""2514""
","
","
","""event"",""trial"",""time""
""fullscreenenter"",""1"",""2514""
","
","","","-1","","","10","14074","5906","u","elianto","#3366ff99","-1","-1","1","+10","[]","0","2","","","14074","117","9","2","win","no-go","0"
"pit-trial","236","1457915","0.0-122.0","battery-v0.2","","""event"",""trial"",""time""
""fullscreenenter"",""1"",""2514""
","
","
","""event"",""trial"",""time""
""fullscreenenter"",""1"",""2514""
","
","","","-1","","","10","14074","5906","g","elianto","#f73b6a7A","-1","-1","1","0","[]","0","2","","","14074","118","6","4","lose","no-go","0"
"pit-trial","237","1462772","0.0-123.0","battery-v0.2","","""event"",""trial"",""time""
""fullscreenenter"",""1"",""2514""
","
","
","""event"",""trial"",""time""
""fullscreenenter"",""1"",""2514""
","
","","","-1","","","10","14074","5906","l","elianto","#3366ff99","-1","-1","1","+10","[]","0","2","","","14074","119","8","2","win","no-go","0"
"pit-trial","238","1466865","0.0-124.0","battery-v0.2","","""event"",""trial"",""time""
""fullscreenenter"",""1"",""2514""
","
","
","""event"",""trial"",""time""
""fullscreenenter"",""1"",""2514""
","
","","","1236.6000003814697","","","10","14074","5906","p","elianto","#3366ff99"," "," ","1","+10","[2087.5]","1","2","","","14074","120","5","1","win","go","0"
"pit-trial","239","1471723","0.0-125.0","battery-v0.2","","""event"",""trial"",""time""
""fullscreenenter"",""1"",""2514""
","
","
","""event"",""trial"",""time""
""fullscreenenter"",""1"",""2514""
","
","","","-1","","","10","14074","5906","u","elianto","#3366ff99","-1","-1","1","0","[]","0","2","","","14074","121","9","2","win","no-go","1"
"pit-trial","240","1475464","0.0-126.0","battery-v0.2","","""event"",""trial"",""time""
""fullscreenenter"",""1"",""2514""
","
","
","""event"",""trial"",""time""
""fullscreenenter"",""1"",""2514""
","
","","","885.8999996185303","","","10","14074","5906","p","elianto","#3366ff99"," "," ","1","0","[1737.1000003814697]","1","2","","","14074","122","5","1","win","go","1"
"pit-trial","241","1480320","0.0-127.0","battery-v0.2","","""event"",""trial"",""time""
""fullscreenenter"",""1"",""2514""
","
","
","""event"",""trial"",""time""
""fullscreenenter"",""1"",""2514""
","
","","","-1","","","10","14074","5906","l","elianto","#3366ff99","-1","-1","1","+10","[]","0","2","","","14074","123","8","2","win","no-go","0"
"pit-trial","242","1484717","0.0-128.0","battery-v0.2","","""event"",""trial"",""time""
""fullscreenenter"",""1"",""2514""
","
","
","""event"",""trial"",""time""
""fullscreenenter"",""1"",""2514""
","
","","","1541.7000007629395","","","10","14074","5906","a","elianto","#f73b6a7A"," "," ","1","0","[2391.8999996185303]","1","2","","","14074","124","7","3","lose","go","0"
"pit-trial","243","1489573","0.0-129.0","battery-v0.2","","""event"",""trial"",""time""
""fullscreenenter"",""1"",""2514""
","
","
","""event"",""trial"",""time""
""fullscreenenter"",""1"",""2514""
","
","","","-1","","","10","14074","5906","u","elianto","#3366ff99","-1","-1","1","+10","[]","0","2","","","14074","125","9","2","win","no-go","0"
"pit-trial","244","1494429","0.0-130.0","battery-v0.2","","""event"",""trial"",""time""
""fullscreenenter"",""1"",""2514""
","
","
","""event"",""trial"",""time""
""fullscreenenter"",""1"",""2514""
","
","","","-1","","","10","14074","5906","l","elianto","#3366ff99","-1","-1","1","+10","[]","0","2","","","14074","126","8","2","win","no-go","0"
"pit-trial","245","1499291","0.0-131.0","battery-v0.2","","""event"",""trial"",""time""
""fullscreenenter"",""1"",""2514""
","
","
","""event"",""trial"",""time""
""fullscreenenter"",""1"",""2514""
","
","","","-1","","","10","14074","5906","g","elianto","#f73b6a7A","-1","-1","1","0","[]","0","2","","","14074","127","6","4","lose","no-go","0"
"pit-trial","246","1503122","0.0-132.0","battery-v0.2","","""event"",""trial"",""time""
""fullscreenenter"",""1"",""2514""
","
","
","""event"",""trial"",""time""
""fullscreenenter"",""1"",""2514""
","
","","","976.1999988555908","","","10","14074","5906","a","elianto","#f73b6a7A"," "," ","1","0","[1826.7999992370605]","1","2","","","14074","128","7","3","lose","go","0"
"pit-trial","247","1506958","0.0-133.0","battery-v0.2","","""event"",""trial"",""time""
""fullscreenenter"",""1"",""2514""
","
","
","""event"",""trial"",""time""
""fullscreenenter"",""1"",""2514""
","
","","","981.3999996185303","","","10","14074","5906","a","elianto","#f73b6a7A"," "," ","1","0","[1832.1000003814697]","1","2","","","14074","129","7","3","lose","go","0"
"pit-trial","248","1511815","0.0-134.0","battery-v0.2","","""event"",""trial"",""time""
""fullscreenenter"",""1"",""2514""
","
","
","""event"",""trial"",""time""
""fullscreenenter"",""1"",""2514""
","
","","","-1","","","10","14074","5906","g","elianto","#f73b6a7A","-1","-1","1","0","[]","0","2","","","14074","130","6","4","lose","no-go","0"
"pit-trial","249","1516680","0.0-135.0","battery-v0.2","","""event"",""trial"",""time""
""fullscreenenter"",""1"",""2514""
","
","
","""event"",""trial"",""time""
""fullscreenenter"",""1"",""2514""
","
","","","-1","","","10","14074","5906","u","elianto","#3366ff99","-1","-1","1","0","[]","0","2","","","14074","131","9","2","win","no-go","1"
"pit-trial","250","1521535","0.0-136.0","battery-v0.2","","""event"",""trial"",""time""
""fullscreenenter"",""1"",""2514""
","
","
","""event"",""trial"",""time""
""fullscreenenter"",""1"",""2514""
","
","","","-1","","","10","14074","5906","l","elianto","#3366ff99","-1","-1","1","+10","[]","0","2","","","14074","132","8","2","win","no-go","0"
"pit-trial","251","1525393","0.0-137.0","battery-v0.2","","""event"",""trial"",""time""
""fullscreenenter"",""1"",""2514""
","
","
","""event"",""trial"",""time""
""fullscreenenter"",""1"",""2514""
","
","","","999","","","10","14074","5906","a","elianto","#f73b6a7A"," "," ","1","0","[1851.8999996185303]","1","2","","","14074","133","7","3","lose","go","0"
"pit-trial","252","1530253","0.0-138.0","battery-v0.2","","""event"",""trial"",""time""
""fullscreenenter"",""1"",""2514""
","
","
","""event"",""trial"",""time""
""fullscreenenter"",""1"",""2514""
","
","","","-1","","","10","14074","5906","g","elianto","#f73b6a7A","-1","-1","1","0","[]","0","2","","","14074","134","6","4","lose","no-go","0"
"pit-trial","253","1535109","0.0-139.0","battery-v0.2","","""event"",""trial"",""time""
""fullscreenenter"",""1"",""2514""
","
","
","""event"",""trial"",""time""
""fullscreenenter"",""1"",""2514""
","
","","","-1","","","10","14074","5906","l","elianto","#3366ff99","-1","-1","1","+10","[]","0","2","","","14074","135","8","2","win","no-go","0"
"pit-trial","254","1539089","0.0-140.0","battery-v0.2","","""event"",""trial"",""time""
""fullscreenenter"",""1"",""2514""
","
","
","""event"",""trial"",""time""
""fullscreenenter"",""1"",""2514""
","
","","","1125.5","","","10","14074","5906","u","elianto","#3366ff99","-1"," ","0","0","[1975.7999992370605]","1","2","","","14074","136","9","2","win","no-go","0"
"pit-trial","255","1543683","0.0-141.0","battery-v0.2","","""event"",""trial"",""time""
""fullscreenenter"",""1"",""2514""
","
","
","""event"",""trial"",""time""
""fullscreenenter"",""1"",""2514""
","
","","","1739.3999996185303","","","10","14074","5906","a","elianto","#f73b6a7A"," "," ","1","0","[2590.7999992370605]","1","2","","","14074","137","7","3","lose","go","0"
"pit-trial","256","1548541","0.0-142.0","battery-v0.2","","""event"",""trial"",""time""
""fullscreenenter"",""1"",""2514""
","
","
","""event"",""trial"",""time""
""fullscreenenter"",""1"",""2514""
","
","","","-1","","","10","14074","5906","l","elianto","#3366ff99","-1","-1","1","+10","[]","0","2","","","14074","138","8","2","win","no-go","0"
"pit-trial","257","1553396","0.0-143.0","battery-v0.2","","""event"",""trial"",""time""
""fullscreenenter"",""1"",""2514""
","
","
","""event"",""trial"",""time""
""fullscreenenter"",""1"",""2514""
","
","","","-1","","","10","14074","5906","g","elianto","#f73b6a7A","-1","-1","1","0","[]","0","2","","","14074","139","6","4","lose","no-go","0"
"pit-trial","258","1558251","0.0-144.0","battery-v0.2","","""event"",""trial"",""time""
""fullscreenenter"",""1"",""2514""
","
","
","""event"",""trial"",""time""
""fullscreenenter"",""1"",""2514""
","
","","","-1","","","10","14074","5906","u","elianto","#3366ff99","-1","-1","1","+10","[]","0","2","","","14074","140","9","2","win","no-go","0"
"pit-instructions","259","1575339","0.0-145.0","battery-v0.2","","""event"",""trial"",""time""
""fullscreenenter"",""1"",""2514""
","
","
","""event"",""trial"",""time""
""fullscreenenter"",""1"",""2514""
","
","","[{""page_index"":0,""viewing_time"":6832.799999237061},{""page_index"":1,""viewing_time"":10252.30000114441}]","17085.79999923706","","","","","","","","","","","","","","","","","","","","","","","",""
"pit-trial","260","1579654","0.0-146.0","battery-v0.2","","""event"",""trial"",""time""
""fullscreenenter"",""1"",""2514""
","
","
","""event"",""trial"",""time""
""fullscreenenter"",""1"",""2514""
","
","","","1449.400001525879","","","10","14074","5906","t","elianto","#f73b6a7A"," "," ","1","0","[2302.800001144409]","1","3","","","14074","141","2","3","lose","go","0"
"pit-trial","261","1584522","0.0-147.0","battery-v0.2","","""event"",""trial"",""time""
""fullscreenenter"",""1"",""2514""
","
","
","""event"",""trial"",""time""
""fullscreenenter"",""1"",""2514""
","
","","","-1","","","10","14074","5906","f","elianto","#3366ff99","-1","-1","1","+10","[]","0","3","","","14074","142","1","2","win","no-go","0"
"pit-trial","262","1588510","0.0-148.0","battery-v0.2","","""event"",""trial"",""time""
""fullscreenenter"",""1"",""2514""
","
","
","""event"",""trial"",""time""
""fullscreenenter"",""1"",""2514""
","
","","","1118.1999988555908","","","10","14074","5906","b","elianto","#f73b6a7A","-1"," ","0","-10","[1969.1000003814697]","1","3","","","14074","143","3","4","lose","no-go","0"
"pit-trial","263","1592439","0.0-149.0","battery-v0.2","","""event"",""trial"",""time""
""fullscreenenter"",""1"",""2514""
","
","
","""event"",""trial"",""time""
""fullscreenenter"",""1"",""2514""
","
","","","1059.7000007629395","","","10","14074","5906","n","elianto","#f73b6a7A"," "," ","1","0","[1910.6999988555908]","1","3","","","14074","144","0","3","lose","go","0"
"pit-trial","264","1597301","0.0-150.0","battery-v0.2","","""event"",""trial"",""time""
""fullscreenenter"",""1"",""2514""
","
","
","""event"",""trial"",""time""
""fullscreenenter"",""1"",""2514""
","
","","","-1","","","10","14074","5906","b","elianto","#f73b6a7A","-1","-1","1","-10","[]","0","3","","","14074","145","3","4","lose","no-go","1"
"pit-trial","265","1601582","0.0-151.0","battery-v0.2","","""event"",""trial"",""time""
""fullscreenenter"",""1"",""2514""
","
","
","""event"",""trial"",""time""
""fullscreenenter"",""1"",""2514""
","
","","","1425.3000011444092","","","10","14074","5906","n","elianto","#f73b6a7A"," "," ","1","0","[2275.800001144409]","1","3","","","14074","146","0","3","lose","go","0"
"pit-trial","266","1606439","0.0-152.0","battery-v0.2","","""event"",""trial"",""time""
""fullscreenenter"",""1"",""2514""
","
","
","""event"",""trial"",""time""
""fullscreenenter"",""1"",""2514""
","
","","","-1","","","10","14074","5906","t","elianto","#f73b6a7A"," ","-1","0","-10","[]","0","3","","","14074","147","2","3","lose","go","0"
"pit-trial","267","1611294","0.0-153.0","battery-v0.2","","""event"",""trial"",""time""
""fullscreenenter"",""1"",""2514""
","
","
","""event"",""trial"",""time""
""fullscreenenter"",""1"",""2514""
","
