"trial_type","trial_index","time_elapsed","internal_node_id","task_version","subject_id","interactions","blur_events","focus_events","fullscreenenter_events","fullscreenexit_events","success","view_history","rt","responses","num_errors","age","subject","participantId","rune","rune_set","hex","correct","choice","accuracy","outcome","keys","total_keys","block","practice","value","sub","trial","stimulus","robot","valence","action","sham"
"pavlovia","0","6","0.0-0.0","battery-v0.2","","""event"",""trial"",""time""
""fullscreenenter"",""1"",""6047""
","
","
","""event"",""trial"",""time""
""fullscreenenter"",""1"",""6047""
","
","","","","","","","","","","","","","","","","","","","","","","","","","","",""
"fullscreen","1","6983","0.0-1.0","battery-v0.2","","""event"",""trial"",""time""
""fullscreenenter"",""1"",""6047""
","
","
","""event"",""trial"",""time""
""fullscreenenter"",""1"",""6047""
","
","true","","","","","","","","","","","","","","","","","","","","","","","","","",""
"pit-instructions","2","15194","0.0-2.0-0.0","battery-v0.2","","""event"",""trial"",""time""
""fullscreenenter"",""1"",""6047""
","
","
","""event"",""trial"",""time""
""fullscreenenter"",""1"",""6047""
","
","","[{""page_index"":0,""viewing_time"":8208}]","8209.000000000002","","","","","","","","","","","","","","","","","","","","","","","",""
"pit-comprehension","3","19878","0.0-2.0-1.0-0.0","battery-v0.2","","""event"",""trial"",""time""
""fullscreenenter"",""1"",""6047""
","
","
","""event"",""trial"",""time""
""fullscreenenter"",""1"",""6047""
","
","","","4233","[""shark""]","0","13","16600","6519","","","","","","","","","","","","","","","","","","",""
"pit-instructions","4","21508","0.0-2.0-1.0-1.0","battery-v0.2","","""event"",""trial"",""time""
""fullscreenenter"",""1"",""6047""
","
","
","""event"",""trial"",""time""
""fullscreenenter"",""1"",""6047""
","
","","[{""page_index"":0,""viewing_time"":1621}]","1621","","","","","","","","","","","","","","","","","","","","","","","",""
"pit-comprehension","5","24760","0.0-2.0-2.0-0.0","battery-v0.2","","""event"",""trial"",""time""
""fullscreenenter"",""1"",""6047""
","
","
","""event"",""trial"",""time""
""fullscreenenter"",""1"",""6047""
","
","","","3251","[""tiger""]","0","13","16600","6519","","","","","","","","","","","","","","","","","","",""
"pit-instructions","6","25902","0.0-2.0-2.0-1.0","battery-v0.2","","""event"",""trial"",""time""
""fullscreenenter"",""1"",""6047""
","
","
","""event"",""trial"",""time""
""fullscreenenter"",""1"",""6047""
","
","","[{""page_index"":0,""viewing_time"":1139}]","1139","","","","","","","","","","","","","","","","","","","","","","","",""
"pit-instructions","7","133685","0.0-2.0-3.0","battery-v0.2","","""event"",""trial"",""time""
""fullscreenenter"",""1"",""6047""
","
","
","""event"",""trial"",""time""
""fullscreenenter"",""1"",""6047""
","
","","[{""page_index"":0,""viewing_time"":9616},{""page_index"":1,""viewing_time"":7459},{""page_index"":2,""viewing_time"":9653},{""page_index"":3,""viewing_time"":5882},{""page_index"":4,""viewing_time"":6716},{""page_index"":5,""viewing_time"":6505},{""page_index"":6,""viewing_time"":7904},{""page_index"":7,""viewing_time"":7723},{""page_index"":8,""viewing_time"":6984},{""page_index"":9,""viewing_time"":10815.000000000015},{""page_index"":10,""viewing_time"":7634.999999999985},{""page_index"":11,""viewing_time"":8048},{""page_index"":12,""viewing_time"":7732.999999999985},{""page_index"":13,""viewing_time"":5107.000000000015}]","107780","","","","","","","","","","","","","","","","","","","","","","","",""
"pit-trial","8","136628","0.0-2.0-4.0-0.0","battery-v0.2","","""event"",""trial"",""time""
""fullscreenenter"",""1"",""6047""
","
","
","""event"",""trial"",""time""
""fullscreenenter"",""1"",""6047""
","
","","","89","","","13","16600","6519","&#9784;","elianto","#FFFFF080"," "," ","1","&#10004","[939]","1","0","0","","","","","","","",""
"pit-trial","9","139495","0.0-2.0-4.1-0.1","battery-v0.2","","""event"",""trial"",""time""
""fullscreenenter"",""1"",""6047""
","
","
","""event"",""trial"",""time""
""fullscreenenter"",""1"",""6047""
","
","","","13","","","13","16600","6519","&#9784;","elianto","#FFFFF080"," "," ","1","&#10004","[246,863]","2","0","0","","","","","","","",""
"pit-trial","10","142425","0.0-2.0-4.2-0.2","battery-v0.2","","""event"",""trial"",""time""
""fullscreenenter"",""1"",""6047""
","
","
","""event"",""trial"",""time""
""fullscreenenter"",""1"",""6047""
","
","","","75","","","13","16600","6519","&#9784;","elianto","#FFFFF080"," "," ","1","&#10004","[926]","1","0","0","","","","","","","",""
"pit-trial","11","147278","0.0-2.0-4.3-0.3","battery-v0.2","","""event"",""trial"",""time""
""fullscreenenter"",""1"",""6047""
","
","
","""event"",""trial"",""time""
""fullscreenenter"",""1"",""6047""
","
","","","-1","","","13","16600","6519","&#9784;","elianto","#FFFFF080"," ","-1","0","&#10060","[840]","1","0","0","","","","","","","",""
"pit-trial","12","150214","0.0-2.0-4.4-0.4","battery-v0.2","","""event"",""trial"",""time""
""fullscreenenter"",""1"",""6047""
","
","
","""event"",""trial"",""time""
""fullscreenenter"",""1"",""6047""
","
","","","80.9999999999709","","","13","16600","6519","&#9784;","elianto","#FFFFF080"," "," ","1","&#10004","[932]","1","0","0","","","","","","","",""
"pit-trial","13","155067","0.0-2.0-4.5-0.5","battery-v0.2","","""event"",""trial"",""time""
""fullscreenenter"",""1"",""6047""
","
","
","""event"",""trial"",""time""
""fullscreenenter"",""1"",""6047""
","
","","","-1","","","13","16600","6519","&#9784;","elianto","#FFFFF080"," ","-1","0","&#10060","[]","0","0","0","","","","","","","",""
"pit-trial","14","158648","0.0-2.0-4.6-0.6","battery-v0.2","","""event"",""trial"",""time""
""fullscreenenter"",""1"",""6047""
","
","
","""event"",""trial"",""time""
""fullscreenenter"",""1"",""6047""
","
","","","728","","","13","16600","6519","&#9784;","elianto","#FFFFF080"," "," ","1","&#10004","[1578]","1","0","0","","","","","","","",""
"pit-instructions","15","173601","0.0-2.0-4.6-1.6-0.6","battery-v0.2","","""event"",""trial"",""time""
""fullscreenenter"",""1"",""6047""
","
","
","""event"",""trial"",""time""
""fullscreenenter"",""1"",""6047""
","
","","[{""page_index"":0,""viewing_time"":6357},{""page_index"":1,""viewing_time"":8593.99999999997}]","14952","","","","","","","","","","","","","","","","","","","","","","","",""
"pit-trial","16","177161","0.0-2.0-4.7-0.7","battery-v0.2","","""event"",""trial"",""time""
""fullscreenenter"",""1"",""6047""
","
","
","""event"",""trial"",""time""
""fullscreenenter"",""1"",""6047""
","
","","","707","","","13","16600","6519","&#9784;","elianto","#FFFFF080"," "," ","1","&#10004","[1558]","1","0","0","","","","","","","",""
"pit-trial","17","180642","0.0-2.0-4.8-0.8","battery-v0.2","","""event"",""trial"",""time""
""fullscreenenter"",""1"",""6047""
","
","
","""event"",""trial"",""time""
""fullscreenenter"",""1"",""6047""
","
","","","628","","","13","16600","6519","&#9784;","elianto","#FFFFF080"," "," ","1","&#10004","[1479]","1","0","0","","","","","","","",""
"pit-instructions","18","201858","0.0-2.0-5.0","battery-v0.2","","""event"",""trial"",""time""
""fullscreenenter"",""1"",""6047""
","
","
","""event"",""trial"",""time""
""fullscreenenter"",""1"",""6047""
","
","","[{""page_index"":0,""viewing_time"":5041},{""page_index"":1,""viewing_time"":5765},{""page_index"":2,""viewing_time"":4998},{""page_index"":3,""viewing_time"":5409.000000000029}]","21213.00000000003","","","","","","","","","","","","","","","","","","","","","","","",""
"pit-trial","19","206713","0.0-2.0-6.0-0.0","battery-v0.2","","""event"",""trial"",""time""
""fullscreenenter"",""1"",""6047""
","
","
","""event"",""trial"",""time""
""fullscreenenter"",""1"",""6047""
","
","","","-1","","","13","16600","6519","&#9854;","elianto","#FFFFF080","-1","-1","1","&#10004","[]","0","0","1","","","","","","","",""
"pit-trial","20","211566","0.0-2.0-6.1-0.1","battery-v0.2","","""event"",""trial"",""time""
""fullscreenenter"",""1"",""6047""
","
","
","""event"",""trial"",""time""
""fullscreenenter"",""1"",""6047""
","
","","","-1","","","13","16600","6519","&#9854;","elianto","#FFFFF080","-1","-1","1","&#10004","[]","0","0","1","","","","","","","",""
"pit-trial","21","216420","0.0-2.0-6.2-0.2","battery-v0.2","","""event"",""trial"",""time""
""fullscreenenter"",""1"",""6047""
","
","
","""event"",""trial"",""time""
""fullscreenenter"",""1"",""6047""
","
","","","-1","","","13","16600","6519","&#9854;","elianto","#FFFFF080","-1","-1","1","&#10004","[]","0","0","1","","","","","","","",""
"pit-trial","22","221274","0.0-2.0-6.3-0.3","battery-v0.2","","""event"",""trial"",""time""
""fullscreenenter"",""1"",""6047""
","
","
","""event"",""trial"",""time""
""fullscreenenter"",""1"",""6047""
","
","","","-1","","","13","16600","6519","&#9854;","elianto","#FFFFF080","-1","-1","1","&#10004","[]","0","0","1","","","","","","","",""
"pit-trial","23","226127","0.0-2.0-6.4-0.4","battery-v0.2","","""event"",""trial"",""time""
""fullscreenenter"",""1"",""6047""
","
","
","""event"",""trial"",""time""
""fullscreenenter"",""1"",""6047""
","
","","","-1","","","13","16600","6519","&#9854;","elianto","#FFFFF080","-1","-1","1","&#10004","[]","0","0","1","","","","","","","",""
"pit-instructions","24","367205","0.0-2.0-7.0","battery-v0.2","","""event"",""trial"",""time""
""fullscreenenter"",""1"",""6047""
","
","
","""event"",""trial"",""time""
""fullscreenenter"",""1"",""6047""
","
","","[{""page_index"":0,""viewing_time"":6084.000000000029},{""page_index"":1,""viewing_time"":9679},{""page_index"":2,""viewing_time"":12608.99999999997},{""page_index"":3,""viewing_time"":5986.000000000029},{""page_index"":4,""viewing_time"":5610.999999999971},{""page_index"":5,""viewing_time"":5919},{""page_index"":6,""viewing_time"":6798},{""page_index"":7,""viewing_time"":9035},{""page_index"":8,""viewing_time"":8093.000000000058},{""page_index"":9,""viewing_time"":11226},{""page_index"":10,""viewing_time"":7164.999999999942},{""page_index"":11,""viewing_time"":4548},{""page_index"":12,""viewing_time"":7652},{""page_index"":13,""viewing_time"":8755},{""page_index"":14,""viewing_time"":8878},{""page_index"":15,""viewing_time"":8737},{""page_index"":16,""viewing_time"":6743},{""page_index"":17,""viewing_time"":7557}]","141075","","","","","","","","","","","","","","","","","","","","","","","",""
"pit-trial","25","371390","0.0-2.0-8.0-0.0","battery-v0.2","","""event"",""trial"",""time""
""fullscreenenter"",""1"",""6047""
","
","
","""event"",""trial"",""time""
""fullscreenenter"",""1"",""6047""
","
","","","1329","","","13","16600","6519","&#9776;","elianto","#3366ff99"," "," ","1","+10","[2180]","1","0","1","","","","","","","",""
"pit-trial","26","374908","0.0-2.0-8.0-1.0","battery-v0.2","","""event"",""trial"",""time""
""fullscreenenter"",""1"",""6047""
","
","
","""event"",""trial"",""time""
""fullscreenenter"",""1"",""6047""
","
","","","665","","","13","16600","6519","&#9776;","elianto","#3366ff99"," "," ","1","+10","[1514.9999999999418]","1","0","1","","","","","","","",""
"pit-trial","27","378234","0.0-2.0-8.0-2.0","battery-v0.2","","""event"",""trial"",""time""
""fullscreenenter"",""1"",""6047""
","
","
","""event"",""trial"",""time""
""fullscreenenter"",""1"",""6047""
","
","","","473","","","13","16600","6519","&#9776;","elianto","#3366ff99"," "," ","1","+10","[1324]","1","0","1","","","","","","","",""
"pit-trial","28","381612","0.0-2.0-8.0-3.0","battery-v0.2","","""event"",""trial"",""time""
""fullscreenenter"",""1"",""6047""
","
","
","""event"",""trial"",""time""
""fullscreenenter"",""1"",""6047""
","
","","","525.0000000000582","","","13","16600","6519","&#9776;","elianto","#3366ff99"," "," ","1","0","[1375]","1","0","1","","","","","","","",""
"pit-trial","29","384908","0.0-2.0-8.0-4.0","battery-v0.2","","""event"",""trial"",""time""
""fullscreenenter"",""1"",""6047""
","
","
","""event"",""trial"",""time""
""fullscreenenter"",""1"",""6047""
","
","","","444.0000000000582","","","13","16600","6519","&#9776;","elianto","#3366ff99"," "," ","1","+10","[1294]","1","0","1","","","","","","","",""
"pit-trial","30","388236","0.0-2.0-8.1-0.1","battery-v0.2","","""event"",""trial"",""time""
""fullscreenenter"",""1"",""6047""
","
","
","""event"",""trial"",""time""
""fullscreenenter"",""1"",""6047""
","
","","","475","","","13","16600","6519","&#9776;","elianto","#3366ff99"," "," ","1","+10","[1325.0000000000582]","1","0","1","","","","","","","",""
"pit-trial","31","391756","0.0-2.0-8.1-1.1","battery-v0.2","","""event"",""trial"",""time""
""fullscreenenter"",""1"",""6047""
","
","
","""event"",""trial"",""time""
""fullscreenenter"",""1"",""6047""
","
","","","667","","","13","16600","6519","&#9776;","elianto","#3366ff99"," "," ","1","+10","[1517]","1","0","1","","","","","","","",""
"pit-trial","32","395251","0.0-2.0-8.1-2.1","battery-v0.2","","""event"",""trial"",""time""
""fullscreenenter"",""1"",""6047""
","
","
","""event"",""trial"",""time""
""fullscreenenter"",""1"",""6047""
","
","","","642","","","13","16600","6519","&#9776;","elianto","#3366ff99"," "," ","1","+10","[1492]","1","0","1","","","","","","","",""
"pit-trial","33","398708","0.0-2.0-8.1-3.1","battery-v0.2","","""event"",""trial"",""time""
""fullscreenenter"",""1"",""6047""
","
","
","""event"",""trial"",""time""
""fullscreenenter"",""1"",""6047""
","
","","","604","","","13","16600","6519","&#9776;","elianto","#3366ff99"," "," ","1","0","[1455]","1","0","1","","","","","","","",""
"pit-trial","34","401777","0.0-2.0-8.1-4.1","battery-v0.2","","""event"",""trial"",""time""
""fullscreenenter"",""1"",""6047""
","
","
","""event"",""trial"",""time""
""fullscreenenter"",""1"",""6047""
","
","","","215","","","13","16600","6519","&#9776;","elianto","#3366ff99"," "," ","1","+10","[1065]","1","0","1","","","","","","","",""
"pit-trial","35","405170","0.0-2.0-8.2-0.2","battery-v0.2","","""event"",""trial"",""time""
""fullscreenenter"",""1"",""6047""
","
","
","""event"",""trial"",""time""
""fullscreenenter"",""1"",""6047""
","
","","","538","","","13","16600","6519","&#9776;","elianto","#3366ff99"," "," ","1","+10","[1389]","1","0","1","","","","","","","",""
"pit-trial","36","408372","0.0-2.0-8.2-1.2","battery-v0.2","","""event"",""trial"",""time""
""fullscreenenter"",""1"",""6047""
","
","
","""event"",""trial"",""time""
""fullscreenenter"",""1"",""6047""
","
","","","348","","","13","16600","6519","&#9776;","elianto","#3366ff99"," "," ","1","+10","[1199]","1","0","1","","","","","","","",""
"pit-trial","37","411504","0.0-2.0-8.2-2.2","battery-v0.2","","""event"",""trial"",""time""
""fullscreenenter"",""1"",""6047""
","
","
","""event"",""trial"",""time""
""fullscreenenter"",""1"",""6047""
","
","","","278.9999999999418","","","13","16600","6519","&#9776;","elianto","#3366ff99"," "," ","1","+10","[1129]","1","0","1","","","","","","","",""
"pit-trial","38","414792","0.0-2.0-8.2-3.2","battery-v0.2","","""event"",""trial"",""time""
""fullscreenenter"",""1"",""6047""
","
","
","""event"",""trial"",""time""
""fullscreenenter"",""1"",""6047""
","
","","","434.0000000000582","","","13","16600","6519","&#9776;","elianto","#3366ff99"," "," ","1","0","[1285.0000000000582]","1","0","1","","","","","","","",""
"pit-trial","39","418577","0.0-2.0-8.2-4.2","battery-v0.2","","""event"",""trial"",""time""
""fullscreenenter"",""1"",""6047""
","
","
","""event"",""trial"",""time""
""fullscreenenter"",""1"",""6047""
","
","","","932","","","13","16600","6519","&#9776;","elianto","#3366ff99"," "," ","1","+10","[642,1782]","2","0","1","","","","","","","",""
"call-function","40","418579","0.0-2.0-9.0","battery-v0.2","","""event"",""trial"",""time""
""fullscreenenter"",""1"",""6047""
","
","
","""event"",""trial"",""time""
""fullscreenenter"",""1"",""6047""
","
","","","","","","","","","","","","","","","","","","","","","","","","","","",""
"pit-instructions","41","461856","0.0-2.0-10.0","battery-v0.2","","""event"",""trial"",""time""
""fullscreenenter"",""1"",""6047""
","
","
","""event"",""trial"",""time""
""fullscreenenter"",""1"",""6047""
","
","","[{""page_index"":0,""viewing_time"":5840},{""page_index"":1,""viewing_time"":7742},{""page_index"":2,""viewing_time"":9881},{""page_index"":3,""viewing_time"":10706},{""page_index"":4,""viewing_time"":9107.000000000058}]","43276.00000000006","","","","","","","","","","","","","","","","","","","","","","","",""
"pit-trial","42","465819","0.0-2.0-11.0-0.0","battery-v0.2","","""event"",""trial"",""time""
""fullscreenenter"",""1"",""6047""
","
","
","""event"",""trial"",""time""
""fullscreenenter"",""1"",""6047""
","
","","","1108","","","13","16600","6519","&#9761;","elianto","#3366ff99","-1"," ","0","0","[1959]","1","0","2","","","","","","","",""
"pit-trial","43","469151","0.0-2.0-11.0-1.0","battery-v0.2","","""event"",""trial"",""time""
""fullscreenenter"",""1"",""6047""
","
","
","""event"",""trial"",""time""
""fullscreenenter"",""1"",""6047""
","
","","","479","","","13","16600","6519","&#9761;","elianto","#3366ff99","-1"," ","0","0","[1329]","1","0","2","","","","","","","",""
"pit-trial","44","472658","0.0-2.0-11.0-2.0","battery-v0.2","","""event"",""trial"",""time""
""fullscreenenter"",""1"",""6047""
","
","
","""event"",""trial"",""time""
""fullscreenenter"",""1"",""6047""
","
","","","652","","","13","16600","6519","&#9761;","elianto","#3366ff99","-1"," ","0","0","[1501.9999999999418]","1","0","2","","","","","","","",""
"pit-trial","45","477512","0.0-2.0-11.0-3.0","battery-v0.2","","""event"",""trial"",""time""
""fullscreenenter"",""1"",""6047""
","
","
","""event"",""trial"",""time""
""fullscreenenter"",""1"",""6047""
","
","","","-1","","","13","16600","6519","&#9761;","elianto","#3366ff99","-1","-1","1","0","[]","0","0","2","","","","","","","",""
"pit-trial","46","482369","0.0-2.0-11.0-4.0","battery-v0.2","","""event"",""trial"",""time""
""fullscreenenter"",""1"",""6047""
","
","
","""event"",""trial"",""time""
""fullscreenenter"",""1"",""6047""
","
","","","-1","","","13","16600","6519","&#9761;","elianto","#3366ff99","-1","-1","1","+10","[]","0","0","2","","","","","","","",""
"pit-trial","47","487223","0.0-2.0-11.1-0.1","battery-v0.2","","""event"",""trial"",""time""
""fullscreenenter"",""1"",""6047""
","
","
","""event"",""trial"",""time""
""fullscreenenter"",""1"",""6047""
","
","","","-1","","","13","16600","6519","&#9761;","elianto","#3366ff99","-1","-1","1","+10","[]","0","0","2","","","","","","","",""
"pit-trial","48","492076","0.0-2.0-11.1-1.1","battery-v0.2","","""event"",""trial"",""time""
""fullscreenenter"",""1"",""6047""
","
","
","""event"",""trial"",""time""
""fullscreenenter"",""1"",""6047""
","
","","","-1","","","13","16600","6519","&#9761;","elianto","#3366ff99","-1","-1","1","+10","[]","0","0","2","","","","","","","",""
"pit-trial","49","496930","0.0-2.0-11.1-2.1","battery-v0.2","","""event"",""trial"",""time""
""fullscreenenter"",""1"",""6047""
","
","
","""event"",""trial"",""time""
""fullscreenenter"",""1"",""6047""
","
","","","-1","","","13","16600","6519","&#9761;","elianto","#3366ff99","-1","-1","1","+10","[]","0","0","2","","","","","","","",""
"pit-trial","50","501785","0.0-2.0-11.1-3.1","battery-v0.2","","""event"",""trial"",""time""
""fullscreenenter"",""1"",""6047""
","
","
","""event"",""trial"",""time""
""fullscreenenter"",""1"",""6047""
","
","","","-1","","","13","16600","6519","&#9761;","elianto","#3366ff99","-1","-1","1","0","[]","0","0","2","","","","","","","",""
"pit-trial","51","506639","0.0-2.0-11.1-4.1","battery-v0.2","","""event"",""trial"",""time""
""fullscreenenter"",""1"",""6047""
","
","
","""event"",""trial"",""time""
""fullscreenenter"",""1"",""6047""
","
","","","-1","","","13","16600","6519","&#9761;","elianto","#3366ff99","-1","-1","1","+10","[]","0","0","2","","","","","","","",""
"pit-trial","52","511493","0.0-2.0-11.2-0.2","battery-v0.2","","""event"",""trial"",""time""
""fullscreenenter"",""1"",""6047""
","
","
","""event"",""trial"",""time""
""fullscreenenter"",""1"",""6047""
","
","","","-1","","","13","16600","6519","&#9761;","elianto","#3366ff99","-1","-1","1","+10","[]","0","0","2","","","","","","","",""
"pit-trial","53","516346","0.0-2.0-11.2-1.2","battery-v0.2","","""event"",""trial"",""time""
""fullscreenenter"",""1"",""6047""
","
","
","""event"",""trial"",""time""
""fullscreenenter"",""1"",""6047""
","
","","","-1","","","13","16600","6519","&#9761;","elianto","#3366ff99","-1","-1","1","+10","[]","0","0","2","","","","","","","",""
"pit-trial","54","521199","0.0-2.0-11.2-2.2","battery-v0.2","","""event"",""trial"",""time""
""fullscreenenter"",""1"",""6047""
","
","
","""event"",""trial"",""time""
""fullscreenenter"",""1"",""6047""
","
","","","-1","","","13","16600","6519","&#9761;","elianto","#3366ff99","-1","-1","1","+10","[]","0","0","2","","","","","","","",""
"pit-trial","55","526052","0.0-2.0-11.2-3.2","battery-v0.2","","""event"",""trial"",""time""
""fullscreenenter"",""1"",""6047""
","
","
","""event"",""trial"",""time""
""fullscreenenter"",""1"",""6047""
","
","","","-1","","","13","16600","6519","&#9761;","elianto","#3366ff99","-1","-1","1","0","[]","0","0","2","","","","","","","",""
"pit-trial","56","530906","0.0-2.0-11.2-4.2","battery-v0.2","","""event"",""trial"",""time""
""fullscreenenter"",""1"",""6047""
","
","
","""event"",""trial"",""time""
""fullscreenenter"",""1"",""6047""
","
","","","-1","","","13","16600","6519","&#9761;","elianto","#3366ff99","-1","-1","1","+10","[]","0","0","2","","","","","","","",""
"pit-trial","57","535759","0.0-2.0-11.3-0.3","battery-v0.2","","""event"",""trial"",""time""
""fullscreenenter"",""1"",""6047""
","
","
","""event"",""trial"",""time""
""fullscreenenter"",""1"",""6047""
","
","","","-1","","","13","16600","6519","&#9761;","elianto","#3366ff99","-1","-1","1","+10","[]","0","0","2","","","","","","","",""
"pit-trial","58","540613","0.0-2.0-11.3-1.3","battery-v0.2","","""event"",""trial"",""time""
""fullscreenenter"",""1"",""6047""
","
","
","""event"",""trial"",""time""
""fullscreenenter"",""1"",""6047""
","
","","","-1","","","13","16600","6519","&#9761;","elianto","#3366ff99","-1","-1","1","+10","[]","0","0","2","","","","","","","",""
"pit-trial","59","545466","0.0-2.0-11.3-2.3","battery-v0.2","","""event"",""trial"",""time""
""fullscreenenter"",""1"",""6047""
","
","
","""event"",""trial"",""time""
""fullscreenenter"",""1"",""6047""
","
","","","-1","","","13","16600","6519","&#9761;","elianto","#3366ff99","-1","-1","1","+10","[]","0","0","2","","","","","","","",""
"pit-trial","60","550319","0.0-2.0-11.3-3.3","battery-v0.2","","""event"",""trial"",""time""
""fullscreenenter"",""1"",""6047""
","
","
","""event"",""trial"",""time""
""fullscreenenter"",""1"",""6047""
","
","","","-1","","","13","16600","6519","&#9761;","elianto","#3366ff99","-1","-1","1","0","[]","0","0","2","","","","","","","",""
"pit-trial","61","555172","0.0-2.0-11.3-4.3","battery-v0.2","","""event"",""trial"",""time""
""fullscreenenter"",""1"",""6047""
","
","
","""event"",""trial"",""time""
""fullscreenenter"",""1"",""6047""
","
","","","-1","","","13","16600","6519","&#9761;","elianto","#3366ff99","-1","-1","1","+10","[]","0","0","2","","","","","","","",""
"call-function","62","555174","0.0-2.0-12.0","battery-v0.2","","""event"",""trial"",""time""
""fullscreenenter"",""1"",""6047""
","
","
","""event"",""trial"",""time""
""fullscreenenter"",""1"",""6047""
","
","","","","","","","","","","","","","","","","","","","","","","","","","","",""
"pit-instructions","63","601919","0.0-2.0-13.0","battery-v0.2","","""event"",""trial"",""time""
""fullscreenenter"",""1"",""6047""
","
","
","""event"",""trial"",""time""
""fullscreenenter"",""1"",""6047""
","
","","[{""page_index"":0,""viewing_time"":17941},{""page_index"":1,""viewing_time"":7465},{""page_index"":2,""viewing_time"":4254},{""page_index"":3,""viewing_time"":12281},{""page_index"":4,""viewing_time"":4804}]","46745","","","","","","","","","","","","","","","","","","","","","","","",""
"pit-trial","64","605218","0.0-2.0-14.0-0.0","battery-v0.2","","""event"",""trial"",""time""
""fullscreenenter"",""1"",""6047""
","
","
","""event"",""trial"",""time""
""fullscreenenter"",""1"",""6047""
","
","","","444.9999999998836","","","13","16600","6519","&#9826;","elianto","#f73b6a7A","-1"," ","0","-10","[1295.9999999998836]","1","0","3","","","","","","","",""
"pit-trial","65","610071","0.0-2.0-14.0-1.0","battery-v0.2","","""event"",""trial"",""time""
""fullscreenenter"",""1"",""6047""
","
","
","""event"",""trial"",""time""
""fullscreenenter"",""1"",""6047""
","
","","","-1","","","13","16600","6519","&#9826;","elianto","#f73b6a7A","-1","-1","1","0","[]","0","0","3","","","","","","","",""
"pit-trial","66","614924","0.0-2.0-14.0-2.0","battery-v0.2","","""event"",""trial"",""time""
""fullscreenenter"",""1"",""6047""
","
","
","""event"",""trial"",""time""
""fullscreenenter"",""1"",""6047""
","
","","","-1","","","13","16600","6519","&#9826;","elianto","#f73b6a7A","-1","-1","1","0","[]","0","0","3","","","","","","","",""
"pit-trial","67","619778","0.0-2.0-14.0-3.0","battery-v0.2","","""event"",""trial"",""time""
""fullscreenenter"",""1"",""6047""
","
","
","""event"",""trial"",""time""
""fullscreenenter"",""1"",""6047""
","
","","","-1","","","13","16600","6519","&#9826;","elianto","#f73b6a7A","-1","-1","1","-10","[]","0","0","3","","","","","","","",""
"pit-trial","68","624631","0.0-2.0-14.0-4.0","battery-v0.2","","""event"",""trial"",""time""
""fullscreenenter"",""1"",""6047""
","
","
","""event"",""trial"",""time""
""fullscreenenter"",""1"",""6047""
","
","","","-1","","","13","16600","6519","&#9826;","elianto","#f73b6a7A","-1","-1","1","0","[]","0","0","3","","","","","","","",""
"pit-trial","69","629486","0.0-2.0-14.1-0.1","battery-v0.2","","""event"",""trial"",""time""
""fullscreenenter"",""1"",""6047""
","
","
","""event"",""trial"",""time""
""fullscreenenter"",""1"",""6047""
","
","","","-1","","","13","16600","6519","&#9826;","elianto","#f73b6a7A","-1","-1","1","0","[]","0","0","3","","","","","","","",""
"pit-trial","70","634339","0.0-2.0-14.1-1.1","battery-v0.2","","""event"",""trial"",""time""
""fullscreenenter"",""1"",""6047""
","
","
","""event"",""trial"",""time""
""fullscreenenter"",""1"",""6047""
","
","","","-1","","","13","16600","6519","&#9826;","elianto","#f73b6a7A","-1","-1","1","0","[]","0","0","3","","","","","","","",""
"pit-trial","71","639194","0.0-2.0-14.1-2.1","battery-v0.2","","""event"",""trial"",""time""
""fullscreenenter"",""1"",""6047""
","
","
","""event"",""trial"",""time""
""fullscreenenter"",""1"",""6047""
","
","","","-1","","","13","16600","6519","&#9826;","elianto","#f73b6a7A","-1","-1","1","0","[]","0","0","3","","","","","","","",""
"pit-trial","72","644047","0.0-2.0-14.1-3.1","battery-v0.2","","""event"",""trial"",""time""
""fullscreenenter"",""1"",""6047""
","
","
","""event"",""trial"",""time""
""fullscreenenter"",""1"",""6047""
","
","","","-1","","","13","16600","6519","&#9826;","elianto","#f73b6a7A","-1","-1","1","-10","[]","0","0","3","","","","","","","",""
"pit-trial","73","648900","0.0-2.0-14.1-4.1","battery-v0.2","","""event"",""trial"",""time""
""fullscreenenter"",""1"",""6047""
","
","
","""event"",""trial"",""time""
""fullscreenenter"",""1"",""6047""
","
","","","-1","","","13","16600","6519","&#9826;","elianto","#f73b6a7A","-1","-1","1","0","[]","0","0","3","","","","","","","",""
"pit-trial","74","653754","0.0-2.0-14.2-0.2","battery-v0.2","","""event"",""trial"",""time""
""fullscreenenter"",""1"",""6047""
","
","
","""event"",""trial"",""time""
""fullscreenenter"",""1"",""6047""
","
","","","-1","","","13","16600","6519","&#9826;","elianto","#f73b6a7A","-1","-1","1","0","[]","0","0","3","","","","","","","",""
"pit-trial","75","658608","0.0-2.0-14.2-1.2","battery-v0.2","","""event"",""trial"",""time""
""fullscreenenter"",""1"",""6047""
","
","
","""event"",""trial"",""time""
""fullscreenenter"",""1"",""6047""
","
","","","-1","","","13","16600","6519","&#9826;","elianto","#f73b6a7A","-1","-1","1","0","[]","0","0","3","","","","","","","",""
"pit-trial","76","663463","0.0-2.0-14.2-2.2","battery-v0.2","","""event"",""trial"",""time""
""fullscreenenter"",""1"",""6047""
","
","
","""event"",""trial"",""time""
""fullscreenenter"",""1"",""6047""
","
","","","-1","","","13","16600","6519","&#9826;","elianto","#f73b6a7A","-1","-1","1","0","[]","0","0","3","","","","","","","",""
"pit-trial","77","668318","0.0-2.0-14.2-3.2","battery-v0.2","","""event"",""trial"",""time""
""fullscreenenter"",""1"",""6047""
","
","
","""event"",""trial"",""time""
""fullscreenenter"",""1"",""6047""
","
","","","-1","","","13","16600","6519","&#9826;","elianto","#f73b6a7A","-1","-1","1","-10","[]","0","0","3","","","","","","","",""
"pit-trial","78","673170","0.0-2.0-14.2-4.2","battery-v0.2","","""event"",""trial"",""time""
""fullscreenenter"",""1"",""6047""
","
","
","""event"",""trial"",""time""
""fullscreenenter"",""1"",""6047""
","
","","","-1","","","13","16600","6519","&#9826;","elianto","#f73b6a7A","-1","-1","1","0","[]","0","0","3","","","","","","","",""
"pit-trial","79","678023","0.0-2.0-14.3-0.3","battery-v0.2","","""event"",""trial"",""time""
""fullscreenenter"",""1"",""6047""
","
","
","""event"",""trial"",""time""
""fullscreenenter"",""1"",""6047""
","
","","","-1","","","13","16600","6519","&#9826;","elianto","#f73b6a7A","-1","-1","1","0","[]","0","0","3","","","","","","","",""
"pit-trial","80","682877","0.0-2.0-14.3-1.3","battery-v0.2","","""event"",""trial"",""time""
""fullscreenenter"",""1"",""6047""
","
","
","""event"",""trial"",""time""
""fullscreenenter"",""1"",""6047""
","
","","","-1","","","13","16600","6519","&#9826;","elianto","#f73b6a7A","-1","-1","1","0","[]","0","0","3","","","","","","","",""
"pit-trial","81","687731","0.0-2.0-14.3-2.3","battery-v0.2","","""event"",""trial"",""time""
""fullscreenenter"",""1"",""6047""
","
","
","""event"",""trial"",""time""
""fullscreenenter"",""1"",""6047""
","
","","","-1","","","13","16600","6519","&#9826;","elianto","#f73b6a7A","-1","-1","1","0","[]","0","0","3","","","","","","","",""
"pit-trial","82","692584","0.0-2.0-14.3-3.3","battery-v0.2","","""event"",""trial"",""time""
""fullscreenenter"",""1"",""6047""
","
","
","""event"",""trial"",""time""
""fullscreenenter"",""1"",""6047""
","
","","","-1","","","13","16600","6519","&#9826;","elianto","#f73b6a7A","-1","-1","1","-10","[]","0","0","3","","","","","","","",""
"pit-trial","83","697439","0.0-2.0-14.3-4.3","battery-v0.2","","""event"",""trial"",""time""
""fullscreenenter"",""1"",""6047""
","
","
","""event"",""trial"",""time""
""fullscreenenter"",""1"",""6047""
","
","","","-1","","","13","16600","6519","&#9826;","elianto","#f73b6a7A","-1","-1","1","0","[]","0","0","3","","","","","","","",""
"call-function","84","697441","0.0-2.0-15.0","battery-v0.2","","""event"",""trial"",""time""
""fullscreenenter"",""1"",""6047""
","
","
","""event"",""trial"",""time""
""fullscreenenter"",""1"",""6047""
","
","","","","","","","","","","","","","","","","","","","","","","","","","","",""
"pit-instructions","85","726970","0.0-2.0-16.0","battery-v0.2","","""event"",""trial"",""time""
""fullscreenenter"",""1"",""6047""
","
","
","""event"",""trial"",""time""
""fullscreenenter"",""1"",""6047""
","
","","[{""page_index"":0,""viewing_time"":9888},{""page_index"":1,""viewing_time"":9661},{""page_index"":2,""viewing_time"":4415},{""page_index"":3,""viewing_time"":5565}]","29529","","","","","","","","","","","","","","","","","","","","","","","",""
"pit-trial","86","730648","0.0-2.0-17.0-0.0","battery-v0.2","","""event"",""trial"",""time""
""fullscreenenter"",""1"",""6047""
","
","
","""event"",""trial"",""time""
""fullscreenenter"",""1"",""6047""
","
","","","824","","","13","16600","6519","&#9789;","elianto","#f73b6a7A"," "," ","1","0","[1674]","1","0","4","","","","","","","",""
"pit-trial","87","733749","0.0-2.0-17.0-1.0","battery-v0.2","","""event"",""trial"",""time""
""fullscreenenter"",""1"",""6047""
","
","
","""event"",""trial"",""time""
""fullscreenenter"",""1"",""6047""
","
","","","248.00000000011642","","","13","16600","6519","&#9789;","elianto","#f73b6a7A"," "," ","1","0","[1098.0000000001164]","1","0","4","","","","","","","",""
"pit-trial","88","736900","0.0-2.0-17.0-2.0","battery-v0.2","","""event"",""trial"",""time""
""fullscreenenter"",""1"",""6047""
","
","
","""event"",""trial"",""time""
""fullscreenenter"",""1"",""6047""
","
","","","298","","","13","16600","6519","&#9789;","elianto","#f73b6a7A"," "," ","1","0","[1148]","1","0","4","","","","","","","",""
"pit-trial","89","739897","0.0-2.0-17.0-3.0","battery-v0.2","","""event"",""trial"",""time""
""fullscreenenter"",""1"",""6047""
","
","
","""event"",""trial"",""time""
""fullscreenenter"",""1"",""6047""
","
","","","141.99999999988358","","","13","16600","6519","&#9789;","elianto","#f73b6a7A"," "," ","1","-10","[992.9999999998836]","1","0","4","","","","","","","",""
"pit-trial","90","742990","0.0-2.0-17.0-4.0","battery-v0.2","","""event"",""trial"",""time""
""fullscreenenter"",""1"",""6047""
","
","
","""event"",""trial"",""time""
""fullscreenenter"",""1"",""6047""
","
","","","237","","","13","16600","6519","&#9789;","elianto","#f73b6a7A"," "," ","1","0","[1089]","1","0","4","","","","","","","",""
"pit-trial","91","745914","0.0-2.0-17.1-0.1","battery-v0.2","","""event"",""trial"",""time""
""fullscreenenter"",""1"",""6047""
","
","
","""event"",""trial"",""time""
""fullscreenenter"",""1"",""6047""
","
","","","69","","","13","16600","6519","&#9789;","elianto","#f73b6a7A"," "," ","1","0","[920]","1","0","4","","","","","","","",""
"pit-trial","92","749017","0.0-2.0-17.1-1.1","battery-v0.2","","""event"",""trial"",""time""
""fullscreenenter"",""1"",""6047""
","
","
","""event"",""trial"",""time""
""fullscreenenter"",""1"",""6047""
","
","","","248.99999999988358","","","13","16600","6519","&#9789;","elianto","#f73b6a7A"," "," ","1","0","[1101]","1","0","4","","","","","","","",""
"pit-trial","93","751945","0.0-2.0-17.1-2.1","battery-v0.2","","""event"",""trial"",""time""
""fullscreenenter"",""1"",""6047""
","
","
","""event"",""trial"",""time""
""fullscreenenter"",""1"",""6047""
","
","","","73","","","13","16600","6519","&#9789;","elianto","#f73b6a7A"," "," ","1","0","[924]","1","0","4","","","","","","","",""
"pit-trial","94","754994","0.0-2.0-17.1-3.1","battery-v0.2","","""event"",""trial"",""time""
""fullscreenenter"",""1"",""6047""
","
","
","""event"",""trial"",""time""
""fullscreenenter"",""1"",""6047""
","
","","","196.00000000011642","","","13","16600","6519","&#9789;","elianto","#f73b6a7A"," "," ","1","-10","[1047.0000000001164]","1","0","4","","","","","","","",""
"pit-trial","95","758017","0.0-2.0-17.1-4.1","battery-v0.2","","""event"",""trial"",""time""
""fullscreenenter"",""1"",""6047""
","
","
","""event"",""trial"",""time""
""fullscreenenter"",""1"",""6047""
","
","","","169","","","13","16600","6519","&#9789;","elianto","#f73b6a7A"," "," ","1","0","[1020]","1","0","4","","","","","","","",""
"pit-trial","96","760986","0.0-2.0-17.2-0.2","battery-v0.2","","""event"",""trial"",""time""
""fullscreenenter"",""1"",""6047""
","
","
","""event"",""trial"",""time""
""fullscreenenter"",""1"",""6047""
","
","","","115","","","13","16600","6519","&#9789;","elianto","#f73b6a7A"," "," ","1","0","[965]","1","0","4","","","","","","","",""
"pit-trial","97","763985","0.0-2.0-17.2-1.2","battery-v0.2","","""event"",""trial"",""time""
""fullscreenenter"",""1"",""6047""
","
","
","""event"",""trial"",""time""
""fullscreenenter"",""1"",""6047""
","
","","","145","","","13","16600","6519","&#9789;","elianto","#f73b6a7A"," "," ","1","0","[996]","1","0","4","","","","","","","",""
"pit-trial","98","767319","0.0-2.0-17.2-2.2","battery-v0.2","","""event"",""trial"",""time""
""fullscreenenter"",""1"",""6047""
","
","
","""event"",""trial"",""time""
""fullscreenenter"",""1"",""6047""
","
","","","482","","","13","16600","6519","&#9789;","elianto","#f73b6a7A"," "," ","1","0","[796,1332]","2","0","4","","","","","","","",""
"pit-trial","99","770372","0.0-2.0-17.2-3.2","battery-v0.2","","""event"",""trial"",""time""
""fullscreenenter"",""1"",""6047""
","
","
","""event"",""trial"",""time""
""fullscreenenter"",""1"",""6047""
","
","","","200.99999999988358","","","13","16600","6519","&#9789;","elianto","#f73b6a7A"," "," ","1","-10","[1051.9999999998836]","1","0","4","","","","","","","",""
"pit-trial","100","773496","0.0-2.0-17.2-4.2","battery-v0.2","","""event"",""trial"",""time""
""fullscreenenter"",""1"",""6047""
","
","
","""event"",""trial"",""time""
""fullscreenenter"",""1"",""6047""
","
","","","269","","","13","16600","6519","&#9789;","elianto","#f73b6a7A"," "," ","1","0","[1120]","1","0","4","","","","","","","",""
"pit-trial","101","776471","0.0-2.0-17.3-0.3","battery-v0.2","","""event"",""trial"",""time""
""fullscreenenter"",""1"",""6047""
","
","
","""event"",""trial"",""time""
""fullscreenenter"",""1"",""6047""
","
","","","120","","","13","16600","6519","&#9789;","elianto","#f73b6a7A"," "," ","1","0","[971]","1","0","4","","","","","","","",""
"pit-trial","102","779522","0.0-2.0-17.3-1.3","battery-v0.2","","""event"",""trial"",""time""
""fullscreenenter"",""1"",""6047""
","
","
","""event"",""trial"",""time""
""fullscreenenter"",""1"",""6047""
","
","","","197","","","13","16600","6519","&#9789;","elianto","#f73b6a7A"," "," ","1","0","[1048]","1","0","4","","","","","","","",""
"pit-trial","103","782918","0.0-2.0-17.3-2.3","battery-v0.2","","""event"",""trial"",""time""
""fullscreenenter"",""1"",""6047""
","
","
","""event"",""trial"",""time""
""fullscreenenter"",""1"",""6047""
","
","","","542.0000000001164","","","13","16600","6519","&#9789;","elianto","#f73b6a7A"," "," ","1","0","[1393.0000000001164]","1","0","4","","","","","","","",""
"pit-trial","104","785919","0.0-2.0-17.3-3.3","battery-v0.2","","""event"",""trial"",""time""
""fullscreenenter"",""1"",""6047""
","
","
","""event"",""trial"",""time""
""fullscreenenter"",""1"",""6047""
","
","","","145.99999999988358","","","13","16600","6519","&#9789;","elianto","#f73b6a7A"," "," ","1","-10","[999]","1","0","4","","","","","","","",""
"pit-trial","105","789031","0.0-2.0-17.3-4.3","battery-v0.2","","""event"",""trial"",""time""
""fullscreenenter"",""1"",""6047""
","
","
","""event"",""trial"",""time""
""fullscreenenter"",""1"",""6047""
","
","","","258","","","13","16600","6519","&#9789;","elianto","#f73b6a7A"," "," ","1","0","[1109]","1","0","4","","","","","","","",""
"call-function","106","789033","0.0-2.0-18.0","battery-v0.2","","""event"",""trial"",""time""
""fullscreenenter"",""1"",""6047""
","
","
","""event"",""trial"",""time""
""fullscreenenter"",""1"",""6047""
","
","","","","","","","","","","","","","","","","","","","","","","","","","","",""
"pit-instructions","107","874433","0.0-2.0-19.0","battery-v0.2","","""event"",""trial"",""time""
""fullscreenenter"",""1"",""6047""
","
","
","""event"",""trial"",""time""
""fullscreenenter"",""1"",""6047""
","
","","[{""page_index"":0,""viewing_time"":11275},{""page_index"":1,""viewing_time"":11222},{""page_index"":2,""viewing_time"":9385},{""page_index"":3,""viewing_time"":4772},{""page_index"":4,""viewing_time"":20369},{""page_index"":5,""viewing_time"":9141},{""page_index"":6,""viewing_time"":6325.000000000116},{""page_index"":7,""viewing_time"":6482.999999999884},{""page_index"":8,""viewing_time"":6427}]","85399","","","","","","","","","","","","","","","","","","","","","","","",""
"pit-comprehension","108","879019","0.0-2.0-20.0-0.0","battery-v0.2","","""event"",""trial"",""time""
""fullscreenenter"",""1"",""6047""
","
","
","""event"",""trial"",""time""
""fullscreenenter"",""1"",""6047""
","
","","","4583.000000000116","[""SPACE""]","0","13","16600","6519","","","","","","","","","","","","","","","","","","",""
"pit-instructions","109","883294","0.0-2.0-20.0-1.0","battery-v0.2","","""event"",""trial"",""time""
""fullscreenenter"",""1"",""6047""
","
","
","""event"",""trial"",""time""
""fullscreenenter"",""1"",""6047""
","
","","[{""page_index"":0,""viewing_time"":4231}]","4231","","","","","","","","","","","","","","","","","","","","","","","",""
"pit-comprehension","110","890155","0.0-2.0-21.0-0.0","battery-v0.2","","""event"",""trial"",""time""
""fullscreenenter"",""1"",""6047""
","
","
","""event"",""trial"",""time""
""fullscreenenter"",""1"",""6047""
","
","","","6856.999999999884","[""10""]","0","13","16600","6519","","","","","","","","","","","","","","","","","","",""
"pit-instructions","111","891457","0.0-2.0-21.0-1.0","battery-v0.2","","""event"",""trial"",""time""
""fullscreenenter"",""1"",""6047""
","
","
","""event"",""trial"",""time""
""fullscreenenter"",""1"",""6047""
","
","","[{""page_index"":0,""viewing_time"":1258}]","1258","","","","","","","","","","","","","","","","","","","","","","","",""
"pit-comprehension","112","898824","0.0-2.0-22.0-0.0","battery-v0.2","","""event"",""trial"",""time""
""fullscreenenter"",""1"",""6047""
","
","
","""event"",""trial"",""time""
""fullscreenenter"",""1"",""6047""
","
","","","7365","[""0""]","0","13","16600","6519","","","","","","","","","","","","","","","","","","",""
"pit-instructions","113","900679","0.0-2.0-22.0-1.0","battery-v0.2","","""event"",""trial"",""time""
""fullscreenenter"",""1"",""6047""
","
","
","""event"",""trial"",""time""
""fullscreenenter"",""1"",""6047""
","
","","[{""page_index"":0,""viewing_time"":1816}]","1816","","","","","","","","","","","","","","","","","","","","","","","",""
"pit-comprehension","114","913544","0.0-2.0-23.0-0.0","battery-v0.2","","""event"",""trial"",""time""
""fullscreenenter"",""1"",""6047""
","
","
","""event"",""trial"",""time""
""fullscreenenter"",""1"",""6047""
","
","","","12861","[""True""]","0","13","16600","6519","","","","","","","","","","","","","","","","","","",""
"pit-instructions","115","915607","0.0-2.0-23.0-1.0","battery-v0.2","","""event"",""trial"",""time""
""fullscreenenter"",""1"",""6047""
","
","
","""event"",""trial"",""time""
""fullscreenenter"",""1"",""6047""
","
","","[{""page_index"":0,""viewing_time"":2021}]","2022","","","","","","","","","","","","","","","","","","","","","","","",""
"pit-comprehension","116","923129","0.0-2.0-24.0-0.0","battery-v0.2","","""event"",""trial"",""time""
""fullscreenenter"",""1"",""6047""
","
","
","""event"",""trial"",""time""
""fullscreenenter"",""1"",""6047""
","
","","","7519","[""True""]","0","13","16600","6519","","","","","","","","","","","","","","","","","","",""
"pit-instructions","117","926015","0.0-2.0-24.0-1.0","battery-v0.2","","""event"",""trial"",""time""
""fullscreenenter"",""1"",""6047""
","
","
","""event"",""trial"",""time""
""fullscreenenter"",""1"",""6047""
","
","","[{""page_index"":0,""viewing_time"":2845}]","2845","","","","","","","","","","","","","","","","","","","","","","","",""
"pit-comprehension","118","934103","0.0-2.0-25.0-0.0","battery-v0.2","","""event"",""trial"",""time""
""fullscreenenter"",""1"",""6047""
","
","
","""event"",""trial"",""time""
""fullscreenenter"",""1"",""6047""
","
","","","8084","[""True""]","0","13","16600","6519","","","","","","","","","","","","","","","","","","",""
"pit-instructions","119","936977","0.0-2.0-25.0-1.0","battery-v0.2","","""event"",""trial"",""time""
""fullscreenenter"",""1"",""6047""
","
","
","""event"",""trial"",""time""
""fullscreenenter"",""1"",""6047""
","
","","[{""page_index"":0,""viewing_time"":2831}]","2831","","","","","","","","","","","","","","","","","","","","","","","",""
"pit-comprehension","120","944879","0.0-2.0-26.0-0.0","battery-v0.2","","""event"",""trial"",""time""
""fullscreenenter"",""1"",""6047""
","
","
","""event"",""trial"",""time""
""fullscreenenter"",""1"",""6047""
","
","","","7900.000000000116","[""False""]","0","13","16600","6519","","","","","","","","","","","","","","","","","","",""
"pit-instructions","121","949504","0.0-2.0-26.0-1.0","battery-v0.2","","""event"",""trial"",""time""
""fullscreenenter"",""1"",""6047""
","
","
","""event"",""trial"",""time""
""fullscreenenter"",""1"",""6047""
","
","","[{""page_index"":0,""viewing_time"":4583}]","4583","","","","","","","","","","","","","","","","","","","","","","","",""
"pit-instructions","122","966362","0.0-3.0","battery-v0.2","","""event"",""trial"",""time""
""fullscreenenter"",""1"",""6047""
","
","
","""event"",""trial"",""time""
""fullscreenenter"",""1"",""6047""
","
","","[{""page_index"":0,""viewing_time"":3596},{""page_index"":1,""viewing_time"":6151},{""page_index"":2,""viewing_time"":7108}]","16855","","","","","","","","","","","","","","","","","","","","","","","",""
"pit-trial","123","970081","0.0-4.0","battery-v0.2","","""event"",""trial"",""time""
""fullscreenenter"",""1"",""6047""
","
","
","""event"",""trial"",""time""
""fullscreenenter"",""1"",""6047""
","
","","","862","","","13","16600","6519","&#9752;","elianto","#f73b6a7A"," "," ","1","0","[1714]","1","1","","","16600","1","3","3","lose","go","0"
"pit-trial","124","973440","0.0-5.0","battery-v0.2","","""event"",""trial"",""time""
""fullscreenenter"",""1"",""6047""
","
","
","""event"",""trial"",""time""
""fullscreenenter"",""1"",""6047""
","
","","","505","","","13","16600","6519","&#9730;","elianto","#3366ff99"," "," ","1","+10","[1356]","1","1","","","16600","2","1","1","win","go","0"
"pit-trial","125","978294","0.0-6.0","battery-v0.2","","""event"",""trial"",""time""
""fullscreenenter"",""1"",""6047""
","
","
","""event"",""trial"",""time""
""fullscreenenter"",""1"",""6047""
","
","","","-1","","","13","16600","6519","&#9728;","elianto","#f73b6a7A","-1","-1","1","-10","[]","0","1","","","16600","3","0","4","lose","no-go","1"
"pit-trial","126","982003","0.0-7.0","battery-v0.2","","""event"",""trial"",""time""
""fullscreenenter"",""1"",""6047""
","
","
","""event"",""trial"",""time""
""fullscreenenter"",""1"",""6047""
","
","","","855","","","13","16600","6519","&#9733;","elianto","#3366ff99","-1"," ","0","+10","[1704.9999999998836]","1","1","","","16600","4","2","2","win","no-go","1"
"pit-trial","127","985920","0.0-8.0","battery-v0.2","","""event"",""trial"",""time""
""fullscreenenter"",""1"",""6047""
","
","
","""event"",""trial"",""time""
""fullscreenenter"",""1"",""6047""
","
","","","1063","","","13","16600","6519","&#9728;","elianto","#f73b6a7A","-1"," ","0","0","[1913]","1","1","","","16600","5","0","4","lose","no-go","1"
"pit-trial","128","989742","0.0-9.0","battery-v0.2","","""event"",""trial"",""time""
""fullscreenenter"",""1"",""6047""
","
","
","""event"",""trial"",""time""
""fullscreenenter"",""1"",""6047""
","
","","","966","","","13","16600","6519","&#9730;","elianto","#3366ff99"," "," ","1","+10","[1817]","1","1","","","16600","6","1","1","win","go","0"
"pit-trial","129","993143","0.0-10.0","battery-v0.2","","""event"",""trial"",""time""
""fullscreenenter"",""1"",""6047""
","
","
","""event"",""trial"",""time""
""fullscreenenter"",""1"",""6047""
","
","","","546.9999999998836","","","13","16600","6519","&#9733;","elianto","#3366ff99","-1"," ","0","0","[1397.9999999998836]","1","1","","","16600","7","2","2","win","no-go","0"
"pit-trial","130","997257","0.0-11.0","battery-v0.2","","""event"",""trial"",""time""
""fullscreenenter"",""1"",""6047""
","
","
","""event"",""trial"",""time""
""fullscreenenter"",""1"",""6047""
","
","","","1260","","","13","16600","6519","&#9752;","elianto","#f73b6a7A"," "," ","1","0","[2111]","1","1","","","16600","8","3","3","lose","go","0"
"pit-trial","131","1000902","0.0-12.0","battery-v0.2","","""event"",""trial"",""time""
""fullscreenenter"",""1"",""6047""
","
","
","""event"",""trial"",""time""
""fullscreenenter"",""1"",""6047""
","
","","","790","","","13","16600","6519","&#9728;","elianto","#f73b6a7A","-1"," ","0","-10","[1641]","1","1","","","16600","9","0","4","lose","no-go","0"
"pit-trial","132","1004180","0.0-13.0","battery-v0.2","","""event"",""trial"",""time""
""fullscreenenter"",""1"",""6047""
","
","
","""event"",""trial"",""time""
""fullscreenenter"",""1"",""6047""
","
","","","422","","","13","16600","6519","&#9733;","elianto","#3366ff99","-1"," ","0","0","[1273]","1","1","","","16600","10","2","2","win","no-go","0"
"pit-trial","133","1007264","0.0-14.0","battery-v0.2","","""event"",""trial"",""time""
""fullscreenenter"",""1"",""6047""
","
","
","""event"",""trial"",""time""
""fullscreenenter"",""1"",""6047""
","
","","","229.00000000011642","","","13","16600","6519","&#9730;","elianto","#3366ff99"," "," ","1","+10","[1080.0000000001164]","1","1","","","16600","11","1","1","win","go","0"
"pit-trial","134","1010541","0.0-15.0","battery-v0.2","","""event"",""trial"",""time""
""fullscreenenter"",""1"",""6047""
","
","
","""event"",""trial"",""time""
""fullscreenenter"",""1"",""6047""
","
","","","421","","","13","16600","6519","&#9752;","elianto","#f73b6a7A"," "," ","1","0","[1272]","1","1","","","16600","12","3","3","lose","go","0"
"pit-trial","135","1014219","0.0-16.0","battery-v0.2","","""event"",""trial"",""time""
""fullscreenenter"",""1"",""6047""
","
","
","""event"",""trial"",""time""
""fullscreenenter"",""1"",""6047""
","
","","","824","","","13","16600","6519","&#9752;","elianto","#f73b6a7A"," "," ","1","0","[1674]","1","1","","","16600","13","3","3","lose","go","0"
"pit-trial","136","1017733","0.0-17.0","battery-v0.2","","""event"",""trial"",""time""
""fullscreenenter"",""1"",""6047""
","
","
","""event"",""trial"",""time""
""fullscreenenter"",""1"",""6047""
","
","","","661.9999999998836","","","13","16600","6519","&#9730;","elianto","#3366ff99"," "," ","1","+10","[1512]","1","1","","","16600","14","1","1","win","go","0"
"pit-trial","137","1021237","0.0-18.0","battery-v0.2","","""event"",""trial"",""time""
""fullscreenenter"",""1"",""6047""
","
","
","""event"",""trial"",""time""
""fullscreenenter"",""1"",""6047""
","
","","","649","","","13","16600","6519","&#9733;","elianto","#3366ff99","-1"," ","0","0","[1499]","1","1","","","16600","15","2","2","win","no-go","0"
"pit-trial","138","1024949","0.0-19.0","battery-v0.2","","""event"",""trial"",""time""
""fullscreenenter"",""1"",""6047""
","
","
","""event"",""trial"",""time""
""fullscreenenter"",""1"",""6047""
","
","","","855.9999999998836","","","13","16600","6519","&#9728;","elianto","#f73b6a7A","-1"," ","0","-10","[1706.9999999998836]","1","1","","","16600","16","0","4","lose","no-go","0"
"pit-trial","139","1029804","0.0-20.0","battery-v0.2","","""event"",""trial"",""time""
""fullscreenenter"",""1"",""6047""
","
","
","""event"",""trial"",""time""
""fullscreenenter"",""1"",""6047""
","
","","","-1","","","13","16600","6519","&#9730;","elianto","#3366ff99"," ","-1","0","+10","[3204]","1","1","","","16600","17","1","1","win","go","1"
"pit-trial","140","1034659","0.0-21.0","battery-v0.2","","""event"",""trial"",""time""
""fullscreenenter"",""1"",""6047""
","
","
","""event"",""trial"",""time""
""fullscreenenter"",""1"",""6047""
","
","","","-1","","","13","16600","6519","&#9728;","elianto","#f73b6a7A","-1","-1","1","0","[]","0","1","","","16600","18","0","4","lose","no-go","0"
"pit-trial","141","1039512","0.0-22.0","battery-v0.2","","""event"",""trial"",""time""
""fullscreenenter"",""1"",""6047""
","
","
","""event"",""trial"",""time""
""fullscreenenter"",""1"",""6047""
","
","","","-1","","","13","16600","6519","&#9733;","elianto","#3366ff99","-1","-1","1","0","[]","0","1","","","16600","19","2","2","win","no-go","1"
"pit-trial","142","1043242","0.0-23.0","battery-v0.2","","""event"",""trial"",""time""
""fullscreenenter"",""1"",""6047""
","
","
","""event"",""trial"",""time""
""fullscreenenter"",""1"",""6047""
","
","","","876","","","13","16600","6519","&#9752;","elianto","#f73b6a7A"," "," ","1","0","[1726.0000000001164]","1","1","","","16600","20","3","3","lose","go","0"
"pit-instructions","143","1068710","0.0-24.0","battery-v0.2","","""event"",""trial"",""time""
""fullscreenenter"",""1"",""6047""
","
","
","""event"",""trial"",""time""
""fullscreenenter"",""1"",""6047""
","
","","[{""page_index"":0,""viewing_time"":17227.999999999884},{""page_index"":1,""viewing_time"":8235}]","25463.999999999884","","","","","","","","","","","","","","","","","","","","","","","",""
"pit-trial","144","1073566","0.0-25.0","battery-v0.2","","""event"",""trial"",""time""
""fullscreenenter"",""1"",""6047""
","
","
","""event"",""trial"",""time""
""fullscreenenter"",""1"",""6047""
","
","","","-1","","","13","16600","6519","a","elianto","#f73b6a7A"," ","-1","0","-10","[3327]","1","2","","","16600","21","2","3","lose","go","0"
"pit-trial","145","1078421","0.0-26.0","battery-v0.2","","""event"",""trial"",""time""
""fullscreenenter"",""1"",""6047""
","
","
","""event"",""trial"",""time""
""fullscreenenter"",""1"",""6047""
","
","","","-1","","","13","16600","6519","g","elianto","#f73b6a7A","-1","-1","1","0","[]","0","2","","","16600","22","3","4","lose","no-go","0"
"pit-trial","146","1082440","0.0-27.0","battery-v0.2","","""event"",""trial"",""time""
""fullscreenenter"",""1"",""6047""
","
","
","""event"",""trial"",""time""
""fullscreenenter"",""1"",""6047""
","
","","","1164","","","13","16600","6519","u","elianto","#f73b6a7A"," "," ","1","-10","[2014.0000000002328]","1","2","","","16600","23","0","3","lose","go","1"
"pit-trial","147","1087295","0.0-28.0","battery-v0.2","","""event"",""trial"",""time""
""fullscreenenter"",""1"",""6047""
","
","
","""event"",""trial"",""time""
""fullscreenenter"",""1"",""6047""
","
","","","-1","","","13","16600","6519","l","elianto","#3366ff99","-1","-1","1","+10","[3174]","1","2","","","16600","24","1","2","win","no-go","0"
"pit-trial","148","1092005","0.0-29.0","battery-v0.2","","""event"",""trial"",""time""
""fullscreenenter"",""1"",""6047""
","
","
","""event"",""trial"",""time""
""fullscreenenter"",""1"",""6047""
","
","","","1856","","","13","16600","6519","g","elianto","#f73b6a7A","-1"," ","0","-10","[2706]","1","2","","","16600","25","3","4","lose","no-go","0"
"pit-trial","149","1096859","0.0-30.0","battery-v0.2","","""event"",""trial"",""time""
""fullscreenenter"",""1"",""6047""
","
","
","""event"",""trial"",""time""
""fullscreenenter"",""1"",""6047""
","
","","","-1","","","13","16600","6519","u","elianto","#f73b6a7A"," ","-1","0","-10","[]","0","2","","","16600","26","0","3","lose","go","0"
"pit-trial","150","1101715","0.0-31.0","battery-v0.2","","""event"",""trial"",""time""
""fullscreenenter"",""1"",""6047""
","
","
","""event"",""trial"",""time""
""fullscreenenter"",""1"",""6047""
","
","","","-1","","","13","16600","6519","a","elianto","#f73b6a7A"," ","-1","0","-10","[]","0","2","","","16600","27","2","3","lose","go","0"
"pit-trial","151","1105604","0.0-32.0","battery-v0.2","","""event"",""trial"",""time""
""fullscreenenter"",""1"",""6047""
","
","
","""event"",""trial"",""time""
""fullscreenenter"",""1"",""6047""
","
","","","1036","","","13","16600","6519","l","elianto","#3366ff99","-1"," ","0","0","[1886]","1","2","","","16600","28","1","2","win","no-go","0"
"pit-trial","152","1109539","0.0-33.0","battery-v0.2","","""event"",""trial"",""time""
""fullscreenenter"",""1"",""6047""
","
","
","""event"",""trial"",""time""
""fullscreenenter"",""1"",""6047""
","
","","","1082","","","13","16600","6519","a","elianto","#f73b6a7A"," "," ","1","0","[1932]","1","2","","","16600","29","2","3","lose","go","0"
"pit-trial","153","1113719","0.0-34.0","battery-v0.2","","""event"",""trial"",""time""
""fullscreenenter"",""1"",""6047""
","
","
","""event"",""trial"",""time""
""fullscreenenter"",""1"",""6047""
","
","","","1325","","","13","16600","6519","g","elianto","#f73b6a7A","-1"," ","0","0","[2176]","1","2","","","16600","30","3","4","lose","no-go","1"
"pit-trial","154","1118573","0.0-35.0","battery-v0.2","","""event"",""trial"",""time""
""fullscreenenter"",""1"",""6047""
","
","
","""event"",""trial"",""time""
""fullscreenenter"",""1"",""6047""
","
","","","-1","","","13","16600","6519","l","elianto","#3366ff99","-1","-1","1","+10","[]","0","2","","","16600","31","1","2","win","no-go","0"
"pit-trial","155","1123428","0.0-36.0","battery-v0.2","","""event"",""trial"",""time""
""fullscreenenter"",""1"",""6047""
","
","
","""event"",""trial"",""time""
""fullscreenenter"",""1"",""6047""
","
","","","-1","","","13","16600","6519","u","elianto","#f73b6a7A"," ","-1","0","0","[]","0","2","","","16600","32","0","3","lose","go","1"
"pit-trial","156","1128283","0.0-37.0","battery-v0.2","","""event"",""trial"",""time""
""fullscreenenter"",""1"",""6047""
","
","
","""event"",""trial"",""time""
""fullscreenenter"",""1"",""6047""
","
","","","-1","","","13","16600","6519","u","elianto","#f73b6a7A"," ","-1","0","-10","[]","0","2","","","16600","33","0","3","lose","go","0"
"pit-trial","157","1133137","0.0-38.0","battery-v0.2","","""event"",""trial"",""time""
""fullscreenenter"",""1"",""6047""
","
","
","""event"",""trial"",""time""
""fullscreenenter"",""1"",""6047""
","
","","","-1","","","13","16600","6519","l","elianto","#3366ff99","-1","-1","1","+10","[]","0","2","","","16600","34","1","2","win","no-go","0"
"pit-trial","158","1137243","0.0-39.0","battery-v0.2","","""event"",""trial"",""time""
""fullscreenenter"",""1"",""6047""
","
","
","""event"",""trial"",""time""
""fullscreenenter"",""1"",""6047""
","
","","","1253","","","13","16600","6519","a","elianto","#f73b6a7A"," "," ","1","-10","[2103]","1","2","","","16600","35","2","3","lose","go","1"
"pit-trial","159","1141537","0.0-40.0","battery-v0.2","","""event"",""trial"",""time""
""fullscreenenter"",""1"",""6047""
","
","
","""event"",""trial"",""time""
""fullscreenenter"",""1"",""6047""
","
","","","1440","","","13","16600","6519","g","elianto","#f73b6a7A","-1"," ","0","-10","[2290.999999999767]","1","2","","","16600","36","3","4","lose","no-go","0"
"pit-trial","160","1145126","0.0-41.0","battery-v0.2","","""event"",""trial"",""time""
""fullscreenenter"",""1"",""6047""
","
","
","""event"",""trial"",""time""
""fullscreenenter"",""1"",""6047""
","
","","","735","","","13","16600","6519","g","elianto","#f73b6a7A","-1"," ","0","-10","[1586]","1","2","","","16600","37","3","4","lose","no-go","0"
"pit-trial","161","1149981","0.0-42.0","battery-v0.2","","""event"",""trial"",""time""
""fullscreenenter"",""1"",""6047""
","
","
","""event"",""trial"",""time""
""fullscreenenter"",""1"",""6047""
","
","","","-1","","","13","16600","6519","l","elianto","#3366ff99","-1","-1","1","+10","[]","0","2","","","16600","38","1","2","win","no-go","0"
"pit-trial","162","1154401","0.0-43.0","battery-v0.2","","""event"",""trial"",""time""
""fullscreenenter"",""1"",""6047""
","
","
","""event"",""trial"",""time""
""fullscreenenter"",""1"",""6047""
","
","","","1565.0000000002328","","","13","16600","6519","a","elianto","#f73b6a7A"," "," ","1","0","[2415.000000000233]","1","2","","","16600","39","2","3","lose","go","0"
"pit-trial","163","1159254","0.0-44.0","battery-v0.2","","""event"",""trial"",""time""
""fullscreenenter"",""1"",""6047""
","
","
","""event"",""trial"",""time""
""fullscreenenter"",""1"",""6047""
","
","","","-1","","","13","16600","6519","u","elianto","#f73b6a7A"," ","-1","0","-10","[]","0","2","","","16600","40","0","3","lose","go","0"
"pit-trial","164","1163792","0.0-45.0","battery-v0.2","","""event"",""trial"",""time""
""fullscreenenter"",""1"",""6047""
","
","
","""event"",""trial"",""time""
""fullscreenenter"",""1"",""6047""
","
","","","1684","","","13","16600","6519","g","elianto","#f73b6a7A","-1"," ","0","-10","[2534]","1","2","","","16600","41","3","4","lose","no-go","0"
"pit-trial","165","1168645","0.0-46.0","battery-v0.2","","""event"",""trial"",""time""
""fullscreenenter"",""1"",""6047""
","
","
","""event"",""trial"",""time""
""fullscreenenter"",""1"",""6047""
","
","","","-1","","","13","16600","6519","l","elianto","#3366ff99","-1","-1","1","0","[]","0","2","","","16600","42","1","2","win","no-go","1"
"pit-trial","166","1173499","0.0-47.0","battery-v0.2","","""event"",""trial"",""time""
""fullscreenenter"",""1"",""6047""
","
","
","""event"",""trial"",""time""
""fullscreenenter"",""1"",""6047""
","
","","","-1","","","13","16600","6519","u","elianto","#f73b6a7A"," ","-1","0","-10","[]","0","2","","","16600","43","0","3","lose","go","0"
"pit-trial","167","1178078","0.0-48.0","battery-v0.2","","""event"",""trial"",""time""
""fullscreenenter"",""1"",""6047""
","
","
","""event"",""trial"",""time""
""fullscreenenter"",""1"",""6047""
","
","","","1724.9999999997672","","","13","16600","6519","a","elianto","#f73b6a7A"," "," ","1","0","[2576]","1","2","","","16600","44","2","3","lose","go","0"
"pit-trial","168","1182933","0.0-49.0","battery-v0.2","","""event"",""trial"",""time""
""fullscreenenter"",""1"",""6047""
","
","
","""event"",""trial"",""time""
""fullscreenenter"",""1"",""6047""
","
","","","-1","","","13","16600","6519","u","elianto","#f73b6a7A"," ","-1","0","-10","[]","0","2","","","16600","45","0","3","lose","go","0"
"pit-trial","169","1187788","0.0-50.0","battery-v0.2","","""event"",""trial"",""time""
""fullscreenenter"",""1"",""6047""
","
","
","""event"",""trial"",""time""
""fullscreenenter"",""1"",""6047""
","
","","","-1","","","13","16600","6519","g","elianto","#f73b6a7A","-1","-1","1","0","[]","0","2","","","16600","46","3","4","lose","no-go","0"
"pit-trial","170","1192644","0.0-51.0","battery-v0.2","","""event"",""trial"",""time""
""fullscreenenter"",""1"",""6047""
","
","
","""event"",""trial"",""time""
""fullscreenenter"",""1"",""6047""
","
","","","-1","","","13","16600","6519","l","elianto","#3366ff99","-1","-1","1","0","[]","0","2","","","16600","47","1","2","win","no-go","1"
"pit-trial","171","1196704","0.0-52.0","battery-v0.2","","""event"",""trial"",""time""
""fullscreenenter"",""1"",""6047""
","
","
","""event"",""trial"",""time""
""fullscreenenter"",""1"",""6047""
","
","","","1205","","","13","16600","6519","a","elianto","#f73b6a7A"," "," ","1","0","[2056]","1","2","","","16600","48","2","3","lose","go","0"
"pit-trial","172","1201557","0.0-53.0","battery-v0.2","","""event"",""trial"",""time""
""fullscreenenter"",""1"",""6047""
","
","
","""event"",""trial"",""time""
""fullscreenenter"",""1"",""6047""
","
","","","-1","","","13","16600","6519","l","elianto","#3366ff99","-1","-1","1","0","[]","0","2","","","16600","49","1","2","win","no-go","1"
"pit-trial","173","1205665","0.0-54.0","battery-v0.2","","""event"",""trial"",""time""
""fullscreenenter"",""1"",""6047""
","
","
","""event"",""trial"",""time""
""fullscreenenter"",""1"",""6047""
","
","","","1252.9999999997672","","","13","16600","6519","u","elianto","#f73b6a7A"," "," ","1","0","[2103]","1","2","","","16600","50","0","3","lose","go","0"
"pit-trial","174","1210520","0.0-55.0","battery-v0.2","","""event"",""trial"",""time""
""fullscreenenter"",""1"",""6047""
","
","
","""event"",""trial"",""time""
""fullscreenenter"",""1"",""6047""
","
","","","-1","","","13","16600","6519","g","elianto","#f73b6a7A","-1","-1","1","0","[]","0","2","","","16600","51","3","4","lose","no-go","0"
"pit-trial","175","1214711","0.0-56.0","battery-v0.2","","""event"",""trial"",""time""
""fullscreenenter"",""1"",""6047""
","
","
","""event"",""trial"",""time""
""fullscreenenter"",""1"",""6047""
","
","","","1336","","","13","16600","6519","a","elianto","#f73b6a7A"," "," ","1","0","[2187]","1","2","","","16600","52","2","3","lose","go","0"
"pit-trial","176","1218980","0.0-57.0","battery-v0.2","","""event"",""trial"",""time""
""fullscreenenter"",""1"",""6047""
","
","
","""event"",""trial"",""time""
""fullscreenenter"",""1"",""6047""
","
","","","1410","","","13","16600","6519","u","elianto","#f73b6a7A"," "," ","1","0","[2262]","1","2","","","16600","53","0","3","lose","go","0"
"pit-trial","177","1223835","0.0-58.0","battery-v0.2","","""event"",""trial"",""time""
""fullscreenenter"",""1"",""6047""
","
","
","""event"",""trial"",""time""
""fullscreenenter"",""1"",""6047""
","
","","","-1","","","13","16600","6519","g","elianto","#f73b6a7A","-1","-1","1","0","[]","0","2","","","16600","54","3","4","lose","no-go","0"
"pit-trial","178","1227880","0.0-59.0","battery-v0.2","","""event"",""trial"",""time""
""fullscreenenter"",""1"",""6047""
","
","
","""event"",""trial"",""time""
""fullscreenenter"",""1"",""6047""
","
","","","1188.9999999997672","","","13","16600","6519","a","elianto","#f73b6a7A"," "," ","1","0","[2040]","1","2","","","16600","55","2","3","lose","go","0"
"pit-trial","179","1231875","0.0-60.0","battery-v0.2","","""event"",""trial"",""time""
""fullscreenenter"",""1"",""6047""
","
","
","""event"",""trial"",""time""
""fullscreenenter"",""1"",""6047""
","
","","","1140","","","13","16600","6519","l","elianto","#3366ff99","-1"," ","0","0","[1990]","1","2","","","16600","56","1","2","win","no-go","0"
"pit-trial","180","1236509","0.0-61.0","battery-v0.2","","""event"",""trial"",""time""
""fullscreenenter"",""1"",""6047""
","
","
","""event"",""trial"",""time""
""fullscreenenter"",""1"",""6047""
","
","","","1779","","","13","16600","6519","u","elianto","#f73b6a7A"," "," ","1","0","[2630]","1","2","","","16600","57","0","3","lose","go","0"
"pit-trial","181","1241364","0.0-62.0","battery-v0.2","","""event"",""trial"",""time""
""fullscreenenter"",""1"",""6047""
","
","
","""event"",""trial"",""time""
""fullscreenenter"",""1"",""6047""
","
","","","-1","","","13","16600","6519","g","elianto","#f73b6a7A","-1","-1","1","0","[]","0","2","","","16600","58","3","4","lose","no-go","0"
"pit-trial","182","1245042","0.0-63.0","battery-v0.2","","""event"",""trial"",""time""
""fullscreenenter"",""1"",""6047""
","
","
","""event"",""trial"",""time""
""fullscreenenter"",""1"",""6047""
","
","","","823","","","13","16600","6519","a","elianto","#f73b6a7A"," "," ","1","0","[1674]","1","2","","","16600","59","2","3","lose","go","0"
"pit-trial","183","1249431","0.0-64.0","battery-v0.2","","""event"",""trial"",""time""
""fullscreenenter"",""1"",""6047""
","
","
","""event"",""trial"",""time""
""fullscreenenter"",""1"",""6047""
","
","","","1534.0000000002328","","","13","16600","6519","p","elianto","#3366ff99"," "," ","1","+10","[2384.000000000233]","1","2","","","16600","60","4","1","win","go","0"
"pit-trial","184","1253077","0.0-65.0","battery-v0.2","","""event"",""trial"",""time""
""fullscreenenter"",""1"",""6047""
","
","
","""event"",""trial"",""time""
""fullscreenenter"",""1"",""6047""
","
","","","793","","","13","16600","6519","p","elianto","#3366ff99"," "," ","1","+10","[1643]","1","2","","","16600","61","4","1","win","go","0"
"pit-trial","185","1257932","0.0-66.0","battery-v0.2","","""event"",""trial"",""time""
""fullscreenenter"",""1"",""6047""
","
","
","""event"",""trial"",""time""
""fullscreenenter"",""1"",""6047""
","
","","","-1","","","13","16600","6519","g","elianto","#f73b6a7A","-1","-1","1","0","[]","0","2","","","16600","62","3","4","lose","no-go","0"
"pit-trial","186","1262156","0.0-67.0","battery-v0.2","","""event"",""trial"",""time""
""fullscreenenter"",""1"",""6047""
","
","
","""event"",""trial"",""time""
""fullscreenenter"",""1"",""6047""
","
","","","1368.9999999997672","","","13","16600","6519","l","elianto","#3366ff99","-1"," ","0","0","[2220]","1","2","","","16600","63","1","2","win","no-go","0"
"pit-trial","187","1266504","0.0-68.0","battery-v0.2","","""event"",""trial"",""time""
""fullscreenenter"",""1"",""6047""
","
","
","""event"",""trial"",""time""
""fullscreenenter"",""1"",""6047""
","
","","","1494","","","13","16600","6519","a","elianto","#f73b6a7A"," "," ","1","0","[2344]","1","2","","","16600","64","2","3","lose","go","0"
"pit-trial","188","1271358","0.0-69.0","battery-v0.2","","""event"",""trial"",""time""
""fullscreenenter"",""1"",""6047""
","
","
","""event"",""trial"",""time""
""fullscreenenter"",""1"",""6047""
","
","","","-1","","","13","16600","6519","l","elianto","#3366ff99","-1","-1","1","+10","[]","0","2","","","16600","65","1","2","win","no-go","0"
"pit-trial","189","1276213","0.0-70.0","battery-v0.2","","""event"",""trial"",""time""
""fullscreenenter"",""1"",""6047""
","
","
","""event"",""trial"",""time""
""fullscreenenter"",""1"",""6047""
","
","","","-1","","","13","16600","6519","g","elianto","#f73b6a7A","-1","-1","1","0","[]","0","2","","","16600","66","3","4","lose","no-go","0"
"pit-trial","190","1280664","0.0-71.0","battery-v0.2","","""event"",""trial"",""time""
""fullscreenenter"",""1"",""6047""
","
","
","""event"",""trial"",""time""
""fullscreenenter"",""1"",""6047""
","
","","","1597","","","13","16600","6519","s","elianto","#3366ff99","-1"," ","0","0","[2447]","1","2","","","16600","67","5","2","win","no-go","0"
"pit-trial","191","1285027","0.0-72.0","battery-v0.2","","""event"",""trial"",""time""
""fullscreenenter"",""1"",""6047""
","
","
","""event"",""trial"",""time""
""fullscreenenter"",""1"",""6047""
","
","","","1509","","","13","16600","6519","p","elianto","#3366ff99"," "," ","1","+10","[2359]","1","2","","","16600","68","4","1","win","go","0"
"pit-trial","192","1289881","0.0-73.0","battery-v0.2","","""event"",""trial"",""time""
""fullscreenenter"",""1"",""6047""
","
","
","""event"",""trial"",""time""
""fullscreenenter"",""1"",""6047""
","
","","","-1","","","13","16600","6519","l","elianto","#3366ff99","-1","-1","1","+10","[]","0","2","","","16600","69","1","2","win","no-go","0"
"pit-trial","193","1294101","0.0-74.0","battery-v0.2","","""event"",""trial"",""time""
""fullscreenenter"",""1"",""6047""
","
","
","""event"",""trial"",""time""
""fullscreenenter"",""1"",""6047""
","
","","","1365","","","13","16600","6519","a","elianto","#f73b6a7A"," "," ","1","0","[2215]","1","2","","","16600","70","2","3","lose","go","0"
"pit-trial","194","1298401","0.0-75.0","battery-v0.2","","""event"",""trial"",""time""
""fullscreenenter"",""1"",""6047""
","
","
","""event"",""trial"",""time""
""fullscreenenter"",""1"",""6047""
","
","","","1445","","","13","16600","6519","p","elianto","#3366ff99"," "," ","1","+10","[2296]","1","2","","","16600","71","4","1","win","go","0"
"pit-trial","195","1303257","0.0-76.0","battery-v0.2","","""event"",""trial"",""time""
""fullscreenenter"",""1"",""6047""
","
","
","""event"",""trial"",""time""
""fullscreenenter"",""1"",""6047""
","
","","","-1","","","13","16600","6519","s","elianto","#3366ff99","-1","-1","1","0","[]","0","2","","","16600","72","5","2","win","no-go","1"
"pit-trial","196","1308112","0.0-77.0","battery-v0.2","","""event"",""trial"",""time""
""fullscreenenter"",""1"",""6047""
","
","
","""event"",""trial"",""time""
""fullscreenenter"",""1"",""6047""
","
","","","-1","","","13","16600","6519","l","elianto","#3366ff99","-1","-1","1","+10","[]","0","2","","","16600","73","1","2","win","no-go","0"
"pit-trial","197","1312967","0.0-78.0","battery-v0.2","","""event"",""trial"",""time""
""fullscreenenter"",""1"",""6047""
","
","
","""event"",""trial"",""time""
""fullscreenenter"",""1"",""6047""
","
","","","-1","","","13","16600","6519","g","elianto","#f73b6a7A","-1","-1","1","0","[]","0","2","","","16600","74","3","4","lose","no-go","0"
"pit-trial","198","1317072","0.0-79.0","battery-v0.2","","""event"",""trial"",""time""
""fullscreenenter"",""1"",""6047""
","
","
","""event"",""trial"",""time""
""fullscreenenter"",""1"",""6047""
","
","","","1251","","","13","16600","6519","p","elianto","#3366ff99"," "," ","1","+10","[2102]","1","2","","","16600","75","4","1","win","go","0"
"pit-trial","199","1321317","0.0-80.0","battery-v0.2","","""event"",""trial"",""time""
""fullscreenenter"",""1"",""6047""
","
","
","""event"",""trial"",""time""
""fullscreenenter"",""1"",""6047""
","
","","","1390","","","13","16600","6519","s","elianto","#3366ff99","-1"," ","0","0","[2241]","1","2","","","16600","76","5","2","win","no-go","0"
"pit-trial","200","1326173","0.0-81.0","battery-v0.2","","""event"",""trial"",""time""
""fullscreenenter"",""1"",""6047""
","
","
","""event"",""trial"",""time""
""fullscreenenter"",""1"",""6047""
","
","","","-1","","","13","16600","6519","g","elianto","#f73b6a7A","-1","-1","1","0","[]","0","2","","","16600","77","3","4","lose","no-go","0"
"pit-trial","201","1331028","0.0-82.0","battery-v0.2","","""event"",""trial"",""time""
""fullscreenenter"",""1"",""6047""
","
","
","""event"",""trial"",""time""
""fullscreenenter"",""1"",""6047""
","
","","","-1","","","13","16600","6519","s","elianto","#3366ff99","-1","-1","1","+10","[]","0","2","","","16600","78","5","2","win","no-go","0"
"pit-trial","202","1335091","0.0-83.0","battery-v0.2","","""event"",""trial"",""time""
""fullscreenenter"",""1"",""6047""
","
","
","""event"",""trial"",""time""
""fullscreenenter"",""1"",""6047""
","
","","","1207.9999999997672","","","13","16600","6519","p","elianto","#3366ff99"," "," ","1","+10","[2058]","1","2","","","16600","79","4","1","win","go","0"
"pit-trial","203","1338637","0.0-84.0","battery-v0.2","","""event"",""trial"",""time""
""fullscreenenter"",""1"",""6047""
","
","
","""event"",""trial"",""time""
""fullscreenenter"",""1"",""6047""
","
","","","693","","","13","16600","6519","p","elianto","#3366ff99"," "," ","1","+10","[1543]","1","2","","","16600","80","4","1","win","go","0"
"pit-trial","204","1343309","0.0-85.0","battery-v0.2","","""event"",""trial"",""time""
""fullscreenenter"",""1"",""6047""
","
","
","""event"",""trial"",""time""
""fullscreenenter"",""1"",""6047""
","
","","","1817","","","13","16600","6519","e","elianto","#f73b6a7A","-1"," ","0","-10","[2666.999999999767]","1","2","","","16600","81","7","4","lose","no-go","0"
"pit-trial","205","1348165","0.0-86.0","battery-v0.2","","""event"",""trial"",""time""
""fullscreenenter"",""1"",""6047""
","
","
","""event"",""trial"",""time""
""fullscreenenter"",""1"",""6047""
","
","","","-1","","","13","16600","6519","g","elianto","#f73b6a7A","-1","-1","1","0","[]","0","2","","","16600","82","3","4","lose","no-go","0"
"pit-trial","206","1353020","0.0-87.0","battery-v0.2","","""event"",""trial"",""time""
""fullscreenenter"",""1"",""6047""
","
","
","""event"",""trial"",""time""
""fullscreenenter"",""1"",""6047""
","
","","","-1","","","13","16600","6519","s","elianto","#3366ff99","-1","-1","1","+10","[]","0","2","","","16600","83","5","2","win","no-go","0"
"pit-trial","207","1357211","0.0-88.0","battery-v0.2","","""event"",""trial"",""time""
""fullscreenenter"",""1"",""6047""
","
","
","""event"",""trial"",""time""
""fullscreenenter"",""1"",""6047""
","
","","","1336","","","13","16600","6519","p","elianto","#3366ff99"," "," ","1","+10","[2187]","1","2","","","16600","84","4","1","win","go","0"
"pit-trial","208","1362065","0.0-89.0","battery-v0.2","","""event"",""trial"",""time""
""fullscreenenter"",""1"",""6047""
","
","
","""event"",""trial"",""time""
""fullscreenenter"",""1"",""6047""
","
","","","-1","","","13","16600","6519","e","elianto","#f73b6a7A","-1","-1","1","0","[]","0","2","","","16600","85","7","4","lose","no-go","0"
"pit-trial","209","1365887","0.0-90.0","battery-v0.2","","""event"",""trial"",""time""
""fullscreenenter"",""1"",""6047""
","
","
","""event"",""trial"",""time""
""fullscreenenter"",""1"",""6047""
","
","","","965","","","13","16600","6519","p","elianto","#3366ff99"," "," ","1","+10","[1817]","1","2","","","16600","86","4","1","win","go","0"
"pit-trial","210","1370532","0.0-91.0","battery-v0.2","","""event"",""trial"",""time""
""fullscreenenter"",""1"",""6047""
","
","
","""event"",""trial"",""time""
""fullscreenenter"",""1"",""6047""
","
","","","1790","","","13","16600","6519","w","elianto","#f73b6a7A"," "," ","1","0","[2639.999999999767]","1","2","","","16600","87","6","3","lose","go","0"
"pit-trial","211","1375387","0.0-92.0","battery-v0.2","","""event"",""trial"",""time""
""fullscreenenter"",""1"",""6047""
","
","
","""event"",""trial"",""time""
""fullscreenenter"",""1"",""6047""
","
","","","-1","","","13","16600","6519","s","elianto","#3366ff99","-1","-1","1","+10","[]","0","2","","","16600","88","5","2","win","no-go","0"
"pit-trial","212","1379768","0.0-93.0","battery-v0.2","","""event"",""trial"",""time""
""fullscreenenter"",""1"",""6047""
","
","
","""event"",""trial"",""time""
""fullscreenenter"",""1"",""6047""
","
","","","1528","","","13","16600","6519","p","elianto","#3366ff99"," "," ","1","+10","[2378]","1","2","","","16600","89","4","1","win","go","0"
"pit-trial","213","1384410","0.0-94.0","battery-v0.2","","""event"",""trial"",""time""
""fullscreenenter"",""1"",""6047""
","
","
","""event"",""trial"",""time""
""fullscreenenter"",""1"",""6047""
","
","","","1786.9999999997672","","","13","16600","6519","w","elianto","#f73b6a7A"," "," ","1","0","[2638]","1","2","","","16600","90","6","3","lose","go","0"
"pit-trial","214","1389264","0.0-95.0","battery-v0.2","","""event"",""trial"",""time""
""fullscreenenter"",""1"",""6047""
","
","
","""event"",""trial"",""time""
""fullscreenenter"",""1"",""6047""
","
","","","-1","","","13","16600","6519","s","elianto","#3366ff99","-1","-1","1","+10","[]","0","2","","","16600","91","5","2","win","no-go","0"
"pit-trial","215","1394117","0.0-96.0","battery-v0.2","","""event"",""trial"",""time""
""fullscreenenter"",""1"",""6047""
","
","
","""event"",""trial"",""time""
""fullscreenenter"",""1"",""6047""
","
","","","-1","","","13","16600","6519","e","elianto","#f73b6a7A","-1","-1","1","0","[]","0","2","","","16600","92","7","4","lose","no-go","0"
"pit-trial","216","1398244","0.0-97.0","battery-v0.2","","""event"",""trial"",""time""
""fullscreenenter"",""1"",""6047""
","
","
","""event"",""trial"",""time""
""fullscreenenter"",""1"",""6047""
","
","","","1271","","","13","16600","6519","w","elianto","#f73b6a7A"," "," ","1","0","[2122]","1","2","","","16600","93","6","3","lose","go","0"
"pit-trial","217","1403099","0.0-98.0","battery-v0.2","","""event"",""trial"",""time""
""fullscreenenter"",""1"",""6047""
","
","
","""event"",""trial"",""time""
""fullscreenenter"",""1"",""6047""
","
","","","-1","","","13","16600","6519","e","elianto","#f73b6a7A","-1","-1","1","0","[]","0","2","","","16600","94","7","4","lose","no-go","0"
"pit-trial","218","1407952","0.0-99.0","battery-v0.2","","""event"",""trial"",""time""
""fullscreenenter"",""1"",""6047""
","
","
","""event"",""trial"",""time""
""fullscreenenter"",""1"",""6047""
","
","","","-1","","","13","16600","6519","s","elianto","#3366ff99","-1","-1","1","+10","[]","0","2","","","16600","95","5","2","win","no-go","0"
"pit-trial","219","1412764","0.0-100.0","battery-v0.2","","""event"",""trial"",""time""
""fullscreenenter"",""1"",""6047""
","
","
","""event"",""trial"",""time""
""fullscreenenter"",""1"",""6047""
","
","","","1958","","","13","16600","6519","d","elianto","#3366ff99"," "," ","1","0","[2809]","1","2","","","16600","96","8","1","win","go","1"
"pit-trial","220","1417618","0.0-101.0","battery-v0.2","","""event"",""trial"",""time""
""fullscreenenter"",""1"",""6047""
","
","
","""event"",""trial"",""time""
""fullscreenenter"",""1"",""6047""
","
","","","-1","","","13","16600","6519","e","elianto","#f73b6a7A","-1","-1","1","0","[]","0","2","","","16600","97","7","4","lose","no-go","0"
"pit-trial","221","1421600","0.0-102.0","battery-v0.2","","""event"",""trial"",""time""
""fullscreenenter"",""1"",""6047""
","
","
","""event"",""trial"",""time""
""fullscreenenter"",""1"",""6047""
","
","","","1128","","","13","16600","6519","d","elianto","#3366ff99"," "," ","1","+10","[1977.9999999997672]","1","2","","","16600","98","8","1","win","go","0"
"pit-trial","222","1426025","0.0-103.0","battery-v0.2","","""event"",""trial"",""time""
""fullscreenenter"",""1"",""6047""
","
","
","""event"",""trial"",""time""
""fullscreenenter"",""1"",""6047""
","
","","","1571","","","13","16600","6519","w","elianto","#f73b6a7A"," "," ","1","0","[2421.999999999767]","1","2","","","16600","99","6","3","lose","go","0"
"pit-trial","223","1430880","0.0-104.0","battery-v0.2","","""event"",""trial"",""time""
""fullscreenenter"",""1"",""6047""
","
","
","""event"",""trial"",""time""
""fullscreenenter"",""1"",""6047""
","
","","","-1","","","13","16600","6519","s","elianto","#3366ff99","-1","-1","1","+10","[]","0","2","","","16600","100","5","2","win","no-go","0"
"pit-trial","224","1435734","0.0-105.0","battery-v0.2","","""event"",""trial"",""time""
""fullscreenenter"",""1"",""6047""
","
","
","""event"",""trial"",""time""
""fullscreenenter"",""1"",""6047""
","
","","","-1","","","13","16600","6519","j","elianto","#3366ff99"," ","-1","0","0","[]","0","2","","","16600","101","9","1","win","go","0"
"pit-trial","225","1440589","0.0-106.0","battery-v0.2","","""event"",""trial"",""time""
""fullscreenenter"",""1"",""6047""
","
","
","""event"",""trial"",""time""
""fullscreenenter"",""1"",""6047""
","
","","","-1","","","13","16600","6519","e","elianto","#f73b6a7A","-1","-1","1","0","[]","0","2","","","16600","102","7","4","lose","no-go","0"
"pit-trial","226","1445080","0.0-107.0","battery-v0.2","","""event"",""trial"",""time""
""fullscreenenter"",""1"",""6047""
","
","
","""event"",""trial"",""time""
""fullscreenenter"",""1"",""6047""
","
","","","1636","","","13","16600","6519","d","elianto","#3366ff99"," "," ","1","+10","[2485.999999999767]","1","2","","","16600","103","8","1","win","go","0"
"pit-trial","227","1449933","0.0-108.0","battery-v0.2","","""event"",""trial"",""time""
""fullscreenenter"",""1"",""6047""
","
","
","""event"",""trial"",""time""
""fullscreenenter"",""1"",""6047""
","
","","","-1","","","13","16600","6519","s","elianto","#3366ff99","-1","-1","1","+10","[]","0","2","","","16600","104","5","2","win","no-go","0"
"pit-trial","228","1454113","0.0-109.0","battery-v0.2","","""event"",""trial"",""time""
""fullscreenenter"",""1"",""6047""
","
","
","""event"",""trial"",""time""
""fullscreenenter"",""1"",""6047""
","
","","","1325.0000000002328","","","13","16600","6519","p","elianto","#3366ff99"," "," ","1","+10","[2175.000000000233]","1","2","","","16600","105","4","1","win","go","0"
"pit-trial","229","1458456","0.0-110.0","battery-v0.2","","""event"",""trial"",""time""
""fullscreenenter"",""1"",""6047""
","
","
","""event"",""trial"",""time""
""fullscreenenter"",""1"",""6047""
","
","","","1488","","","13","16600","6519","d","elianto","#3366ff99"," "," ","1","+10","[2338]","1","2","","","16600","106","8","1","win","go","0"
"pit-trial","230","1462631","0.0-111.0","battery-v0.2","","""event"",""trial"",""time""
""fullscreenenter"",""1"",""6047""
","
","
","""event"",""trial"",""time""
""fullscreenenter"",""1"",""6047""
","
","","","1320","","","13","16600","6519","w","elianto","#f73b6a7A"," "," ","1","0","[2170]","1","2","","","16600","107","6","3","lose","go","0"
"pit-trial","231","1467486","0.0-112.0","battery-v0.2","","""event"",""trial"",""time""
""fullscreenenter"",""1"",""6047""
","
","
","""event"",""trial"",""time""
""fullscreenenter"",""1"",""6047""
","
","","","-1","","","13","16600","6519","j","elianto","#3366ff99"," ","-1","0","0","[]","0","2","","","16600","108","9","1","win","go","0"
"pit-trial","232","1471706","0.0-113.0","battery-v0.2","","""event"",""trial"",""time""
""fullscreenenter"",""1"",""6047""
","
","
","""event"",""trial"",""time""
""fullscreenenter"",""1"",""6047""
","
","","","1366","","","13","16600","6519","d","elianto","#3366ff99"," "," ","1","+10","[2216]","1","2","","","16600","109","8","1","win","go","0"
"pit-trial","233","1476561","0.0-114.0","battery-v0.2","","""event"",""trial"",""time""
""fullscreenenter"",""1"",""6047""
","
","
","""event"",""trial"",""time""
""fullscreenenter"",""1"",""6047""
","
","","","-1","","","13","16600","6519","s","elianto","#3366ff99","-1","-1","1","+10","[]","0","2","","","16600","110","5","2","win","no-go","0"
"pit-trial","234","1480090","0.0-115.0","battery-v0.2","","""event"",""trial"",""time""
""fullscreenenter"",""1"",""6047""
","
","
","""event"",""trial"",""time""
""fullscreenenter"",""1"",""6047""
","
","","","674","","","13","16600","6519","j","elianto","#3366ff99"," "," ","1","0","[1524.9999999997672]","1","2","","","16600","111","9","1","win","go","1"
"pit-trial","235","1484170","0.0-116.0","battery-v0.2","","""event"",""trial"",""time""
""fullscreenenter"",""1"",""6047""
","
","
","""event"",""trial"",""time""
""fullscreenenter"",""1"",""6047""
","
","","","1226","","","13","16600","6519","w","elianto","#f73b6a7A"," "," ","1","0","[2077]","1","2","","","16600","112","6","3","lose","go","0"
"pit-trial","236","1487584","0.0-117.0","battery-v0.2","","""event"",""trial"",""time""
""fullscreenenter"",""1"",""6047""
","
","
","""event"",""trial"",""time""
""fullscreenenter"",""1"",""6047""
","
","","","558","","","13","16600","6519","j","elianto","#3366ff99"," "," ","1","+10","[1408]","1","2","","","16600","113","9","1","win","go","0"
"pit-trial","237","1492359","0.0-118.0","battery-v0.2","","""event"",""trial"",""time""
""fullscreenenter"",""1"",""6047""
","
","
","""event"",""trial"",""time""
""fullscreenenter"",""1"",""6047""
","
","","","1917.9999999997672","","","13","16600","6519","d","elianto","#3366ff99"," "," ","1","+10","[2769]","1","2","","","16600","114","8","1","win","go","0"
"pit-trial","238","1496231","0.0-119.0","battery-v0.2","","""event"",""trial"",""time""
""fullscreenenter"",""1"",""6047""
","
","
","""event"",""trial"",""time""
""fullscreenenter"",""1"",""6047""
","
","","","1016","","","13","16600","6519","w","elianto","#f73b6a7A"," "," ","1","0","[1867.9999999997672]","1","2","","","16600","115","6","3","lose","go","0"
"pit-trial","239","1501086","0.0-120.0","battery-v0.2","","""event"",""trial"",""time""
""fullscreenenter"",""1"",""6047""
","
","
","""event"",""trial"",""time""
""fullscreenenter"",""1"",""6047""
","
","","","-1","","","13","16600","6519","s","elianto","#3366ff99","-1","-1","1","+10","[]","0","2","","","16600","116","5","2","win","no-go","0"
"pit-trial","240","1505941","0.0-121.0","battery-v0.2","","""event"",""trial"",""time""
""fullscreenenter"",""1"",""6047""
","
","
","""event"",""trial"",""time""
""fullscreenenter"",""1"",""6047""
","
","","","-1","","","13","16600","6519","s","elianto","#3366ff99","-1","-1","1","0","[]","0","2","","","16600","117","5","2","win","no-go","1"
"pit-trial","241","1510009","0.0-122.0","battery-v0.2","","""event"",""trial"",""time""
""fullscreenenter"",""1"",""6047""
","
","
","""event"",""trial"",""time""
""fullscreenenter"",""1"",""6047""
","
","","","1213.9999999997672","","","13","16600","6519","w","elianto","#f73b6a7A"," "," ","1","0","[2063]","1","2","","","16600","118","6","3","lose","go","0"
"pit-trial","242","1513921","0.0-123.0","battery-v0.2","","""event"",""trial"",""time""
""fullscreenenter"",""1"",""6047""
","
","
","""event"",""trial"",""time""
""fullscreenenter"",""1"",""6047""
","
","","","1057","","","13","16600","6519","j","elianto","#3366ff99"," "," ","1","+10","[1907.0000000002328]","1","2","","","16600","119","9","1","win","go","0"
"pit-trial","243","1517953","0.0-124.0","battery-v0.2","","""event"",""trial"",""time""
""fullscreenenter"",""1"",""6047""
","
","
","""event"",""trial"",""time""
""fullscreenenter"",""1"",""6047""
","
","","","1176.9999999997672","","","13","16600","6519","d","elianto","#3366ff99"," "," ","1","+10","[2029]","1","2","","","16600","120","8","1","win","go","0"
"pit-trial","244","1522417","0.0-125.0","battery-v0.2","","""event"",""trial"",""time""
""fullscreenenter"",""1"",""6047""
","
","
","""event"",""trial"",""time""
""fullscreenenter"",""1"",""6047""
","
","","","1608","","","13","16600","6519","w","elianto","#f73b6a7A"," "," ","1","0","[2459]","1","2","","","16600","121","6","3","lose","go","0"
"pit-trial","245","1526865","0.0-126.0","battery-v0.2","","""event"",""trial"",""time""
""fullscreenenter"",""1"",""6047""
","
","
","""event"",""trial"",""time""
""fullscreenenter"",""1"",""6047""
","
","","","1593","","","13","16600","6519","d","elianto","#3366ff99"," "," ","1","+10","[2443.999999999767]","1","2","","","16600","122","8","1","win","go","0"
"pit-trial","246","1530653","0.0-127.0","battery-v0.2","","""event"",""trial"",""time""
""fullscreenenter"",""1"",""6047""
","
","
","""event"",""trial"",""time""
""fullscreenenter"",""1"",""6047""
","
","","","932","","","13","16600","6519","j","elianto","#3366ff99"," "," ","1","+10","[1783]","1","2","","","16600","123","9","1","win","go","0"
"pit-trial","247","1535508","0.0-128.0","battery-v0.2","","""event"",""trial"",""time""
""fullscreenenter"",""1"",""6047""
","
","
","""event"",""trial"",""time""
""fullscreenenter"",""1"",""6047""
","
","","","-1","","","13","16600","6519","e","elianto","#f73b6a7A","-1","-1","1","0","[]","0","2","","","16600","124","7","4","lose","no-go","0"
"pit-trial","248","1540362","0.0-129.0","battery-v0.2","","""event"",""trial"",""time""
""fullscreenenter"",""1"",""6047""
","
","
","""event"",""trial"",""time""
""fullscreenenter"",""1"",""6047""
","
","","","-1","","","13","16600","6519","e","elianto","#f73b6a7A","-1","-1","1","-10","[]","0","2","","","16600","125","7","4","lose","no-go","1"
"pit-trial","249","1544456","0.0-130.0","battery-v0.2","","""event"",""trial"",""time""
""fullscreenenter"",""1"",""6047""
","
","
","""event"",""trial"",""time""
""fullscreenenter"",""1"",""6047""
","
","","","1240","","","13","16600","6519","j","elianto","#3366ff99"," "," ","1","+10","[2090]","1","2","","","16600","126","9","1","win","go","0"
"pit-trial","250","1548914","0.0-131.0","battery-v0.2","","""event"",""trial"",""time""
""fullscreenenter"",""1"",""6047""
","
","
","""event"",""trial"",""time""
""fullscreenenter"",""1"",""6047""
","
","","","1604","","","13","16600","6519","w","elianto","#f73b6a7A"," "," ","1","0","[2454.999999999767]","1","2","","","16600","127","6","3","lose","go","0"
"pit-trial","251","1552920","0.0-132.0","battery-v0.2","","""event"",""trial"",""time""
""fullscreenenter"",""1"",""6047""
","
","
","""event"",""trial"",""time""
""fullscreenenter"",""1"",""6047""
","
","","","1152.0000000002328","","","13","16600","6519","d","elianto","#3366ff99"," "," ","1","+10","[2002.0000000002328]","1","2","","","16600","128","8","1","win","go","0"
"pit-trial","252","1557116","0.0-133.0","battery-v0.2","","""event"",""trial"",""time""
""fullscreenenter"",""1"",""6047""
","
","
","""event"",""trial"",""time""
""fullscreenenter"",""1"",""6047""
","
","","","1342","","","13","16600","6519","d","elianto","#3366ff99"," "," ","1","+10","[2192]","1","2","","","16600","129","8","1","win","go","0"
"pit-trial","253","1561044","0.0-134.0","battery-v0.2","","""event"",""trial"",""time""
""fullscreenenter"",""1"",""6047""
","
","
","""event"",""trial"",""time""
""fullscreenenter"",""1"",""6047""
","
","","","1073","","","13","16600","6519","j","elianto","#3366ff99"," "," ","1","+10","[1924]","1","2","","","16600","130","9","1","win","go","0"
"pit-trial","254","1565898","0.0-135.0","battery-v0.2","","""event"",""trial"",""time""
""fullscreenenter"",""1"",""6047""
","
","
","""event"",""trial"",""time""
""fullscreenenter"",""1"",""6047""
","
","","","-1","","","13","16600","6519","e","elianto","#f73b6a7A","-1","-1","1","0","[]","0","2","","","16600","131","7","4","lose","no-go","0"
"pit-trial","255","1570248","0.0-136.0","battery-v0.2","","""event"",""trial"",""time""
""fullscreenenter"",""1"",""6047""
","
","
","""event"",""trial"",""time""
""fullscreenenter"",""1"",""6047""
","
","","","1495.0000000002328","","","13","16600","6519","w","elianto","#f73b6a7A"," "," ","1","0","[2345.000000000233]","1","2","","","16600","132","6","3","lose","go","0"
"pit-trial","256","1574103","0.0-137.0","battery-v0.2","","""event"",""trial"",""time""
""fullscreenenter"",""1"",""6047""
","
","
","""event"",""trial"",""time""
""fullscreenenter"",""1"",""6047""
","
","","","998.9999999997672","","","13","16600","6519","j","elianto","#3366ff99"," "," ","1","+10","[1850]","1","2","","","16600","133","9","1","win","go","0"
"pit-trial","257","1578247","0.0-138.0","battery-v0.2","","""event"",""trial"",""time""
""fullscreenenter"",""1"",""6047""
","
","
","""event"",""trial"",""time""
""fullscreenenter"",""1"",""6047""
","
","","","1290.0000000002328","","","13","16600","6519","d","elianto","#3366ff99"," "," ","1","+10","[2140.000000000233]","1","2","","","16600","134","8","1","win","go","0"
"pit-trial","258","1583102","0.0-139.0","battery-v0.2","","""event"",""trial"",""time""
""fullscreenenter"",""1"",""6047""
","
","
","""event"",""trial"",""time""
""fullscreenenter"",""1"",""6047""
","
","","","-1","","","13","16600","6519","e","elianto","#f73b6a7A","-1","-1","1","0","[]","0","2","","","16600","135","7","4","lose","no-go","0"
"pit-trial","259","1587693","0.0-140.0","battery-v0.2","","""event"",""trial"",""time""
""fullscreenenter"",""1"",""6047""
","
","
","""event"",""trial"",""time""
""fullscreenenter"",""1"",""6047""
","
","","","1736","","","13","16600","6519","w","elianto","#f73b6a7A"," "," ","1","-10","[2587]","1","2","","","16600","136","6","3","lose","go","1"
"pit-trial","260","1591808","0.0-141.0","battery-v0.2","","""event"",""trial"",""time""
""fullscreenenter"",""1"",""6047""
","
","
","""event"",""trial"",""time""
""fullscreenenter"",""1"",""6047""
","
","","","1260","","","13","16600","6519","j","elianto","#3366ff99"," "," ","1","+10","[2110]","1","2","","","16600","137","9","1","win","go","0"
"pit-trial","261","1596662","0.0-142.0","battery-v0.2","","""event"",""trial"",""time""
""fullscreenenter"",""1"",""6047""
","
","
","""event"",""trial"",""time""
""fullscreenenter"",""1"",""6047""
","
","","","-1","","","13","16600","6519","e","elianto","#f73b6a7A","-1","-1","1","-10","[]","0","2","","","16600","138","7","4","lose","no-go","1"
"pit-trial","262","1600813","0.0-143.0","battery-v0.2","","""event"",""trial"",""time""
""fullscreenenter"",""1"",""6047""
","
","
","""event"",""trial"",""time""
""fullscreenenter"",""1"",""6047""
","
","","","1296.9999999997672","","","13","16600","6519","d","elianto","#3366ff99"," "," ","1","+10","[2147]","1","2","","","16600","139","8","1","win","go","0"
"pit-trial","263","1604788","0.0-144.0","battery-v0.2","","""event"",""trial"",""time""
""fullscreenenter"",""1"",""6047""
","
","
","""event"",""trial"",""time""
""fullscreenenter"",""1"",""6047""
","
","","","1120","","","13","16600","6519","w","elianto","#f73b6a7A"," "," ","1","0","[1970]","1","2","","","16600","140","6","3","lose","go","0"
"pit-instructions","264","1636812","0.0-145.0","battery-v0.2","","""event"",""trial"",""time""
""fullscreenenter"",""1"",""6047""
","
","
","""event"",""trial"",""time""
""fullscreenenter"",""1"",""6047""
","
","","[{""page_index"":0,""viewing_time"":12494.000000000233},{""page_index"":1,""viewing_time"":19526.999999999767}]","32021","","","","","","","","","","","","","","","","","","","","","","","",""
"pit-trial","265","1641668","0.0-146.0","battery-v0.2","","""event"",""trial"",""time""
""fullscreenenter"",""1"",""6047""
","
","
","""event"",""trial"",""time""
""fullscreenenter"",""1"",""6047""
","
","","","-1","","","13","16600","6519","n","elianto","#f73b6a7A","-1","-1","1","0","[]","0","3","","","16600","141","0","4","lose","no-go","0"
"pit-trial","266","1646524","0.0-147.0","battery-v0.2","","""event"",""trial"",""time""
""fullscreenenter"",""1"",""6047""
","
","
","""event"",""trial"",""time""
""fullscreenenter"",""1"",""6047""
","
","","","-1","","","13","16600","6519","t","elianto","#f73b6a7A","-1","-1","1","0","[]","0","3","","","16600","142","2","4","lose","no-go","0"
"pit-trial","267","1651378","0.0-148.0","battery-v0.2","","""event"",""trial"",""time""
""fullscreenenter"",""1"",""6047""
","
","
","""event"",""trial"",""time""
""fullscreenenter"",""1"",""6047""
","
","","","-1","","","13","16600","6519","b","elianto","#f73b6a7A"," ","-1","0","-10","[]","0","3","","","16600","143","3","3","lose","go","0"
"pit-trial","268","1655770","0.0-149.0","battery-v0.2","","""event"",""trial"",""time""
""fullscreenenter"",""1"",""6047""
","
","
","""event"",""trial"",""time""
""fullscreenenter"",""1"",""6047""
","
","","","1537","","","13","16600","6519","f","elianto","#3366ff99"," "," ","1","0","[2388]","1","3","","","16600","144","1","1","win","go","1"
"pit-trial","269","1660306","0.0-150.0","battery-v0.2","","""event"",""trial"",""time""
""fullscreenenter"",""1"",""6047""
","
","
","""event"",""trial"",""time""
""fullscreenenter"",""1"",""6047""
","
","","","1682","","","13","16600","6519","b","elianto","#f73b6a7A"," "," ","1","0","[2532]","1","3","","","16600","145","3","3","lose","go","0"
"pit-trial","270","1664369","0.0-151.0","battery-v0.2","","""event"",""trial"",""time""
""fullscreenenter"",""1"",""6047""
","
","
","""event"",""trial"",""time""
""fullscreenenter"",""1"",""6047""
","
","","","1208.9999999997672","","","13","16600","6519","f","elianto","#3366ff99"," "," ","1","+10","[2059]","1","3","","","16600","146","1","1","win","go","0"
"pit-trial","271","1669225","0.0-152.0","battery-v0.2","","""event"",""trial"",""time""
""fullscreenenter"",""1"",""6047""
","
","
","""event"",""trial"",""time""
""fullscreenenter"",""1"",""6047""
","
","","","-1","","","13","16600","6519","n","elianto","#f73b6a7A","-1","-1","1","0","[]","0","3","","","16600","147","0","4","lose","no-go","0"
"pit-trial","272","1674080","0.0-153.0","battery-v0.2","","""event"",""trial"",""time""
""fullscreenenter"",""1"",""6047""
","
","
","""event"",""trial"",""time""
""fullscreenenter"",""1"",""6047""
","
","","","-1","","","13","16600","6519","t","elianto","#f73b6a7A","-1","-1","1","-10","[]","0","3","","","16600","148","2","4","lose","no-go","1"
"pit-trial","273","1678933","0.0-154.0","battery-v0.2","","""event"",""trial"",""time""
""fullscreenenter"",""1"",""6047""
","
","
","""event"",""trial"",""time""
""fullscreenenter"",""1"",""6047""
","
","","","-1","","","13","16600","6519","n","elianto","#f73b6a7A","-1","-1","1","0","[]","0","3","","","16600","149","0","4","lose","no-go","0"
"pit-trial","274","1683016","0.0-155.0","battery-v0.2","","""event"",""trial"",""time""
""fullscreenenter"",""1"",""6047""
","
","
","""event"",""trial"",""time""
