"trial_type","trial_index","time_elapsed","internal_node_id","task_version","subject_id","interactions","blur_events","focus_events","fullscreenenter_events","fullscreenexit_events","success","view_history","rt","responses","num_errors","age","subject","participantId","rune","rune_set","hex","correct","choice","accuracy","outcome","keys","total_keys","block","practice","value","sub","trial","stimulus","robot","valence","action","sham"
"pavlovia","0","35","0.0-0.0","battery-v0.2","","""event"",""trial"",""time""
""fullscreenenter"",""1"",""2818""
","
","
","""event"",""trial"",""time""
""fullscreenenter"",""1"",""2818""
","
","","","","","","","","","","","","","","","","","","","","","","","","","","",""
"fullscreen","1","3800","0.0-1.0","battery-v0.2","","""event"",""trial"",""time""
""fullscreenenter"",""1"",""2818""
","
","
","""event"",""trial"",""time""
""fullscreenenter"",""1"",""2818""
","
","true","","","","","","","","","","","","","","","","","","","","","","","","","",""
"pit-instructions","2","7418","0.0-2.0-0.0","battery-v0.2","","""event"",""trial"",""time""
""fullscreenenter"",""1"",""2818""
","
","
","""event"",""trial"",""time""
""fullscreenenter"",""1"",""2818""
","
","","[{""page_index"":0,""viewing_time"":3613.300000011921}]","3614","","","","","","","","","","","","","","","","","","","","","","","",""
"pit-comprehension","3","10916","0.0-2.0-1.0-0.0","battery-v0.2","","""event"",""trial"",""time""
""fullscreenenter"",""1"",""2818""
","
","
","""event"",""trial"",""time""
""fullscreenenter"",""1"",""2818""
","
","","","3494.5","[""shark""]","0","21","5303","1288","","","","","","","","","","","","","","","","","","",""
"pit-instructions","4","12222","0.0-2.0-1.0-1.0","battery-v0.2","","""event"",""trial"",""time""
""fullscreenenter"",""1"",""2818""
","
","
","""event"",""trial"",""time""
""fullscreenenter"",""1"",""2818""
","
","","[{""page_index"":0,""viewing_time"":1299}]","1299.300000011921","","","","","","","","","","","","","","","","","","","","","","","",""
"pit-comprehension","5","14509","0.0-2.0-2.0-0.0","battery-v0.2","","""event"",""trial"",""time""
""fullscreenenter"",""1"",""2818""
","
","
","""event"",""trial"",""time""
""fullscreenenter"",""1"",""2818""
","
","","","2284.100000023842","[""tiger""]","0","21","5303","1288","","","","","","","","","","","","","","","","","","",""
"pit-instructions","6","15291","0.0-2.0-2.0-1.0","battery-v0.2","","""event"",""trial"",""time""
""fullscreenenter"",""1"",""2818""
","
","
","""event"",""trial"",""time""
""fullscreenenter"",""1"",""2818""
","
","","[{""page_index"":0,""viewing_time"":777.7000000476837}]","779","","","","","","","","","","","","","","","","","","","","","","","",""
"pit-instructions","7","110135","0.0-2.0-3.0","battery-v0.2","","""event"",""trial"",""time""
""fullscreenenter"",""1"",""2818""
","
","
","""event"",""trial"",""time""
""fullscreenenter"",""1"",""2818""
","
","","[{""page_index"":0,""viewing_time"":7788.600000023842},{""page_index"":1,""viewing_time"":5978.399999976158},{""page_index"":2,""viewing_time"":7159},{""page_index"":3,""viewing_time"":5650.400000035763},{""page_index"":4,""viewing_time"":5767.699999988079},{""page_index"":5,""viewing_time"":6254},{""page_index"":6,""viewing_time"":6776.300000011921},{""page_index"":7,""viewing_time"":6394.799999952316},{""page_index"":8,""viewing_time"":6402.800000011921},{""page_index"":9,""viewing_time"":8262.900000035763},{""page_index"":10,""viewing_time"":8236.099999964237},{""page_index"":11,""viewing_time"":8144.300000011921},{""page_index"":12,""viewing_time"":6794.100000023842},{""page_index"":13,""viewing_time"":5229.699999988079}]","94839.40000003576","","","","","","","","","","","","","","","","","","","","","","","",""
"pit-trial","8","113577","0.0-2.0-4.0-0.0","battery-v0.2","","""event"",""trial"",""time""
""fullscreenenter"",""1"",""2818""
","
","
","""event"",""trial"",""time""
""fullscreenenter"",""1"",""2818""
","
","","","578.8000000119209","","","21","5303","1288","&#9784;","elianto","#FFFFF080"," "," ","1","&#10004","[1440.0999999642372]","1","0","0","","","","","","","",""
"pit-trial","9","116851","0.0-2.0-4.1-0.1","battery-v0.2","","""event"",""trial"",""time""
""fullscreenenter"",""1"",""2818""
","
","
","""event"",""trial"",""time""
""fullscreenenter"",""1"",""2818""
","
","","","416.9000000357628","","","21","5303","1288","&#9784;","elianto","#FFFFF080"," "," ","1","&#10004","[1267.5]","1","0","0","","","","","","","",""
"pit-trial","10","120212","0.0-2.0-4.2-0.2","battery-v0.2","","""event"",""trial"",""time""
""fullscreenenter"",""1"",""2818""
","
","
","""event"",""trial"",""time""
""fullscreenenter"",""1"",""2818""
","
","","","507.2000000476837","","","21","5303","1288","&#9784;","elianto","#FFFFF080"," "," ","1","&#10004","[1359.300000011921]","1","0","0","","","","","","","",""
"pit-trial","11","123610","0.0-2.0-4.3-0.3","battery-v0.2","","""event"",""trial"",""time""
""fullscreenenter"",""1"",""2818""
","
","
","""event"",""trial"",""time""
""fullscreenenter"",""1"",""2818""
","
","","","539.5","","","21","5303","1288","&#9784;","elianto","#FFFFF080"," "," ","1","&#10004","[1391.1000000238419]","1","0","0","","","","","","","",""
"pit-trial","12","126882","0.0-2.0-4.4-0.4","battery-v0.2","","""event"",""trial"",""time""
""fullscreenenter"",""1"",""2818""
","
","
","""event"",""trial"",""time""
""fullscreenenter"",""1"",""2818""
","
","","","417","","","21","5303","1288","&#9784;","elianto","#FFFFF080"," "," ","1","&#10004","[1268.5]","1","0","0","","","","","","","",""
"pit-instructions","13","148490","0.0-2.0-5.0","battery-v0.2","","""event"",""trial"",""time""
""fullscreenenter"",""1"",""2818""
","
","
","""event"",""trial"",""time""
""fullscreenenter"",""1"",""2818""
","
","","[{""page_index"":0,""viewing_time"":4943.300000011921},{""page_index"":1,""viewing_time"":6457.199999988079},{""page_index"":2,""viewing_time"":5039.900000035763},{""page_index"":3,""viewing_time"":5164.099999964237}]","21604.69999998808","","","","","","","","","","","","","","","","","","","","","","","",""
"pit-trial","14","153347","0.0-2.0-6.0-0.0","battery-v0.2","","""event"",""trial"",""time""
""fullscreenenter"",""1"",""2818""
","
","
","""event"",""trial"",""time""
""fullscreenenter"",""1"",""2818""
","
","","","-1","","","21","5303","1288","&#9854;","elianto","#FFFFF080","-1","-1","1","&#10004","[]","0","0","1","","","","","","","",""
"pit-trial","15","158206","0.0-2.0-6.1-0.1","battery-v0.2","","""event"",""trial"",""time""
""fullscreenenter"",""1"",""2818""
","
","
","""event"",""trial"",""time""
""fullscreenenter"",""1"",""2818""
","
","","","-1","","","21","5303","1288","&#9854;","elianto","#FFFFF080","-1","-1","1","&#10004","[]","0","0","1","","","","","","","",""
"pit-trial","16","163065","0.0-2.0-6.2-0.2","battery-v0.2","","""event"",""trial"",""time""
""fullscreenenter"",""1"",""2818""
","
","
","""event"",""trial"",""time""
""fullscreenenter"",""1"",""2818""
","
","","","-1","","","21","5303","1288","&#9854;","elianto","#FFFFF080","-1","-1","1","&#10004","[]","0","0","1","","","","","","","",""
"pit-trial","17","167923","0.0-2.0-6.3-0.3","battery-v0.2","","""event"",""trial"",""time""
""fullscreenenter"",""1"",""2818""
","
","
","""event"",""trial"",""time""
""fullscreenenter"",""1"",""2818""
","
","","","-1","","","21","5303","1288","&#9854;","elianto","#FFFFF080","-1","-1","1","&#10004","[]","0","0","1","","","","","","","",""
"pit-trial","18","172777","0.0-2.0-6.4-0.4","battery-v0.2","","""event"",""trial"",""time""
""fullscreenenter"",""1"",""2818""
","
","
","""event"",""trial"",""time""
""fullscreenenter"",""1"",""2818""
","
","","","-1","","","21","5303","1288","&#9854;","elianto","#FFFFF080","-1","-1","1","&#10004","[]","0","0","1","","","","","","","",""
"pit-instructions","19","336739","0.0-2.0-7.0","battery-v0.2","","""event"",""trial"",""time""
""fullscreenenter"",""1"",""2818""
","
","
","""event"",""trial"",""time""
""fullscreenenter"",""1"",""2818""
","
","","[{""page_index"":0,""viewing_time"":6015.5},{""page_index"":1,""viewing_time"":49051.700000047684},{""page_index"":2,""viewing_time"":6198.099999964237},{""page_index"":3,""viewing_time"":7637.199999988079},{""page_index"":4,""viewing_time"":7882.100000023842},{""page_index"":5,""viewing_time"":5668.300000011921},{""page_index"":6,""viewing_time"":5078.699999988079},{""page_index"":7,""viewing_time"":7553.100000023842},{""page_index"":8,""viewing_time"":10039},{""page_index"":9,""viewing_time"":5400.5},{""page_index"":10,""viewing_time"":6334.5},{""page_index"":11,""viewing_time"":5299},{""page_index"":12,""viewing_time"":6780.799999952316},{""page_index"":13,""viewing_time"":7604.400000035763},{""page_index"":14,""viewing_time"":7471},{""page_index"":15,""viewing_time"":6090.300000011921},{""page_index"":16,""viewing_time"":6409.299999952316},{""page_index"":17,""viewing_time"":7442.100000023842}]","163955.80000001192","","","","","","","","","","","","","","","","","","","","","","","",""
"pit-trial","20","340129","0.0-2.0-8.0-0.0","battery-v0.2","","""event"",""trial"",""time""
""fullscreenenter"",""1"",""2818""
","
","
","""event"",""trial"",""time""
""fullscreenenter"",""1"",""2818""
","
","","","536.6000000238419","","","21","5303","1288","&#9776;","elianto","#3366ff99"," "," ","1","+10","[1387.300000011921]","1","0","1","","","","","","","",""
"pit-trial","21","343607","0.0-2.0-8.0-1.0","battery-v0.2","","""event"",""trial"",""time""
""fullscreenenter"",""1"",""2818""
","
","
","""event"",""trial"",""time""
""fullscreenenter"",""1"",""2818""
","
","","","623.5","","","21","5303","1288","&#9776;","elianto","#3366ff99"," "," ","1","+10","[1475.0999999642372]","1","0","1","","","","","","","",""
"pit-trial","22","346883","0.0-2.0-8.0-2.0","battery-v0.2","","""event"",""trial"",""time""
""fullscreenenter"",""1"",""2818""
","
","
","""event"",""trial"",""time""
""fullscreenenter"",""1"",""2818""
","
","","","418.7999999523163","","","21","5303","1288","&#9776;","elianto","#3366ff99"," "," ","1","+10","[1271.199999988079]","1","0","1","","","","","","","",""
"pit-trial","23","350186","0.0-2.0-8.0-3.0","battery-v0.2","","""event"",""trial"",""time""
""fullscreenenter"",""1"",""2818""
","
","
","""event"",""trial"",""time""
""fullscreenenter"",""1"",""2818""
","
","","","449.30000001192093","","","21","5303","1288","&#9776;","elianto","#3366ff99"," "," ","1","0","[1299.699999988079]","1","0","1","","","","","","","",""
"pit-trial","24","353350","0.0-2.0-8.0-4.0","battery-v0.2","","""event"",""trial"",""time""
""fullscreenenter"",""1"",""2818""
","
","
","""event"",""trial"",""time""
""fullscreenenter"",""1"",""2818""
","
","","","304","","","21","5303","1288","&#9776;","elianto","#3366ff99"," "," ","1","+10","[1156.6000000238419]","1","0","1","","","","","","","",""
"pit-trial","25","356711","0.0-2.0-8.1-0.1","battery-v0.2","","""event"",""trial"",""time""
""fullscreenenter"",""1"",""2818""
","
","
","""event"",""trial"",""time""
""fullscreenenter"",""1"",""2818""
","
","","","505.69999998807907","","","21","5303","1288","&#9776;","elianto","#3366ff99"," "," ","1","+10","[1356.5]","1","0","1","","","","","","","",""
"pit-trial","26","360061","0.0-2.0-8.1-1.1","battery-v0.2","","""event"",""trial"",""time""
""fullscreenenter"",""1"",""2818""
","
","
","""event"",""trial"",""time""
""fullscreenenter"",""1"",""2818""
","
","","","495","","","21","5303","1288","&#9776;","elianto","#3366ff99"," "," ","1","+10","[1347.800000011921]","1","0","1","","","","","","","",""
"pit-trial","27","363433","0.0-2.0-8.1-2.1","battery-v0.2","","""event"",""trial"",""time""
""fullscreenenter"",""1"",""2818""
","
","
","""event"",""trial"",""time""
""fullscreenenter"",""1"",""2818""
","
","","","513.6999999880791","","","21","5303","1288","&#9776;","elianto","#3366ff99"," "," ","1","+10","[1367.1000000238419]","1","0","1","","","","","","","",""
"pit-trial","28","366888","0.0-2.0-8.1-3.1","battery-v0.2","","""event"",""trial"",""time""
""fullscreenenter"",""1"",""2818""
","
","
","""event"",""trial"",""time""
""fullscreenenter"",""1"",""2818""
","
","","","601.6999999880791","","","21","5303","1288","&#9776;","elianto","#3366ff99"," "," ","1","0","[1453]","1","0","1","","","","","","","",""
"pit-trial","29","370151","0.0-2.0-8.1-4.1","battery-v0.2","","""event"",""trial"",""time""
""fullscreenenter"",""1"",""2818""
","
","
","""event"",""trial"",""time""
""fullscreenenter"",""1"",""2818""
","
","","","406.10000002384186","","","21","5303","1288","&#9776;","elianto","#3366ff99"," "," ","1","+10","[1258.4000000357628]","1","0","1","","","","","","","",""
"pit-trial","30","373656","0.0-2.0-8.2-0.2","battery-v0.2","","""event"",""trial"",""time""
""fullscreenenter"",""1"",""2818""
","
","
","""event"",""trial"",""time""
""fullscreenenter"",""1"",""2818""
","
","","","647.8999999761581","","","21","5303","1288","&#9776;","elianto","#3366ff99"," "," ","1","+10","[1498.300000011921]","1","0","1","","","","","","","",""
"pit-trial","31","376902","0.0-2.0-8.2-1.2","battery-v0.2","","""event"",""trial"",""time""
""fullscreenenter"",""1"",""2818""
","
","
","""event"",""trial"",""time""
""fullscreenenter"",""1"",""2818""
","
","","","388.80000001192093","","","21","5303","1288","&#9776;","elianto","#3366ff99"," "," ","1","+10","[1239.4000000357628]","1","0","1","","","","","","","",""
"pit-trial","32","380170","0.0-2.0-8.2-2.2","battery-v0.2","","""event"",""trial"",""time""
""fullscreenenter"",""1"",""2818""
","
","
","""event"",""trial"",""time""
""fullscreenenter"",""1"",""2818""
","
","","","405.80000001192093","","","21","5303","1288","&#9776;","elianto","#3366ff99"," "," ","1","+10","[1261.5]","1","0","1","","","","","","","",""
"pit-trial","33","383485","0.0-2.0-8.2-3.2","battery-v0.2","","""event"",""trial"",""time""
""fullscreenenter"",""1"",""2818""
","
","
","""event"",""trial"",""time""
""fullscreenenter"",""1"",""2818""
","
","","","461.30000001192093","","","21","5303","1288","&#9776;","elianto","#3366ff99"," "," ","1","0","[1312.5]","1","0","1","","","","","","","",""
"pit-trial","34","386712","0.0-2.0-8.2-4.2","battery-v0.2","","""event"",""trial"",""time""
""fullscreenenter"",""1"",""2818""
","
","
","""event"",""trial"",""time""
""fullscreenenter"",""1"",""2818""
","
","","","369.9000000357628","","","21","5303","1288","&#9776;","elianto","#3366ff99"," "," ","1","+10","[1220.800000011921]","1","0","1","","","","","","","",""
"call-function","35","386714","0.0-2.0-9.0","battery-v0.2","","""event"",""trial"",""time""
""fullscreenenter"",""1"",""2818""
","
","
","""event"",""trial"",""time""
""fullscreenenter"",""1"",""2818""
","
","","","","","","","","","","","","","","","","","","","","","","","","","","",""
"pit-instructions","36","426655","0.0-2.0-10.0","battery-v0.2","","""event"",""trial"",""time""
""fullscreenenter"",""1"",""2818""
","
","
","""event"",""trial"",""time""
""fullscreenenter"",""1"",""2818""
","
","","[{""page_index"":0,""viewing_time"":5567},{""page_index"":1,""viewing_time"":7068.5},{""page_index"":2,""viewing_time"":9344.599999964237},{""page_index"":3,""viewing_time"":9735.400000035763},{""page_index"":4,""viewing_time"":8224.399999976158}]","39940.09999996424","","","","","","","","","","","","","","","","","","","","","","","",""
"pit-trial","37","430351","0.0-2.0-11.0-0.0","battery-v0.2","","""event"",""trial"",""time""
""fullscreenenter"",""1"",""2818""
","
","
","""event"",""trial"",""time""
""fullscreenenter"",""1"",""2818""
","
","","","838.1999999880791","","","21","5303","1288","&#9761;","elianto","#3366ff99","-1"," ","0","0","[1689.699999988079]","1","0","2","","","","","","","",""
"pit-trial","38","433718","0.0-2.0-11.0-1.0","battery-v0.2","","""event"",""trial"",""time""
""fullscreenenter"",""1"",""2818""
","
","
","""event"",""trial"",""time""
""fullscreenenter"",""1"",""2818""
","
","","","510.39999997615814","","","21","5303","1288","&#9761;","elianto","#3366ff99","-1"," ","0","0","[1361]","1","0","2","","","","","","","",""
"pit-trial","39","438574","0.0-2.0-11.0-2.0","battery-v0.2","","""event"",""trial"",""time""
""fullscreenenter"",""1"",""2818""
","
","
","""event"",""trial"",""time""
""fullscreenenter"",""1"",""2818""
","
","","","-1","","","21","5303","1288","&#9761;","elianto","#3366ff99","-1","-1","1","+10","[]","0","0","2","","","","","","","",""
"pit-trial","40","443430","0.0-2.0-11.0-3.0","battery-v0.2","","""event"",""trial"",""time""
""fullscreenenter"",""1"",""2818""
","
","
","""event"",""trial"",""time""
""fullscreenenter"",""1"",""2818""
","
","","","-1","","","21","5303","1288","&#9761;","elianto","#3366ff99","-1","-1","1","0","[]","0","0","2","","","","","","","",""
"pit-trial","41","448287","0.0-2.0-11.0-4.0","battery-v0.2","","""event"",""trial"",""time""
""fullscreenenter"",""1"",""2818""
","
","
","""event"",""trial"",""time""
""fullscreenenter"",""1"",""2818""
","
","","","-1","","","21","5303","1288","&#9761;","elianto","#3366ff99","-1","-1","1","+10","[]","0","0","2","","","","","","","",""
"pit-trial","42","453142","0.0-2.0-11.1-0.1","battery-v0.2","","""event"",""trial"",""time""
""fullscreenenter"",""1"",""2818""
","
","
","""event"",""trial"",""time""
""fullscreenenter"",""1"",""2818""
","
","","","-1","","","21","5303","1288","&#9761;","elianto","#3366ff99","-1","-1","1","+10","[]","0","0","2","","","","","","","",""
"pit-trial","43","458002","0.0-2.0-11.1-1.1","battery-v0.2","","""event"",""trial"",""time""
""fullscreenenter"",""1"",""2818""
","
","
","""event"",""trial"",""time""
""fullscreenenter"",""1"",""2818""
","
","","","-1","","","21","5303","1288","&#9761;","elianto","#3366ff99","-1","-1","1","+10","[]","0","0","2","","","","","","","",""
"pit-trial","44","462861","0.0-2.0-11.1-2.1","battery-v0.2","","""event"",""trial"",""time""
""fullscreenenter"",""1"",""2818""
","
","
","""event"",""trial"",""time""
""fullscreenenter"",""1"",""2818""
","
","","","-1","","","21","5303","1288","&#9761;","elianto","#3366ff99","-1","-1","1","+10","[]","0","0","2","","","","","","","",""
"pit-trial","45","467720","0.0-2.0-11.1-3.1","battery-v0.2","","""event"",""trial"",""time""
""fullscreenenter"",""1"",""2818""
","
","
","""event"",""trial"",""time""
""fullscreenenter"",""1"",""2818""
","
","","","-1","","","21","5303","1288","&#9761;","elianto","#3366ff99","-1","-1","1","0","[]","0","0","2","","","","","","","",""
"pit-trial","46","472578","0.0-2.0-11.1-4.1","battery-v0.2","","""event"",""trial"",""time""
""fullscreenenter"",""1"",""2818""
","
","
","""event"",""trial"",""time""
""fullscreenenter"",""1"",""2818""
","
","","","-1","","","21","5303","1288","&#9761;","elianto","#3366ff99","-1","-1","1","+10","[]","0","0","2","","","","","","","",""
"pit-trial","47","477437","0.0-2.0-11.2-0.2","battery-v0.2","","""event"",""trial"",""time""
""fullscreenenter"",""1"",""2818""
","
","
","""event"",""trial"",""time""
""fullscreenenter"",""1"",""2818""
","
","","","-1","","","21","5303","1288","&#9761;","elianto","#3366ff99","-1","-1","1","+10","[]","0","0","2","","","","","","","",""
"pit-trial","48","482298","0.0-2.0-11.2-1.2","battery-v0.2","","""event"",""trial"",""time""
""fullscreenenter"",""1"",""2818""
","
","
","""event"",""trial"",""time""
""fullscreenenter"",""1"",""2818""
","
","","","-1","","","21","5303","1288","&#9761;","elianto","#3366ff99","-1","-1","1","+10","[]","0","0","2","","","","","","","",""
"pit-trial","49","487155","0.0-2.0-11.2-2.2","battery-v0.2","","""event"",""trial"",""time""
""fullscreenenter"",""1"",""2818""
","
","
","""event"",""trial"",""time""
""fullscreenenter"",""1"",""2818""
","
","","","-1","","","21","5303","1288","&#9761;","elianto","#3366ff99","-1","-1","1","+10","[]","0","0","2","","","","","","","",""
"pit-trial","50","492014","0.0-2.0-11.2-3.2","battery-v0.2","","""event"",""trial"",""time""
""fullscreenenter"",""1"",""2818""
","
","
","""event"",""trial"",""time""
""fullscreenenter"",""1"",""2818""
","
","","","-1","","","21","5303","1288","&#9761;","elianto","#3366ff99","-1","-1","1","0","[]","0","0","2","","","","","","","",""
"pit-trial","51","496873","0.0-2.0-11.2-4.2","battery-v0.2","","""event"",""trial"",""time""
""fullscreenenter"",""1"",""2818""
","
","
","""event"",""trial"",""time""
""fullscreenenter"",""1"",""2818""
","
","","","-1","","","21","5303","1288","&#9761;","elianto","#3366ff99","-1","-1","1","+10","[]","0","0","2","","","","","","","",""
"pit-trial","52","501732","0.0-2.0-11.3-0.3","battery-v0.2","","""event"",""trial"",""time""
""fullscreenenter"",""1"",""2818""
","
","
","""event"",""trial"",""time""
""fullscreenenter"",""1"",""2818""
","
","","","-1","","","21","5303","1288","&#9761;","elianto","#3366ff99","-1","-1","1","+10","[]","0","0","2","","","","","","","",""
"pit-trial","53","506590","0.0-2.0-11.3-1.3","battery-v0.2","","""event"",""trial"",""time""
""fullscreenenter"",""1"",""2818""
","
","
","""event"",""trial"",""time""
""fullscreenenter"",""1"",""2818""
","
","","","-1","","","21","5303","1288","&#9761;","elianto","#3366ff99","-1","-1","1","+10","[]","0","0","2","","","","","","","",""
"pit-trial","54","511449","0.0-2.0-11.3-2.3","battery-v0.2","","""event"",""trial"",""time""
""fullscreenenter"",""1"",""2818""
","
","
","""event"",""trial"",""time""
""fullscreenenter"",""1"",""2818""
","
","","","-1","","","21","5303","1288","&#9761;","elianto","#3366ff99","-1","-1","1","+10","[]","0","0","2","","","","","","","",""
"pit-trial","55","516308","0.0-2.0-11.3-3.3","battery-v0.2","","""event"",""trial"",""time""
""fullscreenenter"",""1"",""2818""
","
","
","""event"",""trial"",""time""
""fullscreenenter"",""1"",""2818""
","
","","","-1","","","21","5303","1288","&#9761;","elianto","#3366ff99","-1","-1","1","0","[]","0","0","2","","","","","","","",""
"pit-trial","56","521167","0.0-2.0-11.3-4.3","battery-v0.2","","""event"",""trial"",""time""
""fullscreenenter"",""1"",""2818""
","
","
","""event"",""trial"",""time""
""fullscreenenter"",""1"",""2818""
","
","","","-1","","","21","5303","1288","&#9761;","elianto","#3366ff99","-1","-1","1","+10","[]","0","0","2","","","","","","","",""
"call-function","57","521168","0.0-2.0-12.0","battery-v0.2","","""event"",""trial"",""time""
""fullscreenenter"",""1"",""2818""
","
","
","""event"",""trial"",""time""
""fullscreenenter"",""1"",""2818""
","
","","","","","","","","","","","","","","","","","","","","","","","","","","",""
"pit-instructions","58","553543","0.0-2.0-13.0","battery-v0.2","","""event"",""trial"",""time""
""fullscreenenter"",""1"",""2818""
","
","
","""event"",""trial"",""time""
""fullscreenenter"",""1"",""2818""
","
","","[{""page_index"":0,""viewing_time"":5321.699999988079},{""page_index"":1,""viewing_time"":7303.699999988079},{""page_index"":2,""viewing_time"":4344.900000035763},{""page_index"":3,""viewing_time"":10174.099999964237},{""page_index"":4,""viewing_time"":5228.600000023842}]","32373.899999976158","","","","","","","","","","","","","","","","","","","","","","","",""
"pit-trial","59","556977","0.0-2.0-14.0-0.0","battery-v0.2","","""event"",""trial"",""time""
""fullscreenenter"",""1"",""2818""
","
","
","""event"",""trial"",""time""
""fullscreenenter"",""1"",""2818""
","
","","","577.2999999523163","","","21","5303","1288","&#9826;","elianto","#f73b6a7A","-1"," ","0","-10","[1428.199999988079]","1","0","3","","","","","","","",""
"pit-trial","60","561835","0.0-2.0-14.0-1.0","battery-v0.2","","""event"",""trial"",""time""
""fullscreenenter"",""1"",""2818""
","
","
","""event"",""trial"",""time""
""fullscreenenter"",""1"",""2818""
","
","","","-1","","","21","5303","1288","&#9826;","elianto","#f73b6a7A","-1","-1","1","0","[]","0","0","3","","","","","","","",""
"pit-trial","61","566691","0.0-2.0-14.0-2.0","battery-v0.2","","""event"",""trial"",""time""
""fullscreenenter"",""1"",""2818""
","
","
","""event"",""trial"",""time""
""fullscreenenter"",""1"",""2818""
","
","","","-1","","","21","5303","1288","&#9826;","elianto","#f73b6a7A","-1","-1","1","0","[]","0","0","3","","","","","","","",""
"pit-trial","62","571545","0.0-2.0-14.0-3.0","battery-v0.2","","""event"",""trial"",""time""
""fullscreenenter"",""1"",""2818""
","
","
","""event"",""trial"",""time""
""fullscreenenter"",""1"",""2818""
","
","","","-1","","","21","5303","1288","&#9826;","elianto","#f73b6a7A","-1","-1","1","-10","[]","0","0","3","","","","","","","",""
"pit-trial","63","576404","0.0-2.0-14.0-4.0","battery-v0.2","","""event"",""trial"",""time""
""fullscreenenter"",""1"",""2818""
","
","
","""event"",""trial"",""time""
""fullscreenenter"",""1"",""2818""
","
","","","-1","","","21","5303","1288","&#9826;","elianto","#f73b6a7A","-1","-1","1","0","[]","0","0","3","","","","","","","",""
"pit-trial","64","581257","0.0-2.0-14.1-0.1","battery-v0.2","","""event"",""trial"",""time""
""fullscreenenter"",""1"",""2818""
","
","
","""event"",""trial"",""time""
""fullscreenenter"",""1"",""2818""
","
","","","-1","","","21","5303","1288","&#9826;","elianto","#f73b6a7A","-1","-1","1","0","[]","0","0","3","","","","","","","",""
"pit-trial","65","586114","0.0-2.0-14.1-1.1","battery-v0.2","","""event"",""trial"",""time""
""fullscreenenter"",""1"",""2818""
","
","
","""event"",""trial"",""time""
""fullscreenenter"",""1"",""2818""
","
","","","-1","","","21","5303","1288","&#9826;","elianto","#f73b6a7A","-1","-1","1","0","[]","0","0","3","","","","","","","",""
"pit-trial","66","590970","0.0-2.0-14.1-2.1","battery-v0.2","","""event"",""trial"",""time""
""fullscreenenter"",""1"",""2818""
","
","
","""event"",""trial"",""time""
""fullscreenenter"",""1"",""2818""
","
","","","-1","","","21","5303","1288","&#9826;","elianto","#f73b6a7A","-1","-1","1","0","[]","0","0","3","","","","","","","",""
"pit-trial","67","595829","0.0-2.0-14.1-3.1","battery-v0.2","","""event"",""trial"",""time""
""fullscreenenter"",""1"",""2818""
","
","
","""event"",""trial"",""time""
""fullscreenenter"",""1"",""2818""
","
","","","-1","","","21","5303","1288","&#9826;","elianto","#f73b6a7A","-1","-1","1","-10","[]","0","0","3","","","","","","","",""
"pit-trial","68","600688","0.0-2.0-14.1-4.1","battery-v0.2","","""event"",""trial"",""time""
""fullscreenenter"",""1"",""2818""
","
","
","""event"",""trial"",""time""
""fullscreenenter"",""1"",""2818""
","
","","","-1","","","21","5303","1288","&#9826;","elianto","#f73b6a7A","-1","-1","1","0","[]","0","0","3","","","","","","","",""
"pit-trial","69","605548","0.0-2.0-14.2-0.2","battery-v0.2","","""event"",""trial"",""time""
""fullscreenenter"",""1"",""2818""
","
","
","""event"",""trial"",""time""
""fullscreenenter"",""1"",""2818""
","
","","","-1","","","21","5303","1288","&#9826;","elianto","#f73b6a7A","-1","-1","1","0","[]","0","0","3","","","","","","","",""
"pit-trial","70","610408","0.0-2.0-14.2-1.2","battery-v0.2","","""event"",""trial"",""time""
""fullscreenenter"",""1"",""2818""
","
","
","""event"",""trial"",""time""
""fullscreenenter"",""1"",""2818""
","
","","","-1","","","21","5303","1288","&#9826;","elianto","#f73b6a7A","-1","-1","1","0","[]","0","0","3","","","","","","","",""
"pit-trial","71","615264","0.0-2.0-14.2-2.2","battery-v0.2","","""event"",""trial"",""time""
""fullscreenenter"",""1"",""2818""
","
","
","""event"",""trial"",""time""
""fullscreenenter"",""1"",""2818""
","
","","","-1","","","21","5303","1288","&#9826;","elianto","#f73b6a7A","-1","-1","1","0","[]","0","0","3","","","","","","","",""
"pit-trial","72","620124","0.0-2.0-14.2-3.2","battery-v0.2","","""event"",""trial"",""time""
""fullscreenenter"",""1"",""2818""
","
","
","""event"",""trial"",""time""
""fullscreenenter"",""1"",""2818""
","
","","","-1","","","21","5303","1288","&#9826;","elianto","#f73b6a7A","-1","-1","1","-10","[]","0","0","3","","","","","","","",""
"pit-trial","73","624982","0.0-2.0-14.2-4.2","battery-v0.2","","""event"",""trial"",""time""
""fullscreenenter"",""1"",""2818""
","
","
","""event"",""trial"",""time""
""fullscreenenter"",""1"",""2818""
","
","","","-1","","","21","5303","1288","&#9826;","elianto","#f73b6a7A","-1","-1","1","0","[]","0","0","3","","","","","","","",""
"pit-trial","74","629841","0.0-2.0-14.3-0.3","battery-v0.2","","""event"",""trial"",""time""
""fullscreenenter"",""1"",""2818""
","
","
","""event"",""trial"",""time""
""fullscreenenter"",""1"",""2818""
","
","","","-1","","","21","5303","1288","&#9826;","elianto","#f73b6a7A","-1","-1","1","0","[]","0","0","3","","","","","","","",""
"pit-trial","75","634700","0.0-2.0-14.3-1.3","battery-v0.2","","""event"",""trial"",""time""
""fullscreenenter"",""1"",""2818""
","
","
","""event"",""trial"",""time""
""fullscreenenter"",""1"",""2818""
","
","","","-1","","","21","5303","1288","&#9826;","elianto","#f73b6a7A","-1","-1","1","0","[]","0","0","3","","","","","","","",""
"pit-trial","76","639559","0.0-2.0-14.3-2.3","battery-v0.2","","""event"",""trial"",""time""
""fullscreenenter"",""1"",""2818""
","
","
","""event"",""trial"",""time""
""fullscreenenter"",""1"",""2818""
","
","","","-1","","","21","5303","1288","&#9826;","elianto","#f73b6a7A","-1","-1","1","0","[]","0","0","3","","","","","","","",""
"pit-trial","77","644418","0.0-2.0-14.3-3.3","battery-v0.2","","""event"",""trial"",""time""
""fullscreenenter"",""1"",""2818""
","
","
","""event"",""trial"",""time""
""fullscreenenter"",""1"",""2818""
","
","","","-1","","","21","5303","1288","&#9826;","elianto","#f73b6a7A","-1","-1","1","-10","[]","0","0","3","","","","","","","",""
"pit-trial","78","649276","0.0-2.0-14.3-4.3","battery-v0.2","","""event"",""trial"",""time""
""fullscreenenter"",""1"",""2818""
","
","
","""event"",""trial"",""time""
""fullscreenenter"",""1"",""2818""
","
","","","-1","","","21","5303","1288","&#9826;","elianto","#f73b6a7A","-1","-1","1","0","[]","0","0","3","","","","","","","",""
"call-function","79","649278","0.0-2.0-15.0","battery-v0.2","","""event"",""trial"",""time""
""fullscreenenter"",""1"",""2818""
","
","
","""event"",""trial"",""time""
""fullscreenenter"",""1"",""2818""
","
","","","","","","","","","","","","","","","","","","","","","","","","","","",""
"pit-instructions","80","672827","0.0-2.0-16.0","battery-v0.2","","""event"",""trial"",""time""
""fullscreenenter"",""1"",""2818""
","
","
","""event"",""trial"",""time""
""fullscreenenter"",""1"",""2818""
","
","","[{""page_index"":0,""viewing_time"":6521.400000035763},{""page_index"":1,""viewing_time"":8186},{""page_index"":2,""viewing_time"":4211.599999964237},{""page_index"":3,""viewing_time"":4628.600000023842}]","23548.100000023842","","","","","","","","","","","","","","","","","","","","","","","",""
"pit-trial","81","676170","0.0-2.0-17.0-0.0","battery-v0.2","","""event"",""trial"",""time""
""fullscreenenter"",""1"",""2818""
","
","
","""event"",""trial"",""time""
""fullscreenenter"",""1"",""2818""
","
","","","486","","","21","5303","1288","&#9789;","elianto","#f73b6a7A"," "," ","1","0","[1338.199999988079]","1","0","4","","","","","","","",""
"pit-trial","82","679382","0.0-2.0-17.0-1.0","battery-v0.2","","""event"",""trial"",""time""
""fullscreenenter"",""1"",""2818""
","
","
","""event"",""trial"",""time""
""fullscreenenter"",""1"",""2818""
","
","","","355.69999998807907","","","21","5303","1288","&#9789;","elianto","#f73b6a7A"," "," ","1","0","[1206.699999988079]","1","0","4","","","","","","","",""
"pit-trial","83","682605","0.0-2.0-17.0-2.0","battery-v0.2","","""event"",""trial"",""time""
""fullscreenenter"",""1"",""2818""
","
","
","""event"",""trial"",""time""
""fullscreenenter"",""1"",""2818""
","
","","","365.9000000357628","","","21","5303","1288","&#9789;","elianto","#f73b6a7A"," "," ","1","0","[1219.8999999761581]","1","0","4","","","","","","","",""
"pit-trial","84","685832","0.0-2.0-17.0-3.0","battery-v0.2","","""event"",""trial"",""time""
""fullscreenenter"",""1"",""2818""
","
","
","""event"",""trial"",""time""
""fullscreenenter"",""1"",""2818""
","
","","","371","","","21","5303","1288","&#9789;","elianto","#f73b6a7A"," "," ","1","-10","[1221.5]","1","0","4","","","","","","","",""
"pit-trial","85","689061","0.0-2.0-17.0-4.0","battery-v0.2","","""event"",""trial"",""time""
""fullscreenenter"",""1"",""2818""
","
","
","""event"",""trial"",""time""
""fullscreenenter"",""1"",""2818""
","
","","","373.7999999523163","","","21","5303","1288","&#9789;","elianto","#f73b6a7A"," "," ","1","0","[1225.699999988079]","1","0","4","","","","","","","",""
"pit-trial","86","692357","0.0-2.0-17.1-0.1","battery-v0.2","","""event"",""trial"",""time""
""fullscreenenter"",""1"",""2818""
","
","
","""event"",""trial"",""time""
""fullscreenenter"",""1"",""2818""
","
","","","438.69999998807907","","","21","5303","1288","&#9789;","elianto","#f73b6a7A"," "," ","1","0","[1289.3999999761581]","1","0","4","","","","","","","",""
"pit-trial","87","695753","0.0-2.0-17.1-1.1","battery-v0.2","","""event"",""trial"",""time""
""fullscreenenter"",""1"",""2818""
","
","
","""event"",""trial"",""time""
""fullscreenenter"",""1"",""2818""
","
","","","537.0999999642372","","","21","5303","1288","&#9789;","elianto","#f73b6a7A"," "," ","1","0","[1392.3999999761581]","1","0","4","","","","","","","",""
"pit-trial","88","699056","0.0-2.0-17.1-2.1","battery-v0.2","","""event"",""trial"",""time""
""fullscreenenter"",""1"",""2818""
","
","
","""event"",""trial"",""time""
""fullscreenenter"",""1"",""2818""
","
","","","448.5999999642372","","","21","5303","1288","&#9789;","elianto","#f73b6a7A"," "," ","1","0","[1299.800000011921]","1","0","4","","","","","","","",""
"pit-trial","89","702313","0.0-2.0-17.1-3.1","battery-v0.2","","""event"",""trial"",""time""
""fullscreenenter"",""1"",""2818""
","
","
","""event"",""trial"",""time""
""fullscreenenter"",""1"",""2818""
","
","","","399.69999998807907","","","21","5303","1288","&#9789;","elianto","#f73b6a7A"," "," ","1","-10","[1252.699999988079]","1","0","4","","","","","","","",""
"pit-trial","90","705391","0.0-2.0-17.1-4.1","battery-v0.2","","""event"",""trial"",""time""
""fullscreenenter"",""1"",""2818""
","
","
","""event"",""trial"",""time""
""fullscreenenter"",""1"",""2818""
","
","","","218.5","","","21","5303","1288","&#9789;","elianto","#f73b6a7A"," "," ","1","0","[1071.5]","1","0","4","","","","","","","",""
"pit-trial","91","708816","0.0-2.0-17.2-0.2","battery-v0.2","","""event"",""trial"",""time""
""fullscreenenter"",""1"",""2818""
","
","
","""event"",""trial"",""time""
""fullscreenenter"",""1"",""2818""
","
","","","568.2999999523163","","","21","5303","1288","&#9789;","elianto","#f73b6a7A"," "," ","1","0","[1419.699999988079]","1","0","4","","","","","","","",""
"pit-trial","92","711922","0.0-2.0-17.2-1.2","battery-v0.2","","""event"",""trial"",""time""
""fullscreenenter"",""1"",""2818""
","
","
","""event"",""trial"",""time""
""fullscreenenter"",""1"",""2818""
","
","","","251.5","","","21","5303","1288","&#9789;","elianto","#f73b6a7A"," "," ","1","0","[1101.5999999642372]","1","0","4","","","","","","","",""
"pit-trial","93","715109","0.0-2.0-17.2-2.2","battery-v0.2","","""event"",""trial"",""time""
""fullscreenenter"",""1"",""2818""
","
","
","""event"",""trial"",""time""
""fullscreenenter"",""1"",""2818""
","
","","","329.60000002384186","","","21","5303","1288","&#9789;","elianto","#f73b6a7A"," "," ","1","0","[1180]","1","0","4","","","","","","","",""
"pit-trial","94","719968","0.0-2.0-17.2-3.2","battery-v0.2","","""event"",""trial"",""time""
""fullscreenenter"",""1"",""2818""
","
","
","""event"",""trial"",""time""
""fullscreenenter"",""1"",""2818""
","
","","","-1","","","21","5303","1288","&#9789;","elianto","#f73b6a7A"," ","-1","0","0","[]","0","0","4","","","","","","","",""
"pit-trial","95","723387","0.0-2.0-17.2-4.2","battery-v0.2","","""event"",""trial"",""time""
""fullscreenenter"",""1"",""2818""
","
","
","""event"",""trial"",""time""
""fullscreenenter"",""1"",""2818""
","
","","","566.1999999880791","","","21","5303","1288","&#9789;","elianto","#f73b6a7A"," "," ","1","0","[1416.199999988079]","1","0","4","","","","","","","",""
"pit-trial","96","726678","0.0-2.0-17.3-0.3","battery-v0.2","","""event"",""trial"",""time""
""fullscreenenter"",""1"",""2818""
","
","
","""event"",""trial"",""time""
""fullscreenenter"",""1"",""2818""
","
","","","419.39999997615814","","","21","5303","1288","&#9789;","elianto","#f73b6a7A"," "," ","1","0","[1285]","1","0","4","","","","","","","",""
"pit-trial","97","729957","0.0-2.0-17.3-1.3","battery-v0.2","","""event"",""trial"",""time""
""fullscreenenter"",""1"",""2818""
","
","
","""event"",""trial"",""time""
""fullscreenenter"",""1"",""2818""
","
","","","419.69999998807907","","","21","5303","1288","&#9789;","elianto","#f73b6a7A"," "," ","1","0","[1271.800000011921]","1","0","4","","","","","","","",""
"pit-trial","98","733212","0.0-2.0-17.3-2.3","battery-v0.2","","""event"",""trial"",""time""
""fullscreenenter"",""1"",""2818""
","
","
","""event"",""trial"",""time""
""fullscreenenter"",""1"",""2818""
","
","","","399.30000001192093","","","21","5303","1288","&#9789;","elianto","#f73b6a7A"," "," ","1","0","[1249.800000011921]","1","0","4","","","","","","","",""
"pit-trial","99","738070","0.0-2.0-17.3-3.3","battery-v0.2","","""event"",""trial"",""time""
""fullscreenenter"",""1"",""2818""
","
","
","""event"",""trial"",""time""
""fullscreenenter"",""1"",""2818""
","
","","","-1","","","21","5303","1288","&#9789;","elianto","#f73b6a7A"," ","-1","0","0","[]","0","0","4","","","","","","","",""
"pit-trial","100","741203","0.0-2.0-17.3-4.3","battery-v0.2","","""event"",""trial"",""time""
""fullscreenenter"",""1"",""2818""
","
","
","""event"",""trial"",""time""
""fullscreenenter"",""1"",""2818""
","
","","","280.69999998807907","","","21","5303","1288","&#9789;","elianto","#f73b6a7A"," "," ","1","0","[1131]","1","0","4","","","","","","","",""
"call-function","101","741205","0.0-2.0-18.0","battery-v0.2","","""event"",""trial"",""time""
""fullscreenenter"",""1"",""2818""
","
","
","""event"",""trial"",""time""
""fullscreenenter"",""1"",""2818""
","
","","","","","","","","","","","","","","","","","","","","","","","","","","",""
"pit-instructions","102","811730","0.0-2.0-19.0","battery-v0.2","","""event"",""trial"",""time""
""fullscreenenter"",""1"",""2818""
","
","
","""event"",""trial"",""time""
""fullscreenenter"",""1"",""2818""
","
","","[{""page_index"":0,""viewing_time"":6497.599999964237},{""page_index"":1,""viewing_time"":5899.900000035763},{""page_index"":2,""viewing_time"":13663.800000011921},{""page_index"":3,""viewing_time"":7636.099999964237},{""page_index"":4,""viewing_time"":8514.100000023842},{""page_index"":5,""viewing_time"":9172.399999976158},{""page_index"":6,""viewing_time"":9369},{""page_index"":7,""viewing_time"":5787.300000011921},{""page_index"":8,""viewing_time"":3982.600000023842}]","70523.5","","","","","","","","","","","","","","","","","","","","","","","",""
"pit-comprehension","103","816364","0.0-2.0-20.0-0.0","battery-v0.2","","""event"",""trial"",""time""
""fullscreenenter"",""1"",""2818""
","
","
","""event"",""trial"",""time""
""fullscreenenter"",""1"",""2818""
","
","","","4631.700000047684","[""SPACE""]","0","21","5303","1288","","","","","","","","","","","","","","","","","","",""
"pit-instructions","104","818924","0.0-2.0-20.0-1.0","battery-v0.2","","""event"",""trial"",""time""
""fullscreenenter"",""1"",""2818""
","
","
","""event"",""trial"",""time""
""fullscreenenter"",""1"",""2818""
","
","","[{""page_index"":0,""viewing_time"":2525.5}]","2525.800000011921","","","","","","","","","","","","","","","","","","","","","","","",""
"pit-comprehension","105","823535","0.0-2.0-21.0-0.0","battery-v0.2","","""event"",""trial"",""time""
""fullscreenenter"",""1"",""2818""
","
","
","""event"",""trial"",""time""
""fullscreenenter"",""1"",""2818""
","
","","","4607","[""10""]","0","21","5303","1288","","","","","","","","","","","","","","","","","","",""
"pit-instructions","106","825608","0.0-2.0-21.0-1.0","battery-v0.2","","""event"",""trial"",""time""
""fullscreenenter"",""1"",""2818""
","
","
","""event"",""trial"",""time""
""fullscreenenter"",""1"",""2818""
","
","","[{""page_index"":0,""viewing_time"":2035.0999999642372}]","2035.3999999761581","","","","","","","","","","","","","","","","","","","","","","","",""
"pit-comprehension","107","832361","0.0-2.0-22.0-0.0","battery-v0.2","","""event"",""trial"",""time""
""fullscreenenter"",""1"",""2818""
","
","
","""event"",""trial"",""time""
""fullscreenenter"",""1"",""2818""
","
","","","6749.100000023842","[""0""]","0","21","5303","1288","","","","","","","","","","","","","","","","","","",""
"pit-instructions","108","834132","0.0-2.0-22.0-1.0","battery-v0.2","","""event"",""trial"",""time""
""fullscreenenter"",""1"",""2818""
","
","
","""event"",""trial"",""time""
""fullscreenenter"",""1"",""2818""
","
","","[{""page_index"":0,""viewing_time"":1738.199999988079}]","1738.5","","","","","","","","","","","","","","","","","","","","","","","",""
"pit-comprehension","109","842629","0.0-2.0-23.0-0.0","battery-v0.2","","""event"",""trial"",""time""
""fullscreenenter"",""1"",""2818""
","
","
","""event"",""trial"",""time""
""fullscreenenter"",""1"",""2818""
","
","","","8493.800000011921","[""True""]","0","21","5303","1288","","","","","","","","","","","","","","","","","","",""
"pit-instructions","110","844259","0.0-2.0-23.0-1.0","battery-v0.2","","""event"",""trial"",""time""
""fullscreenenter"",""1"",""2818""
","
","
","""event"",""trial"",""time""
""fullscreenenter"",""1"",""2818""
","
","","[{""page_index"":0,""viewing_time"":1595.5}]","1596","","","","","","","","","","","","","","","","","","","","","","","",""
"pit-comprehension","111","851802","0.0-2.0-24.0-0.0","battery-v0.2","","""event"",""trial"",""time""
""fullscreenenter"",""1"",""2818""
","
","
","""event"",""trial"",""time""
""fullscreenenter"",""1"",""2818""
","
","","","7540.5","[""True""]","0","21","5303","1288","","","","","","","","","","","","","","","","","","",""
"pit-instructions","112","853568","0.0-2.0-24.0-1.0","battery-v0.2","","""event"",""trial"",""time""
""fullscreenenter"",""1"",""2818""
","
","
","""event"",""trial"",""time""
""fullscreenenter"",""1"",""2818""
","
","","[{""page_index"":0,""viewing_time"":1732}]","1732.5","","","","","","","","","","","","","","","","","","","","","","","",""
"pit-comprehension","113","860021","0.0-2.0-25.0-0.0","battery-v0.2","","""event"",""trial"",""time""
""fullscreenenter"",""1"",""2818""
","
","
","""event"",""trial"",""time""
""fullscreenenter"",""1"",""2818""
","
","","","6449.799999952316","[""True""]","0","21","5303","1288","","","","","","","","","","","","","","","","","","",""
"pit-instructions","114","861572","0.0-2.0-25.0-1.0","battery-v0.2","","""event"",""trial"",""time""
""fullscreenenter"",""1"",""2818""
","
","
","""event"",""trial"",""time""
""fullscreenenter"",""1"",""2818""
","
","","[{""page_index"":0,""viewing_time"":1517.5999999642372}]","1517.800000011921","","","","","","","","","","","","","","","","","","","","","","","",""
"pit-comprehension","115","866052","0.0-2.0-26.0-0.0","battery-v0.2","","""event"",""trial"",""time""
""fullscreenenter"",""1"",""2818""
","
","
","""event"",""trial"",""time""
""fullscreenenter"",""1"",""2818""
","
","","","4477.100000023842","[""False""]","0","21","5303","1288","","","","","","","","","","","","","","","","","","",""
"pit-instructions","116","867643","0.0-2.0-26.0-1.0","battery-v0.2","","""event"",""trial"",""time""
""fullscreenenter"",""1"",""2818""
","
","
","""event"",""trial"",""time""
""fullscreenenter"",""1"",""2818""
","
","","[{""page_index"":0,""viewing_time"":1557.199999988079}]","1557.699999988079","","","","","","","","","","","","","","","","","","","","","","","",""
"pit-instructions","117","886023","0.0-3.0","battery-v0.2","","""event"",""trial"",""time""
""fullscreenenter"",""1"",""2818""
","
","
","""event"",""trial"",""time""
""fullscreenenter"",""1"",""2818""
","
","","[{""page_index"":0,""viewing_time"":3666.599999964237},{""page_index"":1,""viewing_time"":6811.900000035763},{""page_index"":2,""viewing_time"":7899.099999964237}]","18378","","","","","","","","","","","","","","","","","","","","","","","",""
"pit-trial","118","889401","0.0-4.0","battery-v0.2","","""event"",""trial"",""time""
""fullscreenenter"",""1"",""2818""
","
","
","""event"",""trial"",""time""
""fullscreenenter"",""1"",""2818""
","
","","","519.3999999761581","","","21","5303","1288","&#9752;","elianto","#f73b6a7A"," "," ","1","-10","[1370.0999999642372]","1","1","","","5303","1","3","3","lose","go","1"
"pit-trial","119","893089","0.0-5.0","battery-v0.2","","""event"",""trial"",""time""
""fullscreenenter"",""1"",""2818""
","
","
","""event"",""trial"",""time""
""fullscreenenter"",""1"",""2818""
","
","","","750.0999999642372","","","21","5303","1288","&#9733;","elianto","#3366ff99","-1"," ","0","0","[1606.699999988079]","1","1","","","5303","2","2","2","win","no-go","0"
"pit-trial","120","896713","0.0-6.0","battery-v0.2","","""event"",""trial"",""time""
""fullscreenenter"",""1"",""2818""
","
","
","""event"",""trial"",""time""
""fullscreenenter"",""1"",""2818""
","
","","","764","","","21","5303","1288","&#9730;","elianto","#3366ff99"," "," ","1","0","[1620.2999999523163]","1","1","","","5303","3","1","1","win","go","1"
"pit-trial","121","900394","0.0-7.0","battery-v0.2","","""event"",""trial"",""time""
""fullscreenenter"",""1"",""2818""
","
","
","""event"",""trial"",""time""
""fullscreenenter"",""1"",""2818""
","
","","","824.1999999880791","","","21","5303","1288","&#9728;","elianto","#f73b6a7A","-1"," ","0","0","[1674.5]","1","1","","","5303","4","0","4","lose","no-go","1"
"pit-trial","122","905252","0.0-8.0","battery-v0.2","","""event"",""trial"",""time""
""fullscreenenter"",""1"",""2818""
","
","
","""event"",""trial"",""time""
""fullscreenenter"",""1"",""2818""
","
","","","-1","","","21","5303","1288","&#9730;","elianto","#3366ff99"," ","-1","0","0","[]","0","1","","","5303","5","1","1","win","go","0"
"pit-trial","123","910106","0.0-9.0","battery-v0.2","","""event"",""trial"",""time""
""fullscreenenter"",""1"",""2818""
","
","
","""event"",""trial"",""time""
""fullscreenenter"",""1"",""2818""
","
","","","-1","","","21","5303","1288","&#9733;","elianto","#3366ff99","-1","-1","1","0","[]","0","1","","","5303","6","2","2","win","no-go","1"
"pit-trial","124","914964","0.0-10.0","battery-v0.2","","""event"",""trial"",""time""
""fullscreenenter"",""1"",""2818""
","
","
","""event"",""trial"",""time""
""fullscreenenter"",""1"",""2818""
","
","","","-1","","","21","5303","1288","&#9752;","elianto","#f73b6a7A"," ","-1","0","-10","[]","0","1","","","5303","7","3","3","lose","go","0"
"pit-trial","125","918611","0.0-11.0","battery-v0.2","","""event"",""trial"",""time""
""fullscreenenter"",""1"",""2818""
","
","
","""event"",""trial"",""time""
""fullscreenenter"",""1"",""2818""
","
","","","794.8000000119209","","","21","5303","1288","&#9728;","elianto","#f73b6a7A","-1"," ","0","-10","[1644.8999999761581]","1","1","","","5303","8","0","4","lose","no-go","0"
"pit-trial","126","922640","0.0-12.0","battery-v0.2","","""event"",""trial"",""time""
""fullscreenenter"",""1"",""2818""
","
","
","""event"",""trial"",""time""
""fullscreenenter"",""1"",""2818""
","
","","","1173.699999988079","","","21","5303","1288","&#9730;","elianto","#3366ff99"," "," ","1","+10","[2024]","1","1","","","5303","9","1","1","win","go","0"
"pit-trial","127","927499","0.0-13.0","battery-v0.2","","""event"",""trial"",""time""
""fullscreenenter"",""1"",""2818""
","
","
","""event"",""trial"",""time""
""fullscreenenter"",""1"",""2818""
","
","","","-1","","","21","5303","1288","&#9728;","elianto","#f73b6a7A","-1","-1","1","0","[]","0","1","","","5303","10","0","4","lose","no-go","0"
"pit-trial","128","932357","0.0-14.0","battery-v0.2","","""event"",""trial"",""time""
""fullscreenenter"",""1"",""2818""
","
","
","""event"",""trial"",""time""
""fullscreenenter"",""1"",""2818""
","
","","","-1","","","21","5303","1288","&#9752;","elianto","#f73b6a7A"," ","-1","0","-10","[]","0","1","","","5303","11","3","3","lose","go","0"
"pit-trial","129","936363","0.0-15.0","battery-v0.2","","""event"",""trial"",""time""
""fullscreenenter"",""1"",""2818""
","
","
","""event"",""trial"",""time""
""fullscreenenter"",""1"",""2818""
","
","","","1152.300000011921","","","21","5303","1288","&#9733;","elianto","#3366ff99","-1"," ","0","0","[2002.5999999642372]","1","1","","","5303","12","2","2","win","no-go","0"
"pit-trial","130","940119","0.0-16.0","battery-v0.2","","""event"",""trial"",""time""
""fullscreenenter"",""1"",""2818""
","
","
","""event"",""trial"",""time""
""fullscreenenter"",""1"",""2818""
","
","","","896.5","","","21","5303","1288","&#9730;","elianto","#3366ff99"," "," ","1","+10","[1748.199999988079]","1","1","","","5303","13","1","1","win","go","0"
"pit-trial","131","944369","0.0-17.0","battery-v0.2","","""event"",""trial"",""time""
""fullscreenenter"",""1"",""2818""
","
","
","""event"",""trial"",""time""
""fullscreenenter"",""1"",""2818""
","
","","","1386.300000011921","","","21","5303","1288","&#9733;","elianto","#3366ff99","-1"," ","0","+10","[2243]","1","1","","","5303","14","2","2","win","no-go","1"
"pit-trial","132","949228","0.0-18.0","battery-v0.2","","""event"",""trial"",""time""
""fullscreenenter"",""1"",""2818""
","
","
","""event"",""trial"",""time""
""fullscreenenter"",""1"",""2818""
","
","","","-1","","","21","5303","1288","&#9728;","elianto","#f73b6a7A","-1","-1","1","-10","[]","0","1","","","5303","15","0","4","lose","no-go","1"
"pit-trial","133","954087","0.0-19.0","battery-v0.2","","""event"",""trial"",""time""
""fullscreenenter"",""1"",""2818""
","
","
","""event"",""trial"",""time""
""fullscreenenter"",""1"",""2818""
","
","","","-1","","","21","5303","1288","&#9752;","elianto","#f73b6a7A"," ","-1","0","-10","[]","0","1","","","5303","16","3","3","lose","go","0"
"pit-trial","134","957645","0.0-20.0","battery-v0.2","","""event"",""trial"",""time""
""fullscreenenter"",""1"",""2818""
","
","
","""event"",""trial"",""time""
""fullscreenenter"",""1"",""2818""
","
","","","703.7000000476837","","","21","5303","1288","&#9733;","elianto","#3366ff99","-1"," ","0","0","[1555.2000000476837]","1","1","","","5303","17","2","2","win","no-go","0"
"pit-trial","135","962504","0.0-21.0","battery-v0.2","","""event"",""trial"",""time""
""fullscreenenter"",""1"",""2818""
","
","
","""event"",""trial"",""time""
""fullscreenenter"",""1"",""2818""
","
","","","-1","","","21","5303","1288","&#9752;","elianto","#f73b6a7A"," ","-1","0","-10","[]","0","1","","","5303","18","3","3","lose","go","0"
"pit-trial","136","966059","0.0-22.0","battery-v0.2","","""event"",""trial"",""time""
""fullscreenenter"",""1"",""2818""
","
","
","""event"",""trial"",""time""
""fullscreenenter"",""1"",""2818""
","
","","","700.6999999880791","","","21","5303","1288","&#9730;","elianto","#3366ff99"," "," ","1","0","[1551.5]","1","1","","","5303","19","1","1","win","go","1"
"pit-trial","137","970916","0.0-23.0","battery-v0.2","","""event"",""trial"",""time""
""fullscreenenter"",""1"",""2818""
","
","
","""event"",""trial"",""time""
""fullscreenenter"",""1"",""2818""
","
","","","-1","","","21","5303","1288","&#9728;","elianto","#f73b6a7A","-1","-1","1","0","[]","0","1","","","5303","20","0","4","lose","no-go","0"
"pit-instructions","138","983663","0.0-24.0","battery-v0.2","","""event"",""trial"",""time""
""fullscreenenter"",""1"",""2818""
","
","
","""event"",""trial"",""time""
""fullscreenenter"",""1"",""2818""
","
","","[{""page_index"":0,""viewing_time"":5819.900000035763},{""page_index"":1,""viewing_time"":6925.099999964237}]","12745.400000035763","","","","","","","","","","","","","","","","","","","","","","","",""
"pit-trial","139","987285","0.0-25.0","battery-v0.2","","""event"",""trial"",""time""
""fullscreenenter"",""1"",""2818""
","
","
","""event"",""trial"",""time""
""fullscreenenter"",""1"",""2818""
","
","","","762.3999999761581","","","21","5303","1288","l","elianto","#3366ff99","-1"," ","0","+10","[1614.800000011921]","1","2","","","5303","21","1","2","win","no-go","1"
"pit-trial","140","991647","0.0-26.0","battery-v0.2","","""event"",""trial"",""time""
""fullscreenenter"",""1"",""2818""
","
","
","""event"",""trial"",""time""
""fullscreenenter"",""1"",""2818""
","
","","","1506","","","21","5303","1288","a","elianto","#f73b6a7A"," "," ","1","0","[2356.300000011921]","1","2","","","5303","22","2","3","lose","go","0"
"pit-trial","141","995280","0.0-27.0","battery-v0.2","","""event"",""trial"",""time""
""fullscreenenter"",""1"",""2818""
","
","
","""event"",""trial"",""time""
""fullscreenenter"",""1"",""2818""
","
","","","778.0999999642372","","","21","5303","1288","g","elianto","#f73b6a7A","-1"," ","0","0","[1630.1000000238419]","1","2","","","5303","23","3","4","lose","no-go","1"
"pit-trial","142","999129","0.0-28.0","battery-v0.2","","""event"",""trial"",""time""
""fullscreenenter"",""1"",""2818""
","
","
","""event"",""trial"",""time""
""fullscreenenter"",""1"",""2818""
","
","","","986.6000000238419","","","21","5303","1288","u","elianto","#f73b6a7A"," "," ","1","0","[1843.800000011921]","1","2","","","5303","24","0","3","lose","go","0"
"pit-trial","143","1002827","0.0-29.0","battery-v0.2","","""event"",""trial"",""time""
""fullscreenenter"",""1"",""2818""
","
","
","""event"",""trial"",""time""
""fullscreenenter"",""1"",""2818""
","
","","","839.1999999880791","","","21","5303","1288","g","elianto","#f73b6a7A","-1"," ","0","-10","[1691.2000000476837]","1","2","","","5303","25","3","4","lose","no-go","0"
"pit-trial","144","1006330","0.0-30.0","battery-v0.2","","""event"",""trial"",""time""
""fullscreenenter"",""1"",""2818""
","
","
","""event"",""trial"",""time""
""fullscreenenter"",""1"",""2818""
","
","","","646.6000000238419","","","21","5303","1288","a","elianto","#f73b6a7A"," "," ","1","0","[1497]","1","2","","","5303","26","2","3","lose","go","0"
"pit-trial","145","1010229","0.0-31.0","battery-v0.2","","""event"",""trial"",""time""
""fullscreenenter"",""1"",""2818""
","
","
","""event"",""trial"",""time""
""fullscreenenter"",""1"",""2818""
","
","","","1042.9000000357628","","","21","5303","1288","l","elianto","#3366ff99","-1"," ","0","0","[1893.199999988079]","1","2","","","5303","27","1","2","win","no-go","0"
"pit-trial","146","1014153","0.0-32.0","battery-v0.2","","""event"",""trial"",""time""
""fullscreenenter"",""1"",""2818""
","
","
","""event"",""trial"",""time""
""fullscreenenter"",""1"",""2818""
","
","","","1066.5","","","21","5303","1288","u","elianto","#f73b6a7A"," "," ","1","0","[1917.699999988079]","1","2","","","5303","28","0","3","lose","go","0"
"pit-trial","147","1019013","0.0-33.0","battery-v0.2","","""event"",""trial"",""time""
""fullscreenenter"",""1"",""2818""
","
","
","""event"",""trial"",""time""
""fullscreenenter"",""1"",""2818""
","
","","","-1","","","21","5303","1288","l","elianto","#3366ff99","-1","-1","1","0","[]","0","2","","","5303","29","1","2","win","no-go","1"
"pit-trial","148","1023871","0.0-34.0","battery-v0.2","","""event"",""trial"",""time""
""fullscreenenter"",""1"",""2818""
","
","
","""event"",""trial"",""time""
""fullscreenenter"",""1"",""2818""
","
","","","-1","","","21","5303","1288","g","elianto","#f73b6a7A","-1","-1","1","0","[]","0","2","","","5303","30","3","4","lose","no-go","0"
"pit-trial","149","1027401","0.0-35.0","battery-v0.2","","""event"",""trial"",""time""
""fullscreenenter"",""1"",""2818""
","
","
","""event"",""trial"",""time""
""fullscreenenter"",""1"",""2818""
","
","","","675.3000000119209","","","21","5303","1288","a","elianto","#f73b6a7A"," "," ","1","0","[1526.800000011921]","1","2","","","5303","31","2","3","lose","go","0"
"pit-trial","150","1031465","0.0-36.0","battery-v0.2","","""event"",""trial"",""time""
""fullscreenenter"",""1"",""2818""
","
","
","""event"",""trial"",""time""
""fullscreenenter"",""1"",""2818""
","
","","","1209.4000000357628","","","21","5303","1288","u","elianto","#f73b6a7A"," "," ","1","0","[2059.599999964237]","1","2","","","5303","32","0","3","lose","go","0"
"pit-trial","151","1036324","0.0-37.0","battery-v0.2","","""event"",""trial"",""time""
""fullscreenenter"",""1"",""2818""
","
","
","""event"",""trial"",""time""
""fullscreenenter"",""1"",""2818""
","
","","","-1","","","21","5303","1288","g","elianto","#f73b6a7A","-1","-1","1","0","[]","0","2","","","5303","33","3","4","lose","no-go","0"
"pit-trial","152","1040318","0.0-38.0","battery-v0.2","","""event"",""trial"",""time""
""fullscreenenter"",""1"",""2818""
","
","
","""event"",""trial"",""time""
""fullscreenenter"",""1"",""2818""
","
","","","1136.7000000476837","","","21","5303","1288","u","elianto","#f73b6a7A"," "," ","1","0","[1986.9000000357628]","1","2","","","5303","34","0","3","lose","go","0"
"pit-trial","153","1044039","0.0-39.0","battery-v0.2","","""event"",""trial"",""time""
""fullscreenenter"",""1"",""2818""
","
","
","""event"",""trial"",""time""
""fullscreenenter"",""1"",""2818""
","
","","","866","","","21","5303","1288","l","elianto","#3366ff99","-1"," ","0","0","[1716.300000011921]","1","2","","","5303","35","1","2","win","no-go","0"
"pit-trial","154","1047615","0.0-40.0","battery-v0.2","","""event"",""trial"",""time""
""fullscreenenter"",""1"",""2818""
","
","
","""event"",""trial"",""time""
""fullscreenenter"",""1"",""2818""
","
","","","716.5","","","21","5303","1288","a","elianto","#f73b6a7A"," "," ","1","0","[1570]","1","2","","","5303","36","2","3","lose","go","0"
"pit-trial","155","1052477","0.0-41.0","battery-v0.2","","""event"",""trial"",""time""
""fullscreenenter"",""1"",""2818""
","
","
","""event"",""trial"",""time""
""fullscreenenter"",""1"",""2818""
","
","","","-1","","","21","5303","1288","l","elianto","#3366ff99","-1","-1","1","+10","[]","0","2","","","5303","37","1","2","win","no-go","0"
"pit-trial","156","1056247","0.0-42.0","battery-v0.2","","""event"",""trial"",""time""
""fullscreenenter"",""1"",""2818""
","
","
","""event"",""trial"",""time""
""fullscreenenter"",""1"",""2818""
","
","","","912.5999999642372","","","21","5303","1288","u","elianto","#f73b6a7A"," "," ","1","0","[1763.699999988079]","1","2","","","5303","38","0","3","lose","go","0"
"pit-trial","157","1059876","0.0-43.0","battery-v0.2","","""event"",""trial"",""time""
""fullscreenenter"",""1"",""2818""
","
","
","""event"",""trial"",""time""
""fullscreenenter"",""1"",""2818""
","
","","","775.1000000238419","","","21","5303","1288","a","elianto","#f73b6a7A"," "," ","1","0","[1625.5]","1","2","","","5303","39","2","3","lose","go","0"
"pit-trial","158","1064734","0.0-44.0","battery-v0.2","","""event"",""trial"",""time""
""fullscreenenter"",""1"",""2818""
","
","
","""event"",""trial"",""time""
""fullscreenenter"",""1"",""2818""
","
","","","-1","","","21","5303","1288","g","elianto","#f73b6a7A","-1","-1","1","0","[]","0","2","","","5303","40","3","4","lose","no-go","0"
"pit-trial","159","1068240","0.0-45.0","battery-v0.2","","""event"",""trial"",""time""
""fullscreenenter"",""1"",""2818""
","
","
","""event"",""trial"",""time""
""fullscreenenter"",""1"",""2818""
","
","","","652.5","","","21","5303","1288","a","elianto","#f73b6a7A"," "," ","1","0","[1502.699999988079]","1","2","","","5303","41","2","3","lose","go","0"
"pit-trial","160","1071648","0.0-46.0","battery-v0.2","","""event"",""trial"",""time""
""fullscreenenter"",""1"",""2818""
","
","
","""event"",""trial"",""time""
""fullscreenenter"",""1"",""2818""
","
","","","552","","","21","5303","1288","u","elianto","#f73b6a7A"," "," ","1","0","[1403]","1","2","","","5303","42","0","3","lose","go","0"
"pit-trial","161","1076507","0.0-47.0","battery-v0.2","","""event"",""trial"",""time""
""fullscreenenter"",""1"",""2818""
","
","
","""event"",""trial"",""time""
""fullscreenenter"",""1"",""2818""
","
","","","-1","","","21","5303","1288","l","elianto","#3366ff99","-1","-1","1","+10","[]","0","2","","","5303","43","1","2","win","no-go","0"
"pit-trial","162","1081366","0.0-48.0","battery-v0.2","","""event"",""trial"",""time""
""fullscreenenter"",""1"",""2818""
","
","
","""event"",""trial"",""time""
""fullscreenenter"",""1"",""2818""
","
","","","-1","","","21","5303","1288","g","elianto","#f73b6a7A","-1","-1","1","-10","[]","0","2","","","5303","44","3","4","lose","no-go","1"
"pit-trial","163","1084884","0.0-49.0","battery-v0.2","","""event"",""trial"",""time""
""fullscreenenter"",""1"",""2818""
","
","
","""event"",""trial"",""time""
""fullscreenenter"",""1"",""2818""
","
","","","661.6999999880791","","","21","5303","1288","a","elianto","#f73b6a7A"," "," ","1","0","[1514]","1","2","","","5303","45","2","3","lose","go","0"
"pit-trial","164","1089743","0.0-50.0","battery-v0.2","","""event"",""trial"",""time""
""fullscreenenter"",""1"",""2818""
","
","
","""event"",""trial"",""time""
""fullscreenenter"",""1"",""2818""
","
","","","-1","","","21","5303","1288","g","elianto","#f73b6a7A","-1","-1","1","0","[]","0","2","","","5303","46","3","4","lose","no-go","0"
"pit-trial","165","1093679","0.0-51.0","battery-v0.2","","""event"",""trial"",""time""
""fullscreenenter"",""1"",""2818""
","
","
","""event"",""trial"",""time""
""fullscreenenter"",""1"",""2818""
","
","","","1078.699999988079","","","21","5303","1288","u","elianto","#f73b6a7A"," "," ","1","0","[1929.2999999523163]","1","2","","","5303","47","0","3","lose","go","0"
"pit-trial","166","1098540","0.0-52.0","battery-v0.2","","""event"",""trial"",""time""
""fullscreenenter"",""1"",""2818""
","
","
","""event"",""trial"",""time""
""fullscreenenter"",""1"",""2818""
","
","","","-1","","","21","5303","1288","l","elianto","#3366ff99","-1","-1","1","+10","[]","0","2","","","5303","48","1","2","win","no-go","0"
"pit-trial","167","1102346","0.0-53.0","battery-v0.2","","""event"",""trial"",""time""
""fullscreenenter"",""1"",""2818""
","
","
","""event"",""trial"",""time""
""fullscreenenter"",""1"",""2818""
","
","","","948.8000000119209","","","21","5303","1288","u","elianto","#f73b6a7A"," "," ","1","0","[1799]","1","2","","","5303","49","0","3","lose","go","0"
"pit-trial","168","1107207","0.0-54.0","battery-v0.2","","""event"",""trial"",""time""
""fullscreenenter"",""1"",""2818""
","
","
","""event"",""trial"",""time""
""fullscreenenter"",""1"",""2818""
","
","","","-1","","","21","5303","1288","g","elianto","#f73b6a7A","-1","-1","1","0","[]","0","2","","","5303","50","3","4","lose","no-go","0"
"pit-trial","169","1110955","0.0-55.0","battery-v0.2","","""event"",""trial"",""time""
""fullscreenenter"",""1"",""2818""
","
","
","""event"",""trial"",""time""
""fullscreenenter"",""1"",""2818""
","
","","","886.6999999880791","","","21","5303","1288","a","elianto","#f73b6a7A"," "," ","1","0","[1744.699999988079]","1","2","","","5303","51","2","3","lose","go","0"
"pit-trial","170","1115813","0.0-56.0","battery-v0.2","","""event"",""trial"",""time""
""fullscreenenter"",""1"",""2818""
","
","
","""event"",""trial"",""time""
""fullscreenenter"",""1"",""2818""
","
","","","-1","","","21","5303","1288","l","elianto","#3366ff99","-1","-1","1","+10","[]","0","2","","","5303","52","1","2","win","no-go","0"
"pit-trial","171","1119448","0.0-57.0","battery-v0.2","","""event"",""trial"",""time""
""fullscreenenter"",""1"",""2818""
","
","
","""event"",""trial"",""time""
""fullscreenenter"",""1"",""2818""
","
","","","778.3000000119209","","","21","5303","1288","u","elianto","#f73b6a7A"," "," ","1","0","[1629.300000011921]","1","2","","","5303","53","0","3","lose","go","0"
"pit-trial","172","1124307","0.0-58.0","battery-v0.2","","""event"",""trial"",""time""
""fullscreenenter"",""1"",""2818""
","
","
","""event"",""trial"",""time""
""fullscreenenter"",""1"",""2818""
","
","","","-1","","","21","5303","1288","g","elianto","#f73b6a7A","-1","-1","1","0","[]","0","2","","","5303","54","3","4","lose","no-go","0"
"pit-trial","173","1128097","0.0-59.0","battery-v0.2","","""event"",""trial"",""time""
""fullscreenenter"",""1"",""2818""
","
","
","""event"",""trial"",""time""
""fullscreenenter"",""1"",""2818""
","
","","","932.3999999761581","","","21","5303","1288","a","elianto","#f73b6a7A"," "," ","1","-10","[1784]","1","2","","","5303","55","2","3","lose","go","1"
"pit-trial","174","1132956","0.0-60.0","battery-v0.2","","""event"",""trial"",""time""
""fullscreenenter"",""1"",""2818""
","
","
","""event"",""trial"",""time""
""fullscreenenter"",""1"",""2818""
","
","","","-1","","","21","5303","1288","l","elianto","#3366ff99","-1","-1","1","+10","[]","0","2","","","5303","56","1","2","win","no-go","0"
"pit-trial","175","1137815","0.0-61.0","battery-v0.2","","""event"",""trial"",""time""
""fullscreenenter"",""1"",""2818""
","
","
","""event"",""trial"",""time""
""fullscreenenter"",""1"",""2818""
","
","","","-1","","","21","5303","1288","g","elianto","#f73b6a7A","-1","-1","1","0","[]","0","2","","","5303","57","3","4","lose","no-go","0"
"pit-trial","176","1141641","0.0-62.0","battery-v0.2","","""event"",""trial"",""time""
""fullscreenenter"",""1"",""2818""
","
","
","""event"",""trial"",""time""
""fullscreenenter"",""1"",""2818""
","
","","","948.6000000238419","","","21","5303","1288","a","elianto","#f73b6a7A"," "," ","1","0","[1819.699999988079]","1","2","","","5303","58","2","3","lose","go","0"
"pit-trial","177","1145717","0.0-63.0","battery-v0.2","","""event"",""trial"",""time""
""fullscreenenter"",""1"",""2818""
","
","
","""event"",""trial"",""time""
""fullscreenenter"",""1"",""2818""
","
","","","1218.6000000238419","","","21","5303","1288","p","elianto","#3366ff99"," "," ","1","+10","[2068.800000011921]","1","2","","","5303","59","4","1","win","go","0"
"pit-trial","178","1150395","0.0-64.0","battery-v0.2","","""event"",""trial"",""time""
""fullscreenenter"",""1"",""2818""
","
","
","""event"",""trial"",""time""
""fullscreenenter"",""1"",""2818""
","
","","","1821.1000000238419","","","21","5303","1288","u","elianto","#f73b6a7A"," "," ","1","0","[2672.300000011921]","1","2","","","5303","60","0","3","lose","go","0"
"pit-trial","179","1155254","0.0-65.0","battery-v0.2","","""event"",""trial"",""time""
""fullscreenenter"",""1"",""2818""
","
","
","""event"",""trial"",""time""
""fullscreenenter"",""1"",""2818""
","
","","","-1","","","21","5303","1288","l","elianto","#3366ff99","-1","-1","1","0","[]","0","2","","","5303","61","1","2","win","no-go","1"
"pit-trial","180","1158784","0.0-66.0","battery-v0.2","","""event"",""trial"",""time""
""fullscreenenter"",""1"",""2818""
","
","
","""event"",""trial"",""time""
""fullscreenenter"",""1"",""2818""
","
","","","673.5","","","21","5303","1288","p","elianto","#3366ff99"," "," ","1","+10","[1525.199999988079]","1","2","","","5303","62","4","1","win","go","0"
"pit-trial","181","1163643","0.0-67.0","battery-v0.2","","""event"",""trial"",""time""
""fullscreenenter"",""1"",""2818""
","
","
","""event"",""trial"",""time""
""fullscreenenter"",""1"",""2818""
","
","","","-1","","","21","5303","1288","g","elianto","#f73b6a7A","-1","-1","1","0","[]","0","2","","","5303","63","3","4","lose","no-go","0"
"pit-trial","182","1167347","0.0-68.0","battery-v0.2","","""event"",""trial"",""time""
""fullscreenenter"",""1"",""2818""
","
","
","""event"",""trial"",""time""
""fullscreenenter"",""1"",""2818""
","
","","","849.5999999642372","","","21","5303","1288","a","elianto","#f73b6a7A"," "," ","1","-10","[1700.699999988079]","1","2","","","5303","64","2","3","lose","go","1"
"pit-trial","183","1172205","0.0-69.0","battery-v0.2","","""event"",""trial"",""time""
""fullscreenenter"",""1"",""2818""
","
","
","""event"",""trial"",""time""
""fullscreenenter"",""1"",""2818""
","
","","","-1","","","21","5303","1288","l","elianto","#3366ff99","-1","-1","1","0","[]","0","2","","","5303","65","1","2","win","no-go","1"
"pit-trial","184","1176246","0.0-70.0","battery-v0.2","","""event"",""trial"",""time""
""fullscreenenter"",""1"",""2818""
","
","
","""event"",""trial"",""time""
""fullscreenenter"",""1"",""2818""
","
","","","1184.4000000357628","","","21","5303","1288","s","elianto","#3366ff99","-1"," ","0","+10","[2034.3999999761581]","1","2","","","5303","66","5","2","win","no-go","1"
"pit-trial","185","1181104","0.0-71.0","battery-v0.2","","""event"",""trial"",""time""
""fullscreenenter"",""1"",""2818""
","
","
","""event"",""trial"",""time""
""fullscreenenter"",""1"",""2818""
","
","","","-1","","","21","5303","1288","g","elianto","#f73b6a7A","-1","-1","1","0","[]","0","2","","","5303","67","3","4","lose","no-go","0"
"pit-trial","186","1184863","0.0-72.0","battery-v0.2","","""event"",""trial"",""time""
""fullscreenenter"",""1"",""2818""
","
","
","""event"",""trial"",""time""
""fullscreenenter"",""1"",""2818""
","
","","","902.9000000357628","","","21","5303","1288","p","elianto","#3366ff99"," "," ","1","0","[1754.199999988079]","1","2","","","5303","68","4","1","win","go","1"
"pit-trial","187","1188762","0.0-73.0","battery-v0.2","","""event"",""trial"",""time""
""fullscreenenter"",""1"",""2818""
","
","
","""event"",""trial"",""time""
""fullscreenenter"",""1"",""2818""
","
","","","1041.4000000357628","","","21","5303","1288","p","elianto","#3366ff99"," "," ","1","+10","[1893.2000000476837]","1","2","","","5303","69","4","1","win","go","0"
"pit-trial","188","1193621","0.0-74.0","battery-v0.2","","""event"",""trial"",""time""
""fullscreenenter"",""1"",""2818""
","
","
","""event"",""trial"",""time""
""fullscreenenter"",""1"",""2818""
","
","","","-1","","","21","5303","1288","l","elianto","#3366ff99","-1","-1","1","+10","[]","0","2","","","5303","70","1","2","win","no-go","0"
"pit-trial","189","1197693","0.0-75.0","battery-v0.2","","""event"",""trial"",""time""
""fullscreenenter"",""1"",""2818""
","
","
","""event"",""trial"",""time""
""fullscreenenter"",""1"",""2818""
","
","","","1216.5","","","21","5303","1288","s","elianto","#3366ff99","-1"," ","0","0","[2067.5]","1","2","","","5303","71","5","2","win","no-go","0"
"pit-trial","190","1201585","0.0-76.0","battery-v0.2","","""event"",""trial"",""time""
""fullscreenenter"",""1"",""2818""
","
","
","""event"",""trial"",""time""
""fullscreenenter"",""1"",""2818""
","
","","","1034.9000000357628","","","21","5303","1288","a","elianto","#f73b6a7A"," "," ","1","0","[1887.5]","1","2","","","5303","72","2","3","lose","go","0"
"pit-trial","191","1206444","0.0-77.0","battery-v0.2","","""event"",""trial"",""time""
""fullscreenenter"",""1"",""2818""
","
","
","""event"",""trial"",""time""
""fullscreenenter"",""1"",""2818""
","
","","","-1","","","21","5303","1288","s","elianto","#3366ff99","-1","-1","1","+10","[]","0","2","","","5303","73","5","2","win","no-go","0"
"pit-trial","192","1211303","0.0-78.0","battery-v0.2","","""event"",""trial"",""time""
""fullscreenenter"",""1"",""2818""
","
","
","""event"",""trial"",""time""
""fullscreenenter"",""1"",""2818""
","
","","","-1","","","21","5303","1288","l","elianto","#3366ff99","-1","-1","1","0","[]","0","2","","","5303","74","1","2","win","no-go","1"
"pit-trial","193","1216162","0.0-79.0","battery-v0.2","","""event"",""trial"",""time""
""fullscreenenter"",""1"",""2818""
","
","
","""event"",""trial"",""time""
""fullscreenenter"",""1"",""2818""
","
","","","-1","","","21","5303","1288","g","elianto","#f73b6a7A","-1","-1","1","0","[]","0","2","","","5303","75","3","4","lose","no-go","0"
"pit-trial","194","1219895","0.0-80.0","battery-v0.2","","""event"",""trial"",""time""
""fullscreenenter"",""1"",""2818""
","
","
","""event"",""trial"",""time""
""fullscreenenter"",""1"",""2818""
","
","","","879.5999999642372","","","21","5303","1288","p","elianto","#3366ff99"," "," ","1","+10","[1730.5999999642372]","1","2","","","5303","76","4","1","win","go","0"
"pit-trial","195","1224469","0.0-81.0","battery-v0.2","","""event"",""trial"",""time""
""fullscreenenter"",""1"",""2818""
","
","
","""event"",""trial"",""time""
""fullscreenenter"",""1"",""2818""
","
","","","1716.199999988079","","","21","5303","1288","p","elianto","#3366ff99"," "," ","1","+10","[2568.399999976158]","1","2","","","5303","77","4","1","win","go","0"
"pit-trial","196","1228173","0.0-82.0","battery-v0.2","","""event"",""trial"",""time""
""fullscreenenter"",""1"",""2818""
","
","
","""event"",""trial"",""time""
""fullscreenenter"",""1"",""2818""
","
","","","847.6999999880791","","","21","5303","1288","p","elianto","#3366ff99"," "," ","1","+10","[1698.800000011921]","1","2","","","5303","78","4","1","win","go","0"
"pit-trial","197","1233034","0.0-83.0","battery-v0.2","","""event"",""trial"",""time""
""fullscreenenter"",""1"",""2818""
","
","
","""event"",""trial"",""time""
""fullscreenenter"",""1"",""2818""
","
","","","-1","","","21","5303","1288","s","elianto","#3366ff99","-1","-1","1","+10","[]","0","2","","","5303","79","5","2","win","no-go","0"
"pit-trial","198","1237893","0.0-84.0","battery-v0.2","","""event"",""trial"",""time""
""fullscreenenter"",""1"",""2818""
","
","
","""event"",""trial"",""time""
""fullscreenenter"",""1"",""2818""
","
","","","-1","","","21","5303","1288","g","elianto","#f73b6a7A","-1","-1","1","0","[]","0","2","","","5303","80","3","4","lose","no-go","0"
"pit-trial","199","1242750","0.0-85.0","battery-v0.2","","""event"",""trial"",""time""
""fullscreenenter"",""1"",""2818""
","
","
","""event"",""trial"",""time""
""fullscreenenter"",""1"",""2818""
","
","","","-1","","","21","5303","1288","g","elianto","#f73b6a7A","-1","-1","1","0","[]","0","2","","","5303","81","3","4","lose","no-go","0"
"pit-trial","200","1246761","0.0-86.0","battery-v0.2","","""event"",""trial"",""time""
""fullscreenenter"",""1"",""2818""
","
","
","""event"",""trial"",""time""
""fullscreenenter"",""1"",""2818""
","
","","","1154","","","21","5303","1288","e","elianto","#f73b6a7A","-1"," ","0","-10","[2005.699999988079]","1","2","","","5303","82","7","4","lose","no-go","0"
"pit-trial","201","1251620","0.0-87.0","battery-v0.2","","""event"",""trial"",""time""
""fullscreenenter"",""1"",""2818""
","
","
","""event"",""trial"",""time""
""fullscreenenter"",""1"",""2818""
","
","","","-1","","","21","5303","1288","s","elianto","#3366ff99","-1","-1","1","+10","[]","0","2","","","5303","83","5","2","win","no-go","0"
"pit-trial","202","1255695","0.0-88.0","battery-v0.2","","""event"",""trial"",""time""
""fullscreenenter"",""1"",""2818""
","
","
","""event"",""trial"",""time""
""fullscreenenter"",""1"",""2818""
","
","","","1216","","","21","5303","1288","p","elianto","#3366ff99"," "," ","1","+10","[2068.900000035763]","1","2","","","5303","84","4","1","win","go","0"
"pit-trial","203","1259735","0.0-89.0","battery-v0.2","","""event"",""trial"",""time""
""fullscreenenter"",""1"",""2818""
","
","
","""event"",""trial"",""time""
""fullscreenenter"",""1"",""2818""
","
","","","1182.5","","","21","5303","1288","p","elianto","#3366ff99"," "," ","1","+10","[2036.3999999761581]","1","2","","","5303","85","4","1","win","go","0"
"pit-trial","204","1264165","0.0-90.0","battery-v0.2","","""event"",""trial"",""time""
""fullscreenenter"",""1"",""2818""
","
","
","""event"",""trial"",""time""
""fullscreenenter"",""1"",""2818""
","
","","","1573.8999999761581","","","21","5303","1288","w","elianto","#f73b6a7A"," "," ","1","-10","[2424.199999988079]","1","2","","","5303","86","6","3","lose","go","1"
"pit-trial","205","1269024","0.0-91.0","battery-v0.2","","""event"",""trial"",""time""
""fullscreenenter"",""1"",""2818""
","
","
","""event"",""trial"",""time""
""fullscreenenter"",""1"",""2818""
","
","","","-1","","","21","5303","1288","e","elianto","#f73b6a7A","-1","-1","1","0","[]","0","2","","","5303","87","7","4","lose","no-go","0"
"pit-trial","206","1273883","0.0-92.0","battery-v0.2","","""event"",""trial"",""time""
""fullscreenenter"",""1"",""2818""
","
","
","""event"",""trial"",""time""
""fullscreenenter"",""1"",""2818""
","
","","","-1","","","21","5303","1288","s","elianto","#3366ff99","-1","-1","1","0","[]","0","2","","","5303","88","5","2","win","no-go","1"
"pit-trial","207","1277692","0.0-93.0","battery-v0.2","","""event"",""trial"",""time""
""fullscreenenter"",""1"",""2818""
","
","
","""event"",""trial"",""time""
""fullscreenenter"",""1"",""2818""
","
","","","954.3999999761581","","","21","5303","1288","p","elianto","#3366ff99"," "," ","1","+10","[1805.2999999523163]","1","2","","","5303","89","4","1","win","go","0"
"pit-trial","208","1282550","0.0-94.0","battery-v0.2","","""event"",""trial"",""time""
""fullscreenenter"",""1"",""2818""
","
","
","""event"",""trial"",""time""
""fullscreenenter"",""1"",""2818""
","
","","","-1","","","21","5303","1288","w","elianto","#f73b6a7A"," ","-1","0","-10","[]","0","2","","","5303","90","6","3","lose","go","0"
"pit-trial","209","1287409","0.0-95.0","battery-v0.2","","""event"",""trial"",""time""
""fullscreenenter"",""1"",""2818""
","
","
","""event"",""trial"",""time""
""fullscreenenter"",""1"",""2818""
","
","","","-1","","","21","5303","1288","e","elianto","#f73b6a7A","-1","-1","1","-10","[]","0","2","","","5303","91","7","4","lose","no-go","1"
"pit-trial","210","1292268","0.0-96.0","battery-v0.2","","""event"",""trial"",""time""
""fullscreenenter"",""1"",""2818""
","
","
","""event"",""trial"",""time""
""fullscreenenter"",""1"",""2818""
","
","","","-1","","","21","5303","1288","s","elianto","#3366ff99","-1","-1","1","+10","[]","0","2","","","5303","92","5","2","win","no-go","0"
"pit-trial","211","1297126","0.0-97.0","battery-v0.2","","""event"",""trial"",""time""
""fullscreenenter"",""1"",""2818""
","
","
","""event"",""trial"",""time""
""fullscreenenter"",""1"",""2818""
","
","","","-1","","","21","5303","1288","s","elianto","#3366ff99","-1","-1","1","+10","[]","0","2","","","5303","93","5","2","win","no-go","0"
"pit-trial","212","1301082","0.0-98.0","battery-v0.2","","""event"",""trial"",""time""
""fullscreenenter"",""1"",""2818""
","
","
","""event"",""trial"",""time""
""fullscreenenter"",""1"",""2818""
","
","","","1098.5","","","21","5303","1288","w","elianto","#f73b6a7A"," "," ","1","-10","[1950.2000000476837]","1","2","","","5303","94","6","3","lose","go","1"
"pit-trial","213","1305258","0.0-99.0","battery-v0.2","","""event"",""trial"",""time""
""fullscreenenter"",""1"",""2818""
","
","
","""event"",""trial"",""time""
""fullscreenenter"",""1"",""2818""
","
","","","1317.699999988079","","","21","5303","1288","e","elianto","#f73b6a7A","-1"," ","0","-10","[2169.300000011921]","1","2","","","5303","95","7","4","lose","no-go","0"
"pit-trial","214","1309352","0.0-100.0","battery-v0.2","","""event"",""trial"",""time""
""fullscreenenter"",""1"",""2818""
","
","
","""event"",""trial"",""time""
""fullscreenenter"",""1"",""2818""
","
","","","1241.300000011921","","","21","5303","1288","d","elianto","#3366ff99"," "," ","1","+10","[2092.5]","1","2","","","5303","96","8","1","win","go","0"
"pit-trial","215","1314213","0.0-101.0","battery-v0.2","","""event"",""trial"",""time""
""fullscreenenter"",""1"",""2818""
","
","
","""event"",""trial"",""time""
""fullscreenenter"",""1"",""2818""
","
","","","-1","","","21","5303","1288","w","elianto","#f73b6a7A"," ","-1","0","-10","[]","0","2","","","5303","97","6","3","lose","go","0"
"pit-trial","216","1317949","0.0-102.0","battery-v0.2","","""event"",""trial"",""time""
""fullscreenenter"",""1"",""2818""
","
","
","""event"",""trial"",""time""
""fullscreenenter"",""1"",""2818""
","
","","","879.9000000357628","","","21","5303","1288","d","elianto","#3366ff99"," "," ","1","0","[1730.2000000476837]","1","2","","","5303","98","8","1","win","go","1"
"pit-trial","217","1322809","0.0-103.0","battery-v0.2","","""event"",""trial"",""time""
""fullscreenenter"",""1"",""2818""
","
","
","""event"",""trial"",""time""
""fullscreenenter"",""1"",""2818""
","
","","","-1","","","21","5303","1288","s","elianto","#3366ff99","-1","-1","1","+10","[]","0","2","","","5303","99","5","2","win","no-go","0"
"pit-trial","218","1327668","0.0-104.0","battery-v0.2","","""event"",""trial"",""time""
""fullscreenenter"",""1"",""2818""
","
","
","""event"",""trial"",""time""
""fullscreenenter"",""1"",""2818""
","
","","","-1","","","21","5303","1288","e","elianto","#f73b6a7A","-1","-1","1","-10","[]","0","2","","","5303","100","7","4","lose","no-go","1"
"pit-trial","219","1332266","0.0-105.0","battery-v0.2","","""event"",""trial"",""time""
""fullscreenenter"",""1"",""2818""
","
","
","""event"",""trial"",""time""
""fullscreenenter"",""1"",""2818""
","
","","","1742.8999999761581","","","21","5303","1288","d","elianto","#3366ff99"," "," ","1","+10","[2594.399999976158]","1","2","","","5303","101","8","1","win","go","0"
"pit-trial","220","1337124","0.0-106.0","battery-v0.2","","""event"",""trial"",""time""
""fullscreenenter"",""1"",""2818""
","
","
","""event"",""trial"",""time""
""fullscreenenter"",""1"",""2818""
","
","","","-1","","","21","5303","1288","s","elianto","#3366ff99","-1","-1","1","+10","[]","0","2","","","5303","102","5","2","win","no-go","0"
"pit-trial","221","1340916","0.0-107.0","battery-v0.2","","""event"",""trial"",""time""
""fullscreenenter"",""1"",""2818""
","
","
","""event"",""trial"",""time""
""fullscreenenter"",""1"",""2818""
","
","","","935.8000000119209","","","21","5303","1288","e","elianto","#f73b6a7A","-1"," ","0","0","[1786.7000000476837]","1","2","","","5303","103","7","4","lose","no-go","1"
"pit-trial","222","1345062","0.0-108.0","battery-v0.2","","""event"",""trial"",""time""
""fullscreenenter"",""1"",""2818""
","
","
","""event"",""trial"",""time""
""fullscreenenter"",""1"",""2818""
","
","","","1292","","","21","5303","1288","j","elianto","#3366ff99"," "," ","1","+10","[2142.2999999523163]","1","2","","","5303","104","9","1","win","go","0"
"pit-trial","223","1349919","0.0-109.0","battery-v0.2","","""event"",""trial"",""time""
""fullscreenenter"",""1"",""2818""
","
","
","""event"",""trial"",""time""
""fullscreenenter"",""1"",""2818""
","
","","","-1","","","21","5303","1288","w","elianto","#f73b6a7A"," ","-1","0","-10","[]","0","2","","","5303","105","6","3","lose","go","0"
"pit-trial","224","1353982","0.0-110.0","battery-v0.2","","""event"",""trial"",""time""
""fullscreenenter"",""1"",""2818""
","
","
","""event"",""trial"",""time""
""fullscreenenter"",""1"",""2818""
","
","","","1209","","","21","5303","1288","j","elianto","#3366ff99"," "," ","1","+10","[2059.300000011921]","1","2","","","5303","106","9","1","win","go","0"
"pit-trial","225","1358412","0.0-111.0","battery-v0.2","","""event"",""trial"",""time""
""fullscreenenter"",""1"",""2818""
","
","
","""event"",""trial"",""time""
""fullscreenenter"",""1"",""2818""
","
","","","1574.1000000238419","","","21","5303","1288","p","elianto","#3366ff99"," "," ","1","0","[2424.300000011921]","1","2","","","5303","107","4","1","win","go","1"
"pit-trial","226","1362945","0.0-112.0","battery-v0.2","","""event"",""trial"",""time""
""fullscreenenter"",""1"",""2818""
","
","
","""event"",""trial"",""time""
""fullscreenenter"",""1"",""2818""
","
","","","1673.7999999523163","","","21","5303","1288","d","elianto","#3366ff99"," "," ","1","+10","[2529.099999964237]","1","2","","","5303","108","8","1","win","go","0"
"pit-trial","227","1367806","0.0-113.0","battery-v0.2","","""event"",""trial"",""time""
""fullscreenenter"",""1"",""2818""
","
","
","""event"",""trial"",""time""
""fullscreenenter"",""1"",""2818""
","
","","","-1","","","21","5303","1288","w","elianto","#f73b6a7A"," ","-1","0","-10","[]","0","2","","","5303","109","6","3","lose","go","0"
"pit-trial","228","1371566","0.0-114.0","battery-v0.2","","""event"",""trial"",""time""
""fullscreenenter"",""1"",""2818""
","
","
","""event"",""trial"",""time""
""fullscreenenter"",""1"",""2818""
","
","","","905.7000000476837","","","21","5303","1288","d","elianto","#3366ff99"," "," ","1","+10","[1756.5]","1","2","","","5303","110","8","1","win","go","0"
"pit-trial","229","1375891","0.0-115.0","battery-v0.2","","""event"",""trial"",""time""
""fullscreenenter"",""1"",""2818""
","
","
","""event"",""trial"",""time""
""fullscreenenter"",""1"",""2818""
","
","","","1468.199999988079","","","21","5303","1288","j","elianto","#3366ff99"," "," ","1","0","[2319.599999964237]","1","2","","","5303","111","9","1","win","go","1"
"pit-trial","230","1380750","0.0-116.0","battery-v0.2","","""event"",""trial"",""time""
""fullscreenenter"",""1"",""2818""
","
","
","""event"",""trial"",""time""
""fullscreenenter"",""1"",""2818""
","
","","","-1","","","21","5303","1288","s","elianto","#3366ff99","-1","-1","1","+10","[]","0","2","","","5303","112","5","2","win","no-go","0"
"pit-trial","231","1385609","0.0-117.0","battery-v0.2","","""event"",""trial"",""time""
""fullscreenenter"",""1"",""2818""
","
","
","""event"",""trial"",""time""
""fullscreenenter"",""1"",""2818""
","
","","","-1","","","21","5303","1288","s","elianto","#3366ff99","-1","-1","1","+10","[]","0","2","","","5303","113","5","2","win","no-go","0"
"pit-trial","232","1389614","0.0-118.0","battery-v0.2","","""event"",""trial"",""time""
""fullscreenenter"",""1"",""2818""
","
","
","""event"",""trial"",""time""
""fullscreenenter"",""1"",""2818""
","
","","","1149.3999999761581","","","21","5303","1288","w","elianto","#f73b6a7A"," "," ","1","0","[2000]","1","2","","","5303","114","6","3","lose","go","0"
"pit-trial","233","1393394","0.0-119.0","battery-v0.2","","""event"",""trial"",""time""
""fullscreenenter"",""1"",""2818""
","
","
","""event"",""trial"",""time""
""fullscreenenter"",""1"",""2818""
","
","","","922.5","","","21","5303","1288","j","elianto","#3366ff99"," "," ","1","+10","[1773.0999999642372]","1","2","","","5303","115","9","1","win","go","0"
"pit-trial","234","1397439","0.0-120.0","battery-v0.2","","""event"",""trial"",""time""
""fullscreenenter"",""1"",""2818""
","
","
","""event"",""trial"",""time""
""fullscreenenter"",""1"",""2818""
","
","","","1187.5999999642372","","","21","5303","1288","d","elianto","#3366ff99"," "," ","1","0","[2038.800000011921]","1","2","","","5303","116","8","1","win","go","1"
"pit-trial","235","1401376","0.0-121.0","battery-v0.2","","""event"",""trial"",""time""
""fullscreenenter"",""1"",""2818""
","
","
","""event"",""trial"",""time""
""fullscreenenter"",""1"",""2818""
","
","","","1081.699999988079","","","21","5303","1288","w","elianto","#f73b6a7A"," "," ","1","0","[1932.300000011921]","1","2","","","5303","117","6","3","lose","go","0"
"pit-trial","236","1405416","0.0-122.0","battery-v0.2","","""event"",""trial"",""time""
""fullscreenenter"",""1"",""2818""
","
","
","""event"",""trial"",""time""
""fullscreenenter"",""1"",""2818""
","
","","","1184.9000000357628","","","21","5303","1288","j","elianto","#3366ff99"," "," ","1","+10","[2035.300000011921]","1","2","","","5303","118","9","1","win","go","0"
"pit-trial","237","1408899","0.0-123.0","battery-v0.2","","""event"",""trial"",""time""
""fullscreenenter"",""1"",""2818""
","
","
","""event"",""trial"",""time""
""fullscreenenter"",""1"",""2818""
","
","","","625.3999999761581","","","21","5303","1288","d","elianto","#3366ff99"," "," ","1","+10","[1476.5999999642372]","1","2","","","5303","119","8","1","win","go","0"
"pit-trial","238","1413758","0.0-124.0","battery-v0.2","","""event"",""trial"",""time""
""fullscreenenter"",""1"",""2818""
","
","
","""event"",""trial"",""time""
""fullscreenenter"",""1"",""2818""
","
","","","-1","","","21","5303","1288","s","elianto","#3366ff99","-1","-1","1","0","[]","0","2","","","5303","120","5","2","win","no-go","1"
"pit-trial","239","1418617","0.0-125.0","battery-v0.2","","""event"",""trial"",""time""
""fullscreenenter"",""1"",""2818""
","
","
","""event"",""trial"",""time""
""fullscreenenter"",""1"",""2818""
","
","","","-1","","","21","5303","1288","e","elianto","#f73b6a7A","-1","-1","1","-10","[]","0","2","","","5303","121","7","4","lose","no-go","1"
"pit-trial","240","1422379","0.0-126.0","battery-v0.2","","""event"",""trial"",""time""
""fullscreenenter"",""1"",""2818""
","
","
","""event"",""trial"",""time""
""fullscreenenter"",""1"",""2818""
","
","","","904.5","","","21","5303","1288","d","elianto","#3366ff99"," "," ","1","+10","[1755.300000011921]","1","2","","","5303","122","8","1","win","go","0"
"pit-trial","241","1426059","0.0-127.0","battery-v0.2","","""event"",""trial"",""time""
""fullscreenenter"",""1"",""2818""
","
","
","""event"",""trial"",""time""
""fullscreenenter"",""1"",""2818""
","
","","","820.1999999880791","","","21","5303","1288","j","elianto","#3366ff99"," "," ","1","+10","[1671.8999999761581]","1","2","","","5303","123","9","1","win","go","0"
"pit-trial","242","1429775","0.0-128.0","battery-v0.2","","""event"",""trial"",""time""
""fullscreenenter"",""1"",""2818""
","
","
","""event"",""trial"",""time""
""fullscreenenter"",""1"",""2818""
","
","","","856.3000000119209","","","21","5303","1288","w","elianto","#f73b6a7A"," "," ","1","0","[1708.7000000476837]","1","2","","","5303","124","6","3","lose","go","0"
"pit-trial","243","1433362","0.0-129.0","battery-v0.2","","""event"",""trial"",""time""
""fullscreenenter"",""1"",""2818""
","
","
","""event"",""trial"",""time""
""fullscreenenter"",""1"",""2818""
","
","","","729.6000000238419","","","21","5303","1288","j","elianto","#3366ff99"," "," ","1","+10","[1580.5]","1","2","","","5303","125","9","1","win","go","0"
"pit-trial","244","1437049","0.0-130.0","battery-v0.2","","""event"",""trial"",""time""
""fullscreenenter"",""1"",""2818""
","
","
","""event"",""trial"",""time""
""fullscreenenter"",""1"",""2818""
","
","","","826.6000000238419","","","21","5303","1288","w","elianto","#f73b6a7A"," "," ","1","-10","[1680.1000000238419]","1","2","","","5303","126","6","3","lose","go","1"
"pit-trial","245","1440788","0.0-131.0","battery-v0.2","","""event"",""trial"",""time""
""fullscreenenter"",""1"",""2818""
","
","
","""event"",""trial"",""time""
""fullscreenenter"",""1"",""2818""
","
","","","883.3000000119209","","","21","5303","1288","d","elianto","#3366ff99"," "," ","1","+10","[1734.300000011921]","1","2","","","5303","127","8","1","win","go","0"
"pit-trial","246","1445646","0.0-132.0","battery-v0.2","","""event"",""trial"",""time""
""fullscreenenter"",""1"",""2818""
","
","
","""event"",""trial"",""time""
""fullscreenenter"",""1"",""2818""
","
","","","-1","","","21","5303","1288","e","elianto","#f73b6a7A","-1","-1","1","0","[]","0","2","","","5303","128","7","4","lose","no-go","0"
"pit-trial","247","1450505","0.0-133.0","battery-v0.2","","""event"",""trial"",""time""
""fullscreenenter"",""1"",""2818""
","
","
","""event"",""trial"",""time""
""fullscreenenter"",""1"",""2818""
","
","","","-1","","","21","5303","1288","e","elianto","#f73b6a7A","-1","-1","1","0","[]","0","2","","","5303","129","7","4","lose","no-go","0"
"pit-trial","248","1454117","0.0-134.0","battery-v0.2","","""event"",""trial"",""time""
""fullscreenenter"",""1"",""2818""
","
","
","""event"",""trial"",""time""
""fullscreenenter"",""1"",""2818""
","
","","","754.5","","","21","5303","1288","d","elianto","#3366ff99"," "," ","1","+10","[1606.6000000238419]","1","2","","","5303","130","8","1","win","go","0"
"pit-trial","249","1457692","0.0-135.0","battery-v0.2","","""event"",""trial"",""time""
""fullscreenenter"",""1"",""2818""
","
","
","""event"",""trial"",""time""
""fullscreenenter"",""1"",""2818""
","
","","","717.6999999880791","","","21","5303","1288","j","elianto","#3366ff99"," "," ","1","+10","[1569.0999999642372]","1","2","","","5303","131","9","1","win","go","0"
"pit-trial","250","1461361","0.0-136.0","battery-v0.2","","""event"",""trial"",""time""
""fullscreenenter"",""1"",""2818""
","
","
","""event"",""trial"",""time""
""fullscreenenter"",""1"",""2818""
","
","","","813.1000000238419","","","21","5303","1288","w","elianto","#f73b6a7A"," "," ","1","0","[1664.8999999761581]","1","2","","","5303","132","6","3","lose","go","0"
"pit-trial","251","1466219","0.0-137.0","battery-v0.2","","""event"",""trial"",""time""
""fullscreenenter"",""1"",""2818""
","
","
","""event"",""trial"",""time""
""fullscreenenter"",""1"",""2818""
","
","","","-1","","","21","5303","1288","e","elianto","#f73b6a7A","-1","-1","1","0","[]","0","2","","","5303","133","7","4","lose","no-go","0"
"pit-trial","252","1469882","0.0-138.0","battery-v0.2","","""event"",""trial"",""time""
""fullscreenenter"",""1"",""2818""
","
","
","""event"",""trial"",""time""
""fullscreenenter"",""1"",""2818""
","
","","","806.1000000238419","","","21","5303","1288","j","elianto","#3366ff99"," "," ","1","+10","[1656.4000000357628]","1","2","","","5303","134","9","1","win","go","0"
"pit-trial","253","1473565","0.0-139.0","battery-v0.2","","""event"",""trial"",""time""
""fullscreenenter"",""1"",""2818""
","
","
","""event"",""trial"",""time""
""fullscreenenter"",""1"",""2818""
","
","","","824.3000000119209","","","21","5303","1288","d","elianto","#3366ff99"," "," ","1","+10","[1676.6000000238419]","1","2","","","5303","135","8","1","win","go","0"
"pit-trial","254","1477917","0.0-140.0","battery-v0.2","","""event"",""trial"",""time""
""fullscreenenter"",""1"",""2818""
","
","
","""event"",""trial"",""time""
""fullscreenenter"",""1"",""2818""
","
","","","1494.8999999761581","","","21","5303","1288","w","elianto","#f73b6a7A"," "," ","1","-10","[2345.099999964237]","1","2","","","5303","136","6","3","lose","go","1"
"pit-trial","255","1481986","0.0-141.0","battery-v0.2","","""event"",""trial"",""time""
""fullscreenenter"",""1"",""2818""
","
","
","""event"",""trial"",""time""
""fullscreenenter"",""1"",""2818""
","
","","","1213.9000000357628","","","21","5303","1288","j","elianto","#3366ff99"," "," ","1","0","[2065.300000011921]","1","2","","","5303","137","9","1","win","go","1"
"pit-trial","256","1485615","0.0-142.0","battery-v0.2","","""event"",""trial"",""time""
""fullscreenenter"",""1"",""2818""
","
","
","""event"",""trial"",""time""
""fullscreenenter"",""1"",""2818""
","
","","","769.5","","","21","5303","1288","w","elianto","#f73b6a7A"," "," ","1","0","[1621]","1","2","","","5303","138","6","3","lose","go","0"
"pit-trial","257","1490474","0.0-143.0","battery-v0.2","","""event"",""trial"",""time""
""fullscreenenter"",""1"",""2818""
","
","
","""event"",""trial"",""time""
""fullscreenenter"",""1"",""2818""
","
","","","-1","","","21","5303","1288","e","elianto","#f73b6a7A","-1","-1","1","0","[]","0","2","","","5303","139","7","4","lose","no-go","0"
"pit-trial","258","1493962","0.0-144.0","battery-v0.2","","""event"",""trial"",""time""
""fullscreenenter"",""1"",""2818""
","
","
","""event"",""trial"",""time""
""fullscreenenter"",""1"",""2818""
","
","","","633","","","21","5303","1288","d","elianto","#3366ff99"," "," ","1","+10","[1483.699999988079]","1","2","","","5303","140","8","1","win","go","0"
"pit-instructions","259","1537821","0.0-145.0","battery-v0.2","","""event"",""trial"",""time""
""fullscreenenter"",""1"",""2818""
","
","
","""event"",""trial"",""time""
""fullscreenenter"",""1"",""2818""
","
","","[{""page_index"":0,""viewing_time"":35754.10000002384},{""page_index"":1,""viewing_time"":8101.5}]","43855.89999997616","","","","","","","","","","","","","","","","","","","","","","","",""
"pit-trial","260","1541838","0.0-146.0","battery-v0.2","","""event"",""trial"",""time""
""fullscreenenter"",""1"",""2818""
","
","
","""event"",""trial"",""time""
""fullscreenenter"",""1"",""2818""
","
","","","1152.699999988079","","","21","5303","1288","y","elianto","#f73b6a7A","-1"," ","0","-10","[2006.5]","1","3","","","5303","141","2","4","lose","no-go","0"
"pit-trial","261","1545310","0.0-147.0","battery-v0.2","","""event"",""trial"",""time""
""fullscreenenter"",""1"",""2818""
","
","
","""event"",""trial"",""time""
""fullscreenenter"",""1"",""2818""
","
","","","615.5","","","21","5303","1288","r","elianto","#3366ff99"," "," ","1","+10","[1465.800000011921]","1","3","","","5303","142","1","1","win","go","0"
"pit-trial","262","1548899","0.0-148.0","battery-v0.2","","""event"",""trial"",""time""
""fullscreenenter"",""1"",""2818""
","
","
","""event"",""trial"",""time""
""fullscreenenter"",""1"",""2818""
","
","","","735","","","21","5303","1288","h","elianto","#f73b6a7A"," "," ","1","-10","[1585]","1","3","","","5303","143","3","3","lose","go","1"
"pit-trial","263","1553094","0.0-149.0","battery-v0.2","","""event"",""trial"",""time""
""fullscreenenter"",""1"",""2818""
","
","
","""event"",""trial"",""time""
""fullscreenenter"",""1"",""2818""
","
","","","1340","","","21","5303","1288","m","elianto","#f73b6a7A","-1"," ","0","-10","[2190.699999988079]","1","3","","","5303","144","0","4","lose","no-go","0"
"pit-trial","264","1557951","0.0-150.0","battery-v0.2","","""event"",""trial"",""time""
""fullscreenenter"",""1"",""2818""
","
","
","""event"",""trial"",""time""
""fullscreenenter"",""1"",""2818""
","
","","","-1","","","21","5303","1288","y","elianto","#f73b6a7A","-1","-1","1","0","[]","0","3","","","5303","145","2","4","lose","no-go","0"
"pit-trial","265","1562559","0.0-151.0","battery-v0.2","","""event"",""trial"",""time""
""fullscreenenter"",""1"",""2818""
","
","
","""event"",""trial"",""time""
""fullscreenenter"",""1"",""2818""
","
","","","1750.1000000238419","","","21","5303","1288","h","elianto","#f73b6a7A"," "," ","1","0","[2600.699999988079]","1","3","","","5303","146","3","3","lose","go","0"
"pit-trial","266","1567415","0.0-152.0","battery-v0.2","","""event"",""trial"",""time""
""fullscreenenter"",""1"",""2818""
","
","
","""event"",""trial"",""time""
""fullscreenenter"",""1"",""2818""
","
","","","-1","","","21","5303","1288","r","elianto","#3366ff99"," ","-1","0","0","[]","0","3","","","5303","147","1","1","win","go","0"
"pit-trial","267","1571489","0.0-153.0","battery-v0.2","","""event"",""trial"",""time""
""fullscreenenter"",""1"",""2818""
","
","
","""event"",""trial"",""time""
""fullscreenenter"",""1"",""2818""
","
","","","1214.699999988079","","","21","5303","1288","m","elianto","#f73b6a7A","-1"," ","0","0","[2066.800000011921]","1","3","","","5303","148","0","4","lose","no-go","1"
"pit-trial","268","1576345","0.0-154.0","battery-v0.2","","""event"",""trial"",""time""
""fullscreenenter"",""1"",""2818""
","
","
","""event"",""trial"",""time""
""fullscreenenter"",""1"",""2818""
","
