"trial_type","trial_index","time_elapsed","internal_node_id","task_version","subject_id","interactions","blur_events","focus_events","fullscreenenter_events","fullscreenexit_events","success","view_history","rt","responses","num_errors","age","subject","participantId","rune","rune_set","hex","correct","choice","accuracy","outcome","keys","total_keys","block","practice","value","sub","trial","stimulus","robot","valence","action","sham"
"pavlovia","0","20","0.0-0.0","battery-v0.2","","""event"",""trial"",""time""
""fullscreenenter"",""1"",""2570""
","
","
","""event"",""trial"",""time""
""fullscreenenter"",""1"",""2570""
","
","","","","","","","","","","","","","","","","","","","","","","","","","","",""
"fullscreen","1","3558","0.0-1.0","battery-v0.2","","""event"",""trial"",""time""
""fullscreenenter"",""1"",""2570""
","
","
","""event"",""trial"",""time""
""fullscreenenter"",""1"",""2570""
","
","true","","","","","","","","","","","","","","","","","","","","","","","","","",""
"pit-instructions","2","10773","0.0-2.0-0.0","battery-v0.2","","""event"",""trial"",""time""
""fullscreenenter"",""1"",""2570""
","
","
","""event"",""trial"",""time""
""fullscreenenter"",""1"",""2570""
","
","","[{""page_index"":0,""viewing_time"":7202.80000000447}]","7204","","","","","","","","","","","","","","","","","","","","","","","",""
"pit-comprehension","3","17274","0.0-2.0-1.0-0.0","battery-v0.2","","""event"",""trial"",""time""
""fullscreenenter"",""1"",""2570""
","
","
","""event"",""trial"",""time""
""fullscreenenter"",""1"",""2570""
","
","","","6489.89999999851","[""shark""]","0","17","7574","3874","","","","","","","","","","","","","","","","","","",""
"pit-instructions","4","21917","0.0-2.0-1.0-1.0","battery-v0.2","","""event"",""trial"",""time""
""fullscreenenter"",""1"",""2570""
","
","
","""event"",""trial"",""time""
""fullscreenenter"",""1"",""2570""
","
","","[{""page_index"":0,""viewing_time"":4623.89999999851}]","4625","","","","","","","","","","","","","","","","","","","","","","","",""
"pit-comprehension","5","29327","0.0-2.0-2.0-0.0","battery-v0.2","","""event"",""trial"",""time""
""fullscreenenter"",""1"",""2570""
","
","
","""event"",""trial"",""time""
""fullscreenenter"",""1"",""2570""
","
","","","7397.30000000447","[""tiger""]","0","17","7574","3874","","","","","","","","","","","","","","","","","","",""
"pit-instructions","6","31158","0.0-2.0-2.0-1.0","battery-v0.2","","""event"",""trial"",""time""
""fullscreenenter"",""1"",""2570""
","
","
","""event"",""trial"",""time""
""fullscreenenter"",""1"",""2570""
","
","","[{""page_index"":0,""viewing_time"":1820.6000000014901}]","1821.3999999985099","","","","","","","","","","","","","","","","","","","","","","","",""
"pit-instructions","7","153023","0.0-2.0-3.0","battery-v0.2","","""event"",""trial"",""time""
""fullscreenenter"",""1"",""2570""
","
","
","""event"",""trial"",""time""
""fullscreenenter"",""1"",""2570""
","
","","[{""page_index"":0,""viewing_time"":11006.20000000298},{""page_index"":1,""viewing_time"":8251.19999999553},{""page_index"":2,""viewing_time"":9800.40000000596},{""page_index"":3,""viewing_time"":6224.5999999940395},{""page_index"":4,""viewing_time"":14841.70000000298},{""page_index"":5,""viewing_time"":10283.89999999851},{""page_index"":6,""viewing_time"":14167.39999999851},{""page_index"":7,""viewing_time"":8652.40000000596},{""page_index"":8,""viewing_time"":6152.89999999851},{""page_index"":9,""viewing_time"":6407.5},{""page_index"":10,""viewing_time"":7825.69999999553},{""page_index"":11,""viewing_time"":5279.60000000149},{""page_index"":12,""viewing_time"":6703.39999999851},{""page_index"":13,""viewing_time"":6256.20000000298}]","121854.20000000298","","","","","","","","","","","","","","","","","","","","","","","",""
"pit-trial","8","156320","0.0-2.0-4.0-0.0","battery-v0.2","","""event"",""trial"",""time""
""fullscreenenter"",""1"",""2570""
","
","
","""event"",""trial"",""time""
""fullscreenenter"",""1"",""2570""
","
","","","428","","","17","7574","3874","&#9784;","elianto","#FFFFF080"," "," ","1","&#10004","[1283.9000000059605]","1","0","0","","","","","","","",""
"pit-trial","9","159758","0.0-2.0-4.1-0.1","battery-v0.2","","""event"",""trial"",""time""
""fullscreenenter"",""1"",""2570""
","
","
","""event"",""trial"",""time""
""fullscreenenter"",""1"",""2570""
","
","","","577.5","","","17","7574","3874","&#9784;","elianto","#FFFFF080"," "," ","1","&#10004","[1430.9000000059605]","1","0","0","","","","","","","",""
"pit-trial","10","163150","0.0-2.0-4.2-0.2","battery-v0.2","","""event"",""trial"",""time""
""fullscreenenter"",""1"",""2570""
","
","
","""event"",""trial"",""time""
""fullscreenenter"",""1"",""2570""
","
","","","531.2000000029802","","","17","7574","3874","&#9784;","elianto","#FFFFF080"," "," ","1","&#10004","[1381.2999999970198]","1","0","0","","","","","","","",""
"pit-trial","11","166614","0.0-2.0-4.3-0.3","battery-v0.2","","""event"",""trial"",""time""
""fullscreenenter"",""1"",""2570""
","
","
","""event"",""trial"",""time""
""fullscreenenter"",""1"",""2570""
","
","","","600.8000000044703","","","17","7574","3874","&#9784;","elianto","#FFFFF080"," "," ","1","&#10004","[1451.6000000014901]","1","0","0","","","","","","","",""
"pit-trial","12","169791","0.0-2.0-4.4-0.4","battery-v0.2","","""event"",""trial"",""time""
""fullscreenenter"",""1"",""2570""
","
","
","""event"",""trial"",""time""
""fullscreenenter"",""1"",""2570""
","
","","","318","","","17","7574","3874","&#9784;","elianto","#FFFFF080"," "," ","1","&#10004","[1168.6000000014901]","1","0","0","","","","","","","",""
"pit-instructions","13","191218","0.0-2.0-5.0","battery-v0.2","","""event"",""trial"",""time""
""fullscreenenter"",""1"",""2570""
","
","
","""event"",""trial"",""time""
""fullscreenenter"",""1"",""2570""
","
","","[{""page_index"":0,""viewing_time"":5113.89999999851},{""page_index"":1,""viewing_time"":5450.5},{""page_index"":2,""viewing_time"":5230.4000000059605},{""page_index"":3,""viewing_time"":5622.39999999851}]","21418.10000000149","","","","","","","","","","","","","","","","","","","","","","","",""
"pit-trial","14","196086","0.0-2.0-6.0-0.0","battery-v0.2","","""event"",""trial"",""time""
""fullscreenenter"",""1"",""2570""
","
","
","""event"",""trial"",""time""
""fullscreenenter"",""1"",""2570""
","
","","","-1","","","17","7574","3874","&#9854;","elianto","#FFFFF080","-1","-1","1","&#10004","[]","0","0","1","","","","","","","",""
"pit-trial","15","200950","0.0-2.0-6.1-0.1","battery-v0.2","","""event"",""trial"",""time""
""fullscreenenter"",""1"",""2570""
","
","
","""event"",""trial"",""time""
""fullscreenenter"",""1"",""2570""
","
","","","-1","","","17","7574","3874","&#9854;","elianto","#FFFFF080","-1","-1","1","&#10004","[]","0","0","1","","","","","","","",""
"pit-trial","16","205814","0.0-2.0-6.2-0.2","battery-v0.2","","""event"",""trial"",""time""
""fullscreenenter"",""1"",""2570""
","
","
","""event"",""trial"",""time""
""fullscreenenter"",""1"",""2570""
","
","","","-1","","","17","7574","3874","&#9854;","elianto","#FFFFF080","-1","-1","1","&#10004","[]","0","0","1","","","","","","","",""
"pit-trial","17","210678","0.0-2.0-6.3-0.3","battery-v0.2","","""event"",""trial"",""time""
""fullscreenenter"",""1"",""2570""
","
","
","""event"",""trial"",""time""
""fullscreenenter"",""1"",""2570""
","
","","","-1","","","17","7574","3874","&#9854;","elianto","#FFFFF080","-1","-1","1","&#10004","[]","0","0","1","","","","","","","",""
"pit-trial","18","215542","0.0-2.0-6.4-0.4","battery-v0.2","","""event"",""trial"",""time""
""fullscreenenter"",""1"",""2570""
","
","
","""event"",""trial"",""time""
""fullscreenenter"",""1"",""2570""
","
","","","-1","","","17","7574","3874","&#9854;","elianto","#FFFFF080","-1","-1","1","&#10004","[]","0","0","1","","","","","","","",""
"pit-instructions","19","343670","0.0-2.0-7.0","battery-v0.2","","""event"",""trial"",""time""
""fullscreenenter"",""1"",""2570""
","
","
","""event"",""trial"",""time""
""fullscreenenter"",""1"",""2570""
","
","","[{""page_index"":0,""viewing_time"":5567.5},{""page_index"":1,""viewing_time"":6019.39999999851},{""page_index"":2,""viewing_time"":5385},{""page_index"":3,""viewing_time"":8582},{""page_index"":4,""viewing_time"":7624.10000000149},{""page_index"":5,""viewing_time"":5974},{""page_index"":6,""viewing_time"":6170.60000000149},{""page_index"":7,""viewing_time"":7622.79999999702},{""page_index"":8,""viewing_time"":6498.89999999851},{""page_index"":9,""viewing_time"":6687.20000000298},{""page_index"":10,""viewing_time"":7845.10000000149},{""page_index"":11,""viewing_time"":9536.29999999702},{""page_index"":12,""viewing_time"":10636.60000000149},{""page_index"":13,""viewing_time"":6016.10000000149},{""page_index"":14,""viewing_time"":8150.60000000149},{""page_index"":15,""viewing_time"":6210.39999999851},{""page_index"":16,""viewing_time"":7326.5},{""page_index"":17,""viewing_time"":6268.39999999851}]","128122.60000000149","","","","","","","","","","","","","","","","","","","","","","","",""
"pit-trial","20","347102","0.0-2.0-8.0-0.0","battery-v0.2","","""event"",""trial"",""time""
""fullscreenenter"",""1"",""2570""
","
","
","""event"",""trial"",""time""
""fullscreenenter"",""1"",""2570""
","
","","","567.2999999970198","","","17","7574","3874","&#9776;","elianto","#3366ff99"," "," ","1","+10","[1419.2999999970198]","1","0","1","","","","","","","",""
"pit-trial","21","350470","0.0-2.0-8.0-1.0","battery-v0.2","","""event"",""trial"",""time""
""fullscreenenter"",""1"",""2570""
","
","
","""event"",""trial"",""time""
""fullscreenenter"",""1"",""2570""
","
","","","507.09999999403954","","","17","7574","3874","&#9776;","elianto","#3366ff99"," "," ","1","+10","[1357.6999999955297]","1","0","1","","","","","","","",""
"pit-trial","22","353703","0.0-2.0-8.0-2.0","battery-v0.2","","""event"",""trial"",""time""
""fullscreenenter"",""1"",""2570""
","
","
","""event"",""trial"",""time""
""fullscreenenter"",""1"",""2570""
","
","","","372.59999999403954","","","17","7574","3874","&#9776;","elianto","#3366ff99"," "," ","1","+10","[1225]","1","0","1","","","","","","","",""
"pit-trial","23","356902","0.0-2.0-8.0-3.0","battery-v0.2","","""event"",""trial"",""time""
""fullscreenenter"",""1"",""2570""
","
","
","""event"",""trial"",""time""
""fullscreenenter"",""1"",""2570""
","
","","","338.8999999985099","","","17","7574","3874","&#9776;","elianto","#3366ff99"," "," ","1","0","[1190.3999999985099]","1","0","1","","","","","","","",""
"pit-trial","24","360143","0.0-2.0-8.0-4.0","battery-v0.2","","""event"",""trial"",""time""
""fullscreenenter"",""1"",""2570""
","
","
","""event"",""trial"",""time""
""fullscreenenter"",""1"",""2570""
","
","","","381.5","","","17","7574","3874","&#9776;","elianto","#3366ff99"," "," ","1","+10","[1233.8999999985099]","1","0","1","","","","","","","",""
"pit-trial","25","363574","0.0-2.0-8.1-0.1","battery-v0.2","","""event"",""trial"",""time""
""fullscreenenter"",""1"",""2570""
","
","
","""event"",""trial"",""time""
""fullscreenenter"",""1"",""2570""
","
","","","563.8000000044703","","","17","7574","3874","&#9776;","elianto","#3366ff99"," "," ","1","+10","[1416.2000000029802]","1","0","1","","","","","","","",""
"pit-trial","26","366982","0.0-2.0-8.1-1.1","battery-v0.2","","""event"",""trial"",""time""
""fullscreenenter"",""1"",""2570""
","
","
","""event"",""trial"",""time""
""fullscreenenter"",""1"",""2570""
","
","","","544.3999999985099","","","17","7574","3874","&#9776;","elianto","#3366ff99"," "," ","1","+10","[1396.6000000014901]","1","0","1","","","","","","","",""
"pit-trial","27","370759","0.0-2.0-8.1-2.1","battery-v0.2","","""event"",""trial"",""time""
""fullscreenenter"",""1"",""2570""
","
","
","""event"",""trial"",""time""
""fullscreenenter"",""1"",""2570""
","
","","","918.5","","","17","7574","3874","&#9776;","elianto","#3366ff99"," "," ","1","+10","[1770]","1","0","1","","","","","","","",""
"pit-trial","28","373886","0.0-2.0-8.1-3.1","battery-v0.2","","""event"",""trial"",""time""
""fullscreenenter"",""1"",""2570""
","
","
","""event"",""trial"",""time""
""fullscreenenter"",""1"",""2570""
","
","","","270.59999999403954","","","17","7574","3874","&#9776;","elianto","#3366ff99"," "," ","1","0","[1122.5]","1","0","1","","","","","","","",""
"pit-trial","29","377150","0.0-2.0-8.1-4.1","battery-v0.2","","""event"",""trial"",""time""
""fullscreenenter"",""1"",""2570""
","
","
","""event"",""trial"",""time""
""fullscreenenter"",""1"",""2570""
","
","","","400.70000000298023","","","17","7574","3874","&#9776;","elianto","#3366ff99"," "," ","1","+10","[1252.7000000029802]","1","0","1","","","","","","","",""
"pit-trial","30","380342","0.0-2.0-8.2-0.2","battery-v0.2","","""event"",""trial"",""time""
""fullscreenenter"",""1"",""2570""
","
","
","""event"",""trial"",""time""
""fullscreenenter"",""1"",""2570""
","
","","","332.19999999552965","","","17","7574","3874","&#9776;","elianto","#3366ff99"," "," ","1","+10","[1183]","1","0","1","","","","","","","",""
"pit-trial","31","385207","0.0-2.0-8.2-1.2","battery-v0.2","","""event"",""trial"",""time""
""fullscreenenter"",""1"",""2570""
","
","
","""event"",""trial"",""time""
""fullscreenenter"",""1"",""2570""
","
","","","-1","","","17","7574","3874","&#9776;","elianto","#3366ff99"," ","-1","0","0","[]","0","0","1","","","","","","","",""
"pit-trial","32","390070","0.0-2.0-8.2-2.2","battery-v0.2","","""event"",""trial"",""time""
""fullscreenenter"",""1"",""2570""
","
","
","""event"",""trial"",""time""
""fullscreenenter"",""1"",""2570""
","
","","","-1","","","17","7574","3874","&#9776;","elianto","#3366ff99"," ","-1","0","0","[3223.8000000044703]","1","0","1","","","","","","","",""
"pit-trial","33","393230","0.0-2.0-8.2-3.2","battery-v0.2","","""event"",""trial"",""time""
""fullscreenenter"",""1"",""2570""
","
","
","""event"",""trial"",""time""
""fullscreenenter"",""1"",""2570""
","
","","","296.5","","","17","7574","3874","&#9776;","elianto","#3366ff99"," "," ","1","0","[1149]","1","0","1","","","","","","","",""
"pit-trial","34","396390","0.0-2.0-8.2-4.2","battery-v0.2","","""event"",""trial"",""time""
""fullscreenenter"",""1"",""2570""
","
","
","""event"",""trial"",""time""
""fullscreenenter"",""1"",""2570""
","
","","","296.29999999701977","","","17","7574","3874","&#9776;","elianto","#3366ff99"," "," ","1","+10","[1146.8000000044703]","1","0","1","","","","","","","",""
"call-function","35","396394","0.0-2.0-9.0","battery-v0.2","","""event"",""trial"",""time""
""fullscreenenter"",""1"",""2570""
","
","
","""event"",""trial"",""time""
""fullscreenenter"",""1"",""2570""
","
","","","","","","","","","","","","","","","","","","","","","","","","","","",""
"pit-instructions","36","571213","0.0-2.0-10.0","battery-v0.2","","""event"",""trial"",""time""
""fullscreenenter"",""1"",""2570""
","
","
","""event"",""trial"",""time""
""fullscreenenter"",""1"",""2570""
","
","","[{""page_index"":0,""viewing_time"":5418.39999999851},{""page_index"":1,""viewing_time"":7342.39999999851},{""page_index"":2,""viewing_time"":20466.30000000447},{""page_index"":3,""viewing_time"":133456.6000000015},{""page_index"":4,""viewing_time"":8132.79999999702}]","174817.3999999985","","","","","","","","","","","","","","","","","","","","","","","",""
"pit-trial","37","576079","0.0-2.0-11.0-0.0","battery-v0.2","","""event"",""trial"",""time""
""fullscreenenter"",""1"",""2570""
","
","
","""event"",""trial"",""time""
""fullscreenenter"",""1"",""2570""
","
","","","-1","","","17","7574","3874","&#9761;","elianto","#3366ff99","-1","-1","1","+10","[]","0","0","2","","","","","","","",""
"pit-trial","38","580942","0.0-2.0-11.0-1.0","battery-v0.2","","""event"",""trial"",""time""
""fullscreenenter"",""1"",""2570""
","
","
","""event"",""trial"",""time""
""fullscreenenter"",""1"",""2570""
","
","","","-1","","","17","7574","3874","&#9761;","elianto","#3366ff99","-1","-1","1","+10","[]","0","0","2","","","","","","","",""
"pit-trial","39","585807","0.0-2.0-11.0-2.0","battery-v0.2","","""event"",""trial"",""time""
""fullscreenenter"",""1"",""2570""
","
","
","""event"",""trial"",""time""
""fullscreenenter"",""1"",""2570""
","
","","","-1","","","17","7574","3874","&#9761;","elianto","#3366ff99","-1","-1","1","+10","[]","0","0","2","","","","","","","",""
"pit-trial","40","590670","0.0-2.0-11.0-3.0","battery-v0.2","","""event"",""trial"",""time""
""fullscreenenter"",""1"",""2570""
","
","
","""event"",""trial"",""time""
""fullscreenenter"",""1"",""2570""
","
","","","-1","","","17","7574","3874","&#9761;","elianto","#3366ff99","-1","-1","1","0","[]","0","0","2","","","","","","","",""
"pit-trial","41","595534","0.0-2.0-11.0-4.0","battery-v0.2","","""event"",""trial"",""time""
""fullscreenenter"",""1"",""2570""
","
","
","""event"",""trial"",""time""
""fullscreenenter"",""1"",""2570""
","
","","","-1","","","17","7574","3874","&#9761;","elianto","#3366ff99","-1","-1","1","+10","[]","0","0","2","","","","","","","",""
"pit-trial","42","600399","0.0-2.0-11.1-0.1","battery-v0.2","","""event"",""trial"",""time""
""fullscreenenter"",""1"",""2570""
","
","
","""event"",""trial"",""time""
""fullscreenenter"",""1"",""2570""
","
","","","-1","","","17","7574","3874","&#9761;","elianto","#3366ff99","-1","-1","1","+10","[]","0","0","2","","","","","","","",""
"pit-trial","43","605262","0.0-2.0-11.1-1.1","battery-v0.2","","""event"",""trial"",""time""
""fullscreenenter"",""1"",""2570""
","
","
","""event"",""trial"",""time""
""fullscreenenter"",""1"",""2570""
","
","","","-1","","","17","7574","3874","&#9761;","elianto","#3366ff99","-1","-1","1","+10","[]","0","0","2","","","","","","","",""
"pit-trial","44","610126","0.0-2.0-11.1-2.1","battery-v0.2","","""event"",""trial"",""time""
""fullscreenenter"",""1"",""2570""
","
","
","""event"",""trial"",""time""
""fullscreenenter"",""1"",""2570""
","
","","","-1","","","17","7574","3874","&#9761;","elianto","#3366ff99","-1","-1","1","+10","[]","0","0","2","","","","","","","",""
"pit-trial","45","614990","0.0-2.0-11.1-3.1","battery-v0.2","","""event"",""trial"",""time""
""fullscreenenter"",""1"",""2570""
","
","
","""event"",""trial"",""time""
""fullscreenenter"",""1"",""2570""
","
","","","-1","","","17","7574","3874","&#9761;","elianto","#3366ff99","-1","-1","1","0","[]","0","0","2","","","","","","","",""
"pit-trial","46","619862","0.0-2.0-11.1-4.1","battery-v0.2","","""event"",""trial"",""time""
""fullscreenenter"",""1"",""2570""
","
","
","""event"",""trial"",""time""
""fullscreenenter"",""1"",""2570""
","
","","","-1","","","17","7574","3874","&#9761;","elianto","#3366ff99","-1","-1","1","+10","[]","0","0","2","","","","","","","",""
"pit-trial","47","624726","0.0-2.0-11.2-0.2","battery-v0.2","","""event"",""trial"",""time""
""fullscreenenter"",""1"",""2570""
","
","
","""event"",""trial"",""time""
""fullscreenenter"",""1"",""2570""
","
","","","-1","","","17","7574","3874","&#9761;","elianto","#3366ff99","-1","-1","1","+10","[]","0","0","2","","","","","","","",""
"pit-trial","48","629591","0.0-2.0-11.2-1.2","battery-v0.2","","""event"",""trial"",""time""
""fullscreenenter"",""1"",""2570""
","
","
","""event"",""trial"",""time""
""fullscreenenter"",""1"",""2570""
","
","","","-1","","","17","7574","3874","&#9761;","elianto","#3366ff99","-1","-1","1","+10","[]","0","0","2","","","","","","","",""
"pit-trial","49","634454","0.0-2.0-11.2-2.2","battery-v0.2","","""event"",""trial"",""time""
""fullscreenenter"",""1"",""2570""
","
","
","""event"",""trial"",""time""
""fullscreenenter"",""1"",""2570""
","
","","","-1","","","17","7574","3874","&#9761;","elianto","#3366ff99","-1","-1","1","+10","[]","0","0","2","","","","","","","",""
"pit-trial","50","639318","0.0-2.0-11.2-3.2","battery-v0.2","","""event"",""trial"",""time""
""fullscreenenter"",""1"",""2570""
","
","
","""event"",""trial"",""time""
""fullscreenenter"",""1"",""2570""
","
","","","-1","","","17","7574","3874","&#9761;","elianto","#3366ff99","-1","-1","1","0","[]","0","0","2","","","","","","","",""
"pit-trial","51","644183","0.0-2.0-11.2-4.2","battery-v0.2","","""event"",""trial"",""time""
""fullscreenenter"",""1"",""2570""
","
","
","""event"",""trial"",""time""
""fullscreenenter"",""1"",""2570""
","
","","","-1","","","17","7574","3874","&#9761;","elianto","#3366ff99","-1","-1","1","+10","[]","0","0","2","","","","","","","",""
"pit-trial","52","649046","0.0-2.0-11.3-0.3","battery-v0.2","","""event"",""trial"",""time""
""fullscreenenter"",""1"",""2570""
","
","
","""event"",""trial"",""time""
""fullscreenenter"",""1"",""2570""
","
","","","-1","","","17","7574","3874","&#9761;","elianto","#3366ff99","-1","-1","1","+10","[]","0","0","2","","","","","","","",""
"pit-trial","53","653910","0.0-2.0-11.3-1.3","battery-v0.2","","""event"",""trial"",""time""
""fullscreenenter"",""1"",""2570""
","
","
","""event"",""trial"",""time""
""fullscreenenter"",""1"",""2570""
","
","","","-1","","","17","7574","3874","&#9761;","elianto","#3366ff99","-1","-1","1","+10","[]","0","0","2","","","","","","","",""
"pit-trial","54","658774","0.0-2.0-11.3-2.3","battery-v0.2","","""event"",""trial"",""time""
""fullscreenenter"",""1"",""2570""
","
","
","""event"",""trial"",""time""
""fullscreenenter"",""1"",""2570""
","
","","","-1","","","17","7574","3874","&#9761;","elianto","#3366ff99","-1","-1","1","+10","[]","0","0","2","","","","","","","",""
"pit-trial","55","663638","0.0-2.0-11.3-3.3","battery-v0.2","","""event"",""trial"",""time""
""fullscreenenter"",""1"",""2570""
","
","
","""event"",""trial"",""time""
""fullscreenenter"",""1"",""2570""
","
","","","-1","","","17","7574","3874","&#9761;","elianto","#3366ff99","-1","-1","1","0","[]","0","0","2","","","","","","","",""
"pit-trial","56","668502","0.0-2.0-11.3-4.3","battery-v0.2","","""event"",""trial"",""time""
""fullscreenenter"",""1"",""2570""
","
","
","""event"",""trial"",""time""
""fullscreenenter"",""1"",""2570""
","
","","","-1","","","17","7574","3874","&#9761;","elianto","#3366ff99","-1","-1","1","+10","[]","0","0","2","","","","","","","",""
"call-function","57","668506","0.0-2.0-12.0","battery-v0.2","","""event"",""trial"",""time""
""fullscreenenter"",""1"",""2570""
","
","
","""event"",""trial"",""time""
""fullscreenenter"",""1"",""2570""
","
","","","","","","","","","","","","","","","","","","","","","","","","","","",""
"pit-instructions","58","1142878","0.0-2.0-13.0","battery-v0.2","","""event"",""trial"",""time""
""fullscreenenter"",""1"",""2570""
","
","
","""event"",""trial"",""time""
""fullscreenenter"",""1"",""2570""
","
","","[{""page_index"":0,""viewing_time"":55886.30000000447},{""page_index"":1,""viewing_time"":119468.10000000149},{""page_index"":2,""viewing_time"":87551.5},{""page_index"":3,""viewing_time"":207155.3999999985},{""page_index"":4,""viewing_time"":4308.10000000149}]","474370.5","","","","","","","","","","","","","","","","","","","","","","","",""
"pit-trial","59","1147742","0.0-2.0-14.0-0.0","battery-v0.2","","""event"",""trial"",""time""
""fullscreenenter"",""1"",""2570""
","
","
","""event"",""trial"",""time""
""fullscreenenter"",""1"",""2570""
","
","","","-1","","","17","7574","3874","&#9826;","elianto","#f73b6a7A","-1","-1","1","0","[]","0","0","3","","","","","","","",""
"pit-trial","60","1152606","0.0-2.0-14.0-1.0","battery-v0.2","","""event"",""trial"",""time""
""fullscreenenter"",""1"",""2570""
","
","
","""event"",""trial"",""time""
""fullscreenenter"",""1"",""2570""
","
","","","-1","","","17","7574","3874","&#9826;","elianto","#f73b6a7A","-1","-1","1","0","[]","0","0","3","","","","","","","",""
"pit-trial","61","1157470","0.0-2.0-14.0-2.0","battery-v0.2","","""event"",""trial"",""time""
""fullscreenenter"",""1"",""2570""
","
","
","""event"",""trial"",""time""
""fullscreenenter"",""1"",""2570""
","
","","","-1","","","17","7574","3874","&#9826;","elianto","#f73b6a7A","-1","-1","1","0","[]","0","0","3","","","","","","","",""
"pit-trial","62","1162334","0.0-2.0-14.0-3.0","battery-v0.2","","""event"",""trial"",""time""
""fullscreenenter"",""1"",""2570""
","
","
","""event"",""trial"",""time""
""fullscreenenter"",""1"",""2570""
","
","","","-1","","","17","7574","3874","&#9826;","elianto","#f73b6a7A","-1","-1","1","-10","[]","0","0","3","","","","","","","",""
"pit-trial","63","1167198","0.0-2.0-14.0-4.0","battery-v0.2","","""event"",""trial"",""time""
""fullscreenenter"",""1"",""2570""
","
","
","""event"",""trial"",""time""
""fullscreenenter"",""1"",""2570""
","
","","","-1","","","17","7574","3874","&#9826;","elianto","#f73b6a7A","-1","-1","1","0","[]","0","0","3","","","","","","","",""
"pit-trial","64","1172062","0.0-2.0-14.1-0.1","battery-v0.2","","""event"",""trial"",""time""
""fullscreenenter"",""1"",""2570""
","
","
","""event"",""trial"",""time""
""fullscreenenter"",""1"",""2570""
","
","","","-1","","","17","7574","3874","&#9826;","elianto","#f73b6a7A","-1","-1","1","0","[]","0","0","3","","","","","","","",""
"pit-trial","65","1176927","0.0-2.0-14.1-1.1","battery-v0.2","","""event"",""trial"",""time""
""fullscreenenter"",""1"",""2570""
","
","
","""event"",""trial"",""time""
""fullscreenenter"",""1"",""2570""
","
","","","-1","","","17","7574","3874","&#9826;","elianto","#f73b6a7A","-1","-1","1","0","[]","0","0","3","","","","","","","",""
"pit-trial","66","1181790","0.0-2.0-14.1-2.1","battery-v0.2","","""event"",""trial"",""time""
""fullscreenenter"",""1"",""2570""
","
","
","""event"",""trial"",""time""
""fullscreenenter"",""1"",""2570""
","
","","","-1","","","17","7574","3874","&#9826;","elianto","#f73b6a7A","-1","-1","1","0","[]","0","0","3","","","","","","","",""
"pit-trial","67","1186654","0.0-2.0-14.1-3.1","battery-v0.2","","""event"",""trial"",""time""
""fullscreenenter"",""1"",""2570""
","
","
","""event"",""trial"",""time""
""fullscreenenter"",""1"",""2570""
","
","","","-1","","","17","7574","3874","&#9826;","elianto","#f73b6a7A","-1","-1","1","-10","[]","0","0","3","","","","","","","",""
"pit-trial","68","1191518","0.0-2.0-14.1-4.1","battery-v0.2","","""event"",""trial"",""time""
""fullscreenenter"",""1"",""2570""
","
","
","""event"",""trial"",""time""
""fullscreenenter"",""1"",""2570""
","
","","","-1","","","17","7574","3874","&#9826;","elianto","#f73b6a7A","-1","-1","1","0","[]","0","0","3","","","","","","","",""
"pit-trial","69","1196382","0.0-2.0-14.2-0.2","battery-v0.2","","""event"",""trial"",""time""
""fullscreenenter"",""1"",""2570""
","
","
","""event"",""trial"",""time""
""fullscreenenter"",""1"",""2570""
","
","","","-1","","","17","7574","3874","&#9826;","elianto","#f73b6a7A","-1","-1","1","0","[]","0","0","3","","","","","","","",""
"pit-trial","70","1201246","0.0-2.0-14.2-1.2","battery-v0.2","","""event"",""trial"",""time""
""fullscreenenter"",""1"",""2570""
","
","
","""event"",""trial"",""time""
""fullscreenenter"",""1"",""2570""
","
","","","-1","","","17","7574","3874","&#9826;","elianto","#f73b6a7A","-1","-1","1","0","[]","0","0","3","","","","","","","",""
"pit-trial","71","1206110","0.0-2.0-14.2-2.2","battery-v0.2","","""event"",""trial"",""time""
""fullscreenenter"",""1"",""2570""
","
","
","""event"",""trial"",""time""
""fullscreenenter"",""1"",""2570""
","
","","","-1","","","17","7574","3874","&#9826;","elianto","#f73b6a7A","-1","-1","1","0","[]","0","0","3","","","","","","","",""
"pit-trial","72","1210974","0.0-2.0-14.2-3.2","battery-v0.2","","""event"",""trial"",""time""
""fullscreenenter"",""1"",""2570""
","
","
","""event"",""trial"",""time""
""fullscreenenter"",""1"",""2570""
","
","","","-1","","","17","7574","3874","&#9826;","elianto","#f73b6a7A","-1","-1","1","-10","[]","0","0","3","","","","","","","",""
"pit-trial","73","1215838","0.0-2.0-14.2-4.2","battery-v0.2","","""event"",""trial"",""time""
""fullscreenenter"",""1"",""2570""
","
","
","""event"",""trial"",""time""
""fullscreenenter"",""1"",""2570""
","
","","","-1","","","17","7574","3874","&#9826;","elianto","#f73b6a7A","-1","-1","1","0","[]","0","0","3","","","","","","","",""
"pit-trial","74","1220702","0.0-2.0-14.3-0.3","battery-v0.2","","""event"",""trial"",""time""
""fullscreenenter"",""1"",""2570""
","
","
","""event"",""trial"",""time""
""fullscreenenter"",""1"",""2570""
","
","","","-1","","","17","7574","3874","&#9826;","elianto","#f73b6a7A","-1","-1","1","0","[]","0","0","3","","","","","","","",""
"pit-trial","75","1225566","0.0-2.0-14.3-1.3","battery-v0.2","","""event"",""trial"",""time""
""fullscreenenter"",""1"",""2570""
","
","
","""event"",""trial"",""time""
""fullscreenenter"",""1"",""2570""
","
","","","-1","","","17","7574","3874","&#9826;","elianto","#f73b6a7A","-1","-1","1","0","[]","0","0","3","","","","","","","",""
"pit-trial","76","1228951","0.0-2.0-14.3-2.3","battery-v0.2","","""event"",""trial"",""time""
""fullscreenenter"",""1"",""2570""
","
","
","""event"",""trial"",""time""
""fullscreenenter"",""1"",""2570""
","
","","","525.5","","","17","7574","3874","&#9826;","elianto","#f73b6a7A","-1"," ","0","-10","[1377.5]","1","0","3","","","","","","","",""
"pit-trial","77","1232270","0.0-2.0-14.3-3.3","battery-v0.2","","""event"",""trial"",""time""
""fullscreenenter"",""1"",""2570""
","
","
","""event"",""trial"",""time""
""fullscreenenter"",""1"",""2570""
","
","","","460.29999999701977","","","17","7574","3874","&#9826;","elianto","#f73b6a7A","-1"," ","0","0","[1312]","1","0","3","","","","","","","",""
"pit-trial","78","1235847","0.0-2.0-14.3-4.3","battery-v0.2","","""event"",""trial"",""time""
""fullscreenenter"",""1"",""2570""
","
","
","""event"",""trial"",""time""
""fullscreenenter"",""1"",""2570""
","
","","","715.8999999985099","","","17","7574","3874","&#9826;","elianto","#f73b6a7A","-1"," ","0","-10","[1567.5]","1","0","3","","","","","","","",""
"call-function","79","1235851","0.0-2.0-15.0","battery-v0.2","","""event"",""trial"",""time""
""fullscreenenter"",""1"",""2570""
","
","
","""event"",""trial"",""time""
""fullscreenenter"",""1"",""2570""
","
","","","","","","","","","","","","","","","","","","","","","","","","","","",""
"pit-instructions","80","1299012","0.0-2.0-16.0","battery-v0.2","","""event"",""trial"",""time""
""fullscreenenter"",""1"",""2570""
","
","
","""event"",""trial"",""time""
""fullscreenenter"",""1"",""2570""
","
","","[{""page_index"":0,""viewing_time"":34342},{""page_index"":1,""viewing_time"":9492.60000000149},{""page_index"":2,""viewing_time"":13945.10000000149},{""page_index"":3,""viewing_time"":5380.29999999702}]","63160.80000000447","","","","","","","","","","","","","","","","","","","","","","","",""
"pit-trial","81","1303879","0.0-2.0-17.0-0.0","battery-v0.2","","""event"",""trial"",""time""
""fullscreenenter"",""1"",""2570""
","
","
","""event"",""trial"",""time""
""fullscreenenter"",""1"",""2570""
","
","","","-1","","","17","7574","3874","&#9789;","elianto","#f73b6a7A"," ","-1","0","-10","[]","0","0","4","","","","","","","",""
"pit-trial","82","1308742","0.0-2.0-17.0-1.0","battery-v0.2","","""event"",""trial"",""time""
""fullscreenenter"",""1"",""2570""
","
","
","""event"",""trial"",""time""
""fullscreenenter"",""1"",""2570""
","
","","","-1","","","17","7574","3874","&#9789;","elianto","#f73b6a7A"," ","-1","0","-10","[]","0","0","4","","","","","","","",""
"pit-trial","83","1312286","0.0-2.0-17.0-2.0","battery-v0.2","","""event"",""trial"",""time""
""fullscreenenter"",""1"",""2570""
","
","
","""event"",""trial"",""time""
""fullscreenenter"",""1"",""2570""
","
","","","684","","","17","7574","3874","&#9789;","elianto","#f73b6a7A"," "," ","1","0","[1536.5]","1","0","4","","","","","","","",""
"pit-trial","84","1315342","0.0-2.0-17.0-3.0","battery-v0.2","","""event"",""trial"",""time""
""fullscreenenter"",""1"",""2570""
","
","
","""event"",""trial"",""time""
""fullscreenenter"",""1"",""2570""
","
","","","195.79999999701977","","","17","7574","3874","&#9789;","elianto","#f73b6a7A"," "," ","1","-10","[580.5,1048]","2","0","4","","","","","","","",""
"pit-trial","85","1318886","0.0-2.0-17.0-4.0","battery-v0.2","","""event"",""trial"",""time""
""fullscreenenter"",""1"",""2570""
","
","
","""event"",""trial"",""time""
""fullscreenenter"",""1"",""2570""
","
","","","686.8999999985099","","","17","7574","3874","&#9789;","elianto","#f73b6a7A"," "," ","1","0","[1538.8999999985099]","1","0","4","","","","","","","",""
"pit-trial","86","1322526","0.0-2.0-17.1-0.1","battery-v0.2","","""event"",""trial"",""time""
""fullscreenenter"",""1"",""2570""
","
","
","""event"",""trial"",""time""
""fullscreenenter"",""1"",""2570""
","
","","","777.9000000059605","","","17","7574","3874","&#9789;","elianto","#f73b6a7A"," "," ","1","0","[1628.4000000059605]","1","0","4","","","","","","","",""
"pit-trial","87","1325886","0.0-2.0-17.1-1.1","battery-v0.2","","""event"",""trial"",""time""
""fullscreenenter"",""1"",""2570""
","
","
","""event"",""trial"",""time""
""fullscreenenter"",""1"",""2570""
","
","","","498.09999999403954","","","17","7574","3874","&#9789;","elianto","#f73b6a7A"," "," ","1","0","[1350.0999999940395]","1","0","4","","","","","","","",""
"pit-trial","88","1329454","0.0-2.0-17.1-2.1","battery-v0.2","","""event"",""trial"",""time""
""fullscreenenter"",""1"",""2570""
","
","
","""event"",""trial"",""time""
""fullscreenenter"",""1"",""2570""
","
","","","712.5","","","17","7574","3874","&#9789;","elianto","#f73b6a7A"," "," ","1","0","[1563.2000000029802]","1","0","4","","","","","","","",""
"pit-trial","89","1333470","0.0-2.0-17.1-3.1","battery-v0.2","","""event"",""trial"",""time""
""fullscreenenter"",""1"",""2570""
","
","
","""event"",""trial"",""time""
""fullscreenenter"",""1"",""2570""
","
","","","1156","","","17","7574","3874","&#9789;","elianto","#f73b6a7A"," "," ","1","-10","[2007.5]","1","0","4","","","","","","","",""
"pit-trial","90","1338030","0.0-2.0-17.1-4.1","battery-v0.2","","""event"",""trial"",""time""
""fullscreenenter"",""1"",""2570""
","
","
","""event"",""trial"",""time""
""fullscreenenter"",""1"",""2570""
","
","","","1697.6000000014901","","","17","7574","3874","&#9789;","elianto","#f73b6a7A"," "," ","1","0","[2549.60000000149]","1","0","4","","","","","","","",""
"pit-trial","91","1341206","0.0-2.0-17.2-0.2","battery-v0.2","","""event"",""trial"",""time""
""fullscreenenter"",""1"",""2570""
","
","
","""event"",""trial"",""time""
""fullscreenenter"",""1"",""2570""
","
","","","316.69999999552965","","","17","7574","3874","&#9789;","elianto","#f73b6a7A"," "," ","1","0","[1167.7999999970198,2796.1999999955297]","2","0","4","","","","","","","",""
"pit-trial","92","1346070","0.0-2.0-17.2-1.2","battery-v0.2","","""event"",""trial"",""time""
""fullscreenenter"",""1"",""2570""
","
","
","""event"",""trial"",""time""
""fullscreenenter"",""1"",""2570""
","
","","","-1","","","17","7574","3874","&#9789;","elianto","#f73b6a7A"," ","-1","0","-10","[]","0","0","4","","","","","","","",""
"pit-trial","93","1349918","0.0-2.0-17.2-2.2","battery-v0.2","","""event"",""trial"",""time""
""fullscreenenter"",""1"",""2570""
","
","
","""event"",""trial"",""time""
""fullscreenenter"",""1"",""2570""
","
","","","986.5","","","17","7574","3874","&#9789;","elianto","#f73b6a7A"," "," ","1","0","[1836.5]","1","0","4","","","","","","","",""
"pit-trial","94","1354782","0.0-2.0-17.2-3.2","battery-v0.2","","""event"",""trial"",""time""
""fullscreenenter"",""1"",""2570""
","
","
","""event"",""trial"",""time""
""fullscreenenter"",""1"",""2570""
","
","","","-1","","","17","7574","3874","&#9789;","elianto","#f73b6a7A"," ","-1","0","0","[]","0","0","4","","","","","","","",""
"pit-trial","95","1359646","0.0-2.0-17.2-4.2","battery-v0.2","","""event"",""trial"",""time""
""fullscreenenter"",""1"",""2570""
","
","
","""event"",""trial"",""time""
""fullscreenenter"",""1"",""2570""
","
","","","-1","","","17","7574","3874","&#9789;","elianto","#f73b6a7A"," ","-1","0","-10","[404.5]","1","0","4","","","","","","","",""
"pit-trial","96","1362790","0.0-2.0-17.3-0.3","battery-v0.2","","""event"",""trial"",""time""
""fullscreenenter"",""1"",""2570""
","
","
","""event"",""trial"",""time""
""fullscreenenter"",""1"",""2570""
","
","","","283.59999999403954","","","17","7574","3874","&#9789;","elianto","#f73b6a7A"," "," ","1","0","[825.5,1134.6000000014901]","2","0","4","","","","","","","",""
"pit-trial","97","1365743","0.0-2.0-17.3-1.3","battery-v0.2","","""event"",""trial"",""time""
""fullscreenenter"",""1"",""2570""
","
","
","""event"",""trial"",""time""
""fullscreenenter"",""1"",""2570""
","
","","","95.5","","","17","7574","3874","&#9789;","elianto","#f73b6a7A"," "," ","1","0","[947.7000000029802,1463.1000000014901]","2","0","4","","","","","","","",""
"pit-trial","98","1370110","0.0-2.0-17.3-2.3","battery-v0.2","","""event"",""trial"",""time""
""fullscreenenter"",""1"",""2570""
","
","
","""event"",""trial"",""time""
""fullscreenenter"",""1"",""2570""
","
","","","1510.2000000029802","","","17","7574","3874","&#9789;","elianto","#f73b6a7A"," "," ","1","0","[2361.60000000149]","1","0","4","","","","","","","",""
"pit-trial","99","1374974","0.0-2.0-17.3-3.3","battery-v0.2","","""event"",""trial"",""time""
""fullscreenenter"",""1"",""2570""
","
","
","""event"",""trial"",""time""
""fullscreenenter"",""1"",""2570""
","
","","","-1","","","17","7574","3874","&#9789;","elianto","#f73b6a7A"," ","-1","0","0","[]","0","0","4","","","","","","","",""
"pit-trial","100","1377910","0.0-2.0-17.3-4.3","battery-v0.2","","""event"",""trial"",""time""
""fullscreenenter"",""1"",""2570""
","
","
","""event"",""trial"",""time""
""fullscreenenter"",""1"",""2570""
","
","","","77.29999999701977","","","17","7574","3874","&#9789;","elianto","#f73b6a7A"," "," ","1","0","[929.7999999970198]","1","0","4","","","","","","","",""
"call-function","101","1377914","0.0-2.0-18.0","battery-v0.2","","""event"",""trial"",""time""
""fullscreenenter"",""1"",""2570""
","
","
","""event"",""trial"",""time""
""fullscreenenter"",""1"",""2570""
","
","","","","","","","","","","","","","","","","","","","","","","","","","","",""
"pit-instructions","102","1481189","0.0-2.0-19.0","battery-v0.2","","""event"",""trial"",""time""
""fullscreenenter"",""1"",""2570""
","
","
","""event"",""trial"",""time""
""fullscreenenter"",""1"",""2570""
","
","","[{""page_index"":0,""viewing_time"":12240.39999999851},{""page_index"":1,""viewing_time"":8141.79999999702},{""page_index"":2,""viewing_time"":18860.90000000596},{""page_index"":3,""viewing_time"":5325.79999999702},{""page_index"":4,""viewing_time"":15363.79999999702},{""page_index"":5,""viewing_time"":9064.40000000596},{""page_index"":6,""viewing_time"":6757.89999999851},{""page_index"":7,""viewing_time"":16531.39999999851},{""page_index"":8,""viewing_time"":10986.79999999702}]","103273.89999999851","","","","","","","","","","","","","","","","","","","","","","","",""
"pit-comprehension","103","1485735","0.0-2.0-20.0-0.0","battery-v0.2","","""event"",""trial"",""time""
""fullscreenenter"",""1"",""2570""
","
","
","""event"",""trial"",""time""
""fullscreenenter"",""1"",""2570""
","
","","","4536.4000000059605","[""SPACE""]","0","17","7574","3874","","","","","","","","","","","","","","","","","","",""
"pit-instructions","104","1488544","0.0-2.0-20.0-1.0","battery-v0.2","","""event"",""trial"",""time""
""fullscreenenter"",""1"",""2570""
","
","
","""event"",""trial"",""time""
""fullscreenenter"",""1"",""2570""
","
","","[{""page_index"":0,""viewing_time"":2755}]","2755.9000000059605","","","","","","","","","","","","","","","","","","","","","","","",""
"pit-comprehension","105","1493520","0.0-2.0-21.0-0.0","battery-v0.2","","""event"",""trial"",""time""
""fullscreenenter"",""1"",""2570""
","
","
","""event"",""trial"",""time""
""fullscreenenter"",""1"",""2570""
","
","","","4963.10000000149","[""10""]","0","17","7574","3874","","","","","","","","","","","","","","","","","","",""
"pit-instructions","106","1497257","0.0-2.0-21.0-1.0","battery-v0.2","","""event"",""trial"",""time""
""fullscreenenter"",""1"",""2570""
","
","
","""event"",""trial"",""time""
""fullscreenenter"",""1"",""2570""
","
","","[{""page_index"":0,""viewing_time"":3669.7999999970198}]","3670.5","","","","","","","","","","","","","","","","","","","","","","","",""
"pit-comprehension","107","1508557","0.0-2.0-22.0-0.0","battery-v0.2","","""event"",""trial"",""time""
""fullscreenenter"",""1"",""2570""
","
","
","""event"",""trial"",""time""
""fullscreenenter"",""1"",""2570""
","
","","","11290","[""0""]","0","17","7574","3874","","","","","","","","","","","","","","","","","","",""
"pit-instructions","108","1513843","0.0-2.0-22.0-1.0","battery-v0.2","","""event"",""trial"",""time""
""fullscreenenter"",""1"",""2570""
","
","
","""event"",""trial"",""time""
""fullscreenenter"",""1"",""2570""
","
","","[{""page_index"":0,""viewing_time"":5226.5}]","5227.29999999702","","","","","","","","","","","","","","","","","","","","","","","",""
"pit-comprehension","109","1522138","0.0-2.0-23.0-0.0","battery-v0.2","","""event"",""trial"",""time""
""fullscreenenter"",""1"",""2570""
","
","
","""event"",""trial"",""time""
""fullscreenenter"",""1"",""2570""
","
","","","8285.39999999851","[""True""]","0","17","7574","3874","","","","","","","","","","","","","","","","","","",""
"pit-instructions","110","1527503","0.0-2.0-23.0-1.0","battery-v0.2","","""event"",""trial"",""time""
""fullscreenenter"",""1"",""2570""
","
","
","""event"",""trial"",""time""
""fullscreenenter"",""1"",""2570""
","
","","[{""page_index"":0,""viewing_time"":5284.60000000149}]","5285.60000000149","","","","","","","","","","","","","","","","","","","","","","","",""
"pit-comprehension","111","1535033","0.0-2.0-24.0-0.0","battery-v0.2","","""event"",""trial"",""time""
""fullscreenenter"",""1"",""2570""
","
","
","""event"",""trial"",""time""
""fullscreenenter"",""1"",""2570""
","
","","","7518.89999999851","[""True""]","0","17","7574","3874","","","","","","","","","","","","","","","","","","",""
"pit-instructions","112","1537258","0.0-2.0-24.0-1.0","battery-v0.2","","""event"",""trial"",""time""
""fullscreenenter"",""1"",""2570""
","
","
","""event"",""trial"",""time""
""fullscreenenter"",""1"",""2570""
","
","","[{""page_index"":0,""viewing_time"":2165.6999999955297}]","2166.6999999955297","","","","","","","","","","","","","","","","","","","","","","","",""
"pit-comprehension","113","1543446","0.0-2.0-25.0-0.0","battery-v0.2","","""event"",""trial"",""time""
""fullscreenenter"",""1"",""2570""
","
","
","""event"",""trial"",""time""
""fullscreenenter"",""1"",""2570""
","
","","","6176.60000000149","[""True""]","0","17","7574","3874","","","","","","","","","","","","","","","","","","",""
"pit-instructions","114","1545015","0.0-2.0-25.0-1.0","battery-v0.2","","""event"",""trial"",""time""
""fullscreenenter"",""1"",""2570""
","
","
","""event"",""trial"",""time""
""fullscreenenter"",""1"",""2570""
","
","","[{""page_index"":0,""viewing_time"":1510.3000000044703}]","1511.2000000029802","","","","","","","","","","","","","","","","","","","","","","","",""
"pit-comprehension","115","1549713","0.0-2.0-26.0-0.0","battery-v0.2","","""event"",""trial"",""time""
""fullscreenenter"",""1"",""2570""
","
","
","""event"",""trial"",""time""
""fullscreenenter"",""1"",""2570""
","
","","","4689.60000000149","[""False""]","0","17","7574","3874","","","","","","","","","","","","","","","","","","",""
"pit-instructions","116","1552719","0.0-2.0-26.0-1.0","battery-v0.2","","""event"",""trial"",""time""
""fullscreenenter"",""1"",""2570""
","
","
","""event"",""trial"",""time""
""fullscreenenter"",""1"",""2570""
","
","","[{""page_index"":0,""viewing_time"":2922.7999999970198}]","2923.7999999970198","","","","","","","","","","","","","","","","","","","","","","","",""
"pit-instructions","117","1718607","0.0-3.0","battery-v0.2","","""event"",""trial"",""time""
""fullscreenenter"",""1"",""2570""
","
","
","""event"",""trial"",""time""
""fullscreenenter"",""1"",""2570""
","
","","[{""page_index"":0,""viewing_time"":4889.60000000149},{""page_index"":1,""viewing_time"":6131.89999999851},{""page_index"":2,""viewing_time"":154859.1000000015}]","165881.80000000447","","","","","","","","","","","","","","","","","","","","","","","",""
"pit-trial","118","1722390","0.0-4.0","battery-v0.2","","""event"",""trial"",""time""
""fullscreenenter"",""1"",""2570""
","
","
","""event"",""trial"",""time""
""fullscreenenter"",""1"",""2570""
","
","","","914.3000000044703","","","17","7574","3874","&#9733;","elianto","#3366ff99","-1"," ","0","0","[1768.2999999970198]","1","1","","","7574","1","2","2","win","no-go","0"
"pit-trial","119","1727254","0.0-5.0","battery-v0.2","","""event"",""trial"",""time""
""fullscreenenter"",""1"",""2570""
","
","
","""event"",""trial"",""time""
""fullscreenenter"",""1"",""2570""
","
","","","-1","","","17","7574","3874","&#9752;","elianto","#f73b6a7A"," ","-1","0","-10","[]","0","1","","","7574","2","3","3","lose","go","0"
"pit-trial","120","1732118","0.0-6.0","battery-v0.2","","""event"",""trial"",""time""
""fullscreenenter"",""1"",""2570""
","
","
","""event"",""trial"",""time""
""fullscreenenter"",""1"",""2570""
","
","","","-1","","","17","7574","3874","&#9728;","elianto","#f73b6a7A","-1","-1","1","0","[]","0","1","","","7574","3","0","4","lose","no-go","0"
"pit-trial","121","1735814","0.0-7.0","battery-v0.2","","""event"",""trial"",""time""
""fullscreenenter"",""1"",""2570""
","
","
","""event"",""trial"",""time""
""fullscreenenter"",""1"",""2570""
","
","","","838.1999999955297","","","17","7574","3874","&#9730;","elianto","#3366ff99"," "," ","1","+10","[1689.5]","1","1","","","7574","4","1","1","win","go","0"
"pit-trial","122","1740678","0.0-8.0","battery-v0.2","","""event"",""trial"",""time""
""fullscreenenter"",""1"",""2570""
","
","
","""event"",""trial"",""time""
""fullscreenenter"",""1"",""2570""
","
","","","-1","","","17","7574","3874","&#9728;","elianto","#f73b6a7A","-1","-1","1","0","[]","0","1","","","7574","5","0","4","lose","no-go","0"
"pit-trial","123","1745542","0.0-9.0","battery-v0.2","","""event"",""trial"",""time""
""fullscreenenter"",""1"",""2570""
","
","
","""event"",""trial"",""time""
""fullscreenenter"",""1"",""2570""
","
","","","-1","","","17","7574","3874","&#9733;","elianto","#3366ff99","-1","-1","1","+10","[]","0","1","","","7574","6","2","2","win","no-go","0"
"pit-trial","124","1749694","0.0-10.0","battery-v0.2","","""event"",""trial"",""time""
""fullscreenenter"",""1"",""2570""
","
","
","""event"",""trial"",""time""
""fullscreenenter"",""1"",""2570""
","
","","","1287.8999999985099","","","17","7574","3874","&#9752;","elianto","#f73b6a7A"," "," ","1","-10","[2140]","1","1","","","7574","7","3","3","lose","go","1"
"pit-trial","125","1753318","0.0-11.0","battery-v0.2","","""event"",""trial"",""time""
""fullscreenenter"",""1"",""2570""
","
","
","""event"",""trial"",""time""
""fullscreenenter"",""1"",""2570""
","
","","","765.7999999970198","","","17","7574","3874","&#9730;","elianto","#3366ff99"," "," ","1","+10","[1617.6999999955297]","1","1","","","7574","8","1","1","win","go","0"
"pit-trial","126","1756830","0.0-12.0","battery-v0.2","","""event"",""trial"",""time""
""fullscreenenter"",""1"",""2570""
","
","
","""event"",""trial"",""time""
""fullscreenenter"",""1"",""2570""
","
","","","650.6000000014901","","","17","7574","3874","&#9730;","elianto","#3366ff99"," "," ","1","0","[1501.2999999970198]","1","1","","","7574","9","1","1","win","go","1"
"pit-trial","127","1761694","0.0-13.0","battery-v0.2","","""event"",""trial"",""time""
""fullscreenenter"",""1"",""2570""
","
","
","""event"",""trial"",""time""
""fullscreenenter"",""1"",""2570""
","
","","","-1","","","17","7574","3874","&#9728;","elianto","#f73b6a7A","-1","-1","1","0","[]","0","1","","","7574","10","0","4","lose","no-go","0"
"pit-trial","128","1766558","0.0-14.0","battery-v0.2","","""event"",""trial"",""time""
""fullscreenenter"",""1"",""2570""
","
","
","""event"",""trial"",""time""
""fullscreenenter"",""1"",""2570""
","
","","","-1","","","17","7574","3874","&#9733;","elianto","#3366ff99","-1","-1","1","+10","[]","0","1","","","7574","11","2","2","win","no-go","0"
"pit-trial","129","1771254","0.0-15.0","battery-v0.2","","""event"",""trial"",""time""
""fullscreenenter"",""1"",""2570""
","
","
","""event"",""trial"",""time""
""fullscreenenter"",""1"",""2570""
","
","","","1836.8999999985099","","","17","7574","3874","&#9752;","elianto","#f73b6a7A"," "," ","1","-10","[2689.60000000149]","1","1","","","7574","12","3","3","lose","go","1"
"pit-trial","130","1776118","0.0-16.0","battery-v0.2","","""event"",""trial"",""time""
""fullscreenenter"",""1"",""2570""
","
","
","""event"",""trial"",""time""
""fullscreenenter"",""1"",""2570""
","
","","","-1","","","17","7574","3874","&#9728;","elianto","#f73b6a7A","-1","-1","1","0","[]","0","1","","","7574","13","0","4","lose","no-go","0"
"pit-trial","131","1779718","0.0-17.0","battery-v0.2","","""event"",""trial"",""time""
""fullscreenenter"",""1"",""2570""
","
","
","""event"",""trial"",""time""
""fullscreenenter"",""1"",""2570""
","
","","","740.5999999940395","","","17","7574","3874","&#9733;","elianto","#3366ff99","-1"," ","0","+10","[1593.1999999955297]","1","1","","","7574","14","2","2","win","no-go","1"
"pit-trial","132","1783414","0.0-18.0","battery-v0.2","","""event"",""trial"",""time""
""fullscreenenter"",""1"",""2570""
","
","
","""event"",""trial"",""time""
""fullscreenenter"",""1"",""2570""
","
","","","833.1000000014901","","","17","7574","3874","&#9730;","elianto","#3366ff99"," "," ","1","+10","[1685.3999999985099]","1","1","","","7574","15","1","1","win","go","0"
"pit-trial","133","1788278","0.0-19.0","battery-v0.2","","""event"",""trial"",""time""
""fullscreenenter"",""1"",""2570""
","
","
","""event"",""trial"",""time""
""fullscreenenter"",""1"",""2570""
","
","","","-1","","","17","7574","3874","&#9752;","elianto","#f73b6a7A"," ","-1","0","-10","[]","0","1","","","7574","16","3","3","lose","go","0"
"pit-trial","134","1791806","0.0-20.0","battery-v0.2","","""event"",""trial"",""time""
""fullscreenenter"",""1"",""2570""
","
","
","""event"",""trial"",""time""
""fullscreenenter"",""1"",""2570""
","
","","","672.6000000014901","","","17","7574","3874","&#9730;","elianto","#3366ff99"," "," ","1","+10","[1523.6000000014901]","1","1","","","7574","17","1","1","win","go","0"
"pit-trial","135","1796670","0.0-21.0","battery-v0.2","","""event"",""trial"",""time""
""fullscreenenter"",""1"",""2570""
","
","
","""event"",""trial"",""time""
""fullscreenenter"",""1"",""2570""
","
","","","-1","","","17","7574","3874","&#9752;","elianto","#f73b6a7A"," ","-1","0","-10","[]","0","1","","","7574","18","3","3","lose","go","0"
"pit-trial","136","1801222","0.0-22.0","battery-v0.2","","""event"",""trial"",""time""
""fullscreenenter"",""1"",""2570""
","
","
","""event"",""trial"",""time""
""fullscreenenter"",""1"",""2570""
","
","","","1688","","","17","7574","3874","&#9728;","elianto","#f73b6a7A","-1"," ","0","-10","[2540.60000000149]","1","1","","","7574","19","0","4","lose","no-go","0"
"pit-trial","137","1805182","0.0-23.0","battery-v0.2","","""event"",""trial"",""time""
""fullscreenenter"",""1"",""2570""
","
","
","""event"",""trial"",""time""
""fullscreenenter"",""1"",""2570""
","
","","","1097.7000000029802","","","17","7574","3874","&#9733;","elianto","#3366ff99","-1"," ","0","0","[1949.7000000029802]","1","1","","","7574","20","2","2","win","no-go","0"
"pit-instructions","138","1826093","0.0-24.0","battery-v0.2","","""event"",""trial"",""time""
""fullscreenenter"",""1"",""2570""
","
","
","""event"",""trial"",""time""
""fullscreenenter"",""1"",""2570""
","
","","[{""page_index"":0,""viewing_time"":12937},{""page_index"":1,""viewing_time"":7969.20000000298}]","20907","","","","","","","","","","","","","","","","","","","","","","","",""
"pit-trial","139","1830966","0.0-25.0","battery-v0.2","","""event"",""trial"",""time""
""fullscreenenter"",""1"",""2570""
","
","
","""event"",""trial"",""time""
""fullscreenenter"",""1"",""2570""
","
","","","-1","","","17","7574","3874","t","elianto","#f73b6a7A"," ","-1","0","-10","[]","0","2","","","7574","21","2","3","lose","go","0"
"pit-trial","140","1835830","0.0-26.0","battery-v0.2","","""event"",""trial"",""time""
""fullscreenenter"",""1"",""2570""
","
","
","""event"",""trial"",""time""
""fullscreenenter"",""1"",""2570""
","
","","","-1","","","17","7574","3874","n","elianto","#f73b6a7A"," ","-1","0","-10","[]","0","2","","","7574","22","0","3","lose","go","0"
"pit-trial","141","1840358","0.0-27.0","battery-v0.2","","""event"",""trial"",""time""
""fullscreenenter"",""1"",""2570""
","
","
","""event"",""trial"",""time""
""fullscreenenter"",""1"",""2570""
","
","","","1666.7999999970198","","","17","7574","3874","b","elianto","#f73b6a7A","-1"," ","0","-10","[2518.60000000149]","1","2","","","7574","23","3","4","lose","no-go","0"
"pit-trial","142","1844342","0.0-28.0","battery-v0.2","","""event"",""trial"",""time""
""fullscreenenter"",""1"",""2570""
","
","
","""event"",""trial"",""time""
""fullscreenenter"",""1"",""2570""
","
","","","1125.5","","","17","7574","3874","f","elianto","#3366ff99","-1"," ","0","0","[1977]","1","2","","","7574","24","1","2","win","no-go","0"
"pit-trial","143","1849206","0.0-29.0","battery-v0.2","","""event"",""trial"",""time""
""fullscreenenter"",""1"",""2570""
","
","
","""event"",""trial"",""time""
""fullscreenenter"",""1"",""2570""
","
","","","-1","","","17","7574","3874","f","elianto","#3366ff99","-1","-1","1","+10","[]","0","2","","","7574","25","1","2","win","no-go","0"
"pit-trial","144","1854070","0.0-30.0","battery-v0.2","","""event"",""trial"",""time""
""fullscreenenter"",""1"",""2570""
","
","
","""event"",""trial"",""time""
""fullscreenenter"",""1"",""2570""
","
","","","-1","","","17","7574","3874","n","elianto","#f73b6a7A"," ","-1","0","0","[]","0","2","","","7574","26","0","3","lose","go","1"
"pit-trial","145","1858934","0.0-31.0","battery-v0.2","","""event"",""trial"",""time""
""fullscreenenter"",""1"",""2570""
","
","
","""event"",""trial"",""time""
""fullscreenenter"",""1"",""2570""
","
","","","-1","","","17","7574","3874","b","elianto","#f73b6a7A","-1","-1","1","0","[]","0","2","","","7574","27","3","4","lose","no-go","0"
"pit-trial","146","1863798","0.0-32.0","battery-v0.2","","""event"",""trial"",""time""
""fullscreenenter"",""1"",""2570""
","
","
","""event"",""trial"",""time""
""fullscreenenter"",""1"",""2570""
","
","","","-1","","","17","7574","3874","t","elianto","#f73b6a7A"," ","-1","0","-10","[]","0","2","","","7574","28","2","3","lose","go","0"
"pit-trial","147","1867854","0.0-33.0","battery-v0.2","","""event"",""trial"",""time""
""fullscreenenter"",""1"",""2570""
","
","
","""event"",""trial"",""time""
""fullscreenenter"",""1"",""2570""
","
","","","1193.8999999985099","","","17","7574","3874","f","elianto","#3366ff99","-1"," ","0","0","[2045.5]","1","2","","","7574","29","1","2","win","no-go","0"
"pit-trial","148","1872719","0.0-34.0","battery-v0.2","","""event"",""trial"",""time""
""fullscreenenter"",""1"",""2570""
","
","
","""event"",""trial"",""time""
""fullscreenenter"",""1"",""2570""
","
","","","-1","","","17","7574","3874","b","elianto","#f73b6a7A","-1","-1","1","0","[]","0","2","","","7574","30","3","4","lose","no-go","0"
"pit-trial","149","1876606","0.0-35.0","battery-v0.2","","""event"",""trial"",""time""
""fullscreenenter"",""1"",""2570""
","
","
","""event"",""trial"",""time""
""fullscreenenter"",""1"",""2570""
","
","","","1028.5","","","17","7574","3874","t","elianto","#f73b6a7A"," "," ","1","0","[1880.2000000029802]","1","2","","","7574","31","2","3","lose","go","0"
"pit-trial","150","1881478","0.0-36.0","battery-v0.2","","""event"",""trial"",""time""
""fullscreenenter"",""1"",""2570""
","
","
","""event"",""trial"",""time""
""fullscreenenter"",""1"",""2570""
","
","","","-1","","","17","7574","3874","n","elianto","#f73b6a7A"," ","-1","0","-10","[]","0","2","","","7574","32","0","3","lose","go","0"
"pit-trial","151","1886318","0.0-37.0","battery-v0.2","","""event"",""trial"",""time""
""fullscreenenter"",""1"",""2570""
","
","
","""event"",""trial"",""time""
""fullscreenenter"",""1"",""2570""
","
","","","1982.5","","","17","7574","3874","t","elianto","#f73b6a7A"," "," ","1","0","[2834.8000000044703]","1","2","","","7574","33","2","3","lose","go","0"
"pit-trial","152","1891183","0.0-38.0","battery-v0.2","","""event"",""trial"",""time""
""fullscreenenter"",""1"",""2570""
","
","
","""event"",""trial"",""time""
""fullscreenenter"",""1"",""2570""
","
","","","-1","","","17","7574","3874","f","elianto","#3366ff99","-1","-1","1","+10","[]","0","2","","","7574","34","1","2","win","no-go","0"
"pit-trial","153","1896046","0.0-39.0","battery-v0.2","","""event"",""trial"",""time""
""fullscreenenter"",""1"",""2570""
","
","
","""event"",""trial"",""time""
""fullscreenenter"",""1"",""2570""
","
","","","-1","","","17","7574","3874","b","elianto","#f73b6a7A","-1","-1","1","0","[]","0","2","","","7574","35","3","4","lose","no-go","0"
"pit-trial","154","1900910","0.0-40.0","battery-v0.2","","""event"",""trial"",""time""
""fullscreenenter"",""1"",""2570""
","
","
","""event"",""trial"",""time""
""fullscreenenter"",""1"",""2570""
","
","","","-1","","","17","7574","3874","n","elianto","#f73b6a7A"," ","-1","0","-10","[]","0","2","","","7574","36","0","3","lose","go","0"
"pit-trial","155","1905142","0.0-41.0","battery-v0.2","","""event"",""trial"",""time""
""fullscreenenter"",""1"",""2570""
","
","
","""event"",""trial"",""time""
""fullscreenenter"",""1"",""2570""
","
","","","1374.1000000014901","","","17","7574","3874","n","elianto","#f73b6a7A"," "," ","1","0","[2224.6999999955297]","1","2","","","7574","37","0","3","lose","go","0"
"pit-trial","156","1909126","0.0-42.0","battery-v0.2","","""event"",""trial"",""time""
""fullscreenenter"",""1"",""2570""
","
","
","""event"",""trial"",""time""
""fullscreenenter"",""1"",""2570""
","
","","","1125.5","","","17","7574","3874","t","elianto","#f73b6a7A"," "," ","1","0","[1976.6000000014901]","1","2","","","7574","38","2","3","lose","go","0"
"pit-trial","157","1913990","0.0-43.0","battery-v0.2","","""event"",""trial"",""time""
""fullscreenenter"",""1"",""2570""
","
","
","""event"",""trial"",""time""
""fullscreenenter"",""1"",""2570""
","
","","","-1","","","17","7574","3874","b","elianto","#f73b6a7A","-1","-1","1","-10","[]","0","2","","","7574","39","3","4","lose","no-go","1"
"pit-trial","158","1918854","0.0-44.0","battery-v0.2","","""event"",""trial"",""time""
""fullscreenenter"",""1"",""2570""
","
","
","""event"",""trial"",""time""
""fullscreenenter"",""1"",""2570""
","
","","","-1","","","17","7574","3874","f","elianto","#3366ff99","-1","-1","1","+10","[]","0","2","","","7574","40","1","2","win","no-go","0"
"pit-trial","159","1922734","0.0-45.0","battery-v0.2","","""event"",""trial"",""time""
""fullscreenenter"",""1"",""2570""
","
","
","""event"",""trial"",""time""
""fullscreenenter"",""1"",""2570""
","
","","","1021","","","17","7574","3874","n","elianto","#f73b6a7A"," "," ","1","0","[1873.3000000044703]","1","2","","","7574","41","0","3","lose","go","0"
"pit-trial","160","1927598","0.0-46.0","battery-v0.2","","""event"",""trial"",""time""
""fullscreenenter"",""1"",""2570""
","
","
","""event"",""trial"",""time""
""fullscreenenter"",""1"",""2570""
","
","","","-1","","","17","7574","3874","f","elianto","#3366ff99","-1","-1","1","+10","[]","0","2","","","7574","42","1","2","win","no-go","0"
"pit-trial","161","1932462","0.0-47.0","battery-v0.2","","""event"",""trial"",""time""
""fullscreenenter"",""1"",""2570""
","
","
","""event"",""trial"",""time""
""fullscreenenter"",""1"",""2570""
","
","","","-1","","","17","7574","3874","b","elianto","#f73b6a7A","-1","-1","1","0","[]","0","2","","","7574","43","3","4","lose","no-go","0"
"pit-trial","162","1936294","0.0-48.0","battery-v0.2","","""event"",""trial"",""time""
""fullscreenenter"",""1"",""2570""
","
","
","""event"",""trial"",""time""
""fullscreenenter"",""1"",""2570""
","
","","","975.1000000014901","","","17","7574","3874","t","elianto","#f73b6a7A"," "," ","1","0","[1826.7999999970198]","1","2","","","7574","44","2","3","lose","go","0"
"pit-trial","163","1941158","0.0-49.0","battery-v0.2","","""event"",""trial"",""time""
""fullscreenenter"",""1"",""2570""
","
","
","""event"",""trial"",""time""
""fullscreenenter"",""1"",""2570""
","
","","","-1","","","17","7574","3874","f","elianto","#3366ff99","-1","-1","1","+10","[]","0","2","","","7574","45","1","2","win","no-go","0"
"pit-trial","164","1945102","0.0-50.0","battery-v0.2","","""event"",""trial"",""time""
""fullscreenenter"",""1"",""2570""
","
","
","""event"",""trial"",""time""
""fullscreenenter"",""1"",""2570""
","
","","","1080.2000000029802","","","17","7574","3874","t","elianto","#f73b6a7A"," "," ","1","0","[1932.2999999970198]","1","2","","","7574","46","2","3","lose","go","0"
"pit-trial","165","1949966","0.0-51.0","battery-v0.2","","""event"",""trial"",""time""
""fullscreenenter"",""1"",""2570""
","
","
","""event"",""trial"",""time""
""fullscreenenter"",""1"",""2570""
","
","","","-1","","","17","7574","3874","b","elianto","#f73b6a7A","-1","-1","1","0","[]","0","2","","","7574","47","3","4","lose","no-go","0"
"pit-trial","166","1954070","0.0-52.0","battery-v0.2","","""event"",""trial"",""time""
""fullscreenenter"",""1"",""2570""
","
","
","""event"",""trial"",""time""
""fullscreenenter"",""1"",""2570""
","
","","","1244","","","17","7574","3874","n","elianto","#f73b6a7A"," "," ","1","0","[2095.89999999851]","1","2","","","7574","48","0","3","lose","go","0"
"pit-trial","167","1958934","0.0-53.0","battery-v0.2","","""event"",""trial"",""time""
""fullscreenenter"",""1"",""2570""
","
","
","""event"",""trial"",""time""
""fullscreenenter"",""1"",""2570""
","
","","","-1","","","17","7574","3874","f","elianto","#3366ff99","-1","-1","1","+10","[]","0","2","","","7574","49","1","2","win","no-go","0"
"pit-trial","168","1962686","0.0-54.0","battery-v0.2","","""event"",""trial"",""time""
""fullscreenenter"",""1"",""2570""
","
","
","""event"",""trial"",""time""
""fullscreenenter"",""1"",""2570""
","
","","","887.5","","","17","7574","3874","t","elianto","#f73b6a7A"," "," ","1","0","[1739.3000000044703]","1","2","","","7574","50","2","3","lose","go","0"
"pit-trial","169","1967550","0.0-55.0","battery-v0.2","","""event"",""trial"",""time""
""fullscreenenter"",""1"",""2570""
","
","
","""event"",""trial"",""time""
""fullscreenenter"",""1"",""2570""
","
","","","-1","","","17","7574","3874","b","elianto","#f73b6a7A","-1","-1","1","0","[]","0","2","","","7574","51","3","4","lose","no-go","0"
"pit-trial","170","1971303","0.0-56.0","battery-v0.2","","""event"",""trial"",""time""
""fullscreenenter"",""1"",""2570""
","
","
","""event"",""trial"",""time""
""fullscreenenter"",""1"",""2570""
","
","","","893.7999999970198","","","17","7574","3874","n","elianto","#f73b6a7A"," "," ","1","-10","[1746.1000000014901]","1","2","","","7574","52","0","3","lose","go","1"
"pit-trial","171","1974846","0.0-57.0","battery-v0.2","","""event"",""trial"",""time""
""fullscreenenter"",""1"",""2570""
","
","
","""event"",""trial"",""time""
""fullscreenenter"",""1"",""2570""
","
","","","682.6999999955297","","","17","7574","3874","t","elianto","#f73b6a7A"," "," ","1","0","[1533.5999999940395]","1","2","","","7574","53","2","3","lose","go","0"
"pit-trial","172","1978446","0.0-58.0","battery-v0.2","","""event"",""trial"",""time""
""fullscreenenter"",""1"",""2570""
","
","
","""event"",""trial"",""time""
""fullscreenenter"",""1"",""2570""
","
","","","741.3999999985099","","","17","7574","3874","n","elianto","#f73b6a7A"," "," ","1","0","[1593.6000000014901]","1","2","","","7574","54","0","3","lose","go","0"
"pit-trial","173","1983310","0.0-59.0","battery-v0.2","","""event"",""trial"",""time""
""fullscreenenter"",""1"",""2570""
","
","
","""event"",""trial"",""time""
""fullscreenenter"",""1"",""2570""
","
","","","-1","","","17","7574","3874","b","elianto","#f73b6a7A","-1","-1","1","0","[]","0","2","","","7574","55","3","4","lose","no-go","0"
"pit-trial","174","1988175","0.0-60.0","battery-v0.2","","""event"",""trial"",""time""
""fullscreenenter"",""1"",""2570""
","
","
","""event"",""trial"",""time""
""fullscreenenter"",""1"",""2570""
","
","","","-1","","","17","7574","3874","f","elianto","#3366ff99","-1","-1","1","+10","[]","0","2","","","7574","56","1","2","win","no-go","0"
"pit-trial","175","1992806","0.0-61.0","battery-v0.2","","""event"",""trial"",""time""
""fullscreenenter"",""1"",""2570""
","
","
","""event"",""trial"",""time""
""fullscreenenter"",""1"",""2570""
","
","","","1772.5","","","17","7574","3874","c","elianto","#3366ff99"," "," ","1","0","[2622.7999999970198]","1","2","","","7574","57","4","1","win","go","1"
"pit-trial","176","1996790","0.0-62.0","battery-v0.2","","""event"",""trial"",""time""
""fullscreenenter"",""1"",""2570""
","
","
","""event"",""trial"",""time""
""fullscreenenter"",""1"",""2570""
","
","","","1121","","","17","7574","3874","t","elianto","#f73b6a7A"," "," ","1","-10","[1973.5]","1","2","","","7574","58","2","3","lose","go","1"
"pit-trial","177","2001646","0.0-63.0","battery-v0.2","","""event"",""trial"",""time""
""fullscreenenter"",""1"",""2570""
","
","
","""event"",""trial"",""time""
""fullscreenenter"",""1"",""2570""
","
","","","-1","","","17","7574","3874","b","elianto","#f73b6a7A","-1","-1","1","0","[]","0","2","","","7574","59","3","4","lose","no-go","0"
"pit-trial","178","2005302","0.0-64.0","battery-v0.2","","""event"",""trial"",""time""
""fullscreenenter"",""1"",""2570""
","
","
","""event"",""trial"",""time""
""fullscreenenter"",""1"",""2570""
","
","","","791.5999999940395","","","17","7574","3874","n","elianto","#f73b6a7A"," "," ","1","0","[1643.5999999940395]","1","2","","","7574","60","0","3","lose","go","0"
"pit-trial","179","2008862","0.0-65.0","battery-v0.2","","""event"",""trial"",""time""
""fullscreenenter"",""1"",""2570""
","
","
","""event"",""trial"",""time""
""fullscreenenter"",""1"",""2570""
","
","","","701","","","17","7574","3874","t","elianto","#f73b6a7A"," "," ","1","0","[1551.4000000059605]","1","2","","","7574","61","2","3","lose","go","0"
"pit-trial","180","2013726","0.0-66.0","battery-v0.2","","""event"",""trial"",""time""
""fullscreenenter"",""1"",""2570""
","
","
","""event"",""trial"",""time""
""fullscreenenter"",""1"",""2570""
","
","","","-1","","","17","7574","3874","b","elianto","#f73b6a7A","-1","-1","1","0","[]","0","2","","","7574","62","3","4","lose","no-go","0"
"pit-trial","181","2018590","0.0-67.0","battery-v0.2","","""event"",""trial"",""time""
""fullscreenenter"",""1"",""2570""
","
","
","""event"",""trial"",""time""
""fullscreenenter"",""1"",""2570""
","
","","","-1","","","17","7574","3874","f","elianto","#3366ff99","-1","-1","1","+10","[]","0","2","","","7574","63","1","2","win","no-go","0"
"pit-trial","182","2023454","0.0-68.0","battery-v0.2","","""event"",""trial"",""time""
""fullscreenenter"",""1"",""2570""
","
","
","""event"",""trial"",""time""
""fullscreenenter"",""1"",""2570""
","
","","","-1","","","17","7574","3874","c","elianto","#3366ff99"," ","-1","0","0","[]","0","2","","","7574","64","4","1","win","go","0"
"pit-trial","183","2028318","0.0-69.0","battery-v0.2","","""event"",""trial"",""time""
""fullscreenenter"",""1"",""2570""
","
","
","""event"",""trial"",""time""
""fullscreenenter"",""1"",""2570""
","
","","","-1","","","17","7574","3874","c","elianto","#3366ff99"," ","-1","0","+10","[]","0","2","","","7574","65","4","1","win","go","1"
"pit-trial","184","2033182","0.0-70.0","battery-v0.2","","""event"",""trial"",""time""
""fullscreenenter"",""1"",""2570""
","
","
","""event"",""trial"",""time""
""fullscreenenter"",""1"",""2570""
","
","","","-1","","","17","7574","3874","b","elianto","#f73b6a7A","-1","-1","1","0","[]","0","2","","","7574","66","3","4","lose","no-go","0"
"pit-trial","185","2038046","0.0-71.0","battery-v0.2","","""event"",""trial"",""time""
""fullscreenenter"",""1"",""2570""
","
","
","""event"",""trial"",""time""
""fullscreenenter"",""1"",""2570""
","
","","","-1","","","17","7574","3874","z","elianto","#3366ff99","-1","-1","1","0","[]","0","2","","","7574","67","5","2","win","no-go","1"
"pit-trial","186","2042910","0.0-72.0","battery-v0.2","","""event"",""trial"",""time""
""fullscreenenter"",""1"",""2570""
","
","
","""event"",""trial"",""time""
""fullscreenenter"",""1"",""2570""
","
","","","-1","","","17","7574","3874","f","elianto","#3366ff99","-1","-1","1","+10","[]","0","2","","","7574","68","1","2","win","no-go","0"
"pit-trial","187","2047774","0.0-73.0","battery-v0.2","","""event"",""trial"",""time""
""fullscreenenter"",""1"",""2570""
","
","
","""event"",""trial"",""time""
""fullscreenenter"",""1"",""2570""
","
","","","-1","","","17","7574","3874","t","elianto","#f73b6a7A"," ","-1","0","-10","[]","0","2","","","7574","69","2","3","lose","go","0"
"pit-trial","188","2052638","0.0-74.0","battery-v0.2","","""event"",""trial"",""time""
""fullscreenenter"",""1"",""2570""
","
","
","""event"",""trial"",""time""
""fullscreenenter"",""1"",""2570""
","
","","","-1","","","17","7574","3874","z","elianto","#3366ff99","-1","-1","1","+10","[]","0","2","","","7574","70","5","2","win","no-go","0"
"pit-trial","189","2057502","0.0-75.0","battery-v0.2","","""event"",""trial"",""time""
""fullscreenenter"",""1"",""2570""
","
","
","""event"",""trial"",""time""
""fullscreenenter"",""1"",""2570""
","
","","","-1","","","17","7574","3874","f","elianto","#3366ff99","-1","-1","1","+10","[]","0","2","","","7574","71","1","2","win","no-go","0"
"pit-trial","190","2061838","0.0-76.0","battery-v0.2","","""event"",""trial"",""time""
""fullscreenenter"",""1"",""2570""
","
","
","""event"",""trial"",""time""
""fullscreenenter"",""1"",""2570""
","
","","","1479.3000000044703","","","17","7574","3874","c","elianto","#3366ff99"," "," ","1","+10","[2330.8000000044703]","1","2","","","7574","72","4","1","win","go","0"
"pit-trial","191","2066703","0.0-77.0","battery-v0.2","","""event"",""trial"",""time""
""fullscreenenter"",""1"",""2570""
","
","
","""event"",""trial"",""time""
""fullscreenenter"",""1"",""2570""
","
","","","-1","","","17","7574","3874","b","elianto","#f73b6a7A","-1","-1","1","0","[]","0","2","","","7574","73","3","4","lose","no-go","0"
"pit-trial","192","2070710","0.0-78.0","battery-v0.2","","""event"",""trial"",""time""
""fullscreenenter"",""1"",""2570""
","
","
","""event"",""trial"",""time""
""fullscreenenter"",""1"",""2570""
","
","","","1145.7999999970198","","","17","7574","3874","c","elianto","#3366ff99"," "," ","1","0","[1996.2999999970198]","1","2","","","7574","74","4","1","win","go","1"
"pit-trial","193","2074558","0.0-79.0","battery-v0.2","","""event"",""trial"",""time""
""fullscreenenter"",""1"",""2570""
","
","
","""event"",""trial"",""time""
""fullscreenenter"",""1"",""2570""
","
","","","987.3999999985099","","","17","7574","3874","f","elianto","#3366ff99","-1"," ","0","+10","[1839.3999999985099]","1","2","","","7574","75","1","2","win","no-go","1"
"pit-trial","194","2078062","0.0-80.0","battery-v0.2","","""event"",""trial"",""time""
""fullscreenenter"",""1"",""2570""
","
","
","""event"",""trial"",""time""
""fullscreenenter"",""1"",""2570""
","
","","","641.3999999985099","","","17","7574","3874","z","elianto","#3366ff99","-1"," ","0","0","[1494.6000000014901]","1","2","","","7574","76","5","2","win","no-go","0"
"pit-trial","195","2082926","0.0-81.0","battery-v0.2","","""event"",""trial"",""time""
""fullscreenenter"",""1"",""2570""
","
","
","""event"",""trial"",""time""
""fullscreenenter"",""1"",""2570""
","
","","","-1","","","17","7574","3874","b","elianto","#f73b6a7A","-1","-1","1","-10","[]","0","2","","","7574","77","3","4","lose","no-go","1"
"pit-trial","196","2087790","0.0-82.0","battery-v0.2","","""event"",""trial"",""time""
""fullscreenenter"",""1"",""2570""
","
","
","""event"",""trial"",""time""
""fullscreenenter"",""1"",""2570""
","
","","","-1","","","17","7574","3874","c","elianto","#3366ff99"," ","-1","0","0","[]","0","2","","","7574","78","4","1","win","go","0"
"pit-trial","197","2091678","0.0-83.0","battery-v0.2","","""event"",""trial"",""time""
""fullscreenenter"",""1"",""2570""
","
","
","""event"",""trial"",""time""
""fullscreenenter"",""1"",""2570""
","
","","","1025.3999999985099","","","17","7574","3874","c","elianto","#3366ff99"," "," ","1","+10","[1877.8999999985099]","1","2","","","7574","79","4","1","win","go","0"
"pit-trial","198","2095950","0.0-84.0","battery-v0.2","","""event"",""trial"",""time""
""fullscreenenter"",""1"",""2570""
","
","
","""event"",""trial"",""time""
""fullscreenenter"",""1"",""2570""
","
","","","1410.5999999940395","","","17","7574","3874","z","elianto","#3366ff99","-1"," ","0","+10","[2262.5]","1","2","","","7574","80","5","2","win","no-go","1"
"pit-trial","199","2099558","0.0-85.0","battery-v0.2","","""event"",""trial"",""time""
""fullscreenenter"",""1"",""2570""
","
","
","""event"",""trial"",""time""
""fullscreenenter"",""1"",""2570""
","
","","","751","","","17","7574","3874","z","elianto","#3366ff99","-1"," ","0","0","[1601.8000000044703]","1","2","","","7574","81","5","2","win","no-go","0"
"pit-trial","200","2104422","0.0-86.0","battery-v0.2","","""event"",""trial"",""time""
""fullscreenenter"",""1"",""2570""
","
","
","""event"",""trial"",""time""
""fullscreenenter"",""1"",""2570""
","
","","","-1","","","17","7574","3874","b","elianto","#f73b6a7A","-1","-1","1","0","[]","0","2","","","7574","82","3","4","lose","no-go","0"
"pit-trial","201","2108174","0.0-87.0","battery-v0.2","","""event"",""trial"",""time""
""fullscreenenter"",""1"",""2570""
","
","
","""event"",""trial"",""time""
""fullscreenenter"",""1"",""2570""
","
","","","894.4000000059605","","","17","7574","3874","c","elianto","#3366ff99"," "," ","1","+10","[1746.7000000029802]","1","2","","","7574","83","4","1","win","go","0"
"pit-trial","202","2113038","0.0-88.0","battery-v0.2","","""event"",""trial"",""time""
""fullscreenenter"",""1"",""2570""
","
","
","""event"",""trial"",""time""
""fullscreenenter"",""1"",""2570""
","
","","","-1","","","17","7574","3874","y","elianto","#f73b6a7A","-1","-1","1","-10","[]","0","2","","","7574","84","7","4","lose","no-go","1"
"pit-trial","203","2117342","0.0-89.0","battery-v0.2","","""event"",""trial"",""time""
""fullscreenenter"",""1"",""2570""
","
","
","""event"",""trial"",""time""
""fullscreenenter"",""1"",""2570""
","
","","","1440.2999999970198","","","17","7574","3874","y","elianto","#f73b6a7A","-1"," ","0","-10","[2292.6999999955297]","1","2","","","7574","85","7","4","lose","no-go","0"
"pit-trial","204","2122206","0.0-90.0","battery-v0.2","","""event"",""trial"",""time""
""fullscreenenter"",""1"",""2570""
","
","
","""event"",""trial"",""time""
""fullscreenenter"",""1"",""2570""
","
","","","-1","","","17","7574","3874","h","elianto","#f73b6a7A"," ","-1","0","-10","[]","0","2","","","7574","86","6","3","lose","go","0"
"pit-trial","205","2126550","0.0-91.0","battery-v0.2","","""event"",""trial"",""time""
""fullscreenenter"",""1"",""2570""
","
","
","""event"",""trial"",""time""
""fullscreenenter"",""1"",""2570""
","
","","","1479.3000000044703","","","17","7574","3874","c","elianto","#3366ff99"," "," ","1","+10","[2332.7000000029802]","1","2","","","7574","87","4","1","win","go","0"
"pit-trial","206","2130190","0.0-92.0","battery-v0.2","","""event"",""trial"",""time""
""fullscreenenter"",""1"",""2570""
","
","
","""event"",""trial"",""time""
""fullscreenenter"",""1"",""2570""
","
","","","782.1999999955297","","","17","7574","3874","z","elianto","#3366ff99","-1"," ","0","0","[1633.1999999955297]","1","2","","","7574","88","5","2","win","no-go","0"
"pit-trial","207","2133838","0.0-93.0","battery-v0.2","","""event"",""trial"",""time""
""fullscreenenter"",""1"",""2570""
","
","
","""event"",""trial"",""time""
""fullscreenenter"",""1"",""2570""
","
","","","786.6000000014901","","","17","7574","3874","c","elianto","#3366ff99"," "," ","1","+10","[1638.8000000044703]","1","2","","","7574","89","4","1","win","go","0"
"pit-trial","208","2138702","0.0-94.0","battery-v0.2","","""event"",""trial"",""time""
""fullscreenenter"",""1"",""2570""
","
","
","""event"",""trial"",""time""
""fullscreenenter"",""1"",""2570""
","
","","","-1","","","17","7574","3874","z","elianto","#3366ff99","-1","-1","1","0","[]","0","2","","","7574","90","5","2","win","no-go","1"
"pit-trial","209","2143567","0.0-95.0","battery-v0.2","","""event"",""trial"",""time""
""fullscreenenter"",""1"",""2570""
","
","
","""event"",""trial"",""time""
""fullscreenenter"",""1"",""2570""
","
","","","-1","","","17","7574","3874","y","elianto","#f73b6a7A","-1","-1","1","0","[]","0","2","","","7574","91","7","4","lose","no-go","0"
"pit-trial","210","2148262","0.0-96.0","battery-v0.2","","""event"",""trial"",""time""
""fullscreenenter"",""1"",""2570""
","
","
","""event"",""trial"",""time""
""fullscreenenter"",""1"",""2570""
","
","","","1839","","","17","7574","3874","h","elianto","#f73b6a7A"," "," ","1","0","[2690.7000000029802]","1","2","","","7574","92","6","3","lose","go","0"
"pit-trial","211","2152606","0.0-97.0","battery-v0.2","","""event"",""trial"",""time""
""fullscreenenter"",""1"",""2570""
","
","
","""event"",""trial"",""time""
""fullscreenenter"",""1"",""2570""
","
","","","1488.6000000014901","","","17","7574","3874","h","elianto","#f73b6a7A"," "," ","1","0","[2338.7000000029802]","1","2","","","7574","93","6","3","lose","go","0"
"pit-trial","212","2157470","0.0-98.0","battery-v0.2","","""event"",""trial"",""time""
""fullscreenenter"",""1"",""2570""
","
","
","""event"",""trial"",""time""
""fullscreenenter"",""1"",""2570""
","
","","","-1","","","17","7574","3874","z","elianto","#3366ff99","-1","-1","1","+10","[]","0","2","","","7574","94","5","2","win","no-go","0"
"pit-trial","213","2162334","0.0-99.0","battery-v0.2","","""event"",""trial"",""time""
""fullscreenenter"",""1"",""2570""
","
","
","""event"",""trial"",""time""
""fullscreenenter"",""1"",""2570""
","
","","","-1","","","17","7574","3874","y","elianto","#f73b6a7A","-1","-1","1","0","[]","0","2","","","7574","95","7","4","lose","no-go","0"
"pit-trial","214","2167159","0.0-100.0","battery-v0.2","","""event"",""trial"",""time""
""fullscreenenter"",""1"",""2570""
","
","
","""event"",""trial"",""time""
""fullscreenenter"",""1"",""2570""
","
","","","1960.1999999955297","","","17","7574","3874","r","elianto","#3366ff99"," "," ","1","+10","[2812.2999999970198]","1","2","","","7574","96","8","1","win","go","0"
"pit-trial","215","2172022","0.0-101.0","battery-v0.2","","""event"",""trial"",""time""
""fullscreenenter"",""1"",""2570""
","
","
","""event"",""trial"",""time""
""fullscreenenter"",""1"",""2570""
","
","","","-1","","","17","7574","3874","h","elianto","#f73b6a7A"," ","-1","0","-10","[]","0","2","","","7574","97","6","3","lose","go","0"
"pit-trial","216","2176886","0.0-102.0","battery-v0.2","","""event"",""trial"",""time""
""fullscreenenter"",""1"",""2570""
","
","
","""event"",""trial"",""time""
""fullscreenenter"",""1"",""2570""
","
","","","-1","","","17","7574","3874","z","elianto","#3366ff99","-1","-1","1","+10","[]","0","2","","","7574","98","5","2","win","no-go","0"
"pit-trial","217","2181742","0.0-103.0","battery-v0.2","","""event"",""trial"",""time""
""fullscreenenter"",""1"",""2570""
","
","
","""event"",""trial"",""time""
""fullscreenenter"",""1"",""2570""
","
","","","-1","","","17","7574","3874","y","elianto","#f73b6a7A","-1","-1","1","0","[]","0","2","","","7574","99","7","4","lose","no-go","0"
"pit-trial","218","2186606","0.0-104.0","battery-v0.2","","""event"",""trial"",""time""
""fullscreenenter"",""1"",""2570""
","
","
","""event"",""trial"",""time""
""fullscreenenter"",""1"",""2570""
","
","","","-1","","","17","7574","3874","r","elianto","#3366ff99"," ","-1","0","+10","[]","0","2","","","7574","100","8","1","win","go","1"
"pit-trial","219","2191470","0.0-105.0","battery-v0.2","","""event"",""trial"",""time""
""fullscreenenter"",""1"",""2570""
","
","
","""event"",""trial"",""time""
""fullscreenenter"",""1"",""2570""
","
","","","-1","","","17","7574","3874","y","elianto","#f73b6a7A","-1","-1","1","0","[]","0","2","","","7574","101","7","4","lose","no-go","0"
"pit-trial","220","2196071","0.0-106.0","battery-v0.2","","""event"",""trial"",""time""
""fullscreenenter"",""1"",""2570""
","
","
","""event"",""trial"",""time""
""fullscreenenter"",""1"",""2570""
","
","","","1743.2999999970198","","","17","7574","3874","m","elianto","#3366ff99"," "," ","1","+10","[2595.2999999970198]","1","2","","","7574","102","9","1","win","go","0"
"pit-trial","221","2200934","0.0-107.0","battery-v0.2","","""event"",""trial"",""time""
""fullscreenenter"",""1"",""2570""
","
","
","""event"",""trial"",""time""
""fullscreenenter"",""1"",""2570""
","
","","","-1","","","17","7574","3874","z","elianto","#3366ff99","-1","-1","1","+10","[]","0","2","","","7574","103","5","2","win","no-go","0"
"pit-trial","222","2205798","0.0-108.0","battery-v0.2","","""event"",""trial"",""time""
""fullscreenenter"",""1"",""2570""
","
","
","""event"",""trial"",""time""
""fullscreenenter"",""1"",""2570""
","
","","","-1","","","17","7574","3874","r","elianto","#3366ff99"," ","-1","0","0","[]","0","2","","","7574","104","8","1","win","go","0"
"pit-trial","223","2210663","0.0-109.0","battery-v0.2","","""event"",""trial"",""time""
""fullscreenenter"",""1"",""2570""
","
","
","""event"",""trial"",""time""
""fullscreenenter"",""1"",""2570""
","
","","","-1","","","17","7574","3874","h","elianto","#f73b6a7A"," ","-1","0","0","[]","0","2","","","7574","105","6","3","lose","go","1"
"pit-trial","224","2215527","0.0-110.0","battery-v0.2","","""event"",""trial"",""time""
""fullscreenenter"",""1"",""2570""
","
","
","""event"",""trial"",""time""
""fullscreenenter"",""1"",""2570""
","
","","","-1","","","17","7574","3874","r","elianto","#3366ff99"," ","-1","0","0","[]","0","2","","","7574","106","8","1","win","go","0"
"pit-trial","225","2219854","0.0-111.0","battery-v0.2","","""event"",""trial"",""time""
""fullscreenenter"",""1"",""2570""
","
","
","""event"",""trial"",""time""
""fullscreenenter"",""1"",""2570""
","
","","","1465.8999999985099","","","17","7574","3874","c","elianto","#3366ff99"," "," ","1","+10","[2318.8000000044703]","1","2","","","7574","107","4","1","win","go","0"
"pit-trial","226","2224719","0.0-112.0","battery-v0.2","","""event"",""trial"",""time""
""fullscreenenter"",""1"",""2570""
","
","
","""event"",""trial"",""time""
""fullscreenenter"",""1"",""2570""
","
","","","-1","","","17","7574","3874","m","elianto","#3366ff99"," ","-1","0","0","[3077.60000000149]","1","2","","","7574","108","9","1","win","go","0"
"pit-trial","227","2229582","0.0-113.0","battery-v0.2","","""event"",""trial"",""time""
""fullscreenenter"",""1"",""2570""
","
","
","""event"",""trial"",""time""
""fullscreenenter"",""1"",""2570""
","
","","","-1","","","17","7574","3874","h","elianto","#f73b6a7A"," ","-1","0","0","[]","0","2","","","7574","109","6","3","lose","go","1"
"pit-trial","228","2233206","0.0-114.0","battery-v0.2","","""event"",""trial"",""time""
""fullscreenenter"",""1"",""2570""
","
","
","""event"",""trial"",""time""
""fullscreenenter"",""1"",""2570""
","
","","","765.6999999955297","","","17","7574","3874","m","elianto","#3366ff99"," "," ","1","+10","[1618.3999999985099]","1","2","","","7574","110","9","1","win","go","0"
"pit-trial","229","2238070","0.0-115.0","battery-v0.2","","""event"",""trial"",""time""
""fullscreenenter"",""1"",""2570""
","
","
","""event"",""trial"",""time""
""fullscreenenter"",""1"",""2570""
","
","","","-1","","","17","7574","3874","r","elianto","#3366ff99"," ","-1","0","0","[]","0","2","","","7574","111","8","1","win","go","0"
"pit-trial","230","2242934","0.0-116.0","battery-v0.2","","""event"",""trial"",""time""
""fullscreenenter"",""1"",""2570""
","
","
","""event"",""trial"",""time""
""fullscreenenter"",""1"",""2570""
","
","","","-1","","","17","7574","3874","z","elianto","#3366ff99","-1","-1","1","0","[]","0","2","","","7574","112","5","2","win","no-go","1"
"pit-trial","231","2247342","0.0-117.0","battery-v0.2","","""event"",""trial"",""time""
""fullscreenenter"",""1"",""2570""
","
","
","""event"",""trial"",""time""
""fullscreenenter"",""1"",""2570""
","
","","","1546.9000000059605","","","17","7574","3874","h","elianto","#f73b6a7A"," "," ","1","0","[2400.10000000149]","1","2","","","7574","113","6","3","lose","go","0"
"pit-trial","232","2251830","0.0-118.0","battery-v0.2","","""event"",""trial"",""time""
""fullscreenenter"",""1"",""2570""
","
","
","""event"",""trial"",""time""
""fullscreenenter"",""1"",""2570""
","
","","","1628.8999999985099","","","17","7574","3874","m","elianto","#3366ff99"," "," ","1","+10","[2483.1999999955297]","1","2","","","7574","114","9","1","win","go","0"
"pit-trial","233","2256694","0.0-119.0","battery-v0.2","","""event"",""trial"",""time""
""fullscreenenter"",""1"",""2570""
","
","
","""event"",""trial"",""time""
""fullscreenenter"",""1"",""2570""
","
","","","-1","","","17","7574","3874","r","elianto","#3366ff99"," ","-1","0","0","[]","0","2","","","7574","115","8","1","win","go","0"
"pit-trial","234","2261558","0.0-120.0","battery-v0.2","","""event"",""trial"",""time""
""fullscreenenter"",""1"",""2570""
","
","
","""event"",""trial"",""time""
""fullscreenenter"",""1"",""2570""
","
","","","-1","","","17","7574","3874","z","elianto","#3366ff99","-1","-1","1","+10","[]","0","2","","","7574","116","5","2","win","no-go","0"
"pit-trial","235","2266182","0.0-121.0","battery-v0.2","","""event"",""trial"",""time""
""fullscreenenter"",""1"",""2570""
","
","
","""event"",""trial"",""time""
""fullscreenenter"",""1"",""2570""
","
","","","1762.7000000029802","","","17","7574","3874","r","elianto","#3366ff99"," "," ","1","+10","[2616.60000000149]","1","2","","","7574","117","8","1","win","go","0"
"pit-trial","236","2270703","0.0-122.0","battery-v0.2","","""event"",""trial"",""time""
""fullscreenenter"",""1"",""2570""
","
","
","""event"",""trial"",""time""
""fullscreenenter"",""1"",""2570""
","
","","","1658.3999999985099","","","17","7574","3874","m","elianto","#3366ff99"," "," ","1","+10","[2510.60000000149]","1","2","","","7574","118","9","1","win","go","0"
"pit-trial","237","2274622","0.0-123.0","battery-v0.2","","""event"",""trial"",""time""
""fullscreenenter"",""1"",""2570""
","
","
","""event"",""trial"",""time""
""fullscreenenter"",""1"",""2570""
","
","","","1057.8999999985099","","","17","7574","3874","h","elianto","#f73b6a7A"," "," ","1","0","[1909.5]","1","2","","","7574","119","6","3","lose","go","0"
"pit-trial","238","2278518","0.0-124.0","battery-v0.2","","""event"",""trial"",""time""
""fullscreenenter"",""1"",""2570""
","
","
","""event"",""trial"",""time""
""fullscreenenter"",""1"",""2570""
","
","","","1031.5","","","17","7574","3874","z","elianto","#3366ff99","-1"," ","0","0","[1885.7000000029802]","1","2","","","7574","120","5","2","win","no-go","0"
"pit-trial","239","2283383","0.0-125.0","battery-v0.2","","""event"",""trial"",""time""
""fullscreenenter"",""1"",""2570""
","
","
","""event"",""trial"",""time""
""fullscreenenter"",""1"",""2570""
","
","","","-1","","","17","7574","3874","y","elianto","#f73b6a7A","-1","-1","1","-10","[]","0","2","","","7574","121","7","4","lose","no-go","1"
"pit-trial","240","2287502","0.0-126.0","battery-v0.2","","""event"",""trial"",""time""
""fullscreenenter"",""1"",""2570""
","
","
","""event"",""trial"",""time""
""fullscreenenter"",""1"",""2570""
","
","","","1254.5","","","17","7574","3874","r","elianto","#3366ff99"," "," ","1","+10","[2107.9000000059605]","1","2","","","7574","122","8","1","win","go","0"
"pit-trial","241","2291606","0.0-127.0","battery-v0.2","","""event"",""trial"",""time""
""fullscreenenter"",""1"",""2570""
","
","
","""event"",""trial"",""time""
""fullscreenenter"",""1"",""2570""
","
","","","1240.9000000059605","","","17","7574","3874","h","elianto","#f73b6a7A"," "," ","1","0","[2092.7000000029802]","1","2","","","7574","123","6","3","lose","go","0"
"pit-trial","242","2295230","0.0-128.0","battery-v0.2","","""event"",""trial"",""time""
""fullscreenenter"",""1"",""2570""
","
","
","""event"",""trial"",""time""
""fullscreenenter"",""1"",""2570""
","
","","","762","","","17","7574","3874","m","elianto","#3366ff99"," "," ","1","+10","[1612.8999999985099]","1","2","","","7574","124","9","1","win","go","0"
"pit-trial","243","2299303","0.0-129.0","battery-v0.2","","""event"",""trial"",""time""
""fullscreenenter"",""1"",""2570""
","
","
","""event"",""trial"",""time""
""fullscreenenter"",""1"",""2570""
","
","","","1209.7999999970198","","","17","7574","3874","y","elianto","#f73b6a7A","-1"," ","0","-10","[2062]","1","2","","","7574","125","7","4","lose","no-go","0"
"pit-trial","244","2302806","0.0-130.0","battery-v0.2","","""event"",""trial"",""time""
""fullscreenenter"",""1"",""2570""
","
","
","""event"",""trial"",""time""
""fullscreenenter"",""1"",""2570""
","
","","","641.9000000059605","","","17","7574","3874","m","elianto","#3366ff99"," "," ","1","+10","[1493.7000000029802]","1","2","","","7574","126","9","1","win","go","0"
"pit-trial","245","2307478","0.0-131.0","battery-v0.2","","""event"",""trial"",""time""
""fullscreenenter"",""1"",""2570""
","
","
","""event"",""trial"",""time""
""fullscreenenter"",""1"",""2570""
","
","","","1812.6999999955297","","","17","7574","3874","r","elianto","#3366ff99"," "," ","1","+10","[2663.10000000149]","1","2","","","7574","127","8","1","win","go","0"
"pit-trial","246","2311766","0.0-132.0","battery-v0.2","","""event"",""trial"",""time""
""fullscreenenter"",""1"",""2570""
","
","
","""event"",""trial"",""time""
""fullscreenenter"",""1"",""2570""
","
","","","1429.6999999955297","","","17","7574","3874","h","elianto","#f73b6a7A"," "," ","1","0","[2281.8000000044703]","1","2","","","7574","128","6","3","lose","go","0"
"pit-trial","247","2315334","0.0-133.0","battery-v0.2","","""event"",""trial"",""time""
""fullscreenenter"",""1"",""2570""
","
","
","""event"",""trial"",""time""
""fullscreenenter"",""1"",""2570""
","
","","","704.0999999940395","","","17","7574","3874","m","elianto","#3366ff99"," "," ","1","+10","[1556.1999999955297]","1","2","","","7574","129","9","1","win","go","0"
"pit-trial","248","2320198","0.0-134.0","battery-v0.2","","""event"",""trial"",""time""
""fullscreenenter"",""1"",""2570""
","
","
","""event"",""trial"",""time""
""fullscreenenter"",""1"",""2570""
","
","","","-1","","","17","7574","3874","y","elianto","#f73b6a7A","-1","-1","1","0","[]","0","2","","","7574","130","7","4","lose","no-go","0"
"pit-trial","249","2323950","0.0-135.0","battery-v0.2","","""event"",""trial"",""time""
""fullscreenenter"",""1"",""2570""
","
","
","""event"",""trial"",""time""
""fullscreenenter"",""1"",""2570""
","
","","","895.2999999970198","","","17","7574","3874","r","elianto","#3366ff99"," "," ","1","+10","[1747.7999999970198]","1","2","","","7574","131","8","1","win","go","0"
"pit-trial","250","2327614","0.0-136.0","battery-v0.2","","""event"",""trial"",""time""
""fullscreenenter"",""1"",""2570""
","
","
","""event"",""trial"",""time""
""fullscreenenter"",""1"",""2570""
","
","","","801.1999999955297","","","17","7574","3874","h","elianto","#f73b6a7A"," "," ","1","0","[1653]","1","2","","","7574","132","6","3","lose","go","0"
"pit-trial","251","2332478","0.0-137.0","battery-v0.2","","""event"",""trial"",""time""
""fullscreenenter"",""1"",""2570""
","
","
","""event"",""trial"",""time""
""fullscreenenter"",""1"",""2570""
","
","","","-1","","","17","7574","3874","y","elianto","#f73b6a7A","-1","-1","1","0","[]","0","2","","","7574","133","7","4","lose","no-go","0"
"pit-trial","252","2336638","0.0-138.0","battery-v0.2","","""event"",""trial"",""time""
""fullscreenenter"",""1"",""2570""
","
","
","""event"",""trial"",""time""
""fullscreenenter"",""1"",""2570""
","
","","","1300.3999999985099","","","17","7574","3874","h","elianto","#f73b6a7A"," "," ","1","-10","[2152.7000000029802]","1","2","","","7574","134","6","3","lose","go","1"
"pit-trial","253","2340287","0.0-139.0","battery-v0.2","","""event"",""trial"",""time""
""fullscreenenter"",""1"",""2570""
","
","
","""event"",""trial"",""time""
""fullscreenenter"",""1"",""2570""
","
","","","793.6000000014901","","","17","7574","3874","m","elianto","#3366ff99"," "," ","1","+10","[1643.6000000014901]","1","2","","","7574","135","9","1","win","go","0"
"pit-trial","254","2343782","0.0-140.0","battery-v0.2","","""event"",""trial"",""time""
""fullscreenenter"",""1"",""2570""
","
","
","""event"",""trial"",""time""
""fullscreenenter"",""1"",""2570""
","
","","","638.5","","","17","7574","3874","r","elianto","#3366ff99"," "," ","1","+10","[1488.6000000014901]","1","2","","","7574","136","8","1","win","go","0"
"pit-trial","255","2347566","0.0-141.0","battery-v0.2","","""event"",""trial"",""time""
""fullscreenenter"",""1"",""2570""
","
","
","""event"",""trial"",""time""
""fullscreenenter"",""1"",""2570""
","
","","","921.8000000044703","","","17","7574","3874","r","elianto","#3366ff99"," "," ","1","+10","[1775.6000000014901]","1","2","","","7574","137","8","1","win","go","0"
"pit-trial","256","2352430","0.0-142.0","battery-v0.2","","""event"",""trial"",""time""
""fullscreenenter"",""1"",""2570""
","
","
","""event"",""trial"",""time""
""fullscreenenter"",""1"",""2570""
","
","","","-1","","","17","7574","3874","y","elianto","#f73b6a7A","-1","-1","1","0","[]","0","2","","","7574","138","7","4","lose","no-go","0"
"pit-trial","257","2355950","0.0-143.0","battery-v0.2","","""event"",""trial"",""time""
""fullscreenenter"",""1"",""2570""
","
","
","""event"",""trial"",""time""
""fullscreenenter"",""1"",""2570""
","
","","","660.2999999970198","","","17","7574","3874","m","elianto","#3366ff99"," "," ","1","+10","[1512.6999999955297]","1","2","","","7574","139","9","1","win","go","0"
"pit-trial","258","2360239","0.0-144.0","battery-v0.2","","""event"",""trial"",""time""
""fullscreenenter"",""1"",""2570""
","
","
","""event"",""trial"",""time""
""fullscreenenter"",""1"",""2570""
","
","","","1428.8999999985099","","","17","7574","3874","h","elianto","#f73b6a7A"," "," ","1","0","[2280.60000000149]","1","2","","","7574","140","6","3","lose","go","0"
"pit-instructions","259","2445988","0.0-145.0","battery-v0.2","","""event"",""trial"",""time""
""fullscreenenter"",""1"",""2570""
","
","
","""event"",""trial"",""time""
""fullscreenenter"",""1"",""2570""
","
","","[{""page_index"":0,""viewing_time"":77218},{""page_index"":1,""viewing_time"":8526.5}]","85746.10000000149","","","","","","","","","","","","","","","","","","","","","","","",""
"pit-trial","260","2450110","0.0-146.0","battery-v0.2","","""event"",""trial"",""time""
""fullscreenenter"",""1"",""2570""
","
","
","""event"",""trial"",""time""
""fullscreenenter"",""1"",""2570""
","
","","","1253.3000000044703","","","17","7574","3874","g","elianto","#f73b6a7A"," "," ","1","0","[2108.5]","1","3","","","7574","141","3","3","lose","go","0"
"pit-trial","261","2454303","0.0-147.0","battery-v0.2","","""event"",""trial"",""time""
""fullscreenenter"",""1"",""2570""
","
","
","""event"",""trial"",""time""
""fullscreenenter"",""1"",""2570""
","
","","","1329.6999999955297","","","17","7574","3874","a","elianto","#f73b6a7A","-1"," ","0","-10","[2181.0999999940395]","1","3","","","7574","142","2","4","lose","no-go","0"
"pit-trial","262","2458366","0.0-148.0","battery-v0.2","","""event"",""trial"",""time""
""fullscreenenter"",""1"",""2570""
","
","
","""event"",""trial"",""time""
""fullscreenenter"",""1"",""2570""
","
","","","1200.7000000029802","","","17","7574","3874","l","elianto","#3366ff99"," "," ","1","+10","[2051.89999999851]","1","3","","","7574","143","1","1","win","go","0"
"pit-trial","263","2463230","0.0-149.0","battery-v0.2","","""event"",""trial"",""time""
""fullscreenenter"",""1"",""2570""
","
","
","""event"",""trial"",""time""
""fullscreenenter"",""1"",""2570""
","
","","","-1","","","17","7574","3874","u","elianto","#f73b6a7A","-1","-1","1","0","[]","0","3","","","7574","144","0","4","lose","no-go","0"
"pit-trial","264","2468094","0.0-150.0","battery-v0.2","","""event"",""trial"",""time""
""fullscreenenter"",""1"",""2570""
","
","
","""event"",""trial"",""time""
""fullscreenenter"",""1"",""2570""
","
","","","-1","","","17","7574","3874","u","elianto","#f73b6a7A","-1","-1","1","0","[]","0","3","","","7574","145","0","4","lose","no-go","0"
"pit-trial","265","2472047","0.0-151.0","battery-v0.2","","""event"",""trial"",""time""
""fullscreenenter"",""1"",""2570""
","
","
","""event"",""trial"",""time""
""fullscreenenter"",""1"",""2570""
","
","","","1090.6000000014901","","","17","7574","3874","l","elianto","#3366ff99"," "," ","1","+10","[1942.7000000029802]","1","3","","","7574","146","1","1","win","go","0"
"pit-trial","266","2476462","0.0-152.0","battery-v0.2","","""event"",""trial"",""time""
""fullscreenenter"",""1"",""2570""
","
","
","""event"",""trial"",""time""
""fullscreenenter"",""1"",""2570""
","
","","","1550.2000000029802","","","17","7574","3874","a","elianto","#f73b6a7A","-1"," ","0","-10","[2405.5]","1","3","","","7574","147","2","4","lose","no-go","0"
"pit-trial","267","2480438","0.0-153.0","battery-v0.2","","""event"",""trial"",""time""
""fullscreenenter"",""1"",""2570""
","
","
","""event"",""trial"",""time""
""fullscreenenter"",""1"",""2570""
","
","","","1107.6999999955297","","","17","7574","3874","g","elianto","#f73b6a7A"," "," ","1","0","[1966.5]","1","3","","","7574","148","3","3","lose","go","0"
"pit-trial","268","2485302","0.0-154.0","battery-v0.2","","""event"",""trial"",""time""
""fullscreenenter"",""1"",""2570""
","
","
","""event"",""trial"",""time""
""fullscreenenter"",""1"",""2570""
","
","","","-1","","","17","7574","3874","u","elianto","#f73b6a7A","-1","-1","1","0","[]","0","3","","","7574","149","0","4","lose","no-go","0"
"pit-trial","269","2489118","0.0-155.0","battery-v0.2","","""event"",""trial"",""time""
