"trial_type","trial_index","time_elapsed","internal_node_id","task_version","subject_id","interactions","blur_events","focus_events","fullscreenenter_events","fullscreenexit_events","success","view_history","rt","responses","num_errors","age","subject","participantId","rune","rune_set","hex","correct","choice","accuracy","outcome","keys","total_keys","block","practice","value","sub","trial","stimulus","robot","valence","action","sham"
"pavlovia","0","8","0.0-0.0","battery-v0.2","","""event"",""trial"",""time""
""fullscreenenter"",""1"",""5274""
","
","
","""event"",""trial"",""time""
""fullscreenenter"",""1"",""5274""
","
","","","","","","","","","","","","","","","","","","","","","","","","","","",""
"fullscreen","1","6236","0.0-1.0","battery-v0.2","","""event"",""trial"",""time""
""fullscreenenter"",""1"",""5274""
","
","
","""event"",""trial"",""time""
""fullscreenenter"",""1"",""5274""
","
","true","","","","","","","","","","","","","","","","","","","","","","","","","",""
"pit-instructions","2","12379","0.0-2.0-0.0","battery-v0.2","","""event"",""trial"",""time""
""fullscreenenter"",""1"",""5274""
","
","
","""event"",""trial"",""time""
""fullscreenenter"",""1"",""5274""
","
","","[{""page_index"":0,""viewing_time"":6140.800000000745}]","6141","","","","","","","","","","","","","","","","","","","","","","","",""
"pit-comprehension","3","15547","0.0-2.0-1.0-0.0","battery-v0.2","","""event"",""trial"",""time""
""fullscreenenter"",""1"",""5274""
","
","
","""event"",""trial"",""time""
""fullscreenenter"",""1"",""5274""
","
","","","3166","[""shark""]","0","17","5576","3156","","","","","","","","","","","","","","","","","","",""
"pit-instructions","4","17090","0.0-2.0-1.0-1.0","battery-v0.2","","""event"",""trial"",""time""
""fullscreenenter"",""1"",""5274""
","
","
","""event"",""trial"",""time""
""fullscreenenter"",""1"",""5274""
","
","","[{""page_index"":0,""viewing_time"":1535.4000000022352}]","1535.7000000029802","","","","","","","","","","","","","","","","","","","","","","","",""
"pit-comprehension","5","20387","0.0-2.0-2.0-0.0","battery-v0.2","","""event"",""trial"",""time""
""fullscreenenter"",""1"",""5274""
","
","
","""event"",""trial"",""time""
""fullscreenenter"",""1"",""5274""
","
","","","3294.5","[""tiger""]","0","17","5576","3156","","","","","","","","","","","","","","","","","","",""
"pit-instructions","6","21770","0.0-2.0-2.0-1.0","battery-v0.2","","""event"",""trial"",""time""
""fullscreenenter"",""1"",""5274""
","
","
","""event"",""trial"",""time""
""fullscreenenter"",""1"",""5274""
","
","","[{""page_index"":0,""viewing_time"":1380.9000000022352}]","1381.1000000014901","","","","","","","","","","","","","","","","","","","","","","","",""
"pit-instructions","7","115890","0.0-2.0-3.0","battery-v0.2","","""event"",""trial"",""time""
""fullscreenenter"",""1"",""5274""
","
","
","""event"",""trial"",""time""
""fullscreenenter"",""1"",""5274""
","
","","[{""page_index"":0,""viewing_time"":7846.099999997765},{""page_index"":1,""viewing_time"":6328},{""page_index"":2,""viewing_time"":6680},{""page_index"":3,""viewing_time"":5536},{""page_index"":4,""viewing_time"":5831.900000002235},{""page_index"":5,""viewing_time"":7680},{""page_index"":6,""viewing_time"":7664.099999997765},{""page_index"":7,""viewing_time"":7200.10000000149},{""page_index"":8,""viewing_time"":6655.89999999851},{""page_index"":9,""viewing_time"":7432.10000000149},{""page_index"":10,""viewing_time"":7039.800000000745},{""page_index"":11,""viewing_time"":7063.89999999851},{""page_index"":12,""viewing_time"":6456.10000000149},{""page_index"":13,""viewing_time"":4704}]","94118.19999999925","","","","","","","","","","","","","","","","","","","","","","","",""
"pit-trial","8","119528","0.0-2.0-4.0-0.0","battery-v0.2","","""event"",""trial"",""time""
""fullscreenenter"",""1"",""5274""
","
","
","""event"",""trial"",""time""
""fullscreenenter"",""1"",""5274""
","
","","","779.3000000007451","","","17","5576","3156","&#9784;","elianto","#FFFFF080"," "," ","1","&#10004","[1632.800000000745]","1","0","0","","","","","","","",""
"pit-trial","9","123231","0.0-2.0-4.1-0.1","battery-v0.2","","""event"",""trial"",""time""
""fullscreenenter"",""1"",""5274""
","
","
","""event"",""trial"",""time""
""fullscreenenter"",""1"",""5274""
","
","","","844","","","17","5576","3156","&#9784;","elianto","#FFFFF080"," "," ","1","&#10004","[1698.300000000745]","1","0","0","","","","","","","",""
"pit-trial","10","126748","0.0-2.0-4.2-0.2","battery-v0.2","","""event"",""trial"",""time""
""fullscreenenter"",""1"",""5274""
","
","
","""event"",""trial"",""time""
""fullscreenenter"",""1"",""5274""
","
","","","660.3999999985099","","","17","5576","3156","&#9784;","elianto","#FFFFF080"," "," ","1","&#10004","[1511.2999999970198]","1","0","0","","","","","","","",""
"pit-trial","11","130179","0.0-2.0-4.3-0.3","battery-v0.2","","""event"",""trial"",""time""
""fullscreenenter"",""1"",""5274""
","
","
","""event"",""trial"",""time""
""fullscreenenter"",""1"",""5274""
","
","","","575.5","","","17","5576","3156","&#9784;","elianto","#FFFFF080"," "," ","1","&#10004","[1426.5]","1","0","0","","","","","","","",""
"pit-trial","12","133580","0.0-2.0-4.4-0.4","battery-v0.2","","""event"",""trial"",""time""
""fullscreenenter"",""1"",""5274""
","
","
","""event"",""trial"",""time""
""fullscreenenter"",""1"",""5274""
","
","","","548.3999999985099","","","17","5576","3156","&#9784;","elianto","#FFFFF080"," "," ","1","&#10004","[1399.199999999255]","1","0","0","","","","","","","",""
"pit-instructions","13","154122","0.0-2.0-5.0","battery-v0.2","","""event"",""trial"",""time""
""fullscreenenter"",""1"",""5274""
","
","
","""event"",""trial"",""time""
""fullscreenenter"",""1"",""5274""
","
","","[{""page_index"":0,""viewing_time"":5035.60000000149},{""page_index"":1,""viewing_time"":5495.89999999851},{""page_index"":2,""viewing_time"":4727.900000002235},{""page_index"":3,""viewing_time"":5280}]","20539.70000000298","","","","","","","","","","","","","","","","","","","","","","","",""
"pit-trial","14","158980","0.0-2.0-6.0-0.0","battery-v0.2","","""event"",""trial"",""time""
""fullscreenenter"",""1"",""5274""
","
","
","""event"",""trial"",""time""
""fullscreenenter"",""1"",""5274""
","
","","","-1","","","17","5576","3156","&#9854;","elianto","#FFFFF080","-1","-1","1","&#10004","[]","0","0","1","","","","","","","",""
"pit-trial","15","163836","0.0-2.0-6.1-0.1","battery-v0.2","","""event"",""trial"",""time""
""fullscreenenter"",""1"",""5274""
","
","
","""event"",""trial"",""time""
""fullscreenenter"",""1"",""5274""
","
","","","-1","","","17","5576","3156","&#9854;","elianto","#FFFFF080","-1","-1","1","&#10004","[]","0","0","1","","","","","","","",""
"pit-trial","16","168689","0.0-2.0-6.2-0.2","battery-v0.2","","""event"",""trial"",""time""
""fullscreenenter"",""1"",""5274""
","
","
","""event"",""trial"",""time""
""fullscreenenter"",""1"",""5274""
","
","","","-1","","","17","5576","3156","&#9854;","elianto","#FFFFF080","-1","-1","1","&#10004","[]","0","0","1","","","","","","","",""
"pit-trial","17","173548","0.0-2.0-6.3-0.3","battery-v0.2","","""event"",""trial"",""time""
""fullscreenenter"",""1"",""5274""
","
","
","""event"",""trial"",""time""
""fullscreenenter"",""1"",""5274""
","
","","","-1","","","17","5576","3156","&#9854;","elianto","#FFFFF080","-1","-1","1","&#10004","[]","0","0","1","","","","","","","",""
"pit-trial","18","178404","0.0-2.0-6.4-0.4","battery-v0.2","","""event"",""trial"",""time""
""fullscreenenter"",""1"",""5274""
","
","
","""event"",""trial"",""time""
""fullscreenenter"",""1"",""5274""
","
","","","-1","","","17","5576","3156","&#9854;","elianto","#FFFFF080","-1","-1","1","&#10004","[]","0","0","1","","","","","","","",""
"pit-instructions","19","347203","0.0-2.0-7.0","battery-v0.2","","""event"",""trial"",""time""
""fullscreenenter"",""1"",""5274""
","
","
","""event"",""trial"",""time""
""fullscreenenter"",""1"",""5274""
","
","","[{""page_index"":0,""viewing_time"":5972.39999999851},{""page_index"":1,""viewing_time"":9479.900000002235},{""page_index"":2,""viewing_time"":7576.199999999255},{""page_index"":3,""viewing_time"":6503.800000000745},{""page_index"":4,""viewing_time"":7079.89999999851},{""page_index"":5,""viewing_time"":6608.199999999255},{""page_index"":6,""viewing_time"":5048.10000000149},{""page_index"":7,""viewing_time"":7592},{""page_index"":8,""viewing_time"":7007.800000000745},{""page_index"":9,""viewing_time"":5928},{""page_index"":10,""viewing_time"":6952.099999997765},{""page_index"":11,""viewing_time"":5408},{""page_index"":12,""viewing_time"":7672.10000000149},{""page_index"":13,""viewing_time"":9095.800000000745},{""page_index"":14,""viewing_time"":8840},{""page_index"":15,""viewing_time"":6984.099999997765},{""page_index"":16,""viewing_time"":43624.10000000149},{""page_index"":17,""viewing_time"":11423.89999999851}]","168796.6000000015","","","","","","","","","","","","","","","","","","","","","","","",""
"pit-trial","20","351221","0.0-2.0-8.0-0.0","battery-v0.2","","""event"",""trial"",""time""
""fullscreenenter"",""1"",""5274""
","
","
","""event"",""trial"",""time""
""fullscreenenter"",""1"",""5274""
","
","","","1164.6000000014901","","","17","5576","3156","&#9776;","elianto","#3366ff99"," "," ","1","+10","[2016.699999999255]","1","0","1","","","","","","","",""
"pit-trial","21","354727","0.0-2.0-8.0-1.0","battery-v0.2","","""event"",""trial"",""time""
""fullscreenenter"",""1"",""5274""
","
","
","""event"",""trial"",""time""
""fullscreenenter"",""1"",""5274""
","
","","","652.4000000022352","","","17","5576","3156","&#9776;","elianto","#3366ff99"," "," ","1","+10","[1502.3999999985099]","1","0","1","","","","","","","",""
"pit-trial","22","358161","0.0-2.0-8.0-2.0","battery-v0.2","","""event"",""trial"",""time""
""fullscreenenter"",""1"",""5274""
","
","
","""event"",""trial"",""time""
""fullscreenenter"",""1"",""5274""
","
","","","580.4000000022352","","","17","5576","3156","&#9776;","elianto","#3366ff99"," "," ","1","+10","[1431.800000000745]","1","0","1","","","","","","","",""
"pit-trial","23","361552","0.0-2.0-8.0-3.0","battery-v0.2","","""event"",""trial"",""time""
""fullscreenenter"",""1"",""5274""
","
","
","""event"",""trial"",""time""
""fullscreenenter"",""1"",""5274""
","
","","","532.4000000022352","","","17","5576","3156","&#9776;","elianto","#3366ff99"," "," ","1","0","[1386.5]","1","0","1","","","","","","","",""
"pit-trial","24","364979","0.0-2.0-8.0-4.0","battery-v0.2","","""event"",""trial"",""time""
""fullscreenenter"",""1"",""5274""
","
","
","""event"",""trial"",""time""
""fullscreenenter"",""1"",""5274""
","
","","","572.9000000022352","","","17","5576","3156","&#9776;","elianto","#3366ff99"," "," ","1","+10","[1423]","1","0","1","","","","","","","",""
"pit-trial","25","368387","0.0-2.0-8.1-0.1","battery-v0.2","","""event"",""trial"",""time""
""fullscreenenter"",""1"",""5274""
","
","
","""event"",""trial"",""time""
""fullscreenenter"",""1"",""5274""
","
","","","554.6999999992549","","","17","5576","3156","&#9776;","elianto","#3366ff99"," "," ","1","+10","[1405.199999999255]","1","0","1","","","","","","","",""
"pit-trial","26","372488","0.0-2.0-8.1-1.1","battery-v0.2","","""event"",""trial"",""time""
""fullscreenenter"",""1"",""5274""
","
","
","""event"",""trial"",""time""
""fullscreenenter"",""1"",""5274""
","
","","","1246","","","17","5576","3156","&#9776;","elianto","#3366ff99"," "," ","1","+10","[2098]","1","0","1","","","","","","","",""
"pit-trial","27","375885","0.0-2.0-8.1-2.1","battery-v0.2","","""event"",""trial"",""time""
""fullscreenenter"",""1"",""5274""
","
","
","""event"",""trial"",""time""
""fullscreenenter"",""1"",""5274""
","
","","","544.3000000007451","","","17","5576","3156","&#9776;","elianto","#3366ff99"," "," ","1","+10","[1395.300000000745]","1","0","1","","","","","","","",""
"pit-trial","28","379280","0.0-2.0-8.1-3.1","battery-v0.2","","""event"",""trial"",""time""
""fullscreenenter"",""1"",""5274""
","
","
","""event"",""trial"",""time""
""fullscreenenter"",""1"",""5274""
","
","","","538.6999999992549","","","17","5576","3156","&#9776;","elianto","#3366ff99"," "," ","1","0","[1392]","1","0","1","","","","","","","",""
"pit-trial","29","382863","0.0-2.0-8.1-4.1","battery-v0.2","","""event"",""trial"",""time""
""fullscreenenter"",""1"",""5274""
","
","
","""event"",""trial"",""time""
""fullscreenenter"",""1"",""5274""
","
","","","728.8000000007451","","","17","5576","3156","&#9776;","elianto","#3366ff99"," "," ","1","+10","[1579.6000000014901]","1","0","1","","","","","","","",""
"pit-trial","30","386203","0.0-2.0-8.2-0.2","battery-v0.2","","""event"",""trial"",""time""
""fullscreenenter"",""1"",""5274""
","
","
","""event"",""trial"",""time""
""fullscreenenter"",""1"",""5274""
","
","","","484.69999999925494","","","17","5576","3156","&#9776;","elianto","#3366ff99"," "," ","1","+10","[1335.5]","1","0","1","","","","","","","",""
"pit-trial","31","389575","0.0-2.0-8.2-1.2","battery-v0.2","","""event"",""trial"",""time""
""fullscreenenter"",""1"",""5274""
","
","
","""event"",""trial"",""time""
""fullscreenenter"",""1"",""5274""
","
","","","518.6999999992549","","","17","5576","3156","&#9776;","elianto","#3366ff99"," "," ","1","+10","[1370]","1","0","1","","","","","","","",""
"pit-trial","32","392968","0.0-2.0-8.2-2.2","battery-v0.2","","""event"",""trial"",""time""
""fullscreenenter"",""1"",""5274""
","
","
","""event"",""trial"",""time""
""fullscreenenter"",""1"",""5274""
","
","","","539","","","17","5576","3156","&#9776;","elianto","#3366ff99"," "," ","1","+10","[1390.1000000014901]","1","0","1","","","","","","","",""
"pit-trial","33","396304","0.0-2.0-8.2-3.2","battery-v0.2","","""event"",""trial"",""time""
""fullscreenenter"",""1"",""5274""
","
","
","""event"",""trial"",""time""
""fullscreenenter"",""1"",""5274""
","
","","","482.5","","","17","5576","3156","&#9776;","elianto","#3366ff99"," "," ","1","0","[1333.5999999977648]","1","0","1","","","","","","","",""
"pit-trial","34","399440","0.0-2.0-8.2-4.2","battery-v0.2","","""event"",""trial"",""time""
""fullscreenenter"",""1"",""5274""
","
","
","""event"",""trial"",""time""
""fullscreenenter"",""1"",""5274""
","
","","","280.5999999977648","","","17","5576","3156","&#9776;","elianto","#3366ff99"," "," ","1","+10","[1130.8999999985099]","1","0","1","","","","","","","",""
"call-function","35","399442","0.0-2.0-9.0","battery-v0.2","","""event"",""trial"",""time""
""fullscreenenter"",""1"",""5274""
","
","
","""event"",""trial"",""time""
""fullscreenenter"",""1"",""5274""
","
","","","","","","","","","","","","","","","","","","","","","","","","","","",""
"pit-instructions","36","454810","0.0-2.0-10.0","battery-v0.2","","""event"",""trial"",""time""
""fullscreenenter"",""1"",""5274""
","
","
","""event"",""trial"",""time""
""fullscreenenter"",""1"",""5274""
","
","","[{""page_index"":0,""viewing_time"":15384.099999997765},{""page_index"":1,""viewing_time"":11008.10000000149},{""page_index"":2,""viewing_time"":10367.800000000745},{""page_index"":3,""viewing_time"":9776.099999997765},{""page_index"":4,""viewing_time"":8832}]","55368.39999999851","","","","","","","","","","","","","","","","","","","","","","","",""
"pit-trial","37","458935","0.0-2.0-11.0-0.0","battery-v0.2","","""event"",""trial"",""time""
""fullscreenenter"",""1"",""5274""
","
","
","""event"",""trial"",""time""
""fullscreenenter"",""1"",""5274""
","
","","","1268.1000000014901","","","17","5576","3156","&#9761;","elianto","#3366ff99","-1"," ","0","0","[2120.599999997765]","1","0","2","","","","","","","",""
"pit-trial","38","462735","0.0-2.0-11.0-1.0","battery-v0.2","","""event"",""trial"",""time""
""fullscreenenter"",""1"",""5274""
","
","
","""event"",""trial"",""time""
""fullscreenenter"",""1"",""5274""
","
","","","945.1999999992549","","","17","5576","3156","&#9761;","elianto","#3366ff99","-1"," ","0","0","[1795.7999999970198]","1","0","2","","","","","","","",""
"pit-trial","39","467592","0.0-2.0-11.0-2.0","battery-v0.2","","""event"",""trial"",""time""
""fullscreenenter"",""1"",""5274""
","
","
","""event"",""trial"",""time""
""fullscreenenter"",""1"",""5274""
","
","","","-1","","","17","5576","3156","&#9761;","elianto","#3366ff99","-1","-1","1","+10","[]","0","0","2","","","","","","","",""
"pit-trial","40","472451","0.0-2.0-11.0-3.0","battery-v0.2","","""event"",""trial"",""time""
""fullscreenenter"",""1"",""5274""
","
","
","""event"",""trial"",""time""
""fullscreenenter"",""1"",""5274""
","
","","","-1","","","17","5576","3156","&#9761;","elianto","#3366ff99","-1","-1","1","0","[]","0","0","2","","","","","","","",""
"pit-trial","41","477308","0.0-2.0-11.0-4.0","battery-v0.2","","""event"",""trial"",""time""
""fullscreenenter"",""1"",""5274""
","
","
","""event"",""trial"",""time""
""fullscreenenter"",""1"",""5274""
","
","","","-1","","","17","5576","3156","&#9761;","elianto","#3366ff99","-1","-1","1","+10","[]","0","0","2","","","","","","","",""
"pit-trial","42","482160","0.0-2.0-11.1-0.1","battery-v0.2","","""event"",""trial"",""time""
""fullscreenenter"",""1"",""5274""
","
","
","""event"",""trial"",""time""
""fullscreenenter"",""1"",""5274""
","
","","","-1","","","17","5576","3156","&#9761;","elianto","#3366ff99","-1","-1","1","+10","[]","0","0","2","","","","","","","",""
"pit-trial","43","487015","0.0-2.0-11.1-1.1","battery-v0.2","","""event"",""trial"",""time""
""fullscreenenter"",""1"",""5274""
","
","
","""event"",""trial"",""time""
""fullscreenenter"",""1"",""5274""
","
","","","-1","","","17","5576","3156","&#9761;","elianto","#3366ff99","-1","-1","1","+10","[]","0","0","2","","","","","","","",""
"pit-trial","44","491868","0.0-2.0-11.1-2.1","battery-v0.2","","""event"",""trial"",""time""
""fullscreenenter"",""1"",""5274""
","
","
","""event"",""trial"",""time""
""fullscreenenter"",""1"",""5274""
","
","","","-1","","","17","5576","3156","&#9761;","elianto","#3366ff99","-1","-1","1","+10","[]","0","0","2","","","","","","","",""
"pit-trial","45","496723","0.0-2.0-11.1-3.1","battery-v0.2","","""event"",""trial"",""time""
""fullscreenenter"",""1"",""5274""
","
","
","""event"",""trial"",""time""
""fullscreenenter"",""1"",""5274""
","
","","","-1","","","17","5576","3156","&#9761;","elianto","#3366ff99","-1","-1","1","0","[]","0","0","2","","","","","","","",""
"pit-trial","46","501575","0.0-2.0-11.1-4.1","battery-v0.2","","""event"",""trial"",""time""
""fullscreenenter"",""1"",""5274""
","
","
","""event"",""trial"",""time""
""fullscreenenter"",""1"",""5274""
","
","","","-1","","","17","5576","3156","&#9761;","elianto","#3366ff99","-1","-1","1","+10","[]","0","0","2","","","","","","","",""
"pit-trial","47","506431","0.0-2.0-11.2-0.2","battery-v0.2","","""event"",""trial"",""time""
""fullscreenenter"",""1"",""5274""
","
","
","""event"",""trial"",""time""
""fullscreenenter"",""1"",""5274""
","
","","","-1","","","17","5576","3156","&#9761;","elianto","#3366ff99","-1","-1","1","+10","[]","0","0","2","","","","","","","",""
"pit-trial","48","509980","0.0-2.0-11.2-1.2","battery-v0.2","","""event"",""trial"",""time""
""fullscreenenter"",""1"",""5274""
","
","
","""event"",""trial"",""time""
""fullscreenenter"",""1"",""5274""
","
","","","696.9000000022352","","","17","5576","3156","&#9761;","elianto","#3366ff99","-1"," ","0","0","[1548.300000000745]","1","0","2","","","","","","","",""
"pit-trial","49","514000","0.0-2.0-11.2-2.2","battery-v0.2","","""event"",""trial"",""time""
""fullscreenenter"",""1"",""5274""
","
","
","""event"",""trial"",""time""
""fullscreenenter"",""1"",""5274""
","
","","","1166.3999999985099","","","17","5576","3156","&#9761;","elianto","#3366ff99","-1"," ","0","0","[2016.5999999977648]","1","0","2","","","","","","","",""
"pit-trial","50","517415","0.0-2.0-11.2-3.2","battery-v0.2","","""event"",""trial"",""time""
""fullscreenenter"",""1"",""5274""
","
","
","""event"",""trial"",""time""
""fullscreenenter"",""1"",""5274""
","
","","","560.4000000022352","","","17","5576","3156","&#9761;","elianto","#3366ff99","-1"," ","0","+10","[1410.6000000014901]","1","0","2","","","","","","","",""
"pit-trial","51","522271","0.0-2.0-11.2-4.2","battery-v0.2","","""event"",""trial"",""time""
""fullscreenenter"",""1"",""5274""
","
","
","""event"",""trial"",""time""
""fullscreenenter"",""1"",""5274""
","
","","","-1","","","17","5576","3156","&#9761;","elianto","#3366ff99","-1","-1","1","+10","[]","0","0","2","","","","","","","",""
"pit-trial","52","527128","0.0-2.0-11.3-0.3","battery-v0.2","","""event"",""trial"",""time""
""fullscreenenter"",""1"",""5274""
","
","
","""event"",""trial"",""time""
""fullscreenenter"",""1"",""5274""
","
","","","-1","","","17","5576","3156","&#9761;","elianto","#3366ff99","-1","-1","1","+10","[]","0","0","2","","","","","","","",""
"pit-trial","53","531983","0.0-2.0-11.3-1.3","battery-v0.2","","""event"",""trial"",""time""
""fullscreenenter"",""1"",""5274""
","
","
","""event"",""trial"",""time""
""fullscreenenter"",""1"",""5274""
","
","","","-1","","","17","5576","3156","&#9761;","elianto","#3366ff99","-1","-1","1","+10","[]","0","0","2","","","","","","","",""
"pit-trial","54","536840","0.0-2.0-11.3-2.3","battery-v0.2","","""event"",""trial"",""time""
""fullscreenenter"",""1"",""5274""
","
","
","""event"",""trial"",""time""
""fullscreenenter"",""1"",""5274""
","
","","","-1","","","17","5576","3156","&#9761;","elianto","#3366ff99","-1","-1","1","+10","[]","0","0","2","","","","","","","",""
"pit-trial","55","541696","0.0-2.0-11.3-3.3","battery-v0.2","","""event"",""trial"",""time""
""fullscreenenter"",""1"",""5274""
","
","
","""event"",""trial"",""time""
""fullscreenenter"",""1"",""5274""
","
","","","-1","","","17","5576","3156","&#9761;","elianto","#3366ff99","-1","-1","1","0","[]","0","0","2","","","","","","","",""
"pit-trial","56","546552","0.0-2.0-11.3-4.3","battery-v0.2","","""event"",""trial"",""time""
""fullscreenenter"",""1"",""5274""
","
","
","""event"",""trial"",""time""
""fullscreenenter"",""1"",""5274""
","
","","","-1","","","17","5576","3156","&#9761;","elianto","#3366ff99","-1","-1","1","+10","[]","0","0","2","","","","","","","",""
"call-function","57","546553","0.0-2.0-12.0","battery-v0.2","","""event"",""trial"",""time""
""fullscreenenter"",""1"",""5274""
","
","
","""event"",""trial"",""time""
""fullscreenenter"",""1"",""5274""
","
","","","","","","","","","","","","","","","","","","","","","","","","","","",""
"pit-instructions","58","579114","0.0-2.0-13.0","battery-v0.2","","""event"",""trial"",""time""
""fullscreenenter"",""1"",""5274""
","
","
","""event"",""trial"",""time""
""fullscreenenter"",""1"",""5274""
","
","","[{""page_index"":0,""viewing_time"":7088.79999999702},{""page_index"":1,""viewing_time"":7288.20000000298},{""page_index"":2,""viewing_time"":3208.099999997765},{""page_index"":3,""viewing_time"":10255.60000000149},{""page_index"":4,""viewing_time"":4720}]","32561.099999997765","","","","","","","","","","","","","","","","","","","","","","","",""
"pit-trial","59","583968","0.0-2.0-14.0-0.0","battery-v0.2","","""event"",""trial"",""time""
""fullscreenenter"",""1"",""5274""
","
","
","""event"",""trial"",""time""
""fullscreenenter"",""1"",""5274""
","
","","","-1","","","17","5576","3156","&#9826;","elianto","#f73b6a7A","-1","-1","1","0","[]","0","0","3","","","","","","","",""
"pit-trial","60","587348","0.0-2.0-14.0-1.0","battery-v0.2","","""event"",""trial"",""time""
""fullscreenenter"",""1"",""5274""
","
","
","""event"",""trial"",""time""
""fullscreenenter"",""1"",""5274""
","
","","","526.6000000014901","","","17","5576","3156","&#9826;","elianto","#f73b6a7A","-1"," ","0","-10","[1377.800000000745]","1","0","3","","","","","","","",""
"pit-trial","61","592203","0.0-2.0-14.0-2.0","battery-v0.2","","""event"",""trial"",""time""
""fullscreenenter"",""1"",""5274""
","
","
","""event"",""trial"",""time""
""fullscreenenter"",""1"",""5274""
","
","","","-1","","","17","5576","3156","&#9826;","elianto","#f73b6a7A","-1","-1","1","0","[]","0","0","3","","","","","","","",""
"pit-trial","62","597060","0.0-2.0-14.0-3.0","battery-v0.2","","""event"",""trial"",""time""
""fullscreenenter"",""1"",""5274""
","
","
","""event"",""trial"",""time""
""fullscreenenter"",""1"",""5274""
","
","","","-1","","","17","5576","3156","&#9826;","elianto","#f73b6a7A","-1","-1","1","-10","[]","0","0","3","","","","","","","",""
"pit-trial","63","601915","0.0-2.0-14.0-4.0","battery-v0.2","","""event"",""trial"",""time""
""fullscreenenter"",""1"",""5274""
","
","
","""event"",""trial"",""time""
""fullscreenenter"",""1"",""5274""
","
","","","-1","","","17","5576","3156","&#9826;","elianto","#f73b6a7A","-1","-1","1","0","[]","0","0","3","","","","","","","",""
"pit-trial","64","606772","0.0-2.0-14.1-0.1","battery-v0.2","","""event"",""trial"",""time""
""fullscreenenter"",""1"",""5274""
","
","
","""event"",""trial"",""time""
""fullscreenenter"",""1"",""5274""
","
","","","-1","","","17","5576","3156","&#9826;","elianto","#f73b6a7A","-1","-1","1","0","[]","0","0","3","","","","","","","",""
"pit-trial","65","610144","0.0-2.0-14.1-1.1","battery-v0.2","","""event"",""trial"",""time""
""fullscreenenter"",""1"",""5274""
","
","
","""event"",""trial"",""time""
""fullscreenenter"",""1"",""5274""
","
","","","518.3000000007451","","","17","5576","3156","&#9826;","elianto","#f73b6a7A","-1"," ","0","-10","[1369.300000000745]","1","0","3","","","","","","","",""
"pit-trial","66","615000","0.0-2.0-14.1-2.1","battery-v0.2","","""event"",""trial"",""time""
""fullscreenenter"",""1"",""5274""
","
","
","""event"",""trial"",""time""
""fullscreenenter"",""1"",""5274""
","
","","","-1","","","17","5576","3156","&#9826;","elianto","#f73b6a7A","-1","-1","1","0","[]","0","0","3","","","","","","","",""
"pit-trial","67","619855","0.0-2.0-14.1-3.1","battery-v0.2","","""event"",""trial"",""time""
""fullscreenenter"",""1"",""5274""
","
","
","""event"",""trial"",""time""
""fullscreenenter"",""1"",""5274""
","
","","","-1","","","17","5576","3156","&#9826;","elianto","#f73b6a7A","-1","-1","1","-10","[]","0","0","3","","","","","","","",""
"pit-trial","68","624708","0.0-2.0-14.1-4.1","battery-v0.2","","""event"",""trial"",""time""
""fullscreenenter"",""1"",""5274""
","
","
","""event"",""trial"",""time""
""fullscreenenter"",""1"",""5274""
","
","","","-1","","","17","5576","3156","&#9826;","elianto","#f73b6a7A","-1","-1","1","0","[]","0","0","3","","","","","","","",""
"pit-trial","69","629560","0.0-2.0-14.2-0.2","battery-v0.2","","""event"",""trial"",""time""
""fullscreenenter"",""1"",""5274""
","
","
","""event"",""trial"",""time""
""fullscreenenter"",""1"",""5274""
","
","","","-1","","","17","5576","3156","&#9826;","elianto","#f73b6a7A","-1","-1","1","0","[]","0","0","3","","","","","","","",""
"pit-trial","70","634415","0.0-2.0-14.2-1.2","battery-v0.2","","""event"",""trial"",""time""
""fullscreenenter"",""1"",""5274""
","
","
","""event"",""trial"",""time""
""fullscreenenter"",""1"",""5274""
","
","","","-1","","","17","5576","3156","&#9826;","elianto","#f73b6a7A","-1","-1","1","0","[]","0","0","3","","","","","","","",""
"pit-trial","71","639272","0.0-2.0-14.2-2.2","battery-v0.2","","""event"",""trial"",""time""
""fullscreenenter"",""1"",""5274""
","
","
","""event"",""trial"",""time""
""fullscreenenter"",""1"",""5274""
","
","","","-1","","","17","5576","3156","&#9826;","elianto","#f73b6a7A","-1","-1","1","0","[]","0","0","3","","","","","","","",""
"pit-trial","72","644125","0.0-2.0-14.2-3.2","battery-v0.2","","""event"",""trial"",""time""
""fullscreenenter"",""1"",""5274""
","
","
","""event"",""trial"",""time""
""fullscreenenter"",""1"",""5274""
","
","","","-1","","","17","5576","3156","&#9826;","elianto","#f73b6a7A","-1","-1","1","-10","[]","0","0","3","","","","","","","",""
"pit-trial","73","648981","0.0-2.0-14.2-4.2","battery-v0.2","","""event"",""trial"",""time""
""fullscreenenter"",""1"",""5274""
","
","
","""event"",""trial"",""time""
""fullscreenenter"",""1"",""5274""
","
","","","-1","","","17","5576","3156","&#9826;","elianto","#f73b6a7A","-1","-1","1","0","[]","0","0","3","","","","","","","",""
"pit-trial","74","653840","0.0-2.0-14.3-0.3","battery-v0.2","","""event"",""trial"",""time""
""fullscreenenter"",""1"",""5274""
","
","
","""event"",""trial"",""time""
""fullscreenenter"",""1"",""5274""
","
","","","-1","","","17","5576","3156","&#9826;","elianto","#f73b6a7A","-1","-1","1","0","[]","0","0","3","","","","","","","",""
"pit-trial","75","658692","0.0-2.0-14.3-1.3","battery-v0.2","","""event"",""trial"",""time""
""fullscreenenter"",""1"",""5274""
","
","
","""event"",""trial"",""time""
""fullscreenenter"",""1"",""5274""
","
","","","-1","","","17","5576","3156","&#9826;","elianto","#f73b6a7A","-1","-1","1","0","[]","0","0","3","","","","","","","",""
"pit-trial","76","663544","0.0-2.0-14.3-2.3","battery-v0.2","","""event"",""trial"",""time""
""fullscreenenter"",""1"",""5274""
","
","
","""event"",""trial"",""time""
""fullscreenenter"",""1"",""5274""
","
","","","-1","","","17","5576","3156","&#9826;","elianto","#f73b6a7A","-1","-1","1","0","[]","0","0","3","","","","","","","",""
"pit-trial","77","668400","0.0-2.0-14.3-3.3","battery-v0.2","","""event"",""trial"",""time""
""fullscreenenter"",""1"",""5274""
","
","
","""event"",""trial"",""time""
""fullscreenenter"",""1"",""5274""
","
","","","-1","","","17","5576","3156","&#9826;","elianto","#f73b6a7A","-1","-1","1","-10","[]","0","0","3","","","","","","","",""
"pit-trial","78","673256","0.0-2.0-14.3-4.3","battery-v0.2","","""event"",""trial"",""time""
""fullscreenenter"",""1"",""5274""
","
","
","""event"",""trial"",""time""
""fullscreenenter"",""1"",""5274""
","
","","","-1","","","17","5576","3156","&#9826;","elianto","#f73b6a7A","-1","-1","1","0","[]","0","0","3","","","","","","","",""
"call-function","79","673257","0.0-2.0-15.0","battery-v0.2","","""event"",""trial"",""time""
""fullscreenenter"",""1"",""5274""
","
","
","""event"",""trial"",""time""
""fullscreenenter"",""1"",""5274""
","
","","","","","","","","","","","","","","","","","","","","","","","","","","",""
"pit-instructions","80","705818","0.0-2.0-16.0","battery-v0.2","","""event"",""trial"",""time""
""fullscreenenter"",""1"",""5274""
","
","
","""event"",""trial"",""time""
""fullscreenenter"",""1"",""5274""
","
","","[{""page_index"":0,""viewing_time"":11680.699999999255},{""page_index"":1,""viewing_time"":8343.800000000745},{""page_index"":2,""viewing_time"":4536.300000000745},{""page_index"":3,""viewing_time"":7999.79999999702}]","32560.800000000745","","","","","","","","","","","","","","","","","","","","","","","",""
"pit-trial","81","710484","0.0-2.0-17.0-0.0","battery-v0.2","","""event"",""trial"",""time""
""fullscreenenter"",""1"",""5274""
","
","
","""event"",""trial"",""time""
""fullscreenenter"",""1"",""5274""
","
","","","1810.199999999255","","","17","5576","3156","&#9789;","elianto","#f73b6a7A"," "," ","1","0","[2663.099999997765]","1","0","4","","","","","","","",""
"pit-trial","82","713884","0.0-2.0-17.0-1.0","battery-v0.2","","""event"",""trial"",""time""
""fullscreenenter"",""1"",""5274""
","
","
","""event"",""trial"",""time""
""fullscreenenter"",""1"",""5274""
","
","","","546","","","17","5576","3156","&#9789;","elianto","#f73b6a7A"," "," ","1","0","[1397.199999999255]","1","0","4","","","","","","","",""
"pit-trial","83","717400","0.0-2.0-17.0-2.0","battery-v0.2","","""event"",""trial"",""time""
""fullscreenenter"",""1"",""5274""
","
","
","""event"",""trial"",""time""
""fullscreenenter"",""1"",""5274""
","
","","","660.4000000022352","","","17","5576","3156","&#9789;","elianto","#f73b6a7A"," "," ","1","0","[1511.6000000014901]","1","0","4","","","","","","","",""
"pit-trial","84","720440","0.0-2.0-17.0-3.0","battery-v0.2","","""event"",""trial"",""time""
""fullscreenenter"",""1"",""5274""
","
","
","""event"",""trial"",""time""
""fullscreenenter"",""1"",""5274""
","
","","","185.09999999776483","","","17","5576","3156","&#9789;","elianto","#f73b6a7A"," "," ","1","-10","[1036.300000000745]","1","0","4","","","","","","","",""
"pit-trial","85","723552","0.0-2.0-17.0-4.0","battery-v0.2","","""event"",""trial"",""time""
""fullscreenenter"",""1"",""5274""
","
","
","""event"",""trial"",""time""
""fullscreenenter"",""1"",""5274""
","
","","","255","","","17","5576","3156","&#9789;","elianto","#f73b6a7A"," "," ","1","0","[1107.300000000745]","1","0","4","","","","","","","",""
"pit-trial","86","726720","0.0-2.0-17.1-0.1","battery-v0.2","","""event"",""trial"",""time""
""fullscreenenter"",""1"",""5274""
","
","
","""event"",""trial"",""time""
""fullscreenenter"",""1"",""5274""
","
","","","312.30000000074506","","","17","5576","3156","&#9789;","elianto","#f73b6a7A"," "," ","1","0","[1163]","1","0","4","","","","","","","",""
"pit-trial","87","729641","0.0-2.0-17.1-1.1","battery-v0.2","","""event"",""trial"",""time""
""fullscreenenter"",""1"",""5274""
","
","
","""event"",""trial"",""time""
""fullscreenenter"",""1"",""5274""
","
","","","67.30000000074506","","","17","5576","3156","&#9789;","elianto","#f73b6a7A"," "," ","1","0","[917.5]","1","0","4","","","","","","","",""
"pit-trial","88","732796","0.0-2.0-17.1-2.1","battery-v0.2","","""event"",""trial"",""time""
""fullscreenenter"",""1"",""5274""
","
","
","""event"",""trial"",""time""
""fullscreenenter"",""1"",""5274""
","
","","","300.5","","","17","5576","3156","&#9789;","elianto","#f73b6a7A"," "," ","1","0","[1150.800000000745]","1","0","4","","","","","","","",""
"pit-trial","89","736736","0.0-2.0-17.1-3.1","battery-v0.2","","""event"",""trial"",""time""
""fullscreenenter"",""1"",""5274""
","
","
","""event"",""trial"",""time""
""fullscreenenter"",""1"",""5274""
","
","","","1086.1000000014901","","","17","5576","3156","&#9789;","elianto","#f73b6a7A"," "," ","1","-10","[1937.199999999255]","1","0","4","","","","","","","",""
"pit-trial","90","739861","0.0-2.0-17.1-4.1","battery-v0.2","","""event"",""trial"",""time""
""fullscreenenter"",""1"",""5274""
","
","
","""event"",""trial"",""time""
""fullscreenenter"",""1"",""5274""
","
","","","270.6000000014901","","","17","5576","3156","&#9789;","elianto","#f73b6a7A"," "," ","1","0","[1120.9000000022352]","1","0","4","","","","","","","",""
"pit-trial","91","742931","0.0-2.0-17.2-0.2","battery-v0.2","","""event"",""trial"",""time""
""fullscreenenter"",""1"",""5274""
","
","
","""event"",""trial"",""time""
""fullscreenenter"",""1"",""5274""
","
","","","214.30000000074506","","","17","5576","3156","&#9789;","elianto","#f73b6a7A"," "," ","1","0","[1069.300000000745]","1","0","4","","","","","","","",""
"pit-trial","92","746008","0.0-2.0-17.2-1.2","battery-v0.2","","""event"",""trial"",""time""
""fullscreenenter"",""1"",""5274""
","
","
","""event"",""trial"",""time""
""fullscreenenter"",""1"",""5274""
","
","","","221.5","","","17","5576","3156","&#9789;","elianto","#f73b6a7A"," "," ","1","0","[1073.699999999255]","1","0","4","","","","","","","",""
"pit-trial","93","749020","0.0-2.0-17.2-2.2","battery-v0.2","","""event"",""trial"",""time""
""fullscreenenter"",""1"",""5274""
","
","
","""event"",""trial"",""time""
""fullscreenenter"",""1"",""5274""
","
","","","159.10000000149012","","","17","5576","3156","&#9789;","elianto","#f73b6a7A"," "," ","1","0","[1009.0999999977648]","1","0","4","","","","","","","",""
"pit-trial","94","753872","0.0-2.0-17.2-3.2","battery-v0.2","","""event"",""trial"",""time""
""fullscreenenter"",""1"",""5274""
","
","
","""event"",""trial"",""time""
""fullscreenenter"",""1"",""5274""
","
","","","-1","","","17","5576","3156","&#9789;","elianto","#f73b6a7A"," ","-1","0","0","[3287.599999997765]","1","0","4","","","","","","","",""
"pit-trial","95","757328","0.0-2.0-17.2-4.2","battery-v0.2","","""event"",""trial"",""time""
""fullscreenenter"",""1"",""5274""
","
","
","""event"",""trial"",""time""
""fullscreenenter"",""1"",""5274""
","
","","","602.5","","","17","5576","3156","&#9789;","elianto","#f73b6a7A"," "," ","1","0","[1453.5999999977648]","1","0","4","","","","","","","",""
"pit-trial","96","760404","0.0-2.0-17.3-0.3","battery-v0.2","","""event"",""trial"",""time""
""fullscreenenter"",""1"",""5274""
","
","
","""event"",""trial"",""time""
""fullscreenenter"",""1"",""5274""
","
","","","221.19999999925494","","","17","5576","3156","&#9789;","elianto","#f73b6a7A"," "," ","1","0","[1071.5999999977648]","1","0","4","","","","","","","",""
"pit-trial","97","763551","0.0-2.0-17.3-1.3","battery-v0.2","","""event"",""trial"",""time""
""fullscreenenter"",""1"",""5274""
","
","
","""event"",""trial"",""time""
""fullscreenenter"",""1"",""5274""
","
","","","294.4000000022352","","","17","5576","3156","&#9789;","elianto","#f73b6a7A"," "," ","1","0","[1145.300000000745,2927.7000000029802]","2","0","4","","","","","","","",""
"pit-trial","98","766648","0.0-2.0-17.3-2.3","battery-v0.2","","""event"",""trial"",""time""
""fullscreenenter"",""1"",""5274""
","
","
","""event"",""trial"",""time""
""fullscreenenter"",""1"",""5274""
","
","","","240.80000000074506","","","17","5576","3156","&#9789;","elianto","#f73b6a7A"," "," ","1","0","[1091.800000000745]","1","0","4","","","","","","","",""
"pit-trial","99","769761","0.0-2.0-17.3-3.3","battery-v0.2","","""event"",""trial"",""time""
""fullscreenenter"",""1"",""5274""
","
","
","""event"",""trial"",""time""
""fullscreenenter"",""1"",""5274""
","
","","","259.1000000014901","","","17","5576","3156","&#9789;","elianto","#f73b6a7A"," "," ","1","-10","[1109.199999999255]","1","0","4","","","","","","","",""
"pit-trial","100","772823","0.0-2.0-17.3-4.3","battery-v0.2","","""event"",""trial"",""time""
""fullscreenenter"",""1"",""5274""
","
","
","""event"",""trial"",""time""
""fullscreenenter"",""1"",""5274""
","
","","","208.69999999925494","","","17","5576","3156","&#9789;","elianto","#f73b6a7A"," "," ","1","0","[1058.800000000745]","1","0","4","","","","","","","",""
"call-function","101","772824","0.0-2.0-18.0","battery-v0.2","","""event"",""trial"",""time""
""fullscreenenter"",""1"",""5274""
","
","
","""event"",""trial"",""time""
""fullscreenenter"",""1"",""5274""
","
","","","","","","","","","","","","","","","","","","","","","","","","","","",""
"pit-instructions","102","901355","0.0-2.0-19.0","battery-v0.2","","""event"",""trial"",""time""
""fullscreenenter"",""1"",""5274""
","
","
","""event"",""trial"",""time""
""fullscreenenter"",""1"",""5274""
","
","","[{""page_index"":0,""viewing_time"":6761.5},{""page_index"":1,""viewing_time"":8991.800000000745},{""page_index"":2,""viewing_time"":16368.199999999255},{""page_index"":3,""viewing_time"":54951.89999999851},{""page_index"":4,""viewing_time"":6247.900000002235},{""page_index"":5,""viewing_time"":13368.099999997765},{""page_index"":6,""viewing_time"":9352},{""page_index"":7,""viewing_time"":8360},{""page_index"":8,""viewing_time"":4128.10000000149}]","128529.80000000075","","","","","","","","","","","","","","","","","","","","","","","",""
"pit-comprehension","103","906027","0.0-2.0-20.0-0.0","battery-v0.2","","""event"",""trial"",""time""
""fullscreenenter"",""1"",""5274""
","
","
","""event"",""trial"",""time""
""fullscreenenter"",""1"",""5274""
","
","","","4670","[""SPACE""]","0","17","5576","3156","","","","","","","","","","","","","","","","","","",""
"pit-instructions","104","911515","0.0-2.0-20.0-1.0","battery-v0.2","","""event"",""trial"",""time""
""fullscreenenter"",""1"",""5274""
","
","
","""event"",""trial"",""time""
""fullscreenenter"",""1"",""5274""
","
","","[{""page_index"":0,""viewing_time"":5445}]","5445.300000000745","","","","","","","","","","","","","","","","","","","","","","","",""
"pit-comprehension","105","917451","0.0-2.0-21.0-0.0","battery-v0.2","","""event"",""trial"",""time""
""fullscreenenter"",""1"",""5274""
","
","
","""event"",""trial"",""time""
""fullscreenenter"",""1"",""5274""
","
","","","5934.5","[""10""]","0","17","5576","3156","","","","","","","","","","","","","","","","","","",""
"pit-instructions","106","925362","0.0-2.0-21.0-1.0","battery-v0.2","","""event"",""trial"",""time""
""fullscreenenter"",""1"",""5274""
","
","
","""event"",""trial"",""time""
""fullscreenenter"",""1"",""5274""
","
","","[{""page_index"":0,""viewing_time"":7874.199999999255}]","7874.5","","","","","","","","","","","","","","","","","","","","","","","",""
"pit-comprehension","107","933643","0.0-2.0-22.0-0.0","battery-v0.2","","""event"",""trial"",""time""
""fullscreenenter"",""1"",""5274""
","
","
","""event"",""trial"",""time""
""fullscreenenter"",""1"",""5274""
","
","","","8278.199999999255","[""0""]","0","17","5576","3156","","","","","","","","","","","","","","","","","","",""
"pit-instructions","108","936314","0.0-2.0-22.0-1.0","battery-v0.2","","""event"",""trial"",""time""
""fullscreenenter"",""1"",""5274""
","
","
","""event"",""trial"",""time""
""fullscreenenter"",""1"",""5274""
","
","","[{""page_index"":0,""viewing_time"":2637.599999997765}]","2637.800000000745","","","","","","","","","","","","","","","","","","","","","","","",""
"pit-comprehension","109","944715","0.0-2.0-23.0-0.0","battery-v0.2","","""event"",""trial"",""time""
""fullscreenenter"",""1"",""5274""
","
","
","""event"",""trial"",""time""
""fullscreenenter"",""1"",""5274""
","
","","","8398.5","[""True""]","0","17","5576","3156","","","","","","","","","","","","","","","","","","",""
"pit-instructions","110","948626","0.0-2.0-23.0-1.0","battery-v0.2","","""event"",""trial"",""time""
""fullscreenenter"",""1"",""5274""
","
","
","""event"",""trial"",""time""
""fullscreenenter"",""1"",""5274""
","
","","[{""page_index"":0,""viewing_time"":3877.2999999970198}]","3877.5","","","","","","","","","","","","","","","","","","","","","","","",""
"pit-comprehension","111","956075","0.0-2.0-24.0-0.0","battery-v0.2","","""event"",""trial"",""time""
""fullscreenenter"",""1"",""5274""
","
","
","""event"",""trial"",""time""
""fullscreenenter"",""1"",""5274""
","
","","","7446.300000000745","[""True""]","0","17","5576","3156","","","","","","","","","","","","","","","","","","",""
"pit-instructions","112","958410","0.0-2.0-24.0-1.0","battery-v0.2","","""event"",""trial"",""time""
""fullscreenenter"",""1"",""5274""
","
","
","""event"",""trial"",""time""
""fullscreenenter"",""1"",""5274""
","
","","[{""page_index"":0,""viewing_time"":2301.89999999851}]","2302.10000000149","","","","","","","","","","","","","","","","","","","","","","","",""
"pit-comprehension","113","965123","0.0-2.0-25.0-0.0","battery-v0.2","","""event"",""trial"",""time""
""fullscreenenter"",""1"",""5274""
","
","
","""event"",""trial"",""time""
""fullscreenenter"",""1"",""5274""
","
","","","6710.699999999255","[""True""]","0","17","5576","3156","","","","","","","","","","","","","","","","","","",""
"pit-instructions","114","967778","0.0-2.0-25.0-1.0","battery-v0.2","","""event"",""trial"",""time""
""fullscreenenter"",""1"",""5274""
","
","
","""event"",""trial"",""time""
""fullscreenenter"",""1"",""5274""
","
","","[{""page_index"":0,""viewing_time"":2618.2999999970198}]","2618.5","","","","","","","","","","","","","","","","","","","","","","","",""
"pit-comprehension","115","972635","0.0-2.0-26.0-0.0","battery-v0.2","","""event"",""trial"",""time""
""fullscreenenter"",""1"",""5274""
","
","
","""event"",""trial"",""time""
""fullscreenenter"",""1"",""5274""
","
","","","4854.39999999851","[""False""]","0","17","5576","3156","","","","","","","","","","","","","","","","","","",""
"pit-instructions","116","975538","0.0-2.0-26.0-1.0","battery-v0.2","","""event"",""trial"",""time""
""fullscreenenter"",""1"",""5274""
","
","
","""event"",""trial"",""time""
""fullscreenenter"",""1"",""5274""
","
","","[{""page_index"":0,""viewing_time"":2869.10000000149}]","2869.400000002235","","","","","","","","","","","","","","","","","","","","","","","",""
"pit-instructions","117","992082","0.0-3.0","battery-v0.2","","""event"",""trial"",""time""
""fullscreenenter"",""1"",""5274""
","
","
","""event"",""trial"",""time""
""fullscreenenter"",""1"",""5274""
","
","","[{""page_index"":0,""viewing_time"":4262.699999999255},{""page_index"":1,""viewing_time"":5064},{""page_index"":2,""viewing_time"":7215.900000002235}]","16542.900000002235","","","","","","","","","","","","","","","","","","","","","","","",""
"pit-trial","118","996936","0.0-4.0","battery-v0.2","","""event"",""trial"",""time""
""fullscreenenter"",""1"",""5274""
","
","
","""event"",""trial"",""time""
""fullscreenenter"",""1"",""5274""
","
","","","-1","","","17","5576","3156","&#9730;","elianto","#3366ff99"," ","-1","0","+10","[]","0","1","","","5576","1","1","1","win","go","1"
"pit-trial","119","1001588","0.0-5.0","battery-v0.2","","""event"",""trial"",""time""
""fullscreenenter"",""1"",""5274""
","
","
","""event"",""trial"",""time""
""fullscreenenter"",""1"",""5274""
","
","","","1797.300000000745","","","17","5576","3156","&#9728;","elianto","#f73b6a7A","-1"," ","0","-10","[2647.5]","1","1","","","5576","2","0","4","lose","no-go","0"
"pit-trial","120","1006164","0.0-6.0","battery-v0.2","","""event"",""trial"",""time""
""fullscreenenter"",""1"",""5274""
","
","
","""event"",""trial"",""time""
""fullscreenenter"",""1"",""5274""
","
","","","1722.8999999985099","","","17","5576","3156","&#9752;","elianto","#f73b6a7A"," "," ","1","0","[2573]","1","1","","","5576","3","3","3","lose","go","0"
"pit-trial","121","1011019","0.0-7.0","battery-v0.2","","""event"",""trial"",""time""
""fullscreenenter"",""1"",""5274""
","
","
","""event"",""trial"",""time""
""fullscreenenter"",""1"",""5274""
","
","","","-1","","","17","5576","3156","&#9733;","elianto","#3366ff99","-1","-1","1","+10","[]","0","1","","","5576","4","2","2","win","no-go","0"
"pit-trial","122","1015399","0.0-8.0","battery-v0.2","","""event"",""trial"",""time""
""fullscreenenter"",""1"",""5274""
","
","
","""event"",""trial"",""time""
""fullscreenenter"",""1"",""5274""
","
","","","1524.800000000745","","","17","5576","3156","&#9752;","elianto","#f73b6a7A"," "," ","1","0","[2376]","1","1","","","5576","5","3","3","lose","go","0"
"pit-trial","123","1020256","0.0-9.0","battery-v0.2","","""event"",""trial"",""time""
""fullscreenenter"",""1"",""5274""
","
","
","""event"",""trial"",""time""
""fullscreenenter"",""1"",""5274""
","
","","","-1","","","17","5576","3156","&#9733;","elianto","#3366ff99","-1","-1","1","+10","[]","0","1","","","5576","6","2","2","win","no-go","0"
"pit-trial","124","1025111","0.0-10.0","battery-v0.2","","""event"",""trial"",""time""
""fullscreenenter"",""1"",""5274""
","
","
","""event"",""trial"",""time""
""fullscreenenter"",""1"",""5274""
","
","","","-1","","","17","5576","3156","&#9728;","elianto","#f73b6a7A","-1","-1","1","0","[]","0","1","","","5576","7","0","4","lose","no-go","0"
"pit-trial","125","1029964","0.0-11.0","battery-v0.2","","""event"",""trial"",""time""
""fullscreenenter"",""1"",""5274""
","
","
","""event"",""trial"",""time""
""fullscreenenter"",""1"",""5274""
","
","","","-1","","","17","5576","3156","&#9730;","elianto","#3366ff99"," ","-1","0","0","[]","0","1","","","5576","8","1","1","win","go","0"
"pit-trial","126","1034820","0.0-12.0","battery-v0.2","","""event"",""trial"",""time""
""fullscreenenter"",""1"",""5274""
","
","
","""event"",""trial"",""time""
""fullscreenenter"",""1"",""5274""
","
","","","-1","","","17","5576","3156","&#9728;","elianto","#f73b6a7A","-1","-1","1","0","[]","0","1","","","5576","9","0","4","lose","no-go","0"
"pit-trial","127","1039152","0.0-13.0","battery-v0.2","","""event"",""trial"",""time""
""fullscreenenter"",""1"",""5274""
","
","
","""event"",""trial"",""time""
""fullscreenenter"",""1"",""5274""
","
","","","1479","","","17","5576","3156","&#9752;","elianto","#f73b6a7A"," "," ","1","0","[2329]","1","1","","","5576","10","3","3","lose","go","0"
"pit-trial","128","1042892","0.0-14.0","battery-v0.2","","""event"",""trial"",""time""
""fullscreenenter"",""1"",""5274""
","
","
","""event"",""trial"",""time""
""fullscreenenter"",""1"",""5274""
","
","","","884.0999999977648","","","17","5576","3156","&#9730;","elianto","#3366ff99"," "," ","1","+10","[1735]","1","1","","","5576","11","1","1","win","go","0"
"pit-trial","129","1046271","0.0-15.0","battery-v0.2","","""event"",""trial"",""time""
""fullscreenenter"",""1"",""5274""
","
","
","""event"",""trial"",""time""
""fullscreenenter"",""1"",""5274""
","
","","","524.3000000007451","","","17","5576","3156","&#9733;","elianto","#3366ff99","-1"," ","0","0","[1375.300000000745]","1","1","","","5576","12","2","2","win","no-go","0"
"pit-trial","130","1051127","0.0-16.0","battery-v0.2","","""event"",""trial"",""time""
""fullscreenenter"",""1"",""5274""
","
","
","""event"",""trial"",""time""
""fullscreenenter"",""1"",""5274""
","
","","","-1","","","17","5576","3156","&#9728;","elianto","#f73b6a7A","-1","-1","1","0","[]","0","1","","","5576","13","0","4","lose","no-go","0"
"pit-trial","131","1054827","0.0-17.0","battery-v0.2","","""event"",""trial"",""time""
""fullscreenenter"",""1"",""5274""
","
","
","""event"",""trial"",""time""
""fullscreenenter"",""1"",""5274""
","
","","","847","","","17","5576","3156","&#9730;","elianto","#3366ff99"," "," ","1","+10","[1697.9000000022352]","1","1","","","5576","14","1","1","win","go","0"
"pit-trial","132","1058239","0.0-18.0","battery-v0.2","","""event"",""trial"",""time""
""fullscreenenter"",""1"",""5274""
","
","
","""event"",""trial"",""time""
""fullscreenenter"",""1"",""5274""
","
","","","556.4000000022352","","","17","5576","3156","&#9733;","elianto","#3366ff99","-1"," ","0","0","[1407.699999999255]","1","1","","","5576","15","2","2","win","no-go","0"
"pit-trial","133","1062180","0.0-19.0","battery-v0.2","","""event"",""trial"",""time""
""fullscreenenter"",""1"",""5274""
","
","
","""event"",""trial"",""time""
""fullscreenenter"",""1"",""5274""
","
","","","1084.699999999255","","","17","5576","3156","&#9752;","elianto","#f73b6a7A"," "," ","1","-10","[1935.699999999255]","1","1","","","5576","16","3","3","lose","go","1"
"pit-trial","134","1067036","0.0-20.0","battery-v0.2","","""event"",""trial"",""time""
""fullscreenenter"",""1"",""5274""
","
","
","""event"",""trial"",""time""
""fullscreenenter"",""1"",""5274""
","
","","","-1","","","17","5576","3156","&#9733;","elianto","#3366ff99","-1","-1","1","+10","[]","0","1","","","5576","17","2","2","win","no-go","0"
"pit-trial","135","1071891","0.0-21.0","battery-v0.2","","""event"",""trial"",""time""
""fullscreenenter"",""1"",""5274""
","
","
","""event"",""trial"",""time""
""fullscreenenter"",""1"",""5274""
","
","","","-1","","","17","5576","3156","&#9728;","elianto","#f73b6a7A","-1","-1","1","0","[]","0","1","","","5576","18","0","4","lose","no-go","0"
"pit-trial","136","1075520","0.0-22.0","battery-v0.2","","""event"",""trial"",""time""
""fullscreenenter"",""1"",""5274""
","
","
","""event"",""trial"",""time""
""fullscreenenter"",""1"",""5274""
","
","","","774.8000000007451","","","17","5576","3156","&#9730;","elianto","#3366ff99"," "," ","1","+10","[1626]","1","1","","","5576","19","1","1","win","go","0"
"pit-trial","137","1080148","0.0-23.0","battery-v0.2","","""event"",""trial"",""time""
""fullscreenenter"",""1"",""5274""
","
","
","""event"",""trial"",""time""
""fullscreenenter"",""1"",""5274""
","
","","","1774.2999999970198","","","17","5576","3156","&#9752;","elianto","#f73b6a7A"," "," ","1","-10","[2625.099999997765]","1","1","","","5576","20","3","3","lose","go","1"
"pit-instructions","138","1213498","0.0-24.0","battery-v0.2","","""event"",""trial"",""time""
""fullscreenenter"",""1"",""5274""
","
","
","""event"",""trial"",""time""
""fullscreenenter"",""1"",""5274""
","
","","[{""page_index"":0,""viewing_time"":6061.199999999255},{""page_index"":1,""viewing_time"":127288.19999999925}]","133349.59999999776","","","","","","","","","","","","","","","","","","","","","","","",""
"pit-trial","139","1218355","0.0-25.0","battery-v0.2","","""event"",""trial"",""time""
""fullscreenenter"",""1"",""5274""
","
","
","""event"",""trial"",""time""
""fullscreenenter"",""1"",""5274""
","
","","","-1","","","17","5576","3156","r","elianto","#3366ff99","-1","-1","1","+10","[]","0","2","","","5576","21","1","2","win","no-go","0"
"pit-trial","140","1223212","0.0-26.0","battery-v0.2","","""event"",""trial"",""time""
""fullscreenenter"",""1"",""5274""
","
","
","""event"",""trial"",""time""
""fullscreenenter"",""1"",""5274""
","
","","","-1","","","17","5576","3156","h","elianto","#f73b6a7A","-1","-1","1","0","[]","0","2","","","5576","22","3","4","lose","no-go","0"
"pit-trial","141","1227732","0.0-27.0","battery-v0.2","","""event"",""trial"",""time""
""fullscreenenter"",""1"",""5274""
","
","
","""event"",""trial"",""time""
""fullscreenenter"",""1"",""5274""
","
","","","1666.5","","","17","5576","3156","m","elianto","#f73b6a7A"," "," ","1","0","[2517.5]","1","2","","","5576","23","0","3","lose","go","0"
"pit-trial","142","1232588","0.0-28.0","battery-v0.2","","""event"",""trial"",""time""
""fullscreenenter"",""1"",""5274""
","
","
","""event"",""trial"",""time""
""fullscreenenter"",""1"",""5274""
","
","","","-1","","","17","5576","3156","y","elianto","#f73b6a7A"," ","-1","0","-10","[]","0","2","","","5576","24","2","3","lose","go","0"
"pit-trial","143","1236681","0.0-29.0","battery-v0.2","","""event"",""trial"",""time""
""fullscreenenter"",""1"",""5274""
","
","
","""event"",""trial"",""time""
""fullscreenenter"",""1"",""5274""
","
","","","1238.4000000022352","","","17","5576","3156","m","elianto","#f73b6a7A"," "," ","1","-10","[2089.5]","1","2","","","5576","25","0","3","lose","go","1"
"pit-trial","144","1240476","0.0-30.0","battery-v0.2","","""event"",""trial"",""time""
""fullscreenenter"",""1"",""5274""
","
","
","""event"",""trial"",""time""
""fullscreenenter"",""1"",""5274""
","
","","","940.3000000007451","","","17","5576","3156","y","elianto","#f73b6a7A"," "," ","1","0","[1790.5999999977648]","1","2","","","5576","26","2","3","lose","go","0"
"pit-trial","145","1245331","0.0-31.0","battery-v0.2","","""event"",""trial"",""time""
""fullscreenenter"",""1"",""5274""
","
","
","""event"",""trial"",""time""
""fullscreenenter"",""1"",""5274""
","
","","","-1","","","17","5576","3156","h","elianto","#f73b6a7A","-1","-1","1","0","[]","0","2","","","5576","27","3","4","lose","no-go","0"
"pit-trial","146","1249556","0.0-32.0","battery-v0.2","","""event"",""trial"",""time""
""fullscreenenter"",""1"",""5274""
","
","
","""event"",""trial"",""time""
""fullscreenenter"",""1"",""5274""
","
","","","1367.6000000014901","","","17","5576","3156","r","elianto","#3366ff99","-1"," ","0","0","[2219.699999999255]","1","2","","","5576","28","1","2","win","no-go","0"
"pit-trial","147","1253387","0.0-33.0","battery-v0.2","","""event"",""trial"",""time""
""fullscreenenter"",""1"",""5274""
","
","
","""event"",""trial"",""time""
""fullscreenenter"",""1"",""5274""
","
","","","978.8000000007451","","","17","5576","3156","m","elianto","#f73b6a7A"," "," ","1","-10","[1829.800000000745]","1","2","","","5576","29","0","3","lose","go","1"
"pit-trial","148","1258240","0.0-34.0","battery-v0.2","","""event"",""trial"",""time""
""fullscreenenter"",""1"",""5274""
","
","
","""event"",""trial"",""time""
""fullscreenenter"",""1"",""5274""
","
","","","-1","","","17","5576","3156","h","elianto","#f73b6a7A","-1","-1","1","0","[]","0","2","","","5576","30","3","4","lose","no-go","0"
"pit-trial","149","1263096","0.0-35.0","battery-v0.2","","""event"",""trial"",""time""
""fullscreenenter"",""1"",""5274""
","
","
","""event"",""trial"",""time""
""fullscreenenter"",""1"",""5274""
","
","","","-1","","","17","5576","3156","y","elianto","#f73b6a7A"," ","-1","0","-10","[]","0","2","","","5576","31","2","3","lose","go","0"
"pit-trial","150","1267139","0.0-36.0","battery-v0.2","","""event"",""trial"",""time""
""fullscreenenter"",""1"",""5274""
","
","
","""event"",""trial"",""time""
""fullscreenenter"",""1"",""5274""
","
","","","1189.1000000014901","","","17","5576","3156","r","elianto","#3366ff99","-1"," ","0","+10","[2039.199999999255]","1","2","","","5576","32","1","2","win","no-go","1"
"pit-trial","151","1271996","0.0-37.0","battery-v0.2","","""event"",""trial"",""time""
""fullscreenenter"",""1"",""5274""
","
","
","""event"",""trial"",""time""
""fullscreenenter"",""1"",""5274""
","
","","","-1","","","17","5576","3156","m","elianto","#f73b6a7A"," ","-1","0","-10","[]","0","2","","","5576","33","0","3","lose","go","0"
"pit-trial","152","1275656","0.0-38.0","battery-v0.2","","""event"",""trial"",""time""
""fullscreenenter"",""1"",""5274""
","
","
","""event"",""trial"",""time""
""fullscreenenter"",""1"",""5274""
","
","","","806.1999999992549","","","17","5576","3156","y","elianto","#f73b6a7A"," "," ","1","-10","[1657.199999999255]","1","2","","","5576","34","2","3","lose","go","1"
"pit-trial","153","1280512","0.0-39.0","battery-v0.2","","""event"",""trial"",""time""
""fullscreenenter"",""1"",""5274""
","
","
","""event"",""trial"",""time""
""fullscreenenter"",""1"",""5274""
","
","","","-1","","","17","5576","3156","h","elianto","#f73b6a7A","-1","-1","1","-10","[]","0","2","","","5576","35","3","4","lose","no-go","1"
"pit-trial","154","1284549","0.0-40.0","battery-v0.2","","""event"",""trial"",""time""
""fullscreenenter"",""1"",""5274""
","
","
","""event"",""trial"",""time""
""fullscreenenter"",""1"",""5274""
","
","","","1183.300000000745","","","17","5576","3156","r","elianto","#3366ff99","-1"," ","0","0","[2033.300000000745]","1","2","","","5576","36","1","2","win","no-go","0"
"pit-trial","155","1289404","0.0-41.0","battery-v0.2","","""event"",""trial"",""time""
""fullscreenenter"",""1"",""5274""
","
","
","""event"",""trial"",""time""
""fullscreenenter"",""1"",""5274""
","
","","","-1","","","17","5576","3156","r","elianto","#3366ff99","-1","-1","1","+10","[]","0","2","","","5576","37","1","2","win","no-go","0"
"pit-trial","156","1294256","0.0-42.0","battery-v0.2","","""event"",""trial"",""time""
""fullscreenenter"",""1"",""5274""
","
","
","""event"",""trial"",""time""
""fullscreenenter"",""1"",""5274""
","
","","","-1","","","17","5576","3156","h","elianto","#f73b6a7A","-1","-1","1","0","[]","0","2","","","5576","38","3","4","lose","no-go","0"
"pit-trial","157","1299108","0.0-43.0","battery-v0.2","","""event"",""trial"",""time""
""fullscreenenter"",""1"",""5274""
","
","
","""event"",""trial"",""time""
""fullscreenenter"",""1"",""5274""
","
","","","-1","","","17","5576","3156","m","elianto","#f73b6a7A"," ","-1","0","-10","[]","0","2","","","5576","39","0","3","lose","go","0"
"pit-trial","158","1302736","0.0-44.0","battery-v0.2","","""event"",""trial"",""time""
""fullscreenenter"",""1"",""5274""
","
","
","""event"",""trial"",""time""
""fullscreenenter"",""1"",""5274""
","
","","","771.3000000007451","","","17","5576","3156","y","elianto","#f73b6a7A"," "," ","1","0","[1625]","1","2","","","5576","40","2","3","lose","go","0"
"pit-trial","159","1306524","0.0-45.0","battery-v0.2","","""event"",""trial"",""time""
""fullscreenenter"",""1"",""5274""
","
","
","""event"",""trial"",""time""
""fullscreenenter"",""1"",""5274""
","
","","","934.3999999985099","","","17","5576","3156","y","elianto","#f73b6a7A"," "," ","1","0","[1785.300000000745]","1","2","","","5576","41","2","3","lose","go","0"
"pit-trial","160","1311376","0.0-46.0","battery-v0.2","","""event"",""trial"",""time""
""fullscreenenter"",""1"",""5274""
","
","
","""event"",""trial"",""time""
""fullscreenenter"",""1"",""5274""
","
","","","-1","","","17","5576","3156","m","elianto","#f73b6a7A"," ","-1","0","-10","[]","0","2","","","5576","42","0","3","lose","go","0"
"pit-trial","161","1316232","0.0-47.0","battery-v0.2","","""event"",""trial"",""time""
""fullscreenenter"",""1"",""5274""
","
","
","""event"",""trial"",""time""
""fullscreenenter"",""1"",""5274""
","
","","","-1","","","17","5576","3156","r","elianto","#3366ff99","-1","-1","1","0","[]","0","2","","","5576","43","1","2","win","no-go","1"
"pit-trial","162","1321084","0.0-48.0","battery-v0.2","","""event"",""trial"",""time""
""fullscreenenter"",""1"",""5274""
","
","
","""event"",""trial"",""time""
""fullscreenenter"",""1"",""5274""
","
","","","-1","","","17","5576","3156","h","elianto","#f73b6a7A","-1","-1","1","0","[]","0","2","","","5576","44","3","4","lose","no-go","0"
"pit-trial","163","1325936","0.0-49.0","battery-v0.2","","""event"",""trial"",""time""
""fullscreenenter"",""1"",""5274""
","
","
","""event"",""trial"",""time""
""fullscreenenter"",""1"",""5274""
","
","","","-1","","","17","5576","3156","h","elianto","#f73b6a7A","-1","-1","1","0","[]","0","2","","","5576","45","3","4","lose","no-go","0"
"pit-trial","164","1329621","0.0-50.0","battery-v0.2","","""event"",""trial"",""time""
""fullscreenenter"",""1"",""5274""
","
","
","""event"",""trial"",""time""
""fullscreenenter"",""1"",""5274""
","
","","","832.8999999985099","","","17","5576","3156","y","elianto","#f73b6a7A"," "," ","1","0","[1683.199999999255]","1","2","","","5576","46","2","3","lose","go","0"
"pit-trial","165","1333084","0.0-51.0","battery-v0.2","","""event"",""trial"",""time""
""fullscreenenter"",""1"",""5274""
","
","
","""event"",""trial"",""time""
""fullscreenenter"",""1"",""5274""
","
","","","608.4000000022352","","","17","5576","3156","m","elianto","#f73b6a7A"," "," ","1","0","[1458.6000000014901]","1","2","","","5576","47","0","3","lose","go","0"
"pit-trial","166","1337940","0.0-52.0","battery-v0.2","","""event"",""trial"",""time""
""fullscreenenter"",""1"",""5274""
","
","
","""event"",""trial"",""time""
""fullscreenenter"",""1"",""5274""
","
","","","-1","","","17","5576","3156","r","elianto","#3366ff99","-1","-1","1","+10","[]","0","2","","","5576","48","1","2","win","no-go","0"
"pit-trial","167","1342796","0.0-53.0","battery-v0.2","","""event"",""trial"",""time""
""fullscreenenter"",""1"",""5274""
","
","
","""event"",""trial"",""time""
""fullscreenenter"",""1"",""5274""
","
","","","-1","","","17","5576","3156","r","elianto","#3366ff99","-1","-1","1","+10","[]","0","2","","","5576","49","1","2","win","no-go","0"
"pit-trial","168","1347652","0.0-54.0","battery-v0.2","","""event"",""trial"",""time""
""fullscreenenter"",""1"",""5274""
","
","
","""event"",""trial"",""time""
""fullscreenenter"",""1"",""5274""
","
","","","-1","","","17","5576","3156","h","elianto","#f73b6a7A","-1","-1","1","0","[]","0","2","","","5576","50","3","4","lose","no-go","0"
"pit-trial","169","1351511","0.0-55.0","battery-v0.2","","""event"",""trial"",""time""
""fullscreenenter"",""1"",""5274""
","
","
","""event"",""trial"",""time""
""fullscreenenter"",""1"",""5274""
","
","","","1005","","","17","5576","3156","y","elianto","#f73b6a7A"," "," ","1","-10","[1855.300000000745]","1","2","","","5576","51","2","3","lose","go","1"
"pit-trial","170","1354972","0.0-56.0","battery-v0.2","","""event"",""trial"",""time""
""fullscreenenter"",""1"",""5274""
","
","
","""event"",""trial"",""time""
""fullscreenenter"",""1"",""5274""
","
","","","605","","","17","5576","3156","m","elianto","#f73b6a7A"," "," ","1","0","[1456]","1","2","","","5576","52","0","3","lose","go","0"
"pit-trial","171","1359824","0.0-57.0","battery-v0.2","","""event"",""trial"",""time""
""fullscreenenter"",""1"",""5274""
","
","
","""event"",""trial"",""time""
""fullscreenenter"",""1"",""5274""
","
","","","-1","","","17","5576","3156","h","elianto","#f73b6a7A","-1","-1","1","0","[]","0","2","","","5576","53","3","4","lose","no-go","0"
"pit-trial","172","1364148","0.0-58.0","battery-v0.2","","""event"",""trial"",""time""
""fullscreenenter"",""1"",""5274""
","
","
","""event"",""trial"",""time""
""fullscreenenter"",""1"",""5274""
","
","","","1471.3999999985099","","","17","5576","3156","m","elianto","#f73b6a7A"," "," ","1","-10","[2321.5]","1","2","","","5576","54","0","3","lose","go","1"
"pit-trial","173","1367752","0.0-59.0","battery-v0.2","","""event"",""trial"",""time""
""fullscreenenter"",""1"",""5274""
","
","
","""event"",""trial"",""time""
""fullscreenenter"",""1"",""5274""
","
","","","750.3999999985099","","","17","5576","3156","y","elianto","#f73b6a7A"," "," ","1","0","[1601.2999999970198]","1","2","","","5576","55","2","3","lose","go","0"
"pit-trial","174","1372608","0.0-60.0","battery-v0.2","","""event"",""trial"",""time""
""fullscreenenter"",""1"",""5274""
","
","
","""event"",""trial"",""time""
""fullscreenenter"",""1"",""5274""
","
","","","-1","","","17","5576","3156","r","elianto","#3366ff99","-1","-1","1","0","[]","0","2","","","5576","56","1","2","win","no-go","1"
"pit-trial","175","1377463","0.0-61.0","battery-v0.2","","""event"",""trial"",""time""
""fullscreenenter"",""1"",""5274""
","
","
","""event"",""trial"",""time""
""fullscreenenter"",""1"",""5274""
","
","","","-1","","","17","5576","3156","h","elianto","#f73b6a7A","-1","-1","1","-10","[]","0","2","","","5576","57","3","4","lose","no-go","1"
"pit-trial","176","1381396","0.0-62.0","battery-v0.2","","""event"",""trial"",""time""
""fullscreenenter"",""1"",""5274""
","
","
","""event"",""trial"",""time""
""fullscreenenter"",""1"",""5274""
","
","","","1077.199999999255","","","17","5576","3156","y","elianto","#f73b6a7A"," "," ","1","0","[1928.0999999977648]","1","2","","","5576","58","2","3","lose","go","0"
"pit-trial","177","1386252","0.0-63.0","battery-v0.2","","""event"",""trial"",""time""
""fullscreenenter"",""1"",""5274""
","
","
","""event"",""trial"",""time""
""fullscreenenter"",""1"",""5274""
","
","","","-1","","","17","5576","3156","z","elianto","#3366ff99"," ","-1","0","0","[]","0","2","","","5576","59","4","1","win","go","0"
"pit-trial","178","1391105","0.0-64.0","battery-v0.2","","""event"",""trial"",""time""
""fullscreenenter"",""1"",""5274""
","
","
","""event"",""trial"",""time""
""fullscreenenter"",""1"",""5274""
","
","","","-1","","","17","5576","3156","m","elianto","#f73b6a7A"," ","-1","0","-10","[]","0","2","","","5576","60","0","3","lose","go","0"
"pit-trial","179","1394528","0.0-65.0","battery-v0.2","","""event"",""trial"",""time""
""fullscreenenter"",""1"",""5274""
","
","
","""event"",""trial"",""time""
""fullscreenenter"",""1"",""5274""
","
","","","570.7000000029802","","","17","5576","3156","y","elianto","#f73b6a7A"," "," ","1","0","[1420.800000000745]","1","2","","","5576","61","2","3","lose","go","0"
"pit-trial","180","1399383","0.0-66.0","battery-v0.2","","""event"",""trial"",""time""
""fullscreenenter"",""1"",""5274""
","
","
","""event"",""trial"",""time""
""fullscreenenter"",""1"",""5274""
","
","","","-1","","","17","5576","3156","r","elianto","#3366ff99","-1","-1","1","+10","[]","0","2","","","5576","62","1","2","win","no-go","0"
"pit-trial","181","1404240","0.0-67.0","battery-v0.2","","""event"",""trial"",""time""
""fullscreenenter"",""1"",""5274""
","
","
","""event"",""trial"",""time""
""fullscreenenter"",""1"",""5274""
","
","","","-1","","","17","5576","3156","h","elianto","#f73b6a7A","-1","-1","1","-10","[]","0","2","","","5576","63","3","4","lose","no-go","1"
"pit-trial","182","1407876","0.0-68.0","battery-v0.2","","""event"",""trial"",""time""
""fullscreenenter"",""1"",""5274""
","
","
","""event"",""trial"",""time""
""fullscreenenter"",""1"",""5274""
","
","","","783.2000000029802","","","17","5576","3156","z","elianto","#3366ff99"," "," ","1","+10","[1633.6000000014901]","1","2","","","5576","64","4","1","win","go","0"
"pit-trial","183","1411552","0.0-69.0","battery-v0.2","","""event"",""trial"",""time""
""fullscreenenter"",""1"",""5274""
","
","
","""event"",""trial"",""time""
""fullscreenenter"",""1"",""5274""
","
","","","824","","","17","5576","3156","z","elianto","#3366ff99"," "," ","1","+10","[1674.8999999985099]","1","2","","","5576","65","4","1","win","go","0"
"pit-trial","184","1416408","0.0-70.0","battery-v0.2","","""event"",""trial"",""time""
""fullscreenenter"",""1"",""5274""
","
","
","""event"",""trial"",""time""
""fullscreenenter"",""1"",""5274""
","
","","","-1","","","17","5576","3156","c","elianto","#3366ff99","-1","-1","1","+10","[]","0","2","","","5576","66","5","2","win","no-go","0"
"pit-trial","185","1421264","0.0-71.0","battery-v0.2","","""event"",""trial"",""time""
""fullscreenenter"",""1"",""5274""
","
","
","""event"",""trial"",""time""
""fullscreenenter"",""1"",""5274""
","
","","","-1","","","17","5576","3156","r","elianto","#3366ff99","-1","-1","1","+10","[]","0","2","","","5576","67","1","2","win","no-go","0"
"pit-trial","186","1426120","0.0-72.0","battery-v0.2","","""event"",""trial"",""time""
""fullscreenenter"",""1"",""5274""
","
","
","""event"",""trial"",""time""
""fullscreenenter"",""1"",""5274""
","
","","","-1","","","17","5576","3156","h","elianto","#f73b6a7A","-1","-1","1","0","[]","0","2","","","5576","68","3","4","lose","no-go","0"
"pit-trial","187","1429864","0.0-73.0","battery-v0.2","","""event"",""trial"",""time""
""fullscreenenter"",""1"",""5274""
","
","
","""event"",""trial"",""time""
""fullscreenenter"",""1"",""5274""
","
","","","888.7000000029802","","","17","5576","3156","y","elianto","#f73b6a7A"," "," ","1","0","[1739.800000000745]","1","2","","","5576","69","2","3","lose","go","0"
"pit-trial","188","1434720","0.0-74.0","battery-v0.2","","""event"",""trial"",""time""
""fullscreenenter"",""1"",""5274""
","
","
","""event"",""trial"",""time""
""fullscreenenter"",""1"",""5274""
","
","","","-1","","","17","5576","3156","c","elianto","#3366ff99","-1","-1","1","0","[]","0","2","","","5576","70","5","2","win","no-go","1"
"pit-trial","189","1438272","0.0-75.0","battery-v0.2","","""event"",""trial"",""time""
""fullscreenenter"",""1"",""5274""
","
","
","""event"",""trial"",""time""
""fullscreenenter"",""1"",""5274""
","
","","","698.5999999977648","","","17","5576","3156","z","elianto","#3366ff99"," "," ","1","+10","[1548.800000000745]","1","2","","","5576","71","4","1","win","go","0"
"pit-trial","190","1442087","0.0-76.0","battery-v0.2","","""event"",""trial"",""time""
""fullscreenenter"",""1"",""5274""
","
","
","""event"",""trial"",""time""
""fullscreenenter"",""1"",""5274""
","
","","","962.3999999985099","","","17","5576","3156","r","elianto","#3366ff99","-1"," ","0","0","[1813.5]","1","2","","","5576","72","1","2","win","no-go","0"
"pit-trial","191","1445984","0.0-77.0","battery-v0.2","","""event"",""trial"",""time""
""fullscreenenter"",""1"",""5274""
","
","
","""event"",""trial"",""time""
""fullscreenenter"",""1"",""5274""
","
","","","1042.8999999985099","","","17","5576","3156","c","elianto","#3366ff99","-1"," ","0","0","[1893.7999999970198]","1","2","","","5576","73","5","2","win","no-go","0"
"pit-trial","192","1450841","0.0-78.0","battery-v0.2","","""event"",""trial"",""time""
""fullscreenenter"",""1"",""5274""
","
","
","""event"",""trial"",""time""
""fullscreenenter"",""1"",""5274""
","
","","","-1","","","17","5576","3156","r","elianto","#3366ff99","-1","-1","1","0","[]","0","2","","","5576","74","1","2","win","no-go","1"
"pit-trial","193","1454504","0.0-79.0","battery-v0.2","","""event"",""trial"",""time""
""fullscreenenter"",""1"",""5274""
","
","
","""event"",""trial"",""time""
""fullscreenenter"",""1"",""5274""
","
","","","808.7000000029802","","","17","5576","3156","z","elianto","#3366ff99"," "," ","1","+10","[1658.800000000745]","1","2","","","5576","75","4","1","win","go","0"
"pit-trial","194","1459359","0.0-80.0","battery-v0.2","","""event"",""trial"",""time""
""fullscreenenter"",""1"",""5274""
","
","
","""event"",""trial"",""time""
""fullscreenenter"",""1"",""5274""
","
","","","-1","","","17","5576","3156","h","elianto","#f73b6a7A","-1","-1","1","0","[]","0","2","","","5576","76","3","4","lose","no-go","0"
"pit-trial","195","1463696","0.0-81.0","battery-v0.2","","""event"",""trial"",""time""
""fullscreenenter"",""1"",""5274""
","
","
","""event"",""trial"",""time""
""fullscreenenter"",""1"",""5274""
","
","","","1482.5","","","17","5576","3156","z","elianto","#3366ff99"," "," ","1","+10","[2333.599999997765]","1","2","","","5576","77","4","1","win","go","0"
"pit-trial","196","1468555","0.0-82.0","battery-v0.2","","""event"",""trial"",""time""
""fullscreenenter"",""1"",""5274""
","
","
","""event"",""trial"",""time""
""fullscreenenter"",""1"",""5274""
","
","","","-1","","","17","5576","3156","h","elianto","#f73b6a7A","-1","-1","1","-10","[]","0","2","","","5576","78","3","4","lose","no-go","1"
"pit-trial","197","1473412","0.0-83.0","battery-v0.2","","""event"",""trial"",""time""
""fullscreenenter"",""1"",""5274""
","
","
","""event"",""trial"",""time""
""fullscreenenter"",""1"",""5274""
","
","","","-1","","","17","5576","3156","c","elianto","#3366ff99","-1","-1","1","+10","[]","0","2","","","5576","79","5","2","win","no-go","0"
"pit-trial","198","1477387","0.0-84.0","battery-v0.2","","""event"",""trial"",""time""
""fullscreenenter"",""1"",""5274""
","
","
","""event"",""trial"",""time""
""fullscreenenter"",""1"",""5274""
","
","","","1123","","","17","5576","3156","z","elianto","#3366ff99"," "," ","1","0","[1973.5]","1","2","","","5576","80","4","1","win","go","1"
"pit-trial","199","1482240","0.0-85.0","battery-v0.2","","""event"",""trial"",""time""
""fullscreenenter"",""1"",""5274""
","
","
","""event"",""trial"",""time""
""fullscreenenter"",""1"",""5274""
","
","","","-1","","","17","5576","3156","c","elianto","#3366ff99","-1","-1","1","+10","[]","0","2","","","5576","81","5","2","win","no-go","0"
"pit-trial","200","1486515","0.0-86.0","battery-v0.2","","""event"",""trial"",""time""
""fullscreenenter"",""1"",""5274""
","
","
","""event"",""trial"",""time""
""fullscreenenter"",""1"",""5274""
","
","","","1422.6000000014901","","","17","5576","3156","z","elianto","#3366ff99"," "," ","1","+10","[2273.300000000745]","1","2","","","5576","82","4","1","win","go","0"
"pit-trial","201","1491368","0.0-87.0","battery-v0.2","","""event"",""trial"",""time""
""fullscreenenter"",""1"",""5274""
","
","
","""event"",""trial"",""time""
""fullscreenenter"",""1"",""5274""
","
","","","-1","","","17","5576","3156","h","elianto","#f73b6a7A","-1","-1","1","0","[]","0","2","","","5576","83","3","4","lose","no-go","0"
"pit-trial","202","1496220","0.0-88.0","battery-v0.2","","""event"",""trial"",""time""
""fullscreenenter"",""1"",""5274""
","
","
","""event"",""trial"",""time""
""fullscreenenter"",""1"",""5274""
","
","","","-1","","","17","5576","3156","t","elianto","#f73b6a7A","-1","-1","1","0","[]","0","2","","","5576","84","7","4","lose","no-go","0"
"pit-trial","203","1500867","0.0-89.0","battery-v0.2","","""event"",""trial"",""time""
""fullscreenenter"",""1"",""5274""
","
","
","""event"",""trial"",""time""
""fullscreenenter"",""1"",""5274""
","
","","","1794.699999999255","","","17","5576","3156","b","elianto","#f73b6a7A"," "," ","1","-10","[2645.699999999255]","1","2","","","5576","85","6","3","lose","go","1"
"pit-trial","204","1505724","0.0-90.0","battery-v0.2","","""event"",""trial"",""time""
""fullscreenenter"",""1"",""5274""
","
","
","""event"",""trial"",""time""
""fullscreenenter"",""1"",""5274""
","
","","","-1","","","17","5576","3156","c","elianto","#3366ff99","-1","-1","1","0","[]","0","2","","","5576","86","5","2","win","no-go","1"
"pit-trial","205","1510576","0.0-91.0","battery-v0.2","","""event"",""trial"",""time""
""fullscreenenter"",""1"",""5274""
","
","
","""event"",""trial"",""time""
""fullscreenenter"",""1"",""5274""
","
","","","-1","","","17","5576","3156","t","elianto","#f73b6a7A","-1","-1","1","0","[]","0","2","","","5576","87","7","4","lose","no-go","0"
"pit-trial","206","1514259","0.0-92.0","battery-v0.2","","""event"",""trial"",""time""
""fullscreenenter"",""1"",""5274""
","
","
","""event"",""trial"",""time""
""fullscreenenter"",""1"",""5274""
","
","","","830.2000000029802","","","17","5576","3156","z","elianto","#3366ff99"," "," ","1","+10","[1681.4000000022352]","1","2","","","5576","88","4","1","win","go","0"
"pit-trial","207","1517996","0.0-93.0","battery-v0.2","","""event"",""trial"",""time""
""fullscreenenter"",""1"",""5274""
","
","
","""event"",""trial"",""time""
""fullscreenenter"",""1"",""5274""
","
","","","881.8000000007451","","","17","5576","3156","z","elianto","#3366ff99"," "," ","1","+10","[1734]","1","2","","","5576","89","4","1","win","go","0"
"pit-trial","208","1522848","0.0-94.0","battery-v0.2","","""event"",""trial"",""time""
""fullscreenenter"",""1"",""5274""
","
","
","""event"",""trial"",""time""
""fullscreenenter"",""1"",""5274""
","
","","","-1","","","17","5576","3156","t","elianto","#f73b6a7A","-1","-1","1","0","[]","0","2","","","5576","90","7","4","lose","no-go","0"
"pit-trial","209","1527704","0.0-95.0","battery-v0.2","","""event"",""trial"",""time""
""fullscreenenter"",""1"",""5274""
","
","
","""event"",""trial"",""time""
""fullscreenenter"",""1"",""5274""
","
","","","-1","","","17","5576","3156","c","elianto","#3366ff99","-1","-1","1","+10","[]","0","2","","","5576","91","5","2","win","no-go","0"
"pit-trial","210","1532556","0.0-96.0","battery-v0.2","","""event"",""trial"",""time""
""fullscreenenter"",""1"",""5274""
","
","
","""event"",""trial"",""time""
""fullscreenenter"",""1"",""5274""
","
","","","-1","","","17","5576","3156","b","elianto","#f73b6a7A"," ","-1","0","-10","[]","0","2","","","5576","92","6","3","lose","go","0"
"pit-trial","211","1537412","0.0-97.0","battery-v0.2","","""event"",""trial"",""time""
""fullscreenenter"",""1"",""5274""
","
","
","""event"",""trial"",""time""
""fullscreenenter"",""1"",""5274""
","
","","","-1","","","17","5576","3156","b","elianto","#f73b6a7A"," ","-1","0","-10","[]","0","2","","","5576","93","6","3","lose","go","0"
"pit-trial","212","1542268","0.0-98.0","battery-v0.2","","""event"",""trial"",""time""
""fullscreenenter"",""1"",""5274""
","
","
","""event"",""trial"",""time""
""fullscreenenter"",""1"",""5274""
","
","","","-1","","","17","5576","3156","c","elianto","#3366ff99","-1","-1","1","0","[]","0","2","","","5576","94","5","2","win","no-go","1"
"pit-trial","213","1547121","0.0-99.0","battery-v0.2","","""event"",""trial"",""time""
""fullscreenenter"",""1"",""5274""
","
","
","""event"",""trial"",""time""
""fullscreenenter"",""1"",""5274""
","
","","","-1","","","17","5576","3156","f","elianto","#3366ff99"," ","-1","0","0","[]","0","2","","","5576","95","8","1","win","go","0"
"pit-trial","214","1551976","0.0-100.0","battery-v0.2","","""event"",""trial"",""time""
""fullscreenenter"",""1"",""5274""
","
","
","""event"",""trial"",""time""
""fullscreenenter"",""1"",""5274""
","
","","","-1","","","17","5576","3156","t","elianto","#f73b6a7A","-1","-1","1","0","[]","0","2","","","5576","96","7","4","lose","no-go","0"
"pit-trial","215","1555776","0.0-101.0","battery-v0.2","","""event"",""trial"",""time""
""fullscreenenter"",""1"",""5274""
","
","
","""event"",""trial"",""time""
""fullscreenenter"",""1"",""5274""
","
","","","941.2000000029802","","","17","5576","3156","f","elianto","#3366ff99"," "," ","1","+10","[1795.1000000014901]","1","2","","","5576","97","8","1","win","go","0"
"pit-trial","216","1560633","0.0-102.0","battery-v0.2","","""event"",""trial"",""time""
""fullscreenenter"",""1"",""5274""
","
","
","""event"",""trial"",""time""
""fullscreenenter"",""1"",""5274""
","
","","","-1","","","17","5576","3156","c","elianto","#3366ff99","-1","-1","1","+10","[]","0","2","","","5576","98","5","2","win","no-go","0"
"pit-trial","217","1564356","0.0-103.0","battery-v0.2","","""event"",""trial"",""time""
""fullscreenenter"",""1"",""5274""
","
","
","""event"",""trial"",""time""
""fullscreenenter"",""1"",""5274""
","
","","","869.8999999985099","","","17","5576","3156","b","elianto","#f73b6a7A"," "," ","1","0","[1720.699999999255]","1","2","","","5576","99","6","3","lose","go","0"
"pit-trial","218","1569209","0.0-104.0","battery-v0.2","","""event"",""trial"",""time""
""fullscreenenter"",""1"",""5274""
","
","
","""event"",""trial"",""time""
""fullscreenenter"",""1"",""5274""
","
","","","-1","","","17","5576","3156","t","elianto","#f73b6a7A","-1","-1","1","0","[]","0","2","","","5576","100","7","4","lose","no-go","0"
"pit-trial","219","1574068","0.0-105.0","battery-v0.2","","""event"",""trial"",""time""
""fullscreenenter"",""1"",""5274""
","
","
","""event"",""trial"",""time""
""fullscreenenter"",""1"",""5274""
","
","","","-1","","","17","5576","3156","t","elianto","#f73b6a7A","-1","-1","1","0","[]","0","2","","","5576","101","7","4","lose","no-go","0"
"pit-trial","220","1578923","0.0-106.0","battery-v0.2","","""event"",""trial"",""time""
""fullscreenenter"",""1"",""5274""
","
","
","""event"",""trial"",""time""
""fullscreenenter"",""1"",""5274""
","
","","","-1","","","17","5576","3156","n","elianto","#3366ff99"," ","-1","0","+10","[]","0","2","","","5576","102","9","1","win","go","1"
"pit-trial","221","1583261","0.0-107.0","battery-v0.2","","""event"",""trial"",""time""
""fullscreenenter"",""1"",""5274""
","
","
","""event"",""trial"",""time""
""fullscreenenter"",""1"",""5274""
","
","","","1482.9000000022352","","","17","5576","3156","f","elianto","#3366ff99"," "," ","1","+10","[2334]","1","2","","","5576","103","8","1","win","go","0"
"pit-trial","222","1588117","0.0-108.0","battery-v0.2","","""event"",""trial"",""time""
""fullscreenenter"",""1"",""5274""
","
","
","""event"",""trial"",""time""
""fullscreenenter"",""1"",""5274""
","
","","","-1","","","17","5576","3156","c","elianto","#3366ff99","-1","-1","1","0","[]","0","2","","","5576","104","5","2","win","no-go","1"
"pit-trial","223","1592371","0.0-109.0","battery-v0.2","","""event"",""trial"",""time""
""fullscreenenter"",""1"",""5274""
","
","
","""event"",""trial"",""time""
""fullscreenenter"",""1"",""5274""
","
","","","1398.6000000014901","","","17","5576","3156","b","elianto","#f73b6a7A"," "," ","1","0","[2252]","1","2","","","5576","105","6","3","lose","go","0"
"pit-trial","224","1597227","0.0-110.0","battery-v0.2","","""event"",""trial"",""time""
""fullscreenenter"",""1"",""5274""
","
","
","""event"",""trial"",""time""
""fullscreenenter"",""1"",""5274""
","
","","","-1","","","17","5576","3156","n","elianto","#3366ff99"," ","-1","0","0","[]","0","2","","","5576","106","9","1","win","go","0"
"pit-trial","225","1602080","0.0-111.0","battery-v0.2","","""event"",""trial"",""time""
""fullscreenenter"",""1"",""5274""
","
","
","""event"",""trial"",""time""
""fullscreenenter"",""1"",""5274""
","
","","","-1","","","17","5576","3156","f","elianto","#3366ff99"," ","-1","0","0","[2898.10000000149]","1","2","","","5576","107","8","1","win","go","0"
"pit-trial","226","1606264","0.0-112.0","battery-v0.2","","""event"",""trial"",""time""
""fullscreenenter"",""1"",""5274""
","
","
","""event"",""trial"",""time""
""fullscreenenter"",""1"",""5274""
","
","","","1329.300000000745","","","17","5576","3156","z","elianto","#3366ff99"," "," ","1","+10","[2180.5]","1","2","","","5576","108","4","1","win","go","0"
"pit-trial","227","1611119","0.0-113.0","battery-v0.2","","""event"",""trial"",""time""
""fullscreenenter"",""1"",""5274""
","
","
","""event"",""trial"",""time""
""fullscreenenter"",""1"",""5274""
","
","","","-1","","","17","5576","3156","c","elianto","#3366ff99","-1","-1","1","+10","[]","0","2","","","5576","109","5","2","win","no-go","0"
"pit-trial","228","1615155","0.0-114.0","battery-v0.2","","""event"",""trial"",""time""
""fullscreenenter"",""1"",""5274""
","
","
","""event"",""trial"",""time""
""fullscreenenter"",""1"",""5274""
","
","","","1180.6000000014901","","","17","5576","3156","f","elianto","#3366ff99"," "," ","1","+10","[2031.7000000029802]","1","2","","","5576","110","8","1","win","go","0"
"pit-trial","229","1618811","0.0-115.0","battery-v0.2","","""event"",""trial"",""time""
""fullscreenenter"",""1"",""5274""
","
","
","""event"",""trial"",""time""
""fullscreenenter"",""1"",""5274""
","
","","","801.1000000014901","","","17","5576","3156","n","elianto","#3366ff99"," "," ","1","+10","[1652.1000000014901]","1","2","","","5576","111","9","1","win","go","0"
"pit-trial","230","1622521","0.0-116.0","battery-v0.2","","""event"",""trial"",""time""
""fullscreenenter"",""1"",""5274""
","
","
","""event"",""trial"",""time""
""fullscreenenter"",""1"",""5274""
","
","","","852.8000000007451","","","17","5576","3156","b","elianto","#f73b6a7A"," "," ","1","0","[1703.6000000014901]","1","2","","","5576","112","6","3","lose","go","0"
"pit-trial","231","1627376","0.0-117.0","battery-v0.2","","""event"",""trial"",""time""
""fullscreenenter"",""1"",""5274""
","
","
","""event"",""trial"",""time""
""fullscreenenter"",""1"",""5274""
","
","","","-1","","","17","5576","3156","c","elianto","#3366ff99","-1","-1","1","+10","[]","0","2","","","5576","113","5","2","win","no-go","0"
"pit-trial","232","1631203","0.0-118.0","battery-v0.2","","""event"",""trial"",""time""
""fullscreenenter"",""1"",""5274""
","
","
","""event"",""trial"",""time""
""fullscreenenter"",""1"",""5274""
","
","","","971.2000000029802","","","17","5576","3156","f","elianto","#3366ff99"," "," ","1","+10","[1825.1000000014901]","1","2","","","5576","114","8","1","win","go","0"
"pit-trial","233","1634932","0.0-119.0","battery-v0.2","","""event"",""trial"",""time""
""fullscreenenter"",""1"",""5274""
","
","
","""event"",""trial"",""time""
""fullscreenenter"",""1"",""5274""
","
","","","872.6000000014901","","","17","5576","3156","n","elianto","#3366ff99"," "," ","1","+10","[1723.6000000014901]","1","2","","","5576","115","9","1","win","go","0"
"pit-trial","234","1638771","0.0-120.0","battery-v0.2","","""event"",""trial"",""time""
""fullscreenenter"",""1"",""5274""
","
","
","""event"",""trial"",""time""
""fullscreenenter"",""1"",""5274""
","
","","","983","","","17","5576","3156","b","elianto","#f73b6a7A"," "," ","1","0","[1836.8999999985099]","1","2","","","5576","116","6","3","lose","go","0"
"pit-trial","235","1642347","0.0-121.0","battery-v0.2","","""event"",""trial"",""time""
""fullscreenenter"",""1"",""5274""
","
","
","""event"",""trial"",""time""
""fullscreenenter"",""1"",""5274""
","
","","","722.8999999985099","","","17","5576","3156","f","elianto","#3366ff99"," "," ","1","+10","[1574]","1","2","","","5576","117","8","1","win","go","0"
"pit-trial","236","1647200","0.0-122.0","battery-v0.2","","""event"",""trial"",""time""
""fullscreenenter"",""1"",""5274""
","
","
","""event"",""trial"",""time""
""fullscreenenter"",""1"",""5274""
","
","","","-1","","","17","5576","3156","c","elianto","#3366ff99","-1","-1","1","+10","[]","0","2","","","5576","118","5","2","win","no-go","0"
"pit-trial","237","1651795","0.0-123.0","battery-v0.2","","""event"",""trial"",""time""
""fullscreenenter"",""1"",""5274""
","
","
","""event"",""trial"",""time""
""fullscreenenter"",""1"",""5274""
","
","","","1742.199999999255","","","17","5576","3156","n","elianto","#3366ff99"," "," ","1","+10","[2593.199999999255]","1","2","","","5576","119","9","1","win","go","0"
"pit-trial","238","1655603","0.0-124.0","battery-v0.2","","""event"",""trial"",""time""
""fullscreenenter"",""1"",""5274""
","
","
","""event"",""trial"",""time""
""fullscreenenter"",""1"",""5274""
","
","","","952.8000000007451","","","17","5576","3156","b","elianto","#f73b6a7A"," "," ","1","0","[1803.800000000745]","1","2","","","5576","120","6","3","lose","go","0"
"pit-trial","239","1659872","0.0-125.0","battery-v0.2","","""event"",""trial"",""time""
""fullscreenenter"",""1"",""5274""
","
","
","""event"",""trial"",""time""
""fullscreenenter"",""1"",""5274""
","
","","","1414.699999999255","","","17","5576","3156","b","elianto","#f73b6a7A"," "," ","1","-10","[2265.5]","1","2","","","5576","121","6","3","lose","go","1"
"pit-trial","240","1663431","0.0-126.0","battery-v0.2","","""event"",""trial"",""time""
""fullscreenenter"",""1"",""5274""
","
","
","""event"",""trial"",""time""
""fullscreenenter"",""1"",""5274""
","
","","","704.3000000007451","","","17","5576","3156","f","elianto","#3366ff99"," "," ","1","+10","[1555.300000000745]","1","2","","","5576","122","8","1","win","go","0"
"pit-trial","241","1667076","0.0-127.0","battery-v0.2","","""event"",""trial"",""time""
""fullscreenenter"",""1"",""5274""
","
","
","""event"",""trial"",""time""
""fullscreenenter"",""1"",""5274""
","
","","","791.0999999977648","","","17","5576","3156","n","elianto","#3366ff99"," "," ","1","+10","[1641.9000000022352]","1","2","","","5576","123","9","1","win","go","0"
"pit-trial","242","1671932","0.0-128.0","battery-v0.2","","""event"",""trial"",""time""
""fullscreenenter"",""1"",""5274""
","
","
","""event"",""trial"",""time""
""fullscreenenter"",""1"",""5274""
","
","","","-1","","","17","5576","3156","t","elianto","#f73b6a7A","-1","-1","1","0","[]","0","2","","","5576","124","7","4","lose","no-go","0"
"pit-trial","243","1675480","0.0-129.0","battery-v0.2","","""event"",""trial"",""time""
""fullscreenenter"",""1"",""5274""
","
","
","""event"",""trial"",""time""
""fullscreenenter"",""1"",""5274""
","
","","","692.8999999985099","","","17","5576","3156","n","elianto","#3366ff99"," "," ","1","0","[1543]","1","2","","","5576","125","9","1","win","go","1"
"pit-trial","244","1680332","0.0-130.0","battery-v0.2","","""event"",""trial"",""time""
""fullscreenenter"",""1"",""5274""
","
","
","""event"",""trial"",""time""
""fullscreenenter"",""1"",""5274""
","
","","","-1","","","17","5576","3156","t","elianto","#f73b6a7A","-1","-1","1","-10","[]","0","2","","","5576","126","7","4","lose","no-go","1"
"pit-trial","245","1684532","0.0-131.0","battery-v0.2","","""event"",""trial"",""time""
""fullscreenenter"",""1"",""5274""
","
","
","""event"",""trial"",""time""
""fullscreenenter"",""1"",""5274""
","
","","","1344.5","","","17","5576","3156","b","elianto","#f73b6a7A"," "," ","1","0","[2195.599999997765]","1","2","","","5576","127","6","3","lose","go","0"
"pit-trial","246","1687984","0.0-132.0","battery-v0.2","","""event"",""trial"",""time""
""fullscreenenter"",""1"",""5274""
","
","
","""event"",""trial"",""time""
""fullscreenenter"",""1"",""5274""
","
","","","598.6000000014901","","","17","5576","3156","f","elianto","#3366ff99"," "," ","1","+10","[1449.4000000022352]","1","2","","","5576","128","8","1","win","go","0"
"pit-trial","247","1692840","0.0-133.0","battery-v0.2","","""event"",""trial"",""time""
""fullscreenenter"",""1"",""5274""
","
","
","""event"",""trial"",""time""
""fullscreenenter"",""1"",""5274""
","
","","","-1","","","17","5576","3156","t","elianto","#f73b6a7A","-1","-1","1","0","[]","0","2","","","5576","129","7","4","lose","no-go","0"
"pit-trial","248","1696348","0.0-134.0","battery-v0.2","","""event"",""trial"",""time""
""fullscreenenter"",""1"",""5274""
","
","
","""event"",""trial"",""time""
""fullscreenenter"",""1"",""5274""
","
","","","653.3000000007451","","","17","5576","3156","b","elianto","#f73b6a7A"," "," ","1","0","[1503.3999999985099]","1","2","","","5576","130","6","3","lose","go","0"
"pit-trial","249","1699961","0.0-135.0","battery-v0.2","","""event"",""trial"",""time""
""fullscreenenter"",""1"",""5274""
","
","
","""event"",""trial"",""time""
""fullscreenenter"",""1"",""5274""
","
","","","756.3000000007451","","","17","5576","3156","n","elianto","#3366ff99"," "," ","1","+10","[1607.4000000022352]","1","2","","","5576","131","9","1","win","go","0"
"pit-trial","250","1703468","0.0-136.0","battery-v0.2","","""event"",""trial"",""time""
""fullscreenenter"",""1"",""5274""
","
","
","""event"",""trial"",""time""
""fullscreenenter"",""1"",""5274""
","
","","","652.8000000007451","","","17","5576","3156","f","elianto","#3366ff99"," "," ","1","+10","[1502.800000000745]","1","2","","","5576","132","8","1","win","go","0"
"pit-trial","251","1708324","0.0-137.0","battery-v0.2","","""event"",""trial"",""time""
""fullscreenenter"",""1"",""5274""
","
","
","""event"",""trial"",""time""
""fullscreenenter"",""1"",""5274""
","
","","","-1","","","17","5576","3156","t","elianto","#f73b6a7A","-1","-1","1","0","[]","0","2","","","5576","133","7","4","lose","no-go","0"
"pit-trial","252","1711864","0.0-138.0","battery-v0.2","","""event"",""trial"",""time""
""fullscreenenter"",""1"",""5274""
","
","
","""event"",""trial"",""time""
""fullscreenenter"",""1"",""5274""
","
","","","687.3000000007451","","","17","5576","3156","n","elianto","#3366ff99"," "," ","1","+10","[1537.6000000014901]","1","2","","","5576","134","9","1","win","go","0"
"pit-trial","253","1715632","0.0-139.0","battery-v0.2","","""event"",""trial"",""time""
""fullscreenenter"",""1"",""5274""
","
","
","""event"",""trial"",""time""
""fullscreenenter"",""1"",""5274""
","
","","","910.8999999985099","","","17","5576","3156","b","elianto","#f73b6a7A"," "," ","1","-10","[1764.8999999985099]","1","2","","","5576","135","6","3","lose","go","1"
"pit-trial","254","1719076","0.0-140.0","battery-v0.2","","""event"",""trial"",""time""
""fullscreenenter"",""1"",""5274""
","
","
","""event"",""trial"",""time""
""fullscreenenter"",""1"",""5274""
","
","","","585.0999999977648","","","17","5576","3156","f","elianto","#3366ff99"," "," ","1","+10","[1439]","1","2","","","5576","136","8","1","win","go","0"
"pit-trial","255","1722916","0.0-141.0","battery-v0.2","","""event"",""trial"",""time""
""fullscreenenter"",""1"",""5274""
","
","
","""event"",""trial"",""time""
""fullscreenenter"",""1"",""5274""
","
","","","987.1000000014901","","","17","5576","3156","b","elianto","#f73b6a7A"," "," ","1","0","[1837.300000000745]","1","2","","","5576","137","6","3","lose","go","0"
"pit-trial","256","1726545","0.0-142.0","battery-v0.2","","""event"",""trial"",""time""
""fullscreenenter"",""1"",""5274""
","
","
","""event"",""trial"",""time""
""fullscreenenter"",""1"",""5274""
","
","","","772.8999999985099","","","17","5576","3156","f","elianto","#3366ff99"," "," ","1","+10","[1626.6000000014901]","1","2","","","5576","138","8","1","win","go","0"
"pit-trial","257","1731400","0.0-143.0","battery-v0.2","","""event"",""trial"",""time""
""fullscreenenter"",""1"",""5274""
","
","
","""event"",""trial"",""time""
""fullscreenenter"",""1"",""5274""
","
","","","-1","","","17","5576","3156","t","elianto","#f73b6a7A","-1","-1","1","0","[]","0","2","","","5576","139","7","4","lose","no-go","0"
"pit-trial","258","1734904","0.0-144.0","battery-v0.2","","""event"",""trial"",""time""
""fullscreenenter"",""1"",""5274""
","
","
","""event"",""trial"",""time""
""fullscreenenter"",""1"",""5274""
","
","","","650.8000000007451","","","17","5576","3156","n","elianto","#3366ff99"," "," ","1","+10","[1501.800000000745]","1","2","","","5576","140","9","1","win","go","0"
"pit-instructions","259","2097674","0.0-145.0","battery-v0.2","","""event"",""trial"",""time""
""fullscreenenter"",""1"",""5274""
","
","
","""event"",""trial"",""time""
""fullscreenenter"",""1"",""5274""
","
","","[{""page_index"":0,""viewing_time"":354601.5},{""page_index"":1,""viewing_time"":8168}]","362769.69999999925","","","","","","","","","","","","","","","","","","","","","","","",""
"pit-trial","260","2102528","0.0-146.0","battery-v0.2","","""event"",""trial"",""time""
""fullscreenenter"",""1"",""5274""
","
","
","""event"",""trial"",""time""
""fullscreenenter"",""1"",""5274""
","
","","","-1","","","17","5576","3156","j","elianto","#f73b6a7A","-1","-1","1","0","[]","0","3","","","5576","141","0","4","lose","no-go","0"
"pit-trial","261","2106440","0.0-147.0","battery-v0.2","","""event"",""trial"",""time""
""fullscreenenter"",""1"",""5274""
","
","
","""event"",""trial"",""time""
""fullscreenenter"",""1"",""5274""
","
","","","1059.5","","","17","5576","3156","e","elianto","#f73b6a7A","-1"," ","0","-10","[1909.5]","1","3","","","5576","142","2","4","lose","no-go","0"
"pit-trial","262","2110393","0.0-148.0","battery-v0.2","","""event"",""trial"",""time""
""fullscreenenter"",""1"",""5274""
","
","
","""event"",""trial"",""time""
""fullscreenenter"",""1"",""5274""
","
","","","1100.5","","","17","5576","3156","d","elianto","#3366ff99"," "," ","1","+10","[1950.7999999970198]","1","3","","","5576","143","1","1","win","go","0"
"pit-trial","263","2114871","0.0-149.0","battery-v0.2","","""event"",""trial"",""time""
""fullscreenenter"",""1"",""5274""
","
","
","""event"",""trial"",""time""
""fullscreenenter"",""1"",""5274""
","
","","","1620.3999999985099","","","17","5576","3156","w","elianto","#f73b6a7A"," "," ","1","0","[2474.2999999970198]","1","3","","","5576","144","3","3","lose","go","0"
"pit-trial","264","2119728","0.0-150.0","battery-v0.2","","""event"",""trial"",""time""
""fullscreenenter"",""1"",""5274""
","
","
","""event"",""trial"",""time""
""fullscreenenter"",""1"",""5274""
","
","","","-1","","","17","5576","3156","e","elianto","#f73b6a7A","-1","-1","1","0","[]","0","3","","","5576","145","2","4","lose","no-go","0"
"pit-trial","265","2123559","0.0-151.0","battery-v0.2","","""event"",""trial"",""time""
""fullscreenenter"",""1"",""5274""
","
","
","""event"",""trial"",""time""
""fullscreenenter"",""1"",""5274""
","
","","","977.8000000007451","","","17","5576","3156","w","elianto","#f73b6a7A"," "," ","1","0","[1828.800000000745]","1","3","","","5576","146","3","3","lose","go","0"
"pit-trial","266","2128416","0.0-152.0","battery-v0.2","","""event"",""trial"",""time""
""fullscreenenter"",""1"",""5274""
","
","
","""event"",""trial"",""time""
""fullscreenenter"",""1"",""5274""
","
","","","-1","","","17","5576","3156","j","elianto","#f73b6a7A","-1","-1","1","0","[]","0","3","","","5576","147","0","4","lose","no-go","0"
"pit-trial","267","2132255","0.0-153.0","battery-v0.2","","""event"",""trial"",""time""
""fullscreenenter"",""1"",""5274""
","
","
","""event"",""trial"",""time""
""fullscreenenter"",""1"",""5274""
","
","","","984.3999999985099","","","17","5576","3156","d","elianto","#3366ff99"," "," ","1","+10","[1835.3999999985099]","1","3","","","5576","148","1","1","win","go","0"
"pit-trial","268","2137108","0.0-154.0","battery-v0.2","","""event"",""trial"",""time""
""fullscreenenter"",""1"",""5274""
","
","
","""event"",""trial"",""time""
""fullscreenenter"",""1"",""5274""
","
","","","-1","","","17","5576","3156","j","elianto","#f73b6a7A","-1","-1","1","-10","[]","0","3","","","5576","149","0","4","lose","no-go","1"
