"trial_type","trial_index","time_elapsed","internal_node_id","task_version","subject_id","interactions","blur_events","focus_events","fullscreenenter_events","fullscreenexit_events","success","view_history","rt","responses","num_errors","age","subject","participantId","rune","rune_set","hex","correct","choice","accuracy","outcome","keys","total_keys","block","practice","value","sub","trial","stimulus","robot","valence","action","sham"
"pavlovia","0","7","0.0-0.0","battery-v0.2","","""event"",""trial"",""time""
""fullscreenenter"",""1"",""5933""
","
","
","""event"",""trial"",""time""
""fullscreenenter"",""1"",""5933""
","
","","","","","","","","","","","","","","","","","","","","","","","","","","",""
"fullscreen","1","6898","0.0-1.0","battery-v0.2","","""event"",""trial"",""time""
""fullscreenenter"",""1"",""5933""
","
","
","""event"",""trial"",""time""
""fullscreenenter"",""1"",""5933""
","
","true","","","","","","","","","","","","","","","","","","","","","","","","","",""
"pit-instructions","2","12198","0.0-2.0-0.0","battery-v0.2","","""event"",""trial"",""time""
""fullscreenenter"",""1"",""5933""
","
","
","""event"",""trial"",""time""
""fullscreenenter"",""1"",""5933""
","
","","[{""page_index"":0,""viewing_time"":5296.799999952316}]","5297.199999809265","","","","","","","","","","","","","","","","","","","","","","","",""
"pit-comprehension","3","19825","0.0-2.0-1.0-0.0","battery-v0.2","","""event"",""trial"",""time""
""fullscreenenter"",""1"",""5933""
","
","
","""event"",""trial"",""time""
""fullscreenenter"",""1"",""5933""
","
","","","7623.599999904633","[""shark""]","0","22","16599","1900","","","","","","","","","","","","","","","","","","",""
"pit-instructions","4","28398","0.0-2.0-1.0-1.0","battery-v0.2","","""event"",""trial"",""time""
""fullscreenenter"",""1"",""5933""
","
","
","""event"",""trial"",""time""
""fullscreenenter"",""1"",""5933""
","
","","[{""page_index"":0,""viewing_time"":8566}]","8566.199999809265","","","","","","","","","","","","","","","","","","","","","","","",""
"pit-comprehension","5","31802","0.0-2.0-2.0-0.0","battery-v0.2","","""event"",""trial"",""time""
""fullscreenenter"",""1"",""5933""
","
","
","""event"",""trial"",""time""
""fullscreenenter"",""1"",""5933""
","
","","","3401.100000143051","[""tiger""]","0","22","16599","1900","","","","","","","","","","","","","","","","","","",""
"pit-instructions","6","33789","0.0-2.0-2.0-1.0","battery-v0.2","","""event"",""trial"",""time""
""fullscreenenter"",""1"",""5933""
","
","
","""event"",""trial"",""time""
""fullscreenenter"",""1"",""5933""
","
","","[{""page_index"":0,""viewing_time"":1984.2999999523163}]","1984.6000001430511","","","","","","","","","","","","","","","","","","","","","","","",""
"pit-instructions","7","176994","0.0-2.0-3.0","battery-v0.2","","""event"",""trial"",""time""
""fullscreenenter"",""1"",""5933""
","
","
","""event"",""trial"",""time""
""fullscreenenter"",""1"",""5933""
","
","","[{""page_index"":0,""viewing_time"":11774.099999904633},{""page_index"":1,""viewing_time"":10448.5},{""page_index"":2,""viewing_time"":9398.799999952316},{""page_index"":3,""viewing_time"":8582.799999952316},{""page_index"":4,""viewing_time"":12023.700000047684},{""page_index"":5,""viewing_time"":14838.799999952316},{""page_index"":6,""viewing_time"":17920.5},{""page_index"":7,""viewing_time"":13072.200000047684},{""page_index"":8,""viewing_time"":7515.200000047684},{""page_index"":9,""viewing_time"":9749.200000047684},{""page_index"":10,""viewing_time"":8268.700000047684},{""page_index"":11,""viewing_time"":6694.399999856949},{""page_index"":12,""viewing_time"":6851.700000047684},{""page_index"":13,""viewing_time"":6063.299999952316}]","143202.19999980927","","","","","","","","","","","","","","","","","","","","","","","",""
"pit-trial","8","180501","0.0-2.0-4.0-0.0","battery-v0.2","","""event"",""trial"",""time""
""fullscreenenter"",""1"",""5933""
","
","
","""event"",""trial"",""time""
""fullscreenenter"",""1"",""5933""
","
","","","650.2000000476837","","","22","16599","1900","&#9784;","elianto","#FFFFF080"," "," ","1","&#10004","[1500.2000000476837]","1","0","0","","","","","","","",""
"pit-trial","9","184094","0.0-2.0-4.1-0.1","battery-v0.2","","""event"",""trial"",""time""
""fullscreenenter"",""1"",""5933""
","
","
","""event"",""trial"",""time""
""fullscreenenter"",""1"",""5933""
","
","","","737.7000000476837","","","22","16599","1900","&#9784;","elianto","#FFFFF080"," "," ","1","&#10004","[1588.9000000953674]","1","0","0","","","","","","","",""
"pit-trial","10","187626","0.0-2.0-4.2-0.2","battery-v0.2","","""event"",""trial"",""time""
""fullscreenenter"",""1"",""5933""
","
","
","""event"",""trial"",""time""
""fullscreenenter"",""1"",""5933""
","
","","","678.5999999046326","","","22","16599","1900","&#9784;","elianto","#FFFFF080"," "," ","1","&#10004","[1528.7999999523163]","1","0","0","","","","","","","",""
"pit-trial","11","191167","0.0-2.0-4.3-0.3","battery-v0.2","","""event"",""trial"",""time""
""fullscreenenter"",""1"",""5933""
","
","
","""event"",""trial"",""time""
""fullscreenenter"",""1"",""5933""
","
","","","676.0999999046326","","","22","16599","1900","&#9784;","elianto","#FFFFF080"," "," ","1","&#10004","[1526.9000000953674]","1","0","0","","","","","","","",""
"pit-trial","12","194692","0.0-2.0-4.4-0.4","battery-v0.2","","""event"",""trial"",""time""
""fullscreenenter"",""1"",""5933""
","
","
","""event"",""trial"",""time""
""fullscreenenter"",""1"",""5933""
","
","","","657.9000000953674","","","22","16599","1900","&#9784;","elianto","#FFFFF080"," "," ","1","&#10004","[1519.0999999046326]","1","0","0","","","","","","","",""
"pit-instructions","13","221725","0.0-2.0-5.0","battery-v0.2","","""event"",""trial"",""time""
""fullscreenenter"",""1"",""5933""
","
","
","""event"",""trial"",""time""
""fullscreenenter"",""1"",""5933""
","
","","[{""page_index"":0,""viewing_time"":9693.599999904633},{""page_index"":1,""viewing_time"":6493.599999904633},{""page_index"":2,""viewing_time"":5477.600000143051},{""page_index"":3,""viewing_time"":5364.700000047684}]","27029.799999952316","","","","","","","","","","","","","","","","","","","","","","","",""
"pit-trial","14","226584","0.0-2.0-6.0-0.0","battery-v0.2","","""event"",""trial"",""time""
""fullscreenenter"",""1"",""5933""
","
","
","""event"",""trial"",""time""
""fullscreenenter"",""1"",""5933""
","
","","","-1","","","22","16599","1900","&#9854;","elianto","#FFFFF080","-1","-1","1","&#10004","[]","0","0","1","","","","","","","",""
"pit-trial","15","231456","0.0-2.0-6.1-0.1","battery-v0.2","","""event"",""trial"",""time""
""fullscreenenter"",""1"",""5933""
","
","
","""event"",""trial"",""time""
""fullscreenenter"",""1"",""5933""
","
","","","-1","","","22","16599","1900","&#9854;","elianto","#FFFFF080","-1","-1","1","&#10004","[]","0","0","1","","","","","","","",""
"pit-trial","16","236326","0.0-2.0-6.2-0.2","battery-v0.2","","""event"",""trial"",""time""
""fullscreenenter"",""1"",""5933""
","
","
","""event"",""trial"",""time""
""fullscreenenter"",""1"",""5933""
","
","","","-1","","","22","16599","1900","&#9854;","elianto","#FFFFF080","-1","-1","1","&#10004","[]","0","0","1","","","","","","","",""
"pit-trial","17","241181","0.0-2.0-6.3-0.3","battery-v0.2","","""event"",""trial"",""time""
""fullscreenenter"",""1"",""5933""
","
","
","""event"",""trial"",""time""
""fullscreenenter"",""1"",""5933""
","
","","","-1","","","22","16599","1900","&#9854;","elianto","#FFFFF080","-1","-1","1","&#10004","[]","0","0","1","","","","","","","",""
"pit-trial","18","246036","0.0-2.0-6.4-0.4","battery-v0.2","","""event"",""trial"",""time""
""fullscreenenter"",""1"",""5933""
""blur"",""19"",""275910""
""focus"",""19"",""282188""
""blur"",""19"",""344352""
""focus"",""19"",""345218""
""blur"",""19"",""348295""
""focus"",""19"",""349008""
","""event"",""trial"",""time""
""blur"",""19"",""275910""
""blur"",""19"",""344352""
""blur"",""19"",""348295""
","""event"",""trial"",""time""
""focus"",""19"",""282188""
""focus"",""19"",""345218""
""focus"",""19"",""349008""
","""event"",""trial"",""time""
""fullscreenenter"",""1"",""5933""
","
","","","-1","","","22","16599","1900","&#9854;","elianto","#FFFFF080","-1","-1","1","&#10004","[]","0","0","1","","","","","","","",""
"pit-instructions","19","374342","0.0-2.0-7.0","battery-v0.2","","""event"",""trial"",""time""
""fullscreenenter"",""1"",""5933""
""blur"",""19"",""275910""
""focus"",""19"",""282188""
""blur"",""19"",""344352""
""focus"",""19"",""345218""
""blur"",""19"",""348295""
""focus"",""19"",""349008""
","""event"",""trial"",""time""
""blur"",""19"",""275910""
""blur"",""19"",""344352""
""blur"",""19"",""348295""
","""event"",""trial"",""time""
""focus"",""19"",""282188""
""focus"",""19"",""345218""
""focus"",""19"",""349008""
","""event"",""trial"",""time""
""fullscreenenter"",""1"",""5933""
","
","","[{""page_index"":0,""viewing_time"":6241.799999952316},{""page_index"":1,""viewing_time"":7725.200000047684},{""page_index"":2,""viewing_time"":6500.199999809265},{""page_index"":3,""viewing_time"":7771.300000190735},{""page_index"":4,""viewing_time"":8024.099999904633},{""page_index"":5,""viewing_time"":7016.299999952316},{""page_index"":6,""viewing_time"":6659.600000143051},{""page_index"":7,""viewing_time"":8173.5},{""page_index"":8,""viewing_time"":6456.5},{""page_index"":9,""viewing_time"":5417},{""page_index"":10,""viewing_time"":6343.299999952316},{""page_index"":11,""viewing_time"":4813.799999952316},{""page_index"":12,""viewing_time"":9720.299999952316},{""page_index"":13,""viewing_time"":8432.600000143051},{""page_index"":14,""viewing_time"":7184.399999856949},{""page_index"":15,""viewing_time"":7542.799999952316},{""page_index"":16,""viewing_time"":6771.5},{""page_index"":17,""viewing_time"":7508.700000047684}]","128303","","","","","","","","","","","","","","","","","","","","","","","",""
"pit-trial","20","378336","0.0-2.0-8.0-0.0","battery-v0.2","","""event"",""trial"",""time""
""fullscreenenter"",""1"",""5933""
""blur"",""19"",""275910""
""focus"",""19"",""282188""
""blur"",""19"",""344352""
""focus"",""19"",""345218""
""blur"",""19"",""348295""
""focus"",""19"",""349008""
","""event"",""trial"",""time""
""blur"",""19"",""275910""
""blur"",""19"",""344352""
""blur"",""19"",""348295""
","""event"",""trial"",""time""
""focus"",""19"",""282188""
""focus"",""19"",""345218""
""focus"",""19"",""349008""
","""event"",""trial"",""time""
""fullscreenenter"",""1"",""5933""
","
","","","1125.0999999046326","","","22","16599","1900","&#9776;","elianto","#3366ff99"," "," ","1","+10","[1979.2000000476837]","1","0","1","","","","","","","",""
"pit-trial","21","381954","0.0-2.0-8.0-1.0","battery-v0.2","","""event"",""trial"",""time""
""fullscreenenter"",""1"",""5933""
""blur"",""19"",""275910""
""focus"",""19"",""282188""
""blur"",""19"",""344352""
""focus"",""19"",""345218""
""blur"",""19"",""348295""
""focus"",""19"",""349008""
","""event"",""trial"",""time""
""blur"",""19"",""275910""
""blur"",""19"",""344352""
""blur"",""19"",""348295""
","""event"",""trial"",""time""
""focus"",""19"",""282188""
""focus"",""19"",""345218""
""focus"",""19"",""349008""
","""event"",""trial"",""time""
""fullscreenenter"",""1"",""5933""
","
","","","756.5","","","22","16599","1900","&#9776;","elianto","#3366ff99"," "," ","1","+10","[1608.1000001430511]","1","0","1","","","","","","","",""
"pit-trial","22","385529","0.0-2.0-8.0-2.0","battery-v0.2","","""event"",""trial"",""time""
""fullscreenenter"",""1"",""5933""
""blur"",""19"",""275910""
""focus"",""19"",""282188""
""blur"",""19"",""344352""
""focus"",""19"",""345218""
""blur"",""19"",""348295""
""focus"",""19"",""349008""
","""event"",""trial"",""time""
""blur"",""19"",""275910""
""blur"",""19"",""344352""
""blur"",""19"",""348295""
","""event"",""trial"",""time""
""focus"",""19"",""282188""
""focus"",""19"",""345218""
""focus"",""19"",""349008""
","""event"",""trial"",""time""
""fullscreenenter"",""1"",""5933""
","
","","","716.4000000953674","","","22","16599","1900","&#9776;","elianto","#3366ff99"," "," ","1","+10","[1566.7000000476837]","1","0","1","","","","","","","",""
"pit-trial","23","389068","0.0-2.0-8.0-3.0","battery-v0.2","","""event"",""trial"",""time""
""fullscreenenter"",""1"",""5933""
""blur"",""19"",""275910""
""focus"",""19"",""282188""
""blur"",""19"",""344352""
""focus"",""19"",""345218""
""blur"",""19"",""348295""
""focus"",""19"",""349008""
","""event"",""trial"",""time""
""blur"",""19"",""275910""
""blur"",""19"",""344352""
""blur"",""19"",""348295""
","""event"",""trial"",""time""
""focus"",""19"",""282188""
""focus"",""19"",""345218""
""focus"",""19"",""349008""
","""event"",""trial"",""time""
""fullscreenenter"",""1"",""5933""
","
","","","673.6999998092651","","","22","16599","1900","&#9776;","elianto","#3366ff99"," "," ","1","0","[1524.2999999523163]","1","0","1","","","","","","","",""
"pit-trial","24","392554","0.0-2.0-8.0-4.0","battery-v0.2","","""event"",""trial"",""time""
""fullscreenenter"",""1"",""5933""
""blur"",""19"",""275910""
""focus"",""19"",""282188""
""blur"",""19"",""344352""
""focus"",""19"",""345218""
""blur"",""19"",""348295""
""focus"",""19"",""349008""
","""event"",""trial"",""time""
""blur"",""19"",""275910""
""blur"",""19"",""344352""
""blur"",""19"",""348295""
","""event"",""trial"",""time""
""focus"",""19"",""282188""
""focus"",""19"",""345218""
""focus"",""19"",""349008""
","""event"",""trial"",""time""
""fullscreenenter"",""1"",""5933""
","
","","","625.7999999523163","","","22","16599","1900","&#9776;","elianto","#3366ff99"," "," ","1","+10","[1478.5]","1","0","1","","","","","","","",""
"pit-trial","25","395930","0.0-2.0-8.1-0.1","battery-v0.2","","""event"",""trial"",""time""
""fullscreenenter"",""1"",""5933""
""blur"",""19"",""275910""
""focus"",""19"",""282188""
""blur"",""19"",""344352""
""focus"",""19"",""345218""
""blur"",""19"",""348295""
""focus"",""19"",""349008""
","""event"",""trial"",""time""
""blur"",""19"",""275910""
""blur"",""19"",""344352""
""blur"",""19"",""348295""
","""event"",""trial"",""time""
""focus"",""19"",""282188""
""focus"",""19"",""345218""
""focus"",""19"",""349008""
","""event"",""trial"",""time""
""fullscreenenter"",""1"",""5933""
","
","","","515.5","","","22","16599","1900","&#9776;","elianto","#3366ff99"," "," ","1","+10","[1365.7999999523163]","1","0","1","","","","","","","",""
"pit-trial","26","399499","0.0-2.0-8.1-1.1","battery-v0.2","","""event"",""trial"",""time""
""fullscreenenter"",""1"",""5933""
""blur"",""19"",""275910""
""focus"",""19"",""282188""
""blur"",""19"",""344352""
""focus"",""19"",""345218""
""blur"",""19"",""348295""
""focus"",""19"",""349008""
","""event"",""trial"",""time""
""blur"",""19"",""275910""
""blur"",""19"",""344352""
""blur"",""19"",""348295""
","""event"",""trial"",""time""
""focus"",""19"",""282188""
""focus"",""19"",""345218""
""focus"",""19"",""349008""
","""event"",""trial"",""time""
""fullscreenenter"",""1"",""5933""
","
","","","714.3999998569489","","","22","16599","1900","&#9776;","elianto","#3366ff99"," "," ","1","+10","[1564.6999998092651]","1","0","1","","","","","","","",""
"pit-trial","27","402988","0.0-2.0-8.1-2.1","battery-v0.2","","""event"",""trial"",""time""
""fullscreenenter"",""1"",""5933""
""blur"",""19"",""275910""
""focus"",""19"",""282188""
""blur"",""19"",""344352""
""focus"",""19"",""345218""
""blur"",""19"",""348295""
""focus"",""19"",""349008""
","""event"",""trial"",""time""
""blur"",""19"",""275910""
""blur"",""19"",""344352""
""blur"",""19"",""348295""
","""event"",""trial"",""time""
""focus"",""19"",""282188""
""focus"",""19"",""345218""
""focus"",""19"",""349008""
","""event"",""trial"",""time""
""fullscreenenter"",""1"",""5933""
","
","","","624.4000000953674","","","22","16599","1900","&#9776;","elianto","#3366ff99"," "," ","1","+10","[1481.8000001907349]","1","0","1","","","","","","","",""
"pit-trial","28","406280","0.0-2.0-8.1-3.1","battery-v0.2","","""event"",""trial"",""time""
""fullscreenenter"",""1"",""5933""
""blur"",""19"",""275910""
""focus"",""19"",""282188""
""blur"",""19"",""344352""
""focus"",""19"",""345218""
""blur"",""19"",""348295""
""focus"",""19"",""349008""
","""event"",""trial"",""time""
""blur"",""19"",""275910""
""blur"",""19"",""344352""
""blur"",""19"",""348295""
","""event"",""trial"",""time""
""focus"",""19"",""282188""
""focus"",""19"",""345218""
""focus"",""19"",""349008""
","""event"",""trial"",""time""
""fullscreenenter"",""1"",""5933""
","
","","","439.60000014305115","","","22","16599","1900","&#9776;","elianto","#3366ff99"," "," ","1","0","[1289.8000001907349]","1","0","1","","","","","","","",""
"pit-trial","29","409702","0.0-2.0-8.1-4.1","battery-v0.2","","""event"",""trial"",""time""
""fullscreenenter"",""1"",""5933""
""blur"",""19"",""275910""
""focus"",""19"",""282188""
""blur"",""19"",""344352""
""focus"",""19"",""345218""
""blur"",""19"",""348295""
""focus"",""19"",""349008""
","""event"",""trial"",""time""
""blur"",""19"",""275910""
""blur"",""19"",""344352""
""blur"",""19"",""348295""
","""event"",""trial"",""time""
""focus"",""19"",""282188""
""focus"",""19"",""345218""
""focus"",""19"",""349008""
","""event"",""trial"",""time""
""fullscreenenter"",""1"",""5933""
","
","","","570.1000001430511","","","22","16599","1900","&#9776;","elianto","#3366ff99"," "," ","1","+10","[1420.5]","1","0","1","","","","","","","",""
"pit-trial","30","413198","0.0-2.0-8.2-0.2","battery-v0.2","","""event"",""trial"",""time""
""fullscreenenter"",""1"",""5933""
""blur"",""19"",""275910""
""focus"",""19"",""282188""
""blur"",""19"",""344352""
""focus"",""19"",""345218""
""blur"",""19"",""348295""
""focus"",""19"",""349008""
","""event"",""trial"",""time""
""blur"",""19"",""275910""
""blur"",""19"",""344352""
""blur"",""19"",""348295""
","""event"",""trial"",""time""
""focus"",""19"",""282188""
""focus"",""19"",""345218""
""focus"",""19"",""349008""
","""event"",""trial"",""time""
""fullscreenenter"",""1"",""5933""
","
","","","644.9000000953674","","","22","16599","1900","&#9776;","elianto","#3366ff99"," "," ","1","+10","[1495.1000001430511]","1","0","1","","","","","","","",""
"pit-trial","31","416639","0.0-2.0-8.2-1.2","battery-v0.2","","""event"",""trial"",""time""
""fullscreenenter"",""1"",""5933""
""blur"",""19"",""275910""
""focus"",""19"",""282188""
""blur"",""19"",""344352""
""focus"",""19"",""345218""
""blur"",""19"",""348295""
""focus"",""19"",""349008""
","""event"",""trial"",""time""
""blur"",""19"",""275910""
""blur"",""19"",""344352""
""blur"",""19"",""348295""
","""event"",""trial"",""time""
""focus"",""19"",""282188""
""focus"",""19"",""345218""
""focus"",""19"",""349008""
","""event"",""trial"",""time""
""fullscreenenter"",""1"",""5933""
","
","","","588.7000000476837","","","22","16599","1900","&#9776;","elianto","#3366ff99"," "," ","1","+10","[1439]","1","0","1","","","","","","","",""
"pit-trial","32","419956","0.0-2.0-8.2-2.2","battery-v0.2","","""event"",""trial"",""time""
""fullscreenenter"",""1"",""5933""
""blur"",""19"",""275910""
""focus"",""19"",""282188""
""blur"",""19"",""344352""
""focus"",""19"",""345218""
""blur"",""19"",""348295""
""focus"",""19"",""349008""
","""event"",""trial"",""time""
""blur"",""19"",""275910""
""blur"",""19"",""344352""
""blur"",""19"",""348295""
","""event"",""trial"",""time""
""focus"",""19"",""282188""
""focus"",""19"",""345218""
""focus"",""19"",""349008""
","""event"",""trial"",""time""
""fullscreenenter"",""1"",""5933""
","
","","","466","","","22","16599","1900","&#9776;","elianto","#3366ff99"," "," ","1","+10","[1316.3999998569489]","1","0","1","","","","","","","",""
"pit-trial","33","423346","0.0-2.0-8.2-3.2","battery-v0.2","","""event"",""trial"",""time""
""fullscreenenter"",""1"",""5933""
""blur"",""19"",""275910""
""focus"",""19"",""282188""
""blur"",""19"",""344352""
""focus"",""19"",""345218""
""blur"",""19"",""348295""
""focus"",""19"",""349008""
","""event"",""trial"",""time""
""blur"",""19"",""275910""
""blur"",""19"",""344352""
""blur"",""19"",""348295""
","""event"",""trial"",""time""
""focus"",""19"",""282188""
""focus"",""19"",""345218""
""focus"",""19"",""349008""
","""event"",""trial"",""time""
""fullscreenenter"",""1"",""5933""
","
","","","537","","","22","16599","1900","&#9776;","elianto","#3366ff99"," "," ","1","0","[1387.7000000476837]","1","0","1","","","","","","","",""
"pit-trial","34","428199","0.0-2.0-8.2-4.2","battery-v0.2","","""event"",""trial"",""time""
""fullscreenenter"",""1"",""5933""
""blur"",""19"",""275910""
""focus"",""19"",""282188""
""blur"",""19"",""344352""
""focus"",""19"",""345218""
""blur"",""19"",""348295""
""focus"",""19"",""349008""
","""event"",""trial"",""time""
""blur"",""19"",""275910""
""blur"",""19"",""344352""
""blur"",""19"",""348295""
","""event"",""trial"",""time""
""focus"",""19"",""282188""
""focus"",""19"",""345218""
""focus"",""19"",""349008""
","""event"",""trial"",""time""
""fullscreenenter"",""1"",""5933""
","
","","","-1","","","22","16599","1900","&#9776;","elianto","#3366ff99"," ","-1","0","0","[3118.4000000953674]","1","0","1","","","","","","","",""
"call-function","35","428200","0.0-2.0-9.0","battery-v0.2","","""event"",""trial"",""time""
""fullscreenenter"",""1"",""5933""
""blur"",""19"",""275910""
""focus"",""19"",""282188""
""blur"",""19"",""344352""
""focus"",""19"",""345218""
""blur"",""19"",""348295""
""focus"",""19"",""349008""
","""event"",""trial"",""time""
""blur"",""19"",""275910""
""blur"",""19"",""344352""
""blur"",""19"",""348295""
","""event"",""trial"",""time""
""focus"",""19"",""282188""
""focus"",""19"",""345218""
""focus"",""19"",""349008""
","""event"",""trial"",""time""
""fullscreenenter"",""1"",""5933""
","
","","","","","","","","","","","","","","","","","","","","","","","","","","",""
"pit-instructions","36","471557","0.0-2.0-10.0","battery-v0.2","","""event"",""trial"",""time""
""fullscreenenter"",""1"",""5933""
""blur"",""19"",""275910""
""focus"",""19"",""282188""
""blur"",""19"",""344352""
""focus"",""19"",""345218""
""blur"",""19"",""348295""
""focus"",""19"",""349008""
","""event"",""trial"",""time""
""blur"",""19"",""275910""
""blur"",""19"",""344352""
""blur"",""19"",""348295""
","""event"",""trial"",""time""
""focus"",""19"",""282188""
""focus"",""19"",""345218""
""focus"",""19"",""349008""
","""event"",""trial"",""time""
""fullscreenenter"",""1"",""5933""
","
","","[{""page_index"":0,""viewing_time"":7026.600000143051},{""page_index"":1,""viewing_time"":7977.899999856949},{""page_index"":2,""viewing_time"":9835.600000143051},{""page_index"":3,""viewing_time"":9983.899999856949},{""page_index"":4,""viewing_time"":8532.900000095367}]","43357.10000014305","","","","","","","","","","","","","","","","","","","","","","","",""
"pit-trial","37","475533","0.0-2.0-11.0-0.0","battery-v0.2","","""event"",""trial"",""time""
""fullscreenenter"",""1"",""5933""
""blur"",""19"",""275910""
""focus"",""19"",""282188""
""blur"",""19"",""344352""
""focus"",""19"",""345218""
""blur"",""19"",""348295""
""focus"",""19"",""349008""
","""event"",""trial"",""time""
""blur"",""19"",""275910""
""blur"",""19"",""344352""
""blur"",""19"",""348295""
","""event"",""trial"",""time""
""focus"",""19"",""282188""
""focus"",""19"",""345218""
""focus"",""19"",""349008""
","""event"",""trial"",""time""
""fullscreenenter"",""1"",""5933""
","
","","","1118.7000000476837","","","22","16599","1900","&#9761;","elianto","#3366ff99","-1"," ","0","0","[1969.5999999046326]","1","0","2","","","","","","","",""
"pit-trial","38","480414","0.0-2.0-11.0-1.0","battery-v0.2","","""event"",""trial"",""time""
""fullscreenenter"",""1"",""5933""
""blur"",""19"",""275910""
""focus"",""19"",""282188""
""blur"",""19"",""344352""
""focus"",""19"",""345218""
""blur"",""19"",""348295""
""focus"",""19"",""349008""
","""event"",""trial"",""time""
""blur"",""19"",""275910""
""blur"",""19"",""344352""
""blur"",""19"",""348295""
","""event"",""trial"",""time""
""focus"",""19"",""282188""
""focus"",""19"",""345218""
""focus"",""19"",""349008""
","""event"",""trial"",""time""
""fullscreenenter"",""1"",""5933""
","
","","","-1","","","22","16599","1900","&#9761;","elianto","#3366ff99","-1","-1","1","+10","[]","0","0","2","","","","","","","",""
"pit-trial","39","485291","0.0-2.0-11.0-2.0","battery-v0.2","","""event"",""trial"",""time""
""fullscreenenter"",""1"",""5933""
""blur"",""19"",""275910""
""focus"",""19"",""282188""
""blur"",""19"",""344352""
""focus"",""19"",""345218""
""blur"",""19"",""348295""
""focus"",""19"",""349008""
","""event"",""trial"",""time""
""blur"",""19"",""275910""
""blur"",""19"",""344352""
""blur"",""19"",""348295""
","""event"",""trial"",""time""
""focus"",""19"",""282188""
""focus"",""19"",""345218""
""focus"",""19"",""349008""
","""event"",""trial"",""time""
""fullscreenenter"",""1"",""5933""
","
","","","-1","","","22","16599","1900","&#9761;","elianto","#3366ff99","-1","-1","1","+10","[]","0","0","2","","","","","","","",""
"pit-trial","40","490162","0.0-2.0-11.0-3.0","battery-v0.2","","""event"",""trial"",""time""
""fullscreenenter"",""1"",""5933""
""blur"",""19"",""275910""
""focus"",""19"",""282188""
""blur"",""19"",""344352""
""focus"",""19"",""345218""
""blur"",""19"",""348295""
""focus"",""19"",""349008""
","""event"",""trial"",""time""
""blur"",""19"",""275910""
""blur"",""19"",""344352""
""blur"",""19"",""348295""
","""event"",""trial"",""time""
""focus"",""19"",""282188""
""focus"",""19"",""345218""
""focus"",""19"",""349008""
","""event"",""trial"",""time""
""fullscreenenter"",""1"",""5933""
","
","","","-1","","","22","16599","1900","&#9761;","elianto","#3366ff99","-1","-1","1","0","[]","0","0","2","","","","","","","",""
"pit-trial","41","495035","0.0-2.0-11.0-4.0","battery-v0.2","","""event"",""trial"",""time""
""fullscreenenter"",""1"",""5933""
""blur"",""19"",""275910""
""focus"",""19"",""282188""
""blur"",""19"",""344352""
""focus"",""19"",""345218""
""blur"",""19"",""348295""
""focus"",""19"",""349008""
","""event"",""trial"",""time""
""blur"",""19"",""275910""
""blur"",""19"",""344352""
""blur"",""19"",""348295""
","""event"",""trial"",""time""
""focus"",""19"",""282188""
""focus"",""19"",""345218""
""focus"",""19"",""349008""
","""event"",""trial"",""time""
""fullscreenenter"",""1"",""5933""
","
","","","-1","","","22","16599","1900","&#9761;","elianto","#3366ff99","-1","-1","1","+10","[]","0","0","2","","","","","","","",""
"pit-trial","42","499890","0.0-2.0-11.1-0.1","battery-v0.2","","""event"",""trial"",""time""
""fullscreenenter"",""1"",""5933""
""blur"",""19"",""275910""
""focus"",""19"",""282188""
""blur"",""19"",""344352""
""focus"",""19"",""345218""
""blur"",""19"",""348295""
""focus"",""19"",""349008""
","""event"",""trial"",""time""
""blur"",""19"",""275910""
""blur"",""19"",""344352""
""blur"",""19"",""348295""
","""event"",""trial"",""time""
""focus"",""19"",""282188""
""focus"",""19"",""345218""
""focus"",""19"",""349008""
","""event"",""trial"",""time""
""fullscreenenter"",""1"",""5933""
","
","","","-1","","","22","16599","1900","&#9761;","elianto","#3366ff99","-1","-1","1","+10","[]","0","0","2","","","","","","","",""
"pit-trial","43","504744","0.0-2.0-11.1-1.1","battery-v0.2","","""event"",""trial"",""time""
""fullscreenenter"",""1"",""5933""
""blur"",""19"",""275910""
""focus"",""19"",""282188""
""blur"",""19"",""344352""
""focus"",""19"",""345218""
""blur"",""19"",""348295""
""focus"",""19"",""349008""
","""event"",""trial"",""time""
""blur"",""19"",""275910""
""blur"",""19"",""344352""
""blur"",""19"",""348295""
","""event"",""trial"",""time""
""focus"",""19"",""282188""
""focus"",""19"",""345218""
""focus"",""19"",""349008""
","""event"",""trial"",""time""
""fullscreenenter"",""1"",""5933""
","
","","","-1","","","22","16599","1900","&#9761;","elianto","#3366ff99","-1","-1","1","+10","[]","0","0","2","","","","","","","",""
"pit-trial","44","509596","0.0-2.0-11.1-2.1","battery-v0.2","","""event"",""trial"",""time""
""fullscreenenter"",""1"",""5933""
""blur"",""19"",""275910""
""focus"",""19"",""282188""
""blur"",""19"",""344352""
""focus"",""19"",""345218""
""blur"",""19"",""348295""
""focus"",""19"",""349008""
","""event"",""trial"",""time""
""blur"",""19"",""275910""
""blur"",""19"",""344352""
""blur"",""19"",""348295""
","""event"",""trial"",""time""
""focus"",""19"",""282188""
""focus"",""19"",""345218""
""focus"",""19"",""349008""
","""event"",""trial"",""time""
""fullscreenenter"",""1"",""5933""
","
","","","-1","","","22","16599","1900","&#9761;","elianto","#3366ff99","-1","-1","1","+10","[]","0","0","2","","","","","","","",""
"pit-trial","45","514450","0.0-2.0-11.1-3.1","battery-v0.2","","""event"",""trial"",""time""
""fullscreenenter"",""1"",""5933""
""blur"",""19"",""275910""
""focus"",""19"",""282188""
""blur"",""19"",""344352""
""focus"",""19"",""345218""
""blur"",""19"",""348295""
""focus"",""19"",""349008""
","""event"",""trial"",""time""
""blur"",""19"",""275910""
""blur"",""19"",""344352""
""blur"",""19"",""348295""
","""event"",""trial"",""time""
""focus"",""19"",""282188""
""focus"",""19"",""345218""
""focus"",""19"",""349008""
","""event"",""trial"",""time""
""fullscreenenter"",""1"",""5933""
","
","","","-1","","","22","16599","1900","&#9761;","elianto","#3366ff99","-1","-1","1","0","[]","0","0","2","","","","","","","",""
"pit-trial","46","519303","0.0-2.0-11.1-4.1","battery-v0.2","","""event"",""trial"",""time""
""fullscreenenter"",""1"",""5933""
""blur"",""19"",""275910""
""focus"",""19"",""282188""
""blur"",""19"",""344352""
""focus"",""19"",""345218""
""blur"",""19"",""348295""
""focus"",""19"",""349008""
","""event"",""trial"",""time""
""blur"",""19"",""275910""
""blur"",""19"",""344352""
""blur"",""19"",""348295""
","""event"",""trial"",""time""
""focus"",""19"",""282188""
""focus"",""19"",""345218""
""focus"",""19"",""349008""
","""event"",""trial"",""time""
""fullscreenenter"",""1"",""5933""
","
","","","-1","","","22","16599","1900","&#9761;","elianto","#3366ff99","-1","-1","1","+10","[]","0","0","2","","","","","","","",""
"pit-trial","47","524156","0.0-2.0-11.2-0.2","battery-v0.2","","""event"",""trial"",""time""
""fullscreenenter"",""1"",""5933""
""blur"",""19"",""275910""
""focus"",""19"",""282188""
""blur"",""19"",""344352""
""focus"",""19"",""345218""
""blur"",""19"",""348295""
""focus"",""19"",""349008""
","""event"",""trial"",""time""
""blur"",""19"",""275910""
""blur"",""19"",""344352""
""blur"",""19"",""348295""
","""event"",""trial"",""time""
""focus"",""19"",""282188""
""focus"",""19"",""345218""
""focus"",""19"",""349008""
","""event"",""trial"",""time""
""fullscreenenter"",""1"",""5933""
","
","","","-1","","","22","16599","1900","&#9761;","elianto","#3366ff99","-1","-1","1","+10","[]","0","0","2","","","","","","","",""
"pit-trial","48","529009","0.0-2.0-11.2-1.2","battery-v0.2","","""event"",""trial"",""time""
""fullscreenenter"",""1"",""5933""
""blur"",""19"",""275910""
""focus"",""19"",""282188""
""blur"",""19"",""344352""
""focus"",""19"",""345218""
""blur"",""19"",""348295""
""focus"",""19"",""349008""
","""event"",""trial"",""time""
""blur"",""19"",""275910""
""blur"",""19"",""344352""
""blur"",""19"",""348295""
","""event"",""trial"",""time""
""focus"",""19"",""282188""
""focus"",""19"",""345218""
""focus"",""19"",""349008""
","""event"",""trial"",""time""
""fullscreenenter"",""1"",""5933""
","
","","","-1","","","22","16599","1900","&#9761;","elianto","#3366ff99","-1","-1","1","+10","[]","0","0","2","","","","","","","",""
"pit-trial","49","533862","0.0-2.0-11.2-2.2","battery-v0.2","","""event"",""trial"",""time""
""fullscreenenter"",""1"",""5933""
""blur"",""19"",""275910""
""focus"",""19"",""282188""
""blur"",""19"",""344352""
""focus"",""19"",""345218""
""blur"",""19"",""348295""
""focus"",""19"",""349008""
","""event"",""trial"",""time""
""blur"",""19"",""275910""
""blur"",""19"",""344352""
""blur"",""19"",""348295""
","""event"",""trial"",""time""
""focus"",""19"",""282188""
""focus"",""19"",""345218""
""focus"",""19"",""349008""
","""event"",""trial"",""time""
""fullscreenenter"",""1"",""5933""
","
","","","-1","","","22","16599","1900","&#9761;","elianto","#3366ff99","-1","-1","1","+10","[]","0","0","2","","","","","","","",""
"pit-trial","50","538714","0.0-2.0-11.2-3.2","battery-v0.2","","""event"",""trial"",""time""
""fullscreenenter"",""1"",""5933""
""blur"",""19"",""275910""
""focus"",""19"",""282188""
""blur"",""19"",""344352""
""focus"",""19"",""345218""
""blur"",""19"",""348295""
""focus"",""19"",""349008""
","""event"",""trial"",""time""
""blur"",""19"",""275910""
""blur"",""19"",""344352""
""blur"",""19"",""348295""
","""event"",""trial"",""time""
""focus"",""19"",""282188""
""focus"",""19"",""345218""
""focus"",""19"",""349008""
","""event"",""trial"",""time""
""fullscreenenter"",""1"",""5933""
","
","","","-1","","","22","16599","1900","&#9761;","elianto","#3366ff99","-1","-1","1","0","[]","0","0","2","","","","","","","",""
"pit-trial","51","543568","0.0-2.0-11.2-4.2","battery-v0.2","","""event"",""trial"",""time""
""fullscreenenter"",""1"",""5933""
""blur"",""19"",""275910""
""focus"",""19"",""282188""
""blur"",""19"",""344352""
""focus"",""19"",""345218""
""blur"",""19"",""348295""
""focus"",""19"",""349008""
","""event"",""trial"",""time""
""blur"",""19"",""275910""
""blur"",""19"",""344352""
""blur"",""19"",""348295""
","""event"",""trial"",""time""
""focus"",""19"",""282188""
""focus"",""19"",""345218""
""focus"",""19"",""349008""
","""event"",""trial"",""time""
""fullscreenenter"",""1"",""5933""
","
","","","-1","","","22","16599","1900","&#9761;","elianto","#3366ff99","-1","-1","1","+10","[]","0","0","2","","","","","","","",""
"pit-trial","52","548421","0.0-2.0-11.3-0.3","battery-v0.2","","""event"",""trial"",""time""
""fullscreenenter"",""1"",""5933""
""blur"",""19"",""275910""
""focus"",""19"",""282188""
""blur"",""19"",""344352""
""focus"",""19"",""345218""
""blur"",""19"",""348295""
""focus"",""19"",""349008""
","""event"",""trial"",""time""
""blur"",""19"",""275910""
""blur"",""19"",""344352""
""blur"",""19"",""348295""
","""event"",""trial"",""time""
""focus"",""19"",""282188""
""focus"",""19"",""345218""
""focus"",""19"",""349008""
","""event"",""trial"",""time""
""fullscreenenter"",""1"",""5933""
","
","","","-1","","","22","16599","1900","&#9761;","elianto","#3366ff99","-1","-1","1","+10","[]","0","0","2","","","","","","","",""
"pit-trial","53","553275","0.0-2.0-11.3-1.3","battery-v0.2","","""event"",""trial"",""time""
""fullscreenenter"",""1"",""5933""
""blur"",""19"",""275910""
""focus"",""19"",""282188""
""blur"",""19"",""344352""
""focus"",""19"",""345218""
""blur"",""19"",""348295""
""focus"",""19"",""349008""
","""event"",""trial"",""time""
""blur"",""19"",""275910""
""blur"",""19"",""344352""
""blur"",""19"",""348295""
","""event"",""trial"",""time""
""focus"",""19"",""282188""
""focus"",""19"",""345218""
""focus"",""19"",""349008""
","""event"",""trial"",""time""
""fullscreenenter"",""1"",""5933""
","
","","","-1","","","22","16599","1900","&#9761;","elianto","#3366ff99","-1","-1","1","+10","[]","0","0","2","","","","","","","",""
"pit-trial","54","558128","0.0-2.0-11.3-2.3","battery-v0.2","","""event"",""trial"",""time""
""fullscreenenter"",""1"",""5933""
""blur"",""19"",""275910""
""focus"",""19"",""282188""
""blur"",""19"",""344352""
""focus"",""19"",""345218""
""blur"",""19"",""348295""
""focus"",""19"",""349008""
","""event"",""trial"",""time""
""blur"",""19"",""275910""
""blur"",""19"",""344352""
""blur"",""19"",""348295""
","""event"",""trial"",""time""
""focus"",""19"",""282188""
""focus"",""19"",""345218""
""focus"",""19"",""349008""
","""event"",""trial"",""time""
""fullscreenenter"",""1"",""5933""
","
","","","-1","","","22","16599","1900","&#9761;","elianto","#3366ff99","-1","-1","1","+10","[]","0","0","2","","","","","","","",""
"pit-trial","55","562980","0.0-2.0-11.3-3.3","battery-v0.2","","""event"",""trial"",""time""
""fullscreenenter"",""1"",""5933""
""blur"",""19"",""275910""
""focus"",""19"",""282188""
""blur"",""19"",""344352""
""focus"",""19"",""345218""
""blur"",""19"",""348295""
""focus"",""19"",""349008""
","""event"",""trial"",""time""
""blur"",""19"",""275910""
""blur"",""19"",""344352""
""blur"",""19"",""348295""
","""event"",""trial"",""time""
""focus"",""19"",""282188""
""focus"",""19"",""345218""
""focus"",""19"",""349008""
","""event"",""trial"",""time""
""fullscreenenter"",""1"",""5933""
","
","","","-1","","","22","16599","1900","&#9761;","elianto","#3366ff99","-1","-1","1","0","[]","0","0","2","","","","","","","",""
"pit-trial","56","567835","0.0-2.0-11.3-4.3","battery-v0.2","","""event"",""trial"",""time""
""fullscreenenter"",""1"",""5933""
""blur"",""19"",""275910""
""focus"",""19"",""282188""
""blur"",""19"",""344352""
""focus"",""19"",""345218""
""blur"",""19"",""348295""
""focus"",""19"",""349008""
","""event"",""trial"",""time""
""blur"",""19"",""275910""
""blur"",""19"",""344352""
""blur"",""19"",""348295""
","""event"",""trial"",""time""
""focus"",""19"",""282188""
""focus"",""19"",""345218""
""focus"",""19"",""349008""
","""event"",""trial"",""time""
""fullscreenenter"",""1"",""5933""
","
","","","-1","","","22","16599","1900","&#9761;","elianto","#3366ff99","-1","-1","1","+10","[]","0","0","2","","","","","","","",""
"call-function","57","567836","0.0-2.0-12.0","battery-v0.2","","""event"",""trial"",""time""
""fullscreenenter"",""1"",""5933""
""blur"",""19"",""275910""
""focus"",""19"",""282188""
""blur"",""19"",""344352""
""focus"",""19"",""345218""
""blur"",""19"",""348295""
""focus"",""19"",""349008""
","""event"",""trial"",""time""
""blur"",""19"",""275910""
""blur"",""19"",""344352""
""blur"",""19"",""348295""
","""event"",""trial"",""time""
""focus"",""19"",""282188""
""focus"",""19"",""345218""
""focus"",""19"",""349008""
","""event"",""trial"",""time""
""fullscreenenter"",""1"",""5933""
","
","","","","","","","","","","","","","","","","","","","","","","","","","","",""
"pit-instructions","58","599807","0.0-2.0-13.0","battery-v0.2","","""event"",""trial"",""time""
""fullscreenenter"",""1"",""5933""
""blur"",""19"",""275910""
""focus"",""19"",""282188""
""blur"",""19"",""344352""
""focus"",""19"",""345218""
""blur"",""19"",""348295""
""focus"",""19"",""349008""
","""event"",""trial"",""time""
""blur"",""19"",""275910""
""blur"",""19"",""344352""
""blur"",""19"",""348295""
","""event"",""trial"",""time""
""focus"",""19"",""282188""
""focus"",""19"",""345218""
""focus"",""19"",""349008""
","""event"",""trial"",""time""
""fullscreenenter"",""1"",""5933""
","
","","[{""page_index"":0,""viewing_time"":5491.799999952316},{""page_index"":1,""viewing_time"":7060.900000095367},{""page_index"":2,""viewing_time"":3552.5},{""page_index"":3,""viewing_time"":11105.200000047684},{""page_index"":4,""viewing_time"":4759.599999904633}]","31970.200000047684","","","","","","","","","","","","","","","","","","","","","","","",""
"pit-trial","59","604668","0.0-2.0-14.0-0.0","battery-v0.2","","""event"",""trial"",""time""
""fullscreenenter"",""1"",""5933""
""blur"",""19"",""275910""
""focus"",""19"",""282188""
""blur"",""19"",""344352""
""focus"",""19"",""345218""
""blur"",""19"",""348295""
""focus"",""19"",""349008""
","""event"",""trial"",""time""
""blur"",""19"",""275910""
""blur"",""19"",""344352""
""blur"",""19"",""348295""
","""event"",""trial"",""time""
""focus"",""19"",""282188""
""focus"",""19"",""345218""
""focus"",""19"",""349008""
","""event"",""trial"",""time""
""fullscreenenter"",""1"",""5933""
","
","","","-1","","","22","16599","1900","&#9826;","elianto","#f73b6a7A","-1","-1","1","0","[]","0","0","3","","","","","","","",""
"pit-trial","60","608172","0.0-2.0-14.0-1.0","battery-v0.2","","""event"",""trial"",""time""
""fullscreenenter"",""1"",""5933""
""blur"",""19"",""275910""
""focus"",""19"",""282188""
""blur"",""19"",""344352""
""focus"",""19"",""345218""
""blur"",""19"",""348295""
""focus"",""19"",""349008""
","""event"",""trial"",""time""
""blur"",""19"",""275910""
""blur"",""19"",""344352""
""blur"",""19"",""348295""
","""event"",""trial"",""time""
""focus"",""19"",""282188""
""focus"",""19"",""345218""
""focus"",""19"",""349008""
","""event"",""trial"",""time""
""fullscreenenter"",""1"",""5933""
","
","","","639.2999999523163","","","22","16599","1900","&#9826;","elianto","#f73b6a7A","-1"," ","0","-10","[1492.3999998569489]","1","0","3","","","","","","","",""
"pit-trial","61","613037","0.0-2.0-14.0-2.0","battery-v0.2","","""event"",""trial"",""time""
""fullscreenenter"",""1"",""5933""
""blur"",""19"",""275910""
""focus"",""19"",""282188""
""blur"",""19"",""344352""
""focus"",""19"",""345218""
""blur"",""19"",""348295""
""focus"",""19"",""349008""
","""event"",""trial"",""time""
""blur"",""19"",""275910""
""blur"",""19"",""344352""
""blur"",""19"",""348295""
","""event"",""trial"",""time""
""focus"",""19"",""282188""
""focus"",""19"",""345218""
""focus"",""19"",""349008""
","""event"",""trial"",""time""
""fullscreenenter"",""1"",""5933""
","
","","","-1","","","22","16599","1900","&#9826;","elianto","#f73b6a7A","-1","-1","1","0","[]","0","0","3","","","","","","","",""
"pit-trial","62","617903","0.0-2.0-14.0-3.0","battery-v0.2","","""event"",""trial"",""time""
""fullscreenenter"",""1"",""5933""
""blur"",""19"",""275910""
""focus"",""19"",""282188""
""blur"",""19"",""344352""
""focus"",""19"",""345218""
""blur"",""19"",""348295""
""focus"",""19"",""349008""
","""event"",""trial"",""time""
""blur"",""19"",""275910""
""blur"",""19"",""344352""
""blur"",""19"",""348295""
","""event"",""trial"",""time""
""focus"",""19"",""282188""
""focus"",""19"",""345218""
""focus"",""19"",""349008""
","""event"",""trial"",""time""
""fullscreenenter"",""1"",""5933""
","
","","","-1","","","22","16599","1900","&#9826;","elianto","#f73b6a7A","-1","-1","1","-10","[]","0","0","3","","","","","","","",""
"pit-trial","63","622770","0.0-2.0-14.0-4.0","battery-v0.2","","""event"",""trial"",""time""
""fullscreenenter"",""1"",""5933""
""blur"",""19"",""275910""
""focus"",""19"",""282188""
""blur"",""19"",""344352""
""focus"",""19"",""345218""
""blur"",""19"",""348295""
""focus"",""19"",""349008""
","""event"",""trial"",""time""
""blur"",""19"",""275910""
""blur"",""19"",""344352""
""blur"",""19"",""348295""
","""event"",""trial"",""time""
""focus"",""19"",""282188""
""focus"",""19"",""345218""
""focus"",""19"",""349008""
","""event"",""trial"",""time""
""fullscreenenter"",""1"",""5933""
","
","","","-1","","","22","16599","1900","&#9826;","elianto","#f73b6a7A","-1","-1","1","0","[]","0","0","3","","","","","","","",""
"pit-trial","64","627636","0.0-2.0-14.1-0.1","battery-v0.2","","""event"",""trial"",""time""
""fullscreenenter"",""1"",""5933""
""blur"",""19"",""275910""
""focus"",""19"",""282188""
""blur"",""19"",""344352""
""focus"",""19"",""345218""
""blur"",""19"",""348295""
""focus"",""19"",""349008""
","""event"",""trial"",""time""
""blur"",""19"",""275910""
""blur"",""19"",""344352""
""blur"",""19"",""348295""
","""event"",""trial"",""time""
""focus"",""19"",""282188""
""focus"",""19"",""345218""
""focus"",""19"",""349008""
","""event"",""trial"",""time""
""fullscreenenter"",""1"",""5933""
","
","","","-1","","","22","16599","1900","&#9826;","elianto","#f73b6a7A","-1","-1","1","0","[]","0","0","3","","","","","","","",""
"pit-trial","65","632488","0.0-2.0-14.1-1.1","battery-v0.2","","""event"",""trial"",""time""
""fullscreenenter"",""1"",""5933""
""blur"",""19"",""275910""
""focus"",""19"",""282188""
""blur"",""19"",""344352""
""focus"",""19"",""345218""
""blur"",""19"",""348295""
""focus"",""19"",""349008""
","""event"",""trial"",""time""
""blur"",""19"",""275910""
""blur"",""19"",""344352""
""blur"",""19"",""348295""
","""event"",""trial"",""time""
""focus"",""19"",""282188""
""focus"",""19"",""345218""
""focus"",""19"",""349008""
","""event"",""trial"",""time""
""fullscreenenter"",""1"",""5933""
","
","","","-1","","","22","16599","1900","&#9826;","elianto","#f73b6a7A","-1","-1","1","0","[]","0","0","3","","","","","","","",""
"pit-trial","66","637341","0.0-2.0-14.1-2.1","battery-v0.2","","""event"",""trial"",""time""
""fullscreenenter"",""1"",""5933""
""blur"",""19"",""275910""
""focus"",""19"",""282188""
""blur"",""19"",""344352""
""focus"",""19"",""345218""
""blur"",""19"",""348295""
""focus"",""19"",""349008""
","""event"",""trial"",""time""
""blur"",""19"",""275910""
""blur"",""19"",""344352""
""blur"",""19"",""348295""
","""event"",""trial"",""time""
""focus"",""19"",""282188""
""focus"",""19"",""345218""
""focus"",""19"",""349008""
","""event"",""trial"",""time""
""fullscreenenter"",""1"",""5933""
","
","","","-1","","","22","16599","1900","&#9826;","elianto","#f73b6a7A","-1","-1","1","0","[]","0","0","3","","","","","","","",""
"pit-trial","67","642199","0.0-2.0-14.1-3.1","battery-v0.2","","""event"",""trial"",""time""
""fullscreenenter"",""1"",""5933""
""blur"",""19"",""275910""
""focus"",""19"",""282188""
""blur"",""19"",""344352""
""focus"",""19"",""345218""
""blur"",""19"",""348295""
""focus"",""19"",""349008""
","""event"",""trial"",""time""
""blur"",""19"",""275910""
""blur"",""19"",""344352""
""blur"",""19"",""348295""
","""event"",""trial"",""time""
""focus"",""19"",""282188""
""focus"",""19"",""345218""
""focus"",""19"",""349008""
","""event"",""trial"",""time""
""fullscreenenter"",""1"",""5933""
","
","","","-1","","","22","16599","1900","&#9826;","elianto","#f73b6a7A","-1","-1","1","-10","[]","0","0","3","","","","","","","",""
"pit-trial","68","647051","0.0-2.0-14.1-4.1","battery-v0.2","","""event"",""trial"",""time""
""fullscreenenter"",""1"",""5933""
""blur"",""19"",""275910""
""focus"",""19"",""282188""
""blur"",""19"",""344352""
""focus"",""19"",""345218""
""blur"",""19"",""348295""
""focus"",""19"",""349008""
","""event"",""trial"",""time""
""blur"",""19"",""275910""
""blur"",""19"",""344352""
""blur"",""19"",""348295""
","""event"",""trial"",""time""
""focus"",""19"",""282188""
""focus"",""19"",""345218""
""focus"",""19"",""349008""
","""event"",""trial"",""time""
""fullscreenenter"",""1"",""5933""
","
","","","-1","","","22","16599","1900","&#9826;","elianto","#f73b6a7A","-1","-1","1","0","[]","0","0","3","","","","","","","",""
"pit-trial","69","651905","0.0-2.0-14.2-0.2","battery-v0.2","","""event"",""trial"",""time""
""fullscreenenter"",""1"",""5933""
""blur"",""19"",""275910""
""focus"",""19"",""282188""
""blur"",""19"",""344352""
""focus"",""19"",""345218""
""blur"",""19"",""348295""
""focus"",""19"",""349008""
","""event"",""trial"",""time""
""blur"",""19"",""275910""
""blur"",""19"",""344352""
""blur"",""19"",""348295""
","""event"",""trial"",""time""
""focus"",""19"",""282188""
""focus"",""19"",""345218""
""focus"",""19"",""349008""
","""event"",""trial"",""time""
""fullscreenenter"",""1"",""5933""
","
","","","-1","","","22","16599","1900","&#9826;","elianto","#f73b6a7A","-1","-1","1","0","[]","0","0","3","","","","","","","",""
"pit-trial","70","656770","0.0-2.0-14.2-1.2","battery-v0.2","","""event"",""trial"",""time""
""fullscreenenter"",""1"",""5933""
""blur"",""19"",""275910""
""focus"",""19"",""282188""
""blur"",""19"",""344352""
""focus"",""19"",""345218""
""blur"",""19"",""348295""
""focus"",""19"",""349008""
","""event"",""trial"",""time""
""blur"",""19"",""275910""
""blur"",""19"",""344352""
""blur"",""19"",""348295""
","""event"",""trial"",""time""
""focus"",""19"",""282188""
""focus"",""19"",""345218""
""focus"",""19"",""349008""
","""event"",""trial"",""time""
""fullscreenenter"",""1"",""5933""
","
","","","-1","","","22","16599","1900","&#9826;","elianto","#f73b6a7A","-1","-1","1","0","[]","0","0","3","","","","","","","",""
"pit-trial","71","661623","0.0-2.0-14.2-2.2","battery-v0.2","","""event"",""trial"",""time""
""fullscreenenter"",""1"",""5933""
""blur"",""19"",""275910""
""focus"",""19"",""282188""
""blur"",""19"",""344352""
""focus"",""19"",""345218""
""blur"",""19"",""348295""
""focus"",""19"",""349008""
","""event"",""trial"",""time""
""blur"",""19"",""275910""
""blur"",""19"",""344352""
""blur"",""19"",""348295""
","""event"",""trial"",""time""
""focus"",""19"",""282188""
""focus"",""19"",""345218""
""focus"",""19"",""349008""
","""event"",""trial"",""time""
""fullscreenenter"",""1"",""5933""
","
","","","-1","","","22","16599","1900","&#9826;","elianto","#f73b6a7A","-1","-1","1","0","[]","0","0","3","","","","","","","",""
"pit-trial","72","666475","0.0-2.0-14.2-3.2","battery-v0.2","","""event"",""trial"",""time""
""fullscreenenter"",""1"",""5933""
""blur"",""19"",""275910""
""focus"",""19"",""282188""
""blur"",""19"",""344352""
""focus"",""19"",""345218""
""blur"",""19"",""348295""
""focus"",""19"",""349008""
","""event"",""trial"",""time""
""blur"",""19"",""275910""
""blur"",""19"",""344352""
""blur"",""19"",""348295""
","""event"",""trial"",""time""
""focus"",""19"",""282188""
""focus"",""19"",""345218""
""focus"",""19"",""349008""
","""event"",""trial"",""time""
""fullscreenenter"",""1"",""5933""
","
","","","-1","","","22","16599","1900","&#9826;","elianto","#f73b6a7A","-1","-1","1","-10","[]","0","0","3","","","","","","","",""
"pit-trial","73","671328","0.0-2.0-14.2-4.2","battery-v0.2","","""event"",""trial"",""time""
""fullscreenenter"",""1"",""5933""
""blur"",""19"",""275910""
""focus"",""19"",""282188""
""blur"",""19"",""344352""
""focus"",""19"",""345218""
""blur"",""19"",""348295""
""focus"",""19"",""349008""
","""event"",""trial"",""time""
""blur"",""19"",""275910""
""blur"",""19"",""344352""
""blur"",""19"",""348295""
","""event"",""trial"",""time""
""focus"",""19"",""282188""
""focus"",""19"",""345218""
""focus"",""19"",""349008""
","""event"",""trial"",""time""
""fullscreenenter"",""1"",""5933""
","
","","","-1","","","22","16599","1900","&#9826;","elianto","#f73b6a7A","-1","-1","1","0","[]","0","0","3","","","","","","","",""
"pit-trial","74","676182","0.0-2.0-14.3-0.3","battery-v0.2","","""event"",""trial"",""time""
""fullscreenenter"",""1"",""5933""
""blur"",""19"",""275910""
""focus"",""19"",""282188""
""blur"",""19"",""344352""
""focus"",""19"",""345218""
""blur"",""19"",""348295""
""focus"",""19"",""349008""
","""event"",""trial"",""time""
""blur"",""19"",""275910""
""blur"",""19"",""344352""
""blur"",""19"",""348295""
","""event"",""trial"",""time""
""focus"",""19"",""282188""
""focus"",""19"",""345218""
""focus"",""19"",""349008""
","""event"",""trial"",""time""
""fullscreenenter"",""1"",""5933""
","
","","","-1","","","22","16599","1900","&#9826;","elianto","#f73b6a7A","-1","-1","1","0","[]","0","0","3","","","","","","","",""
"pit-trial","75","681035","0.0-2.0-14.3-1.3","battery-v0.2","","""event"",""trial"",""time""
""fullscreenenter"",""1"",""5933""
""blur"",""19"",""275910""
""focus"",""19"",""282188""
""blur"",""19"",""344352""
""focus"",""19"",""345218""
""blur"",""19"",""348295""
""focus"",""19"",""349008""
","""event"",""trial"",""time""
""blur"",""19"",""275910""
""blur"",""19"",""344352""
""blur"",""19"",""348295""
","""event"",""trial"",""time""
""focus"",""19"",""282188""
""focus"",""19"",""345218""
""focus"",""19"",""349008""
","""event"",""trial"",""time""
""fullscreenenter"",""1"",""5933""
","
","","","-1","","","22","16599","1900","&#9826;","elianto","#f73b6a7A","-1","-1","1","0","[]","0","0","3","","","","","","","",""
"pit-trial","76","685897","0.0-2.0-14.3-2.3","battery-v0.2","","""event"",""trial"",""time""
""fullscreenenter"",""1"",""5933""
""blur"",""19"",""275910""
""focus"",""19"",""282188""
""blur"",""19"",""344352""
""focus"",""19"",""345218""
""blur"",""19"",""348295""
""focus"",""19"",""349008""
","""event"",""trial"",""time""
""blur"",""19"",""275910""
""blur"",""19"",""344352""
""blur"",""19"",""348295""
","""event"",""trial"",""time""
""focus"",""19"",""282188""
""focus"",""19"",""345218""
""focus"",""19"",""349008""
","""event"",""trial"",""time""
""fullscreenenter"",""1"",""5933""
","
","","","-1","","","22","16599","1900","&#9826;","elianto","#f73b6a7A","-1","-1","1","0","[]","0","0","3","","","","","","","",""
"pit-trial","77","690749","0.0-2.0-14.3-3.3","battery-v0.2","","""event"",""trial"",""time""
""fullscreenenter"",""1"",""5933""
""blur"",""19"",""275910""
""focus"",""19"",""282188""
""blur"",""19"",""344352""
""focus"",""19"",""345218""
""blur"",""19"",""348295""
""focus"",""19"",""349008""
","""event"",""trial"",""time""
""blur"",""19"",""275910""
""blur"",""19"",""344352""
""blur"",""19"",""348295""
","""event"",""trial"",""time""
""focus"",""19"",""282188""
""focus"",""19"",""345218""
""focus"",""19"",""349008""
","""event"",""trial"",""time""
""fullscreenenter"",""1"",""5933""
","
","","","-1","","","22","16599","1900","&#9826;","elianto","#f73b6a7A","-1","-1","1","-10","[]","0","0","3","","","","","","","",""
"pit-trial","78","695601","0.0-2.0-14.3-4.3","battery-v0.2","","""event"",""trial"",""time""
""fullscreenenter"",""1"",""5933""
""blur"",""19"",""275910""
""focus"",""19"",""282188""
""blur"",""19"",""344352""
""focus"",""19"",""345218""
""blur"",""19"",""348295""
""focus"",""19"",""349008""
","""event"",""trial"",""time""
""blur"",""19"",""275910""
""blur"",""19"",""344352""
""blur"",""19"",""348295""
","""event"",""trial"",""time""
""focus"",""19"",""282188""
""focus"",""19"",""345218""
""focus"",""19"",""349008""
","""event"",""trial"",""time""
""fullscreenenter"",""1"",""5933""
","
","","","-1","","","22","16599","1900","&#9826;","elianto","#f73b6a7A","-1","-1","1","0","[]","0","0","3","","","","","","","",""
"call-function","79","695602","0.0-2.0-15.0","battery-v0.2","","""event"",""trial"",""time""
""fullscreenenter"",""1"",""5933""
""blur"",""19"",""275910""
""focus"",""19"",""282188""
""blur"",""19"",""344352""
""focus"",""19"",""345218""
""blur"",""19"",""348295""
""focus"",""19"",""349008""
","""event"",""trial"",""time""
""blur"",""19"",""275910""
""blur"",""19"",""344352""
""blur"",""19"",""348295""
","""event"",""trial"",""time""
""focus"",""19"",""282188""
""focus"",""19"",""345218""
""focus"",""19"",""349008""
","""event"",""trial"",""time""
""fullscreenenter"",""1"",""5933""
","
","","","","","","","","","","","","","","","","","","","","","","","","","","",""
"pit-instructions","80","722929","0.0-2.0-16.0","battery-v0.2","","""event"",""trial"",""time""
""fullscreenenter"",""1"",""5933""
""blur"",""19"",""275910""
""focus"",""19"",""282188""
""blur"",""19"",""344352""
""focus"",""19"",""345218""
""blur"",""19"",""348295""
""focus"",""19"",""349008""
","""event"",""trial"",""time""
""blur"",""19"",""275910""
""blur"",""19"",""344352""
""blur"",""19"",""348295""
","""event"",""trial"",""time""
""focus"",""19"",""282188""
""focus"",""19"",""345218""
""focus"",""19"",""349008""
","""event"",""trial"",""time""
""fullscreenenter"",""1"",""5933""
","
","","[{""page_index"":0,""viewing_time"":8252},{""page_index"":1,""viewing_time"":8844.900000095367},{""page_index"":2,""viewing_time"":4926.400000095367},{""page_index"":3,""viewing_time"":5302.199999809265}]","27325.800000190735","","","","","","","","","","","","","","","","","","","","","","","",""
"pit-trial","81","726611","0.0-2.0-17.0-0.0","battery-v0.2","","""event"",""trial"",""time""
""fullscreenenter"",""1"",""5933""
""blur"",""19"",""275910""
""focus"",""19"",""282188""
""blur"",""19"",""344352""
""focus"",""19"",""345218""
""blur"",""19"",""348295""
""focus"",""19"",""349008""
","""event"",""trial"",""time""
""blur"",""19"",""275910""
""blur"",""19"",""344352""
""blur"",""19"",""348295""
","""event"",""trial"",""time""
""focus"",""19"",""282188""
""focus"",""19"",""345218""
""focus"",""19"",""349008""
","""event"",""trial"",""time""
""fullscreenenter"",""1"",""5933""
","
","","","816.6000001430511","","","22","16599","1900","&#9789;","elianto","#f73b6a7A"," "," ","1","0","[1668.5]","1","0","4","","","","","","","",""
"pit-trial","82","729936","0.0-2.0-17.0-1.0","battery-v0.2","","""event"",""trial"",""time""
""fullscreenenter"",""1"",""5933""
""blur"",""19"",""275910""
""focus"",""19"",""282188""
""blur"",""19"",""344352""
""focus"",""19"",""345218""
""blur"",""19"",""348295""
""focus"",""19"",""349008""
","""event"",""trial"",""time""
""blur"",""19"",""275910""
""blur"",""19"",""344352""
""blur"",""19"",""348295""
","""event"",""trial"",""time""
""focus"",""19"",""282188""
""focus"",""19"",""345218""
""focus"",""19"",""349008""
","""event"",""trial"",""time""
""fullscreenenter"",""1"",""5933""
","
","","","469.7000000476837","","","22","16599","1900","&#9789;","elianto","#f73b6a7A"," "," ","1","0","[1320.6000001430511]","1","0","4","","","","","","","",""
"pit-trial","83","733266","0.0-2.0-17.0-2.0","battery-v0.2","","""event"",""trial"",""time""
""fullscreenenter"",""1"",""5933""
""blur"",""19"",""275910""
""focus"",""19"",""282188""
""blur"",""19"",""344352""
""focus"",""19"",""345218""
""blur"",""19"",""348295""
""focus"",""19"",""349008""
","""event"",""trial"",""time""
""blur"",""19"",""275910""
""blur"",""19"",""344352""
""blur"",""19"",""348295""
","""event"",""trial"",""time""
""focus"",""19"",""282188""
""focus"",""19"",""345218""
""focus"",""19"",""349008""
","""event"",""trial"",""time""
""fullscreenenter"",""1"",""5933""
","
","","","462.2999999523163","","","22","16599","1900","&#9789;","elianto","#f73b6a7A"," "," ","1","0","[1313.7000000476837]","1","0","4","","","","","","","",""
"pit-trial","84","736534","0.0-2.0-17.0-3.0","battery-v0.2","","""event"",""trial"",""time""
""fullscreenenter"",""1"",""5933""
""blur"",""19"",""275910""
""focus"",""19"",""282188""
""blur"",""19"",""344352""
""focus"",""19"",""345218""
""blur"",""19"",""348295""
""focus"",""19"",""349008""
","""event"",""trial"",""time""
""blur"",""19"",""275910""
""blur"",""19"",""344352""
""blur"",""19"",""348295""
","""event"",""trial"",""time""
""focus"",""19"",""282188""
""focus"",""19"",""345218""
""focus"",""19"",""349008""
","""event"",""trial"",""time""
""fullscreenenter"",""1"",""5933""
","
","","","410.2000000476837","","","22","16599","1900","&#9789;","elianto","#f73b6a7A"," "," ","1","-10","[1264.5999999046326]","1","0","4","","","","","","","",""
"pit-trial","85","739899","0.0-2.0-17.0-4.0","battery-v0.2","","""event"",""trial"",""time""
""fullscreenenter"",""1"",""5933""
""blur"",""19"",""275910""
""focus"",""19"",""282188""
""blur"",""19"",""344352""
""focus"",""19"",""345218""
""blur"",""19"",""348295""
""focus"",""19"",""349008""
","""event"",""trial"",""time""
""blur"",""19"",""275910""
""blur"",""19"",""344352""
""blur"",""19"",""348295""
","""event"",""trial"",""time""
""focus"",""19"",""282188""
""focus"",""19"",""345218""
""focus"",""19"",""349008""
","""event"",""trial"",""time""
""fullscreenenter"",""1"",""5933""
","
","","","502","","","22","16599","1900","&#9789;","elianto","#f73b6a7A"," "," ","1","0","[1356.9000000953674]","1","0","4","","","","","","","",""
"pit-trial","86","743241","0.0-2.0-17.1-0.1","battery-v0.2","","""event"",""trial"",""time""
""fullscreenenter"",""1"",""5933""
""blur"",""19"",""275910""
""focus"",""19"",""282188""
""blur"",""19"",""344352""
""focus"",""19"",""345218""
""blur"",""19"",""348295""
""focus"",""19"",""349008""
","""event"",""trial"",""time""
""blur"",""19"",""275910""
""blur"",""19"",""344352""
""blur"",""19"",""348295""
","""event"",""trial"",""time""
""focus"",""19"",""282188""
""focus"",""19"",""345218""
""focus"",""19"",""349008""
","""event"",""trial"",""time""
""fullscreenenter"",""1"",""5933""
","
","","","478.39999985694885","","","22","16599","1900","&#9789;","elianto","#f73b6a7A"," "," ","1","0","[1332.8999998569489]","1","0","4","","","","","","","",""
"pit-trial","87","746537","0.0-2.0-17.1-1.1","battery-v0.2","","""event"",""trial"",""time""
""fullscreenenter"",""1"",""5933""
""blur"",""19"",""275910""
""focus"",""19"",""282188""
""blur"",""19"",""344352""
""focus"",""19"",""345218""
""blur"",""19"",""348295""
""focus"",""19"",""349008""
","""event"",""trial"",""time""
""blur"",""19"",""275910""
""blur"",""19"",""344352""
""blur"",""19"",""348295""
","""event"",""trial"",""time""
""focus"",""19"",""282188""
""focus"",""19"",""345218""
""focus"",""19"",""349008""
","""event"",""trial"",""time""
""fullscreenenter"",""1"",""5933""
","
","","","423.09999990463257","","","22","16599","1900","&#9789;","elianto","#f73b6a7A"," "," ","1","0","[1279.2999999523163]","1","0","4","","","","","","","",""
"pit-trial","88","749913","0.0-2.0-17.1-2.1","battery-v0.2","","""event"",""trial"",""time""
""fullscreenenter"",""1"",""5933""
""blur"",""19"",""275910""
""focus"",""19"",""282188""
""blur"",""19"",""344352""
""focus"",""19"",""345218""
""blur"",""19"",""348295""
""focus"",""19"",""349008""
","""event"",""trial"",""time""
""blur"",""19"",""275910""
""blur"",""19"",""344352""
""blur"",""19"",""348295""
","""event"",""trial"",""time""
""focus"",""19"",""282188""
""focus"",""19"",""345218""
""focus"",""19"",""349008""
","""event"",""trial"",""time""
""fullscreenenter"",""1"",""5933""
","
","","","522.8999998569489","","","22","16599","1900","&#9789;","elianto","#f73b6a7A"," "," ","1","0","[1373]","1","0","4","","","","","","","",""
"pit-trial","89","753226","0.0-2.0-17.1-3.1","battery-v0.2","","""event"",""trial"",""time""
""fullscreenenter"",""1"",""5933""
""blur"",""19"",""275910""
""focus"",""19"",""282188""
""blur"",""19"",""344352""
""focus"",""19"",""345218""
""blur"",""19"",""348295""
""focus"",""19"",""349008""
","""event"",""trial"",""time""
""blur"",""19"",""275910""
""blur"",""19"",""344352""
""blur"",""19"",""348295""
","""event"",""trial"",""time""
""focus"",""19"",""282188""
""focus"",""19"",""345218""
""focus"",""19"",""349008""
","""event"",""trial"",""time""
""fullscreenenter"",""1"",""5933""
","
","","","454.5","","","22","16599","1900","&#9789;","elianto","#f73b6a7A"," "," ","1","-10","[1311.1000001430511]","1","0","4","","","","","","","",""
"pit-trial","90","756683","0.0-2.0-17.1-4.1","battery-v0.2","","""event"",""trial"",""time""
""fullscreenenter"",""1"",""5933""
""blur"",""19"",""275910""
""focus"",""19"",""282188""
""blur"",""19"",""344352""
""focus"",""19"",""345218""
""blur"",""19"",""348295""
""focus"",""19"",""349008""
","""event"",""trial"",""time""
""blur"",""19"",""275910""
""blur"",""19"",""344352""
""blur"",""19"",""348295""
","""event"",""trial"",""time""
""focus"",""19"",""282188""
""focus"",""19"",""345218""
""focus"",""19"",""349008""
","""event"",""trial"",""time""
""fullscreenenter"",""1"",""5933""
","
","","","603.2000000476837","","","22","16599","1900","&#9789;","elianto","#f73b6a7A"," "," ","1","0","[1455.3999998569489]","1","0","4","","","","","","","",""
"pit-trial","91","760090","0.0-2.0-17.2-0.2","battery-v0.2","","""event"",""trial"",""time""
""fullscreenenter"",""1"",""5933""
""blur"",""19"",""275910""
""focus"",""19"",""282188""
""blur"",""19"",""344352""
""focus"",""19"",""345218""
""blur"",""19"",""348295""
""focus"",""19"",""349008""
","""event"",""trial"",""time""
""blur"",""19"",""275910""
""blur"",""19"",""344352""
""blur"",""19"",""348295""
","""event"",""trial"",""time""
""focus"",""19"",""282188""
""focus"",""19"",""345218""
""focus"",""19"",""349008""
","""event"",""trial"",""time""
""fullscreenenter"",""1"",""5933""
","
","","","555.6000001430511","","","22","16599","1900","&#9789;","elianto","#f73b6a7A"," "," ","1","0","[1405.8999998569489]","1","0","4","","","","","","","",""
"pit-trial","92","763202","0.0-2.0-17.2-1.2","battery-v0.2","","""event"",""trial"",""time""
""fullscreenenter"",""1"",""5933""
""blur"",""19"",""275910""
""focus"",""19"",""282188""
""blur"",""19"",""344352""
""focus"",""19"",""345218""
""blur"",""19"",""348295""
""focus"",""19"",""349008""
","""event"",""trial"",""time""
""blur"",""19"",""275910""
""blur"",""19"",""344352""
""blur"",""19"",""348295""
","""event"",""trial"",""time""
""focus"",""19"",""282188""
""focus"",""19"",""345218""
""focus"",""19"",""349008""
","""event"",""trial"",""time""
""fullscreenenter"",""1"",""5933""
","
","","","259.10000014305115","","","22","16599","1900","&#9789;","elianto","#f73b6a7A"," "," ","1","0","[1109.2999999523163]","1","0","4","","","","","","","",""
"pit-trial","93","766654","0.0-2.0-17.2-2.2","battery-v0.2","","""event"",""trial"",""time""
""fullscreenenter"",""1"",""5933""
""blur"",""19"",""275910""
""focus"",""19"",""282188""
""blur"",""19"",""344352""
""focus"",""19"",""345218""
""blur"",""19"",""348295""
""focus"",""19"",""349008""
","""event"",""trial"",""time""
""blur"",""19"",""275910""
""blur"",""19"",""344352""
""blur"",""19"",""348295""
","""event"",""trial"",""time""
""focus"",""19"",""282188""
""focus"",""19"",""345218""
""focus"",""19"",""349008""
","""event"",""trial"",""time""
""fullscreenenter"",""1"",""5933""
","
","","","600.5","","","22","16599","1900","&#9789;","elianto","#f73b6a7A"," "," ","1","0","[1450.7000000476837]","1","0","4","","","","","","","",""
"pit-trial","94","770074","0.0-2.0-17.2-3.2","battery-v0.2","","""event"",""trial"",""time""
""fullscreenenter"",""1"",""5933""
""blur"",""19"",""275910""
""focus"",""19"",""282188""
""blur"",""19"",""344352""
""focus"",""19"",""345218""
""blur"",""19"",""348295""
""focus"",""19"",""349008""
","""event"",""trial"",""time""
""blur"",""19"",""275910""
""blur"",""19"",""344352""
""blur"",""19"",""348295""
","""event"",""trial"",""time""
""focus"",""19"",""282188""
""focus"",""19"",""345218""
""focus"",""19"",""349008""
","""event"",""trial"",""time""
""fullscreenenter"",""1"",""5933""
","
","","","567","","","22","16599","1900","&#9789;","elianto","#f73b6a7A"," "," ","1","-10","[1418]","1","0","4","","","","","","","",""
"pit-trial","95","773300","0.0-2.0-17.2-4.2","battery-v0.2","","""event"",""trial"",""time""
""fullscreenenter"",""1"",""5933""
""blur"",""19"",""275910""
""focus"",""19"",""282188""
""blur"",""19"",""344352""
""focus"",""19"",""345218""
""blur"",""19"",""348295""
""focus"",""19"",""349008""
","""event"",""trial"",""time""
""blur"",""19"",""275910""
""blur"",""19"",""344352""
""blur"",""19"",""348295""
","""event"",""trial"",""time""
""focus"",""19"",""282188""
""focus"",""19"",""345218""
""focus"",""19"",""349008""
","""event"",""trial"",""time""
""fullscreenenter"",""1"",""5933""
","
","","","374","","","22","16599","1900","&#9789;","elianto","#f73b6a7A"," "," ","1","0","[1224]","1","0","4","","","","","","","",""
"pit-trial","96","776675","0.0-2.0-17.3-0.3","battery-v0.2","","""event"",""trial"",""time""
""fullscreenenter"",""1"",""5933""
""blur"",""19"",""275910""
""focus"",""19"",""282188""
""blur"",""19"",""344352""
""focus"",""19"",""345218""
""blur"",""19"",""348295""
""focus"",""19"",""349008""
","""event"",""trial"",""time""
""blur"",""19"",""275910""
""blur"",""19"",""344352""
""blur"",""19"",""348295""
","""event"",""trial"",""time""
""focus"",""19"",""282188""
""focus"",""19"",""345218""
""focus"",""19"",""349008""
","""event"",""trial"",""time""
""fullscreenenter"",""1"",""5933""
","
","","","523.3999998569489","","","22","16599","1900","&#9789;","elianto","#f73b6a7A"," "," ","1","0","[1373.7999999523163]","1","0","4","","","","","","","",""
"pit-trial","97","779872","0.0-2.0-17.3-1.3","battery-v0.2","","""event"",""trial"",""time""
""fullscreenenter"",""1"",""5933""
""blur"",""19"",""275910""
""focus"",""19"",""282188""
""blur"",""19"",""344352""
""focus"",""19"",""345218""
""blur"",""19"",""348295""
""focus"",""19"",""349008""
","""event"",""trial"",""time""
""blur"",""19"",""275910""
""blur"",""19"",""344352""
""blur"",""19"",""348295""
","""event"",""trial"",""time""
""focus"",""19"",""282188""
""focus"",""19"",""345218""
""focus"",""19"",""349008""
","""event"",""trial"",""time""
""fullscreenenter"",""1"",""5933""
","
","","","344.09999990463257","","","22","16599","1900","&#9789;","elianto","#f73b6a7A"," "," ","1","0","[1194.5]","1","0","4","","","","","","","",""
"pit-trial","98","783166","0.0-2.0-17.3-2.3","battery-v0.2","","""event"",""trial"",""time""
""fullscreenenter"",""1"",""5933""
""blur"",""19"",""275910""
""focus"",""19"",""282188""
""blur"",""19"",""344352""
""focus"",""19"",""345218""
""blur"",""19"",""348295""
""focus"",""19"",""349008""
","""event"",""trial"",""time""
""blur"",""19"",""275910""
""blur"",""19"",""344352""
""blur"",""19"",""348295""
","""event"",""trial"",""time""
""focus"",""19"",""282188""
""focus"",""19"",""345218""
""focus"",""19"",""349008""
","""event"",""trial"",""time""
""fullscreenenter"",""1"",""5933""
","
","","","441.7000000476837","","","22","16599","1900","&#9789;","elianto","#f73b6a7A"," "," ","1","0","[1291.8999998569489]","1","0","4","","","","","","","",""
"pit-trial","99","786678","0.0-2.0-17.3-3.3","battery-v0.2","","""event"",""trial"",""time""
""fullscreenenter"",""1"",""5933""
""blur"",""19"",""275910""
""focus"",""19"",""282188""
""blur"",""19"",""344352""
""focus"",""19"",""345218""
""blur"",""19"",""348295""
""focus"",""19"",""349008""
","""event"",""trial"",""time""
""blur"",""19"",""275910""
""blur"",""19"",""344352""
""blur"",""19"",""348295""
","""event"",""trial"",""time""
""focus"",""19"",""282188""
""focus"",""19"",""345218""
""focus"",""19"",""349008""
","""event"",""trial"",""time""
""fullscreenenter"",""1"",""5933""
","
","","","661","","","22","16599","1900","&#9789;","elianto","#f73b6a7A"," "," ","1","-10","[1511.0999999046326]","1","0","4","","","","","","","",""
"pit-trial","100","790159","0.0-2.0-17.3-4.3","battery-v0.2","","""event"",""trial"",""time""
""fullscreenenter"",""1"",""5933""
""blur"",""19"",""275910""
""focus"",""19"",""282188""
""blur"",""19"",""344352""
""focus"",""19"",""345218""
""blur"",""19"",""348295""
""focus"",""19"",""349008""
","""event"",""trial"",""time""
""blur"",""19"",""275910""
""blur"",""19"",""344352""
""blur"",""19"",""348295""
","""event"",""trial"",""time""
""focus"",""19"",""282188""
""focus"",""19"",""345218""
""focus"",""19"",""349008""
","""event"",""trial"",""time""
""fullscreenenter"",""1"",""5933""
","
","","","618.7000000476837","","","22","16599","1900","&#9789;","elianto","#f73b6a7A"," "," ","1","0","[1468.6000001430511]","1","0","4","","","","","","","",""
"call-function","101","790160","0.0-2.0-18.0","battery-v0.2","","""event"",""trial"",""time""
""fullscreenenter"",""1"",""5933""
""blur"",""19"",""275910""
""focus"",""19"",""282188""
""blur"",""19"",""344352""
""focus"",""19"",""345218""
""blur"",""19"",""348295""
""focus"",""19"",""349008""
","""event"",""trial"",""time""
""blur"",""19"",""275910""
""blur"",""19"",""344352""
""blur"",""19"",""348295""
","""event"",""trial"",""time""
""focus"",""19"",""282188""
""focus"",""19"",""345218""
""focus"",""19"",""349008""
","""event"",""trial"",""time""
""fullscreenenter"",""1"",""5933""
","
","","","","","","","","","","","","","","","","","","","","","","","","","","",""
"pit-instructions","102","868348","0.0-2.0-19.0","battery-v0.2","","""event"",""trial"",""time""
""fullscreenenter"",""1"",""5933""
""blur"",""19"",""275910""
""focus"",""19"",""282188""
""blur"",""19"",""344352""
""focus"",""19"",""345218""
""blur"",""19"",""348295""
""focus"",""19"",""349008""
","""event"",""trial"",""time""
""blur"",""19"",""275910""
""blur"",""19"",""344352""
""blur"",""19"",""348295""
","""event"",""trial"",""time""
""focus"",""19"",""282188""
""focus"",""19"",""345218""
""focus"",""19"",""349008""
","""event"",""trial"",""time""
""fullscreenenter"",""1"",""5933""
","
","","[{""page_index"":0,""viewing_time"":6590.5},{""page_index"":1,""viewing_time"":6538.600000143051},{""page_index"":2,""viewing_time"":14944.599999904633},{""page_index"":3,""viewing_time"":8987},{""page_index"":4,""viewing_time"":9267},{""page_index"":5,""viewing_time"":9457.900000095367},{""page_index"":6,""viewing_time"":8645.299999952316},{""page_index"":7,""viewing_time"":9300.899999856949},{""page_index"":8,""viewing_time"":4454.800000190735}]","78186.90000009537","","","","","","","","","","","","","","","","","","","","","","","",""
"pit-comprehension","103","872952","0.0-2.0-20.0-0.0","battery-v0.2","","""event"",""trial"",""time""
""fullscreenenter"",""1"",""5933""
""blur"",""19"",""275910""
""focus"",""19"",""282188""
""blur"",""19"",""344352""
""focus"",""19"",""345218""
""blur"",""19"",""348295""
""focus"",""19"",""349008""
","""event"",""trial"",""time""
""blur"",""19"",""275910""
""blur"",""19"",""344352""
""blur"",""19"",""348295""
","""event"",""trial"",""time""
""focus"",""19"",""282188""
""focus"",""19"",""345218""
""focus"",""19"",""349008""
","""event"",""trial"",""time""
""fullscreenenter"",""1"",""5933""
","
","","","4602.200000047684","[""SPACE""]","0","22","16599","1900","","","","","","","","","","","","","","","","","","",""
"pit-instructions","104","876581","0.0-2.0-20.0-1.0","battery-v0.2","","""event"",""trial"",""time""
""fullscreenenter"",""1"",""5933""
""blur"",""19"",""275910""
""focus"",""19"",""282188""
""blur"",""19"",""344352""
""focus"",""19"",""345218""
""blur"",""19"",""348295""
""focus"",""19"",""349008""
","""event"",""trial"",""time""
""blur"",""19"",""275910""
""blur"",""19"",""344352""
""blur"",""19"",""348295""
","""event"",""trial"",""time""
""focus"",""19"",""282188""
""focus"",""19"",""345218""
""focus"",""19"",""349008""
","""event"",""trial"",""time""
""fullscreenenter"",""1"",""5933""
","
","","[{""page_index"":0,""viewing_time"":3607.9000000953674}]","3608.2000000476837","","","","","","","","","","","","","","","","","","","","","","","",""
"pit-comprehension","105","882286","0.0-2.0-21.0-0.0","battery-v0.2","","""event"",""trial"",""time""
""fullscreenenter"",""1"",""5933""
""blur"",""19"",""275910""
""focus"",""19"",""282188""
""blur"",""19"",""344352""
""focus"",""19"",""345218""
""blur"",""19"",""348295""
""focus"",""19"",""349008""
","""event"",""trial"",""time""
""blur"",""19"",""275910""
""blur"",""19"",""344352""
""blur"",""19"",""348295""
","""event"",""trial"",""time""
""focus"",""19"",""282188""
""focus"",""19"",""345218""
""focus"",""19"",""349008""
","""event"",""trial"",""time""
""fullscreenenter"",""1"",""5933""
","
","","","5702.799999952316","[""10""]","0","22","16599","1900","","","","","","","","","","","","","","","","","","",""
"pit-instructions","106","884482","0.0-2.0-21.0-1.0","battery-v0.2","","""event"",""trial"",""time""
""fullscreenenter"",""1"",""5933""
""blur"",""19"",""275910""
""focus"",""19"",""282188""
""blur"",""19"",""344352""
""focus"",""19"",""345218""
""blur"",""19"",""348295""
""focus"",""19"",""349008""
","""event"",""trial"",""time""
""blur"",""19"",""275910""
""blur"",""19"",""344352""
""blur"",""19"",""348295""
","""event"",""trial"",""time""
""focus"",""19"",""282188""
""focus"",""19"",""345218""
""focus"",""19"",""349008""
","""event"",""trial"",""time""
""fullscreenenter"",""1"",""5933""
","
","","[{""page_index"":0,""viewing_time"":2176}]","2176.2999999523163","","","","","","","","","","","","","","","","","","","","","","","",""
"pit-comprehension","107","891151","0.0-2.0-22.0-0.0","battery-v0.2","","""event"",""trial"",""time""
""fullscreenenter"",""1"",""5933""
""blur"",""19"",""275910""
""focus"",""19"",""282188""
""blur"",""19"",""344352""
""focus"",""19"",""345218""
""blur"",""19"",""348295""
""focus"",""19"",""349008""
","""event"",""trial"",""time""
""blur"",""19"",""275910""
""blur"",""19"",""344352""
""blur"",""19"",""348295""
","""event"",""trial"",""time""
""focus"",""19"",""282188""
""focus"",""19"",""345218""
""focus"",""19"",""349008""
","""event"",""trial"",""time""
""fullscreenenter"",""1"",""5933""
","
","","","6667.299999952316","[""0""]","0","22","16599","1900","","","","","","","","","","","","","","","","","","",""
"pit-instructions","108","893573","0.0-2.0-22.0-1.0","battery-v0.2","","""event"",""trial"",""time""
""fullscreenenter"",""1"",""5933""
""blur"",""19"",""275910""
""focus"",""19"",""282188""
""blur"",""19"",""344352""
""focus"",""19"",""345218""
""blur"",""19"",""348295""
""focus"",""19"",""349008""
","""event"",""trial"",""time""
""blur"",""19"",""275910""
""blur"",""19"",""344352""
""blur"",""19"",""348295""
","""event"",""trial"",""time""
""focus"",""19"",""282188""
""focus"",""19"",""345218""
""focus"",""19"",""349008""
","""event"",""trial"",""time""
""fullscreenenter"",""1"",""5933""
","
","","[{""page_index"":0,""viewing_time"":2401.2999999523163}]","2401.5","","","","","","","","","","","","","","","","","","","","","","","",""
"pit-comprehension","109","911730","0.0-2.0-23.0-0.0","battery-v0.2","","""event"",""trial"",""time""
""fullscreenenter"",""1"",""5933""
""blur"",""19"",""275910""
""focus"",""19"",""282188""
""blur"",""19"",""344352""
""focus"",""19"",""345218""
""blur"",""19"",""348295""
""focus"",""19"",""349008""
","""event"",""trial"",""time""
""blur"",""19"",""275910""
""blur"",""19"",""344352""
""blur"",""19"",""348295""
","""event"",""trial"",""time""
""focus"",""19"",""282188""
""focus"",""19"",""345218""
""focus"",""19"",""349008""
","""event"",""trial"",""time""
""fullscreenenter"",""1"",""5933""
","
","","","18155.400000095367","[""True""]","0","22","16599","1900","","","","","","","","","","","","","","","","","","",""
"pit-instructions","110","913998","0.0-2.0-23.0-1.0","battery-v0.2","","""event"",""trial"",""time""
""fullscreenenter"",""1"",""5933""
""blur"",""19"",""275910""
""focus"",""19"",""282188""
""blur"",""19"",""344352""
""focus"",""19"",""345218""
""blur"",""19"",""348295""
""focus"",""19"",""349008""
","""event"",""trial"",""time""
""blur"",""19"",""275910""
""blur"",""19"",""344352""
""blur"",""19"",""348295""
","""event"",""trial"",""time""
""focus"",""19"",""282188""
""focus"",""19"",""345218""
""focus"",""19"",""349008""
","""event"",""trial"",""time""
""fullscreenenter"",""1"",""5933""
","
","","[{""page_index"":0,""viewing_time"":2246.7999999523163}]","2246.899999856949","","","","","","","","","","","","","","","","","","","","","","","",""
"pit-comprehension","111","921767","0.0-2.0-24.0-0.0","battery-v0.2","","""event"",""trial"",""time""
""fullscreenenter"",""1"",""5933""
""blur"",""19"",""275910""
""focus"",""19"",""282188""
""blur"",""19"",""344352""
""focus"",""19"",""345218""
""blur"",""19"",""348295""
""focus"",""19"",""349008""
","""event"",""trial"",""time""
""blur"",""19"",""275910""
""blur"",""19"",""344352""
""blur"",""19"",""348295""
","""event"",""trial"",""time""
""focus"",""19"",""282188""
""focus"",""19"",""345218""
""focus"",""19"",""349008""
","""event"",""trial"",""time""
""fullscreenenter"",""1"",""5933""
","
","","","7767","[""True""]","0","22","16599","1900","","","","","","","","","","","","","","","","","","",""
"pit-instructions","112","923525","0.0-2.0-24.0-1.0","battery-v0.2","","""event"",""trial"",""time""
""fullscreenenter"",""1"",""5933""
""blur"",""19"",""275910""
""focus"",""19"",""282188""
""blur"",""19"",""344352""
""focus"",""19"",""345218""
""blur"",""19"",""348295""
""focus"",""19"",""349008""
","""event"",""trial"",""time""
""blur"",""19"",""275910""
""blur"",""19"",""344352""
""blur"",""19"",""348295""
","""event"",""trial"",""time""
""focus"",""19"",""282188""
""focus"",""19"",""345218""
""focus"",""19"",""349008""
","""event"",""trial"",""time""
""fullscreenenter"",""1"",""5933""
","
","","[{""page_index"":0,""viewing_time"":1736.5}]","1736.7000000476837","","","","","","","","","","","","","","","","","","","","","","","",""
"pit-comprehension","113","930158","0.0-2.0-25.0-0.0","battery-v0.2","","""event"",""trial"",""time""
""fullscreenenter"",""1"",""5933""
""blur"",""19"",""275910""
""focus"",""19"",""282188""
""blur"",""19"",""344352""
""focus"",""19"",""345218""
""blur"",""19"",""348295""
""focus"",""19"",""349008""
","""event"",""trial"",""time""
""blur"",""19"",""275910""
""blur"",""19"",""344352""
""blur"",""19"",""348295""
","""event"",""trial"",""time""
""focus"",""19"",""282188""
""focus"",""19"",""345218""
""focus"",""19"",""349008""
","""event"",""trial"",""time""
""fullscreenenter"",""1"",""5933""
","
","","","6631.099999904633","[""True""]","0","22","16599","1900","","","","","","","","","","","","","","","","","","",""
"pit-instructions","114","932136","0.0-2.0-25.0-1.0","battery-v0.2","","""event"",""trial"",""time""
""fullscreenenter"",""1"",""5933""
""blur"",""19"",""275910""
""focus"",""19"",""282188""
""blur"",""19"",""344352""
""focus"",""19"",""345218""
""blur"",""19"",""348295""
""focus"",""19"",""349008""
","""event"",""trial"",""time""
""blur"",""19"",""275910""
""blur"",""19"",""344352""
""blur"",""19"",""348295""
","""event"",""trial"",""time""
""focus"",""19"",""282188""
""focus"",""19"",""345218""
""focus"",""19"",""349008""
","""event"",""trial"",""time""
""fullscreenenter"",""1"",""5933""
","
","","[{""page_index"":0,""viewing_time"":1955}]","1955.2000000476837","","","","","","","","","","","","","","","","","","","","","","","",""
"pit-comprehension","115","940466","0.0-2.0-26.0-0.0","battery-v0.2","","""event"",""trial"",""time""
""fullscreenenter"",""1"",""5933""
""blur"",""19"",""275910""
""focus"",""19"",""282188""
""blur"",""19"",""344352""
""focus"",""19"",""345218""
""blur"",""19"",""348295""
""focus"",""19"",""349008""
","""event"",""trial"",""time""
""blur"",""19"",""275910""
""blur"",""19"",""344352""
""blur"",""19"",""348295""
","""event"",""trial"",""time""
""focus"",""19"",""282188""
""focus"",""19"",""345218""
""focus"",""19"",""349008""
","""event"",""trial"",""time""
""fullscreenenter"",""1"",""5933""
","
","","","8328.400000095367","[""False""]","0","22","16599","1900","","","","","","","","","","","","","","","","","","",""
"pit-instructions","116","943503","0.0-2.0-26.0-1.0","battery-v0.2","","""event"",""trial"",""time""
""fullscreenenter"",""1"",""5933""
""blur"",""19"",""275910""
""focus"",""19"",""282188""
""blur"",""19"",""344352""
""focus"",""19"",""345218""
""blur"",""19"",""348295""
""focus"",""19"",""349008""
","""event"",""trial"",""time""
""blur"",""19"",""275910""
""blur"",""19"",""344352""
""blur"",""19"",""348295""
","""event"",""trial"",""time""
""focus"",""19"",""282188""
""focus"",""19"",""345218""
""focus"",""19"",""349008""
","""event"",""trial"",""time""
""fullscreenenter"",""1"",""5933""
","
","","[{""page_index"":0,""viewing_time"":3012.7999999523163}]","3013.2000000476837","","","","","","","","","","","","","","","","","","","","","","","",""
"pit-instructions","117","964249","0.0-3.0","battery-v0.2","","""event"",""trial"",""time""
""fullscreenenter"",""1"",""5933""
""blur"",""19"",""275910""
""focus"",""19"",""282188""
""blur"",""19"",""344352""
""focus"",""19"",""345218""
""blur"",""19"",""348295""
""focus"",""19"",""349008""
","""event"",""trial"",""time""
""blur"",""19"",""275910""
""blur"",""19"",""344352""
""blur"",""19"",""348295""
","""event"",""trial"",""time""
""focus"",""19"",""282188""
""focus"",""19"",""345218""
""focus"",""19"",""349008""
","""event"",""trial"",""time""
""fullscreenenter"",""1"",""5933""
","
","","[{""page_index"":0,""viewing_time"":4163.200000047684},{""page_index"":1,""viewing_time"":5626.299999952316},{""page_index"":2,""viewing_time"":10955.799999952316}]","20745.5","","","","","","","","","","","","","","","","","","","","","","","",""
"pit-trial","118","967844","0.0-4.0","battery-v0.2","","""event"",""trial"",""time""
""fullscreenenter"",""1"",""5933""
""blur"",""19"",""275910""
""focus"",""19"",""282188""
""blur"",""19"",""344352""
""focus"",""19"",""345218""
""blur"",""19"",""348295""
""focus"",""19"",""349008""
","""event"",""trial"",""time""
""blur"",""19"",""275910""
""blur"",""19"",""344352""
""blur"",""19"",""348295""
","""event"",""trial"",""time""
""focus"",""19"",""282188""
""focus"",""19"",""345218""
""focus"",""19"",""349008""
","""event"",""trial"",""time""
""fullscreenenter"",""1"",""5933""
","
","","","730","","","22","16599","1900","&#9752;","elianto","#f73b6a7A"," "," ","1","0","[1584.8999998569489]","1","1","","","16599","1","3","3","lose","go","0"
"pit-trial","119","971979","0.0-5.0","battery-v0.2","","""event"",""trial"",""time""
""fullscreenenter"",""1"",""5933""
""blur"",""19"",""275910""
""focus"",""19"",""282188""
""blur"",""19"",""344352""
""focus"",""19"",""345218""
""blur"",""19"",""348295""
""focus"",""19"",""349008""
","""event"",""trial"",""time""
""blur"",""19"",""275910""
""blur"",""19"",""344352""
""blur"",""19"",""348295""
","""event"",""trial"",""time""
""focus"",""19"",""282188""
""focus"",""19"",""345218""
""focus"",""19"",""349008""
","""event"",""trial"",""time""
""fullscreenenter"",""1"",""5933""
","
","","","1267.5999999046326","","","22","16599","1900","&#9730;","elianto","#3366ff99"," "," ","1","+10","[2119.5]","1","1","","","16599","2","1","1","win","go","0"
"pit-trial","120","976204","0.0-6.0","battery-v0.2","","""event"",""trial"",""time""
""fullscreenenter"",""1"",""5933""
""blur"",""19"",""275910""
""focus"",""19"",""282188""
""blur"",""19"",""344352""
""focus"",""19"",""345218""
""blur"",""19"",""348295""
""focus"",""19"",""349008""
","""event"",""trial"",""time""
""blur"",""19"",""275910""
""blur"",""19"",""344352""
""blur"",""19"",""348295""
","""event"",""trial"",""time""
""focus"",""19"",""282188""
""focus"",""19"",""345218""
""focus"",""19"",""349008""
","""event"",""trial"",""time""
""fullscreenenter"",""1"",""5933""
","
","","","1358.9000000953674","","","22","16599","1900","&#9733;","elianto","#3366ff99","-1"," ","0","+10","[2208.9000000953674]","1","1","","","16599","3","2","2","win","no-go","1"
"pit-trial","121","979891","0.0-7.0","battery-v0.2","","""event"",""trial"",""time""
""fullscreenenter"",""1"",""5933""
""blur"",""19"",""275910""
""focus"",""19"",""282188""
""blur"",""19"",""344352""
""focus"",""19"",""345218""
""blur"",""19"",""348295""
""focus"",""19"",""349008""
","""event"",""trial"",""time""
""blur"",""19"",""275910""
""blur"",""19"",""344352""
""blur"",""19"",""348295""
","""event"",""trial"",""time""
""focus"",""19"",""282188""
""focus"",""19"",""345218""
""focus"",""19"",""349008""
","""event"",""trial"",""time""
""fullscreenenter"",""1"",""5933""
","
","","","822.5","","","22","16599","1900","&#9728;","elianto","#f73b6a7A","-1"," ","0","0","[1679.7999999523163]","1","1","","","16599","4","0","4","lose","no-go","1"
"pit-trial","122","983940","0.0-8.0","battery-v0.2","","""event"",""trial"",""time""
""fullscreenenter"",""1"",""5933""
""blur"",""19"",""275910""
""focus"",""19"",""282188""
""blur"",""19"",""344352""
""focus"",""19"",""345218""
""blur"",""19"",""348295""
""focus"",""19"",""349008""
","""event"",""trial"",""time""
""blur"",""19"",""275910""
""blur"",""19"",""344352""
""blur"",""19"",""348295""
","""event"",""trial"",""time""
""focus"",""19"",""282188""
""focus"",""19"",""345218""
""focus"",""19"",""349008""
","""event"",""trial"",""time""
""fullscreenenter"",""1"",""5933""
","
","","","1190.8000001907349","","","22","16599","1900","&#9752;","elianto","#f73b6a7A"," "," ","1","0","[2043.8000001907349]","1","1","","","16599","5","3","3","lose","go","0"
"pit-trial","123","987607","0.0-9.0","battery-v0.2","","""event"",""trial"",""time""
""fullscreenenter"",""1"",""5933""
""blur"",""19"",""275910""
""focus"",""19"",""282188""
""blur"",""19"",""344352""
""focus"",""19"",""345218""
""blur"",""19"",""348295""
""focus"",""19"",""349008""
","""event"",""trial"",""time""
""blur"",""19"",""275910""
""blur"",""19"",""344352""
""blur"",""19"",""348295""
","""event"",""trial"",""time""
""focus"",""19"",""282188""
""focus"",""19"",""345218""
""focus"",""19"",""349008""
","""event"",""trial"",""time""
""fullscreenenter"",""1"",""5933""
","
","","","799.5999999046326","","","22","16599","1900","&#9728;","elianto","#f73b6a7A","-1"," ","0","-10","[1655]","1","1","","","16599","6","0","4","lose","no-go","0"
"pit-trial","124","991792","0.0-10.0","battery-v0.2","","""event"",""trial"",""time""
""fullscreenenter"",""1"",""5933""
""blur"",""19"",""275910""
""focus"",""19"",""282188""
""blur"",""19"",""344352""
""focus"",""19"",""345218""
""blur"",""19"",""348295""
""focus"",""19"",""349008""
","""event"",""trial"",""time""
""blur"",""19"",""275910""
""blur"",""19"",""344352""
""blur"",""19"",""348295""
","""event"",""trial"",""time""
""focus"",""19"",""282188""
""focus"",""19"",""345218""
""focus"",""19"",""349008""
","""event"",""trial"",""time""
""fullscreenenter"",""1"",""5933""
","
","","","1327.7999999523163","","","22","16599","1900","&#9733;","elianto","#3366ff99","-1"," ","0","0","[2182]","1","1","","","16599","7","2","2","win","no-go","0"
"pit-trial","125","995869","0.0-11.0","battery-v0.2","","""event"",""trial"",""time""
""fullscreenenter"",""1"",""5933""
""blur"",""19"",""275910""
""focus"",""19"",""282188""
""blur"",""19"",""344352""
""focus"",""19"",""345218""
""blur"",""19"",""348295""
""focus"",""19"",""349008""
","""event"",""trial"",""time""
""blur"",""19"",""275910""
""blur"",""19"",""344352""
""blur"",""19"",""348295""
","""event"",""trial"",""time""
""focus"",""19"",""282188""
""focus"",""19"",""345218""
""focus"",""19"",""349008""
","""event"",""trial"",""time""
""fullscreenenter"",""1"",""5933""
","
","","","1223.8000001907349","","","22","16599","1900","&#9730;","elianto","#3366ff99"," "," ","1","+10","[2074.800000190735]","1","1","","","16599","8","1","1","win","go","0"
"pit-trial","126","999696","0.0-12.0","battery-v0.2","","""event"",""trial"",""time""
""fullscreenenter"",""1"",""5933""
""blur"",""19"",""275910""
""focus"",""19"",""282188""
""blur"",""19"",""344352""
""focus"",""19"",""345218""
""blur"",""19"",""348295""
""focus"",""19"",""349008""
","""event"",""trial"",""time""
""blur"",""19"",""275910""
""blur"",""19"",""344352""
""blur"",""19"",""348295""
","""event"",""trial"",""time""
""focus"",""19"",""282188""
""focus"",""19"",""345218""
""focus"",""19"",""349008""
","""event"",""trial"",""time""
""fullscreenenter"",""1"",""5933""
","
","","","975.6000001430511","","","22","16599","1900","&#9728;","elianto","#f73b6a7A","-1"," ","0","-10","[1826.4000000953674]","1","1","","","16599","9","0","4","lose","no-go","0"
"pit-trial","127","1003735","0.0-13.0","battery-v0.2","","""event"",""trial"",""time""
""fullscreenenter"",""1"",""5933""
""blur"",""19"",""275910""
""focus"",""19"",""282188""
""blur"",""19"",""344352""
""focus"",""19"",""345218""
""blur"",""19"",""348295""
""focus"",""19"",""349008""
","""event"",""trial"",""time""
""blur"",""19"",""275910""
""blur"",""19"",""344352""
""blur"",""19"",""348295""
","""event"",""trial"",""time""
""focus"",""19"",""282188""
""focus"",""19"",""345218""
""focus"",""19"",""349008""
","""event"",""trial"",""time""
""fullscreenenter"",""1"",""5933""
","
","","","1186.5","","","22","16599","1900","&#9730;","elianto","#3366ff99"," "," ","1","+10","[2037.2000000476837]","1","1","","","16599","10","1","1","win","go","0"
"pit-trial","128","1008589","0.0-14.0","battery-v0.2","","""event"",""trial"",""time""
""fullscreenenter"",""1"",""5933""
""blur"",""19"",""275910""
""focus"",""19"",""282188""
""blur"",""19"",""344352""
""focus"",""19"",""345218""
""blur"",""19"",""348295""
""focus"",""19"",""349008""
","""event"",""trial"",""time""
""blur"",""19"",""275910""
""blur"",""19"",""344352""
""blur"",""19"",""348295""
","""event"",""trial"",""time""
""focus"",""19"",""282188""
""focus"",""19"",""345218""
""focus"",""19"",""349008""
","""event"",""trial"",""time""
""fullscreenenter"",""1"",""5933""
","
","","","-1","","","22","16599","1900","&#9733;","elianto","#3366ff99","-1","-1","1","+10","[]","0","1","","","16599","11","2","2","win","no-go","0"
"pit-trial","129","1012375","0.0-15.0","battery-v0.2","","""event"",""trial"",""time""
""fullscreenenter"",""1"",""5933""
""blur"",""19"",""275910""
""focus"",""19"",""282188""
""blur"",""19"",""344352""
""focus"",""19"",""345218""
""blur"",""19"",""348295""
""focus"",""19"",""349008""
","""event"",""trial"",""time""
""blur"",""19"",""275910""
""blur"",""19"",""344352""
""blur"",""19"",""348295""
","""event"",""trial"",""time""
""focus"",""19"",""282188""
""focus"",""19"",""345218""
""focus"",""19"",""349008""
","""event"",""trial"",""time""
""fullscreenenter"",""1"",""5933""
","
","","","932.9000000953674","","","22","16599","1900","&#9752;","elianto","#f73b6a7A"," "," ","1","0","[1784.5]","1","1","","","16599","12","3","3","lose","go","0"
"pit-trial","130","1017226","0.0-16.0","battery-v0.2","","""event"",""trial"",""time""
""fullscreenenter"",""1"",""5933""
""blur"",""19"",""275910""
""focus"",""19"",""282188""
""blur"",""19"",""344352""
""focus"",""19"",""345218""
""blur"",""19"",""348295""
""focus"",""19"",""349008""
","""event"",""trial"",""time""
""blur"",""19"",""275910""
""blur"",""19"",""344352""
""blur"",""19"",""348295""
","""event"",""trial"",""time""
""focus"",""19"",""282188""
""focus"",""19"",""345218""
""focus"",""19"",""349008""
","""event"",""trial"",""time""
""fullscreenenter"",""1"",""5933""
","
","","","-1","","","22","16599","1900","&#9733;","elianto","#3366ff99","-1","-1","1","+10","[]","0","1","","","16599","13","2","2","win","no-go","0"
"pit-trial","131","1021617","0.0-17.0","battery-v0.2","","""event"",""trial"",""time""
""fullscreenenter"",""1"",""5933""
""blur"",""19"",""275910""
""focus"",""19"",""282188""
""blur"",""19"",""344352""
""focus"",""19"",""345218""
""blur"",""19"",""348295""
""focus"",""19"",""349008""
","""event"",""trial"",""time""
""blur"",""19"",""275910""
""blur"",""19"",""344352""
""blur"",""19"",""348295""
","""event"",""trial"",""time""
""focus"",""19"",""282188""
""focus"",""19"",""345218""
""focus"",""19"",""349008""
","""event"",""trial"",""time""
""fullscreenenter"",""1"",""5933""
","
","","","1538.4000000953674","","","22","16599","1900","&#9752;","elianto","#f73b6a7A"," "," ","1","-10","[2388.7999999523163]","1","1","","","16599","14","3","3","lose","go","1"
"pit-trial","132","1025288","0.0-18.0","battery-v0.2","","""event"",""trial"",""time""
""fullscreenenter"",""1"",""5933""
""blur"",""19"",""275910""
""focus"",""19"",""282188""
""blur"",""19"",""344352""
""focus"",""19"",""345218""
""blur"",""19"",""348295""
""focus"",""19"",""349008""
","""event"",""trial"",""time""
""blur"",""19"",""275910""
""blur"",""19"",""344352""
""blur"",""19"",""348295""
","""event"",""trial"",""time""
""focus"",""19"",""282188""
""focus"",""19"",""345218""
""focus"",""19"",""349008""
","""event"",""trial"",""time""
""fullscreenenter"",""1"",""5933""
","
","","","816.7999999523163","","","22","16599","1900","&#9730;","elianto","#3366ff99"," "," ","1","0","[1667.7000000476837]","1","1","","","16599","15","1","1","win","go","1"
"pit-trial","133","1030141","0.0-19.0","battery-v0.2","","""event"",""trial"",""time""
""fullscreenenter"",""1"",""5933""
""blur"",""19"",""275910""
""focus"",""19"",""282188""
""blur"",""19"",""344352""
""focus"",""19"",""345218""
""blur"",""19"",""348295""
""focus"",""19"",""349008""
","""event"",""trial"",""time""
""blur"",""19"",""275910""
""blur"",""19"",""344352""
""blur"",""19"",""348295""
","""event"",""trial"",""time""
""focus"",""19"",""282188""
""focus"",""19"",""345218""
""focus"",""19"",""349008""
","""event"",""trial"",""time""
""fullscreenenter"",""1"",""5933""
","
","","","-1","","","22","16599","1900","&#9728;","elianto","#f73b6a7A","-1","-1","1","0","[]","0","1","","","16599","16","0","4","lose","no-go","0"
"pit-trial","134","1034994","0.0-20.0","battery-v0.2","","""event"",""trial"",""time""
""fullscreenenter"",""1"",""5933""
""blur"",""19"",""275910""
""focus"",""19"",""282188""
""blur"",""19"",""344352""
""focus"",""19"",""345218""
""blur"",""19"",""348295""
""focus"",""19"",""349008""
","""event"",""trial"",""time""
""blur"",""19"",""275910""
""blur"",""19"",""344352""
""blur"",""19"",""348295""
","""event"",""trial"",""time""
""focus"",""19"",""282188""
""focus"",""19"",""345218""
""focus"",""19"",""349008""
","""event"",""trial"",""time""
""fullscreenenter"",""1"",""5933""
","
","","","-1","","","22","16599","1900","&#9728;","elianto","#f73b6a7A","-1","-1","1","-10","[]","0","1","","","16599","17","0","4","lose","no-go","1"
"pit-trial","135","1039415","0.0-21.0","battery-v0.2","","""event"",""trial"",""time""
""fullscreenenter"",""1"",""5933""
""blur"",""19"",""275910""
""focus"",""19"",""282188""
""blur"",""19"",""344352""
""focus"",""19"",""345218""
""blur"",""19"",""348295""
""focus"",""19"",""349008""
","""event"",""trial"",""time""
""blur"",""19"",""275910""
""blur"",""19"",""344352""
""blur"",""19"",""348295""
","""event"",""trial"",""time""
""focus"",""19"",""282188""
""focus"",""19"",""345218""
""focus"",""19"",""349008""
","""event"",""trial"",""time""
""fullscreenenter"",""1"",""5933""
","
","","","1568.3999998569489","","","22","16599","1900","&#9752;","elianto","#f73b6a7A"," "," ","1","-10","[2419.0999999046326]","1","1","","","16599","18","3","3","lose","go","1"
"pit-trial","136","1044268","0.0-22.0","battery-v0.2","","""event"",""trial"",""time""
""fullscreenenter"",""1"",""5933""
""blur"",""19"",""275910""
""focus"",""19"",""282188""
""blur"",""19"",""344352""
""focus"",""19"",""345218""
""blur"",""19"",""348295""
""focus"",""19"",""349008""
","""event"",""trial"",""time""
""blur"",""19"",""275910""
""blur"",""19"",""344352""
""blur"",""19"",""348295""
","""event"",""trial"",""time""
""focus"",""19"",""282188""
""focus"",""19"",""345218""
""focus"",""19"",""349008""
","""event"",""trial"",""time""
""fullscreenenter"",""1"",""5933""
","
","","","-1","","","22","16599","1900","&#9733;","elianto","#3366ff99","-1","-1","1","0","[]","0","1","","","16599","19","2","2","win","no-go","1"
"pit-trial","137","1048200","0.0-23.0","battery-v0.2","","""event"",""trial"",""time""
""fullscreenenter"",""1"",""5933""
""blur"",""19"",""275910""
""focus"",""19"",""282188""
""blur"",""19"",""344352""
""focus"",""19"",""345218""
""blur"",""19"",""348295""
