"trial_type","trial_index","time_elapsed","internal_node_id","task_version","subject_id","interactions","blur_events","focus_events","fullscreenenter_events","fullscreenexit_events","success","view_history","rt","responses","num_errors","age","subject","participantId","rune","rune_set","hex","correct","choice","accuracy","outcome","keys","total_keys","block","practice","value","sub","trial","stimulus","robot","valence","action","sham"
"pavlovia","0","11","0.0-0.0","battery-v0.2","","""event"",""trial"",""time""
""fullscreenenter"",""1"",""1893""
","
","
","""event"",""trial"",""time""
""fullscreenenter"",""1"",""1893""
","
","","","","","","","","","","","","","","","","","","","","","","","","","","",""
"fullscreen","1","2883","0.0-1.0","battery-v0.2","","""event"",""trial"",""time""
""fullscreenenter"",""1"",""1893""
","
","
","""event"",""trial"",""time""
""fullscreenenter"",""1"",""1893""
","
","true","","","","","","","","","","","","","","","","","","","","","","","","","",""
"pit-instructions","2","7494","0.0-2.0-0.0","battery-v0.2","","""event"",""trial"",""time""
""fullscreenenter"",""1"",""1893""
","
","
","""event"",""trial"",""time""
""fullscreenenter"",""1"",""1893""
","
","","[{""page_index"":0,""viewing_time"":4607.600000000006}]","4608","","","","","","","","","","","","","","","","","","","","","","","",""
"pit-comprehension","3","11550","0.0-2.0-1.0-0.0","battery-v0.2","","""event"",""trial"",""time""
""fullscreenenter"",""1"",""1893""
","
","
","""event"",""trial"",""time""
""fullscreenenter"",""1"",""1893""
","
","","","4052.399999999994","[""shark""]","0","21","10974","4837","","","","","","","","","","","","","","","","","","",""
"pit-instructions","4","14440","0.0-2.0-1.0-1.0","battery-v0.2","","""event"",""trial"",""time""
""fullscreenenter"",""1"",""1893""
","
","
","""event"",""trial"",""time""
""fullscreenenter"",""1"",""1893""
","
","","[{""page_index"":0,""viewing_time"":2875.2999999999884}]","2875.600000000006","","","","","","","","","","","","","","","","","","","","","","","",""
"pit-comprehension","5","20739","0.0-2.0-2.0-0.0","battery-v0.2","","""event"",""trial"",""time""
""fullscreenenter"",""1"",""1893""
","
","
","""event"",""trial"",""time""
""fullscreenenter"",""1"",""1893""
","
","","","6291.299999999988","[""tiger""]","0","21","10974","4837","","","","","","","","","","","","","","","","","","",""
"pit-instructions","6","28056","0.0-2.0-2.0-1.0","battery-v0.2","","""event"",""trial"",""time""
""fullscreenenter"",""1"",""1893""
","
","
","""event"",""trial"",""time""
""fullscreenenter"",""1"",""1893""
","
","","[{""page_index"":0,""viewing_time"":7313.399999999994}]","7313.700000000012","","","","","","","","","","","","","","","","","","","","","","","",""
"pit-instructions","7","161110","0.0-2.0-3.0","battery-v0.2","","""event"",""trial"",""time""
""fullscreenenter"",""1"",""1893""
","
","
","""event"",""trial"",""time""
""fullscreenenter"",""1"",""1893""
","
","","[{""page_index"":0,""viewing_time"":11365.300000000017},{""page_index"":1,""viewing_time"":6922.100000000006},{""page_index"":2,""viewing_time"":9110.399999999994},{""page_index"":3,""viewing_time"":10128.899999999994},{""page_index"":4,""viewing_time"":8324.299999999988},{""page_index"":5,""viewing_time"":9220.300000000017},{""page_index"":6,""viewing_time"":11619.800000000017},{""page_index"":7,""viewing_time"":6166.099999999977},{""page_index"":8,""viewing_time"":9355.099999999977},{""page_index"":9,""viewing_time"":11520.100000000035},{""page_index"":10,""viewing_time"":8648.700000000012},{""page_index"":11,""viewing_time"":6489.5},{""page_index"":12,""viewing_time"":14262.699999999953},{""page_index"":13,""viewing_time"":9918.100000000035}]","133052.2","","","","","","","","","","","","","","","","","","","","","","","",""
"pit-trial","8","164587","0.0-2.0-4.0-0.0","battery-v0.2","","""event"",""trial"",""time""
""fullscreenenter"",""1"",""1893""
","
","
","""event"",""trial"",""time""
""fullscreenenter"",""1"",""1893""
","
","","","607.8000000000466","","","21","10974","4837","&#9784;","elianto","#FFFFF080"," "," ","1","&#10004","[1458.4000000000233]","1","0","0","","","","","","","",""
"pit-trial","9","167787","0.0-2.0-4.1-0.1","battery-v0.2","","""event"",""trial"",""time""
""fullscreenenter"",""1"",""1893""
","
","
","""event"",""trial"",""time""
""fullscreenenter"",""1"",""1893""
","
","","","342.5999999999767","","","21","10974","4837","&#9784;","elianto","#FFFFF080"," "," ","1","&#10004","[1193.9000000000233]","1","0","0","","","","","","","",""
"pit-trial","10","171069","0.0-2.0-4.2-0.2","battery-v0.2","","""event"",""trial"",""time""
""fullscreenenter"",""1"",""1893""
","
","
","""event"",""trial"",""time""
""fullscreenenter"",""1"",""1893""
","
","","","423.9000000000233","","","21","10974","4837","&#9784;","elianto","#FFFFF080"," "," ","1","&#10004","[1274.7000000000116]","1","0","0","","","","","","","",""
"pit-trial","11","174313","0.0-2.0-4.3-0.3","battery-v0.2","","""event"",""trial"",""time""
""fullscreenenter"",""1"",""1893""
","
","
","""event"",""trial"",""time""
""fullscreenenter"",""1"",""1893""
","
","","","379.6000000000349","","","21","10974","4837","&#9784;","elianto","#FFFFF080"," "," ","1","&#10004","[1232.2000000000116]","1","0","0","","","","","","","",""
"pit-trial","12","177568","0.0-2.0-4.4-0.4","battery-v0.2","","""event"",""trial"",""time""
""fullscreenenter"",""1"",""1893""
","
","
","""event"",""trial"",""time""
""fullscreenenter"",""1"",""1893""
","
","","","387.5","","","21","10974","4837","&#9784;","elianto","#FFFFF080"," "," ","1","&#10004","[1240.2999999999884]","1","0","0","","","","","","","",""
"pit-instructions","13","203715","0.0-2.0-5.0","battery-v0.2","","""event"",""trial"",""time""
""fullscreenenter"",""1"",""1893""
","
","
","""event"",""trial"",""time""
""fullscreenenter"",""1"",""1893""
","
","","[{""page_index"":0,""viewing_time"":9309.099999999977},{""page_index"":1,""viewing_time"":5048.799999999988},{""page_index"":2,""viewing_time"":4283.600000000035},{""page_index"":3,""viewing_time"":7502}]","26143.899999999965","","","","","","","","","","","","","","","","","","","","","","","",""
"pit-trial","14","208589","0.0-2.0-6.0-0.0","battery-v0.2","","""event"",""trial"",""time""
""fullscreenenter"",""1"",""1893""
","
","
","""event"",""trial"",""time""
""fullscreenenter"",""1"",""1893""
","
","","","-1","","","21","10974","4837","&#9854;","elianto","#FFFFF080","-1","-1","1","&#10004","[]","0","0","1","","","","","","","",""
"pit-trial","15","213475","0.0-2.0-6.1-0.1","battery-v0.2","","""event"",""trial"",""time""
""fullscreenenter"",""1"",""1893""
","
","
","""event"",""trial"",""time""
""fullscreenenter"",""1"",""1893""
","
","","","-1","","","21","10974","4837","&#9854;","elianto","#FFFFF080","-1","-1","1","&#10004","[]","0","0","1","","","","","","","",""
"pit-trial","16","218348","0.0-2.0-6.2-0.2","battery-v0.2","","""event"",""trial"",""time""
""fullscreenenter"",""1"",""1893""
","
","
","""event"",""trial"",""time""
""fullscreenenter"",""1"",""1893""
","
","","","-1","","","21","10974","4837","&#9854;","elianto","#FFFFF080","-1","-1","1","&#10004","[]","0","0","1","","","","","","","",""
"pit-trial","17","223209","0.0-2.0-6.3-0.3","battery-v0.2","","""event"",""trial"",""time""
""fullscreenenter"",""1"",""1893""
","
","
","""event"",""trial"",""time""
""fullscreenenter"",""1"",""1893""
","
","","","-1","","","21","10974","4837","&#9854;","elianto","#FFFFF080","-1","-1","1","&#10004","[]","0","0","1","","","","","","","",""
"pit-trial","18","228080","0.0-2.0-6.4-0.4","battery-v0.2","","""event"",""trial"",""time""
""fullscreenenter"",""1"",""1893""
","
","
","""event"",""trial"",""time""
""fullscreenenter"",""1"",""1893""
","
","","","-1","","","21","10974","4837","&#9854;","elianto","#FFFFF080","-1","-1","1","&#10004","[]","0","0","1","","","","","","","",""
"pit-instructions","19","393768","0.0-2.0-7.0","battery-v0.2","","""event"",""trial"",""time""
""fullscreenenter"",""1"",""1893""
","
","
","""event"",""trial"",""time""
""fullscreenenter"",""1"",""1893""
","
","","[{""page_index"":0,""viewing_time"":6270},{""page_index"":1,""viewing_time"":9332.299999999988},{""page_index"":2,""viewing_time"":6636.799999999988},{""page_index"":3,""viewing_time"":5783.200000000012},{""page_index"":4,""viewing_time"":11354.400000000023},{""page_index"":5,""viewing_time"":9083.299999999988},{""page_index"":6,""viewing_time"":6330.299999999988},{""page_index"":7,""viewing_time"":10914},{""page_index"":8,""viewing_time"":8934.400000000023},{""page_index"":9,""viewing_time"":10170.699999999953},{""page_index"":10,""viewing_time"":6268.600000000035},{""page_index"":11,""viewing_time"":8525.200000000012},{""page_index"":12,""viewing_time"":9559.5},{""page_index"":13,""viewing_time"":7037},{""page_index"":14,""viewing_time"":8863.299999999988},{""page_index"":15,""viewing_time"":12406.799999999988},{""page_index"":16,""viewing_time"":10547.300000000047},{""page_index"":17,""viewing_time"":17662.599999999977}]","165680.3","","","","","","","","","","","","","","","","","","","","","","","",""
"pit-trial","20","397147","0.0-2.0-8.0-0.0","battery-v0.2","","""event"",""trial"",""time""
""fullscreenenter"",""1"",""1893""
","
","
","""event"",""trial"",""time""
""fullscreenenter"",""1"",""1893""
","
","","","522.8999999999069","","","21","10974","4837","&#9776;","elianto","#3366ff99"," "," ","1","+10","[1374.5]","1","0","1","","","","","","","",""
"pit-trial","21","400668","0.0-2.0-8.0-1.0","battery-v0.2","","""event"",""trial"",""time""
""fullscreenenter"",""1"",""1893""
","
","
","""event"",""trial"",""time""
""fullscreenenter"",""1"",""1893""
","
","","","653.4000000000233","","","21","10974","4837","&#9776;","elianto","#3366ff99"," "," ","1","+10","[1512.0999999999767]","1","0","1","","","","","","","",""
"pit-trial","22","403880","0.0-2.0-8.0-2.0","battery-v0.2","","""event"",""trial"",""time""
""fullscreenenter"",""1"",""1893""
","
","
","""event"",""trial"",""time""
""fullscreenenter"",""1"",""1893""
","
","","","340.5999999999767","","","21","10974","4837","&#9776;","elianto","#3366ff99"," "," ","1","+10","[1199]","1","0","1","","","","","","","",""
"pit-trial","23","407192","0.0-2.0-8.0-3.0","battery-v0.2","","""event"",""trial"",""time""
""fullscreenenter"",""1"",""1893""
","
","
","""event"",""trial"",""time""
""fullscreenenter"",""1"",""1893""
","
","","","453.80000000004657","","","21","10974","4837","&#9776;","elianto","#3366ff99"," "," ","1","0","[1307.9000000000233]","1","0","1","","","","","","","",""
"pit-trial","24","410449","0.0-2.0-8.0-4.0","battery-v0.2","","""event"",""trial"",""time""
""fullscreenenter"",""1"",""1893""
","
","
","""event"",""trial"",""time""
""fullscreenenter"",""1"",""1893""
","
","","","399.5","","","21","10974","4837","&#9776;","elianto","#3366ff99"," "," ","1","+10","[1250.5999999999767]","1","0","1","","","","","","","",""
"pit-trial","25","413810","0.0-2.0-8.1-0.1","battery-v0.2","","""event"",""trial"",""time""
""fullscreenenter"",""1"",""1893""
","
","
","""event"",""trial"",""time""
""fullscreenenter"",""1"",""1893""
","
","","","505.19999999995343","","","21","10974","4837","&#9776;","elianto","#3366ff99"," "," ","1","+10","[1355.7999999999302]","1","0","1","","","","","","","",""
"pit-trial","26","417086","0.0-2.0-8.1-1.1","battery-v0.2","","""event"",""trial"",""time""
""fullscreenenter"",""1"",""1893""
","
","
","""event"",""trial"",""time""
""fullscreenenter"",""1"",""1893""
","
","","","413.39999999990687","","","21","10974","4837","&#9776;","elianto","#3366ff99"," "," ","1","+10","[1264.7999999999302]","1","0","1","","","","","","","",""
"pit-trial","27","420157","0.0-2.0-8.1-2.1","battery-v0.2","","""event"",""trial"",""time""
""fullscreenenter"",""1"",""1893""
","
","
","""event"",""trial"",""time""
""fullscreenenter"",""1"",""1893""
","
","","","215","","","21","10974","4837","&#9776;","elianto","#3366ff99"," "," ","1","+10","[1067]","1","0","1","","","","","","","",""
"pit-trial","28","423185","0.0-2.0-8.1-3.1","battery-v0.2","","""event"",""trial"",""time""
""fullscreenenter"",""1"",""1893""
","
","
","""event"",""trial"",""time""
""fullscreenenter"",""1"",""1893""
","
","","","171.30000000004657","","","21","10974","4837","&#9776;","elianto","#3366ff99"," "," ","1","0","[1023.1000000000931]","1","0","1","","","","","","","",""
"pit-trial","29","426414","0.0-2.0-8.1-4.1","battery-v0.2","","""event"",""trial"",""time""
""fullscreenenter"",""1"",""1893""
","
","
","""event"",""trial"",""time""
""fullscreenenter"",""1"",""1893""
","
","","","367.20000000006985","","","21","10974","4837","&#9776;","elianto","#3366ff99"," "," ","1","+10","[1217.2000000000698]","1","0","1","","","","","","","",""
"pit-trial","30","429537","0.0-2.0-8.2-0.2","battery-v0.2","","""event"",""trial"",""time""
""fullscreenenter"",""1"",""1893""
","
","
","""event"",""trial"",""time""
""fullscreenenter"",""1"",""1893""
","
","","","265.30000000004657","","","21","10974","4837","&#9776;","elianto","#3366ff99"," "," ","1","+10","[1117]","1","0","1","","","","","","","",""
"pit-trial","31","432486","0.0-2.0-8.2-1.2","battery-v0.2","","""event"",""trial"",""time""
""fullscreenenter"",""1"",""1893""
","
","
","""event"",""trial"",""time""
""fullscreenenter"",""1"",""1893""
","
","","","87.30000000004657","","","21","10974","4837","&#9776;","elianto","#3366ff99"," "," ","1","+10","[939.3999999999069]","1","0","1","","","","","","","",""
"pit-trial","32","435556","0.0-2.0-8.2-2.2","battery-v0.2","","""event"",""trial"",""time""
""fullscreenenter"",""1"",""1893""
","
","
","""event"",""trial"",""time""
""fullscreenenter"",""1"",""1893""
","
","","","206.69999999995343","","","21","10974","4837","&#9776;","elianto","#3366ff99"," "," ","1","+10","[1057.0999999999767]","1","0","1","","","","","","","",""
"pit-trial","33","438853","0.0-2.0-8.2-3.2","battery-v0.2","","""event"",""trial"",""time""
""fullscreenenter"",""1"",""1893""
","
","
","""event"",""trial"",""time""
""fullscreenenter"",""1"",""1893""
","
","","","437","","","21","10974","4837","&#9776;","elianto","#3366ff99"," "," ","1","0","[1288.5999999999767]","1","0","1","","","","","","","",""
"pit-trial","34","442254","0.0-2.0-8.2-4.2","battery-v0.2","","""event"",""trial"",""time""
""fullscreenenter"",""1"",""1893""
","
","
","""event"",""trial"",""time""
""fullscreenenter"",""1"",""1893""
","
","","","538.3000000000466","","","21","10974","4837","&#9776;","elianto","#3366ff99"," "," ","1","+10","[1389.3000000000466]","1","0","1","","","","","","","",""
"call-function","35","442256","0.0-2.0-9.0","battery-v0.2","","""event"",""trial"",""time""
""fullscreenenter"",""1"",""1893""
","
","
","""event"",""trial"",""time""
""fullscreenenter"",""1"",""1893""
","
","","","","","","","","","","","","","","","","","","","","","","","","","","",""
"pit-instructions","36","494764","0.0-2.0-10.0","battery-v0.2","","""event"",""trial"",""time""
""fullscreenenter"",""1"",""1893""
","
","
","""event"",""trial"",""time""
""fullscreenenter"",""1"",""1893""
","
","","[{""page_index"":0,""viewing_time"":8852.400000000023},{""page_index"":1,""viewing_time"":9384.599999999977},{""page_index"":2,""viewing_time"":16115.70000000007},{""page_index"":3,""viewing_time"":9239.199999999953},{""page_index"":4,""viewing_time"":8914.900000000023}]","52507.20000000007","","","","","","","","","","","","","","","","","","","","","","","",""
"pit-trial","37","498384","0.0-2.0-11.0-0.0","battery-v0.2","","""event"",""trial"",""time""
""fullscreenenter"",""1"",""1893""
","
","
","""event"",""trial"",""time""
""fullscreenenter"",""1"",""1893""
","
","","","760.1999999999534","","","21","10974","4837","&#9761;","elianto","#3366ff99","-1"," ","0","0","[1611.9000000000233]","1","0","2","","","","","","","",""
"pit-trial","38","501835","0.0-2.0-11.0-1.0","battery-v0.2","","""event"",""trial"",""time""
""fullscreenenter"",""1"",""1893""
","
","
","""event"",""trial"",""time""
""fullscreenenter"",""1"",""1893""
","
","","","590.7000000000698","","","21","10974","4837","&#9761;","elianto","#3366ff99","-1"," ","0","0","[1441.8000000000466]","1","0","2","","","","","","","",""
"pit-trial","39","505512","0.0-2.0-11.0-2.0","battery-v0.2","","""event"",""trial"",""time""
""fullscreenenter"",""1"",""1893""
","
","
","""event"",""trial"",""time""
""fullscreenenter"",""1"",""1893""
","
","","","808.3000000000466","","","21","10974","4837","&#9761;","elianto","#3366ff99","-1"," ","0","0","[1659.3000000000466]","1","0","2","","","","","","","",""
"pit-trial","40","509686","0.0-2.0-11.0-3.0","battery-v0.2","","""event"",""trial"",""time""
""fullscreenenter"",""1"",""1893""
","
","
","""event"",""trial"",""time""
""fullscreenenter"",""1"",""1893""
","
","","","1309.5","","","21","10974","4837","&#9761;","elianto","#3366ff99","-1"," ","0","+10","[2164.5]","1","0","2","","","","","","","",""
"pit-trial","41","513016","0.0-2.0-11.0-4.0","battery-v0.2","","""event"",""trial"",""time""
""fullscreenenter"",""1"",""1893""
","
","
","""event"",""trial"",""time""
""fullscreenenter"",""1"",""1893""
","
","","","475.9000000000233","","","21","10974","4837","&#9761;","elianto","#3366ff99","-1"," ","0","0","[1327.7000000000698]","1","0","2","","","","","","","",""
"pit-trial","42","516135","0.0-2.0-11.1-0.1","battery-v0.2","","""event"",""trial"",""time""
""fullscreenenter"",""1"",""1893""
","
","
","""event"",""trial"",""time""
""fullscreenenter"",""1"",""1893""
","
","","","261.5999999999767","","","21","10974","4837","&#9761;","elianto","#3366ff99","-1"," ","0","0","[1112.1999999999534]","1","0","2","","","","","","","",""
"pit-trial","43","519191","0.0-2.0-11.1-1.1","battery-v0.2","","""event"",""trial"",""time""
""fullscreenenter"",""1"",""1893""
","
","
","""event"",""trial"",""time""
""fullscreenenter"",""1"",""1893""
","
","","","197.09999999997672","","","21","10974","4837","&#9761;","elianto","#3366ff99","-1"," ","0","0","[1047.9000000000233]","1","0","2","","","","","","","",""
"pit-trial","44","522403","0.0-2.0-11.1-2.1","battery-v0.2","","""event"",""trial"",""time""
""fullscreenenter"",""1"",""1893""
","
","
","""event"",""trial"",""time""
""fullscreenenter"",""1"",""1893""
","
","","","354.19999999995343","","","21","10974","4837","&#9761;","elianto","#3366ff99","-1"," ","0","0","[1205]","1","0","2","","","","","","","",""
"pit-trial","45","525904","0.0-2.0-11.1-3.1","battery-v0.2","","""event"",""trial"",""time""
""fullscreenenter"",""1"",""1893""
","
","
","""event"",""trial"",""time""
""fullscreenenter"",""1"",""1893""
","
","","","644.6000000000931","","","21","10974","4837","&#9761;","elianto","#3366ff99","-1"," ","0","+10","[1495.0999999999185]","1","0","2","","","","","","","",""
"pit-trial","46","529065","0.0-2.0-11.1-4.1","battery-v0.2","","""event"",""trial"",""time""
""fullscreenenter"",""1"",""1893""
","
","
","""event"",""trial"",""time""
""fullscreenenter"",""1"",""1893""
","
","","","302.80000000004657","","","21","10974","4837","&#9761;","elianto","#3366ff99","-1"," ","0","0","[1153.7999999998137]","1","0","2","","","","","","","",""
"pit-trial","47","532219","0.0-2.0-11.2-0.2","battery-v0.2","","""event"",""trial"",""time""
""fullscreenenter"",""1"",""1893""
","
","
","""event"",""trial"",""time""
""fullscreenenter"",""1"",""1893""
","
","","","298.70000000018626","","","21","10974","4837","&#9761;","elianto","#3366ff99","-1"," ","0","0","[1150.8000000000466]","1","0","2","","","","","","","",""
"pit-trial","48","535343","0.0-2.0-11.2-1.2","battery-v0.2","","""event"",""trial"",""time""
""fullscreenenter"",""1"",""1893""
","
","
","""event"",""trial"",""time""
""fullscreenenter"",""1"",""1893""
","
","","","269.30000000004657","","","21","10974","4837","&#9761;","elianto","#3366ff99","-1"," ","0","0","[1119.6999999999534]","1","0","2","","","","","","","",""
"pit-trial","49","538566","0.0-2.0-11.2-2.2","battery-v0.2","","""event"",""trial"",""time""
""fullscreenenter"",""1"",""1893""
","
","
","""event"",""trial"",""time""
""fullscreenenter"",""1"",""1893""
","
","","","364.0999999998603","","","21","10974","4837","&#9761;","elianto","#3366ff99","-1"," ","0","0","[1214.3000000000466]","1","0","2","","","","","","","",""
"pit-trial","50","541823","0.0-2.0-11.2-3.2","battery-v0.2","","""event"",""trial"",""time""
""fullscreenenter"",""1"",""1893""
","
","
","""event"",""trial"",""time""
""fullscreenenter"",""1"",""1893""
","
","","","396.10000000009313","","","21","10974","4837","&#9761;","elianto","#3366ff99","-1"," ","0","+10","[1248.8999999999069]","1","0","2","","","","","","","",""
"pit-trial","51","545223","0.0-2.0-11.2-4.2","battery-v0.2","","""event"",""trial"",""time""
""fullscreenenter"",""1"",""1893""
","
","
","""event"",""trial"",""time""
""fullscreenenter"",""1"",""1893""
","
","","","542.4000000001397","","","21","10974","4837","&#9761;","elianto","#3366ff99","-1"," ","0","0","[1393.5]","1","0","2","","","","","","","",""
"pit-trial","52","548465","0.0-2.0-11.3-0.3","battery-v0.2","","""event"",""trial"",""time""
""fullscreenenter"",""1"",""1893""
","
","
","""event"",""trial"",""time""
""fullscreenenter"",""1"",""1893""
","
","","","389.30000000004657","","","21","10974","4837","&#9761;","elianto","#3366ff99","-1"," ","0","0","[248.89999999990687,1239.3999999999069]","2","0","2","","","","","","","",""
"pit-trial","53","551789","0.0-2.0-11.3-1.3","battery-v0.2","","""event"",""trial"",""time""
""fullscreenenter"",""1"",""1893""
","
","
","""event"",""trial"",""time""
""fullscreenenter"",""1"",""1893""
","
","","","465.0999999998603","","","21","10974","4837","&#9761;","elianto","#3366ff99","-1"," ","0","0","[295.69999999995343,1315.6999999999534]","2","0","2","","","","","","","",""
"pit-trial","54","554983","0.0-2.0-11.3-2.3","battery-v0.2","","""event"",""trial"",""time""
""fullscreenenter"",""1"",""1893""
","
","
","""event"",""trial"",""time""
""fullscreenenter"",""1"",""1893""
","
","","","331.10000000009313","","","21","10974","4837","&#9761;","elianto","#3366ff99","-1"," ","0","0","[1182]","1","0","2","","","","","","","",""
"pit-trial","55","558267","0.0-2.0-11.3-3.3","battery-v0.2","","""event"",""trial"",""time""
""fullscreenenter"",""1"",""1893""
","
","
","""event"",""trial"",""time""
""fullscreenenter"",""1"",""1893""
","
","","","428.9000000001397","","","21","10974","4837","&#9761;","elianto","#3366ff99","-1"," ","0","+10","[1279.2000000001863]","1","0","2","","","","","","","",""
"pit-trial","56","561381","0.0-2.0-11.3-4.3","battery-v0.2","","""event"",""trial"",""time""
""fullscreenenter"",""1"",""1893""
","
","
","""event"",""trial"",""time""
""fullscreenenter"",""1"",""1893""
","
","","","258.0999999998603","","","21","10974","4837","&#9761;","elianto","#3366ff99","-1"," ","0","0","[1108.8999999999069]","1","0","2","","","","","","","",""
"call-function","57","561383","0.0-2.0-12.0","battery-v0.2","","""event"",""trial"",""time""
""fullscreenenter"",""1"",""1893""
","
","
","""event"",""trial"",""time""
""fullscreenenter"",""1"",""1893""
","
","","","","","","","","","","","","","","","","","","","","","","","","","","",""
"pit-instructions","58","613073","0.0-2.0-13.0","battery-v0.2","","""event"",""trial"",""time""
""fullscreenenter"",""1"",""1893""
","
","
","""event"",""trial"",""time""
""fullscreenenter"",""1"",""1893""
","
","","[{""page_index"":0,""viewing_time"":8028.800000000047},{""page_index"":1,""viewing_time"":13677.5},{""page_index"":2,""viewing_time"":13252.699999999953},{""page_index"":3,""viewing_time"":10016.40000000014},{""page_index"":4,""viewing_time"":6715.799999999814}]","51691.5","","","","","","","","","","","","","","","","","","","","","","","",""
"pit-trial","59","617945","0.0-2.0-14.0-0.0","battery-v0.2","","""event"",""trial"",""time""
""fullscreenenter"",""1"",""1893""
","
","
","""event"",""trial"",""time""
""fullscreenenter"",""1"",""1893""
","
","","","-1","","","21","10974","4837","&#9826;","elianto","#f73b6a7A","-1","-1","1","0","[]","0","0","3","","","","","","","",""
"pit-trial","60","622822","0.0-2.0-14.0-1.0","battery-v0.2","","""event"",""trial"",""time""
""fullscreenenter"",""1"",""1893""
","
","
","""event"",""trial"",""time""
""fullscreenenter"",""1"",""1893""
","
","","","-1","","","21","10974","4837","&#9826;","elianto","#f73b6a7A","-1","-1","1","0","[]","0","0","3","","","","","","","",""
"pit-trial","61","627703","0.0-2.0-14.0-2.0","battery-v0.2","","""event"",""trial"",""time""
""fullscreenenter"",""1"",""1893""
","
","
","""event"",""trial"",""time""
""fullscreenenter"",""1"",""1893""
","
","","","-1","","","21","10974","4837","&#9826;","elianto","#f73b6a7A","-1","-1","1","0","[]","0","0","3","","","","","","","",""
"pit-trial","62","632572","0.0-2.0-14.0-3.0","battery-v0.2","","""event"",""trial"",""time""
""fullscreenenter"",""1"",""1893""
","
","
","""event"",""trial"",""time""
""fullscreenenter"",""1"",""1893""
","
","","","-1","","","21","10974","4837","&#9826;","elianto","#f73b6a7A","-1","-1","1","-10","[]","0","0","3","","","","","","","",""
"pit-trial","63","637434","0.0-2.0-14.0-4.0","battery-v0.2","","""event"",""trial"",""time""
""fullscreenenter"",""1"",""1893""
","
","
","""event"",""trial"",""time""
""fullscreenenter"",""1"",""1893""
","
","","","-1","","","21","10974","4837","&#9826;","elianto","#f73b6a7A","-1","-1","1","0","[]","0","0","3","","","","","","","",""
"pit-trial","64","642293","0.0-2.0-14.1-0.1","battery-v0.2","","""event"",""trial"",""time""
""fullscreenenter"",""1"",""1893""
","
","
","""event"",""trial"",""time""
""fullscreenenter"",""1"",""1893""
","
","","","-1","","","21","10974","4837","&#9826;","elianto","#f73b6a7A","-1","-1","1","0","[]","0","0","3","","","","","","","",""
"pit-trial","65","647151","0.0-2.0-14.1-1.1","battery-v0.2","","""event"",""trial"",""time""
""fullscreenenter"",""1"",""1893""
","
","
","""event"",""trial"",""time""
""fullscreenenter"",""1"",""1893""
","
","","","-1","","","21","10974","4837","&#9826;","elianto","#f73b6a7A","-1","-1","1","0","[]","0","0","3","","","","","","","",""
"pit-trial","66","652015","0.0-2.0-14.1-2.1","battery-v0.2","","""event"",""trial"",""time""
""fullscreenenter"",""1"",""1893""
","
","
","""event"",""trial"",""time""
""fullscreenenter"",""1"",""1893""
","
","","","-1","","","21","10974","4837","&#9826;","elianto","#f73b6a7A","-1","-1","1","0","[]","0","0","3","","","","","","","",""
"pit-trial","67","656875","0.0-2.0-14.1-3.1","battery-v0.2","","""event"",""trial"",""time""
""fullscreenenter"",""1"",""1893""
","
","
","""event"",""trial"",""time""
""fullscreenenter"",""1"",""1893""
","
","","","-1","","","21","10974","4837","&#9826;","elianto","#f73b6a7A","-1","-1","1","-10","[]","0","0","3","","","","","","","",""
"pit-trial","68","661736","0.0-2.0-14.1-4.1","battery-v0.2","","""event"",""trial"",""time""
""fullscreenenter"",""1"",""1893""
","
","
","""event"",""trial"",""time""
""fullscreenenter"",""1"",""1893""
","
","","","-1","","","21","10974","4837","&#9826;","elianto","#f73b6a7A","-1","-1","1","0","[]","0","0","3","","","","","","","",""
"pit-trial","69","666601","0.0-2.0-14.2-0.2","battery-v0.2","","""event"",""trial"",""time""
""fullscreenenter"",""1"",""1893""
","
","
","""event"",""trial"",""time""
""fullscreenenter"",""1"",""1893""
","
","","","-1","","","21","10974","4837","&#9826;","elianto","#f73b6a7A","-1","-1","1","0","[]","0","0","3","","","","","","","",""
"pit-trial","70","671470","0.0-2.0-14.2-1.2","battery-v0.2","","""event"",""trial"",""time""
""fullscreenenter"",""1"",""1893""
","
","
","""event"",""trial"",""time""
""fullscreenenter"",""1"",""1893""
","
","","","-1","","","21","10974","4837","&#9826;","elianto","#f73b6a7A","-1","-1","1","0","[]","0","0","3","","","","","","","",""
"pit-trial","71","676333","0.0-2.0-14.2-2.2","battery-v0.2","","""event"",""trial"",""time""
""fullscreenenter"",""1"",""1893""
","
","
","""event"",""trial"",""time""
""fullscreenenter"",""1"",""1893""
","
","","","-1","","","21","10974","4837","&#9826;","elianto","#f73b6a7A","-1","-1","1","0","[]","0","0","3","","","","","","","",""
"pit-trial","72","681192","0.0-2.0-14.2-3.2","battery-v0.2","","""event"",""trial"",""time""
""fullscreenenter"",""1"",""1893""
","
","
","""event"",""trial"",""time""
""fullscreenenter"",""1"",""1893""
","
","","","-1","","","21","10974","4837","&#9826;","elianto","#f73b6a7A","-1","-1","1","-10","[]","0","0","3","","","","","","","",""
"pit-trial","73","686049","0.0-2.0-14.2-4.2","battery-v0.2","","""event"",""trial"",""time""
""fullscreenenter"",""1"",""1893""
","
","
","""event"",""trial"",""time""
""fullscreenenter"",""1"",""1893""
","
","","","-1","","","21","10974","4837","&#9826;","elianto","#f73b6a7A","-1","-1","1","0","[]","0","0","3","","","","","","","",""
"pit-trial","74","690919","0.0-2.0-14.3-0.3","battery-v0.2","","""event"",""trial"",""time""
""fullscreenenter"",""1"",""1893""
","
","
","""event"",""trial"",""time""
""fullscreenenter"",""1"",""1893""
","
","","","-1","","","21","10974","4837","&#9826;","elianto","#f73b6a7A","-1","-1","1","0","[]","0","0","3","","","","","","","",""
"pit-trial","75","695797","0.0-2.0-14.3-1.3","battery-v0.2","","""event"",""trial"",""time""
""fullscreenenter"",""1"",""1893""
","
","
","""event"",""trial"",""time""
""fullscreenenter"",""1"",""1893""
","
","","","-1","","","21","10974","4837","&#9826;","elianto","#f73b6a7A","-1","-1","1","0","[]","0","0","3","","","","","","","",""
"pit-trial","76","700668","0.0-2.0-14.3-2.3","battery-v0.2","","""event"",""trial"",""time""
""fullscreenenter"",""1"",""1893""
","
","
","""event"",""trial"",""time""
""fullscreenenter"",""1"",""1893""
","
","","","-1","","","21","10974","4837","&#9826;","elianto","#f73b6a7A","-1","-1","1","0","[]","0","0","3","","","","","","","",""
"pit-trial","77","705557","0.0-2.0-14.3-3.3","battery-v0.2","","""event"",""trial"",""time""
""fullscreenenter"",""1"",""1893""
","
","
","""event"",""trial"",""time""
""fullscreenenter"",""1"",""1893""
","
","","","-1","","","21","10974","4837","&#9826;","elianto","#f73b6a7A","-1","-1","1","-10","[]","0","0","3","","","","","","","",""
"pit-trial","78","710428","0.0-2.0-14.3-4.3","battery-v0.2","","""event"",""trial"",""time""
""fullscreenenter"",""1"",""1893""
","
","
","""event"",""trial"",""time""
""fullscreenenter"",""1"",""1893""
","
","","","-1","","","21","10974","4837","&#9826;","elianto","#f73b6a7A","-1","-1","1","0","[]","0","0","3","","","","","","","",""
"call-function","79","710431","0.0-2.0-15.0","battery-v0.2","","""event"",""trial"",""time""
""fullscreenenter"",""1"",""1893""
","
","
","""event"",""trial"",""time""
""fullscreenenter"",""1"",""1893""
","
","","","","","","","","","","","","","","","","","","","","","","","","","","",""
"pit-instructions","80","760245","0.0-2.0-16.0","battery-v0.2","","""event"",""trial"",""time""
""fullscreenenter"",""1"",""1893""
","
","
","""event"",""trial"",""time""
""fullscreenenter"",""1"",""1893""
","
","","[{""page_index"":0,""viewing_time"":13731.899999999907},{""page_index"":1,""viewing_time"":12086.300000000047},{""page_index"":2,""viewing_time"":13271.199999999953},{""page_index"":3,""viewing_time"":10723.40000000014}]","49813.19999999995","","","","","","","","","","","","","","","","","","","","","","","",""
"pit-trial","81","763764","0.0-2.0-17.0-0.0","battery-v0.2","","""event"",""trial"",""time""
""fullscreenenter"",""1"",""1893""
","
","
","""event"",""trial"",""time""
""fullscreenenter"",""1"",""1893""
","
","","","653.6999999999534","","","21","10974","4837","&#9789;","elianto","#f73b6a7A"," "," ","1","0","[1504]","1","0","4","","","","","","","",""
"pit-trial","82","766971","0.0-2.0-17.0-1.0","battery-v0.2","","""event"",""trial"",""time""
""fullscreenenter"",""1"",""1893""
","
","
","""event"",""trial"",""time""
""fullscreenenter"",""1"",""1893""
","
","","","352.30000000004657","","","21","10974","4837","&#9789;","elianto","#f73b6a7A"," "," ","1","0","[1203.8000000000466]","1","0","4","","","","","","","",""
"pit-trial","83","770027","0.0-2.0-17.0-2.0","battery-v0.2","","""event"",""trial"",""time""
""fullscreenenter"",""1"",""1893""
","
","
","""event"",""trial"",""time""
""fullscreenenter"",""1"",""1893""
","
","","","189.5","","","21","10974","4837","&#9789;","elianto","#f73b6a7A"," "," ","1","0","[1040.1000000000931]","1","0","4","","","","","","","",""
"pit-trial","84","773020","0.0-2.0-17.0-3.0","battery-v0.2","","""event"",""trial"",""time""
""fullscreenenter"",""1"",""1893""
","
","
","""event"",""trial"",""time""
""fullscreenenter"",""1"",""1893""
","
","","","137.39999999990687","","","21","10974","4837","&#9789;","elianto","#f73b6a7A"," "," ","1","-10","[990]","1","0","4","","","","","","","",""
"pit-trial","85","777900","0.0-2.0-17.0-4.0","battery-v0.2","","""event"",""trial"",""time""
""fullscreenenter"",""1"",""1893""
","
","
","""event"",""trial"",""time""
""fullscreenenter"",""1"",""1893""
","
","","","-1","","","21","10974","4837","&#9789;","elianto","#f73b6a7A"," ","-1","0","-10","[]","0","0","4","","","","","","","",""
"pit-trial","86","782772","0.0-2.0-17.1-0.1","battery-v0.2","","""event"",""trial"",""time""
""fullscreenenter"",""1"",""1893""
","
","
","""event"",""trial"",""time""
""fullscreenenter"",""1"",""1893""
","
","","","-1","","","21","10974","4837","&#9789;","elianto","#f73b6a7A"," ","-1","0","-10","[]","0","0","4","","","","","","","",""
"pit-trial","87","787636","0.0-2.0-17.1-1.1","battery-v0.2","","""event"",""trial"",""time""
""fullscreenenter"",""1"",""1893""
","
","
","""event"",""trial"",""time""
""fullscreenenter"",""1"",""1893""
","
","","","-1","","","21","10974","4837","&#9789;","elianto","#f73b6a7A"," ","-1","0","-10","[]","0","0","4","","","","","","","",""
"pit-trial","88","792513","0.0-2.0-17.1-2.1","battery-v0.2","","""event"",""trial"",""time""
""fullscreenenter"",""1"",""1893""
","
","
","""event"",""trial"",""time""
""fullscreenenter"",""1"",""1893""
","
","","","-1","","","21","10974","4837","&#9789;","elianto","#f73b6a7A"," ","-1","0","-10","[]","0","0","4","","","","","","","",""
"pit-trial","89","797373","0.0-2.0-17.1-3.1","battery-v0.2","","""event"",""trial"",""time""
""fullscreenenter"",""1"",""1893""
","
","
","""event"",""trial"",""time""
""fullscreenenter"",""1"",""1893""
","
","","","-1","","","21","10974","4837","&#9789;","elianto","#f73b6a7A"," ","-1","0","0","[]","0","0","4","","","","","","","",""
"pit-trial","90","802236","0.0-2.0-17.1-4.1","battery-v0.2","","""event"",""trial"",""time""
""fullscreenenter"",""1"",""1893""
","
","
","""event"",""trial"",""time""
""fullscreenenter"",""1"",""1893""
","
","","","-1","","","21","10974","4837","&#9789;","elianto","#f73b6a7A"," ","-1","0","-10","[]","0","0","4","","","","","","","",""
"pit-trial","91","807106","0.0-2.0-17.2-0.2","battery-v0.2","","""event"",""trial"",""time""
""fullscreenenter"",""1"",""1893""
","
","
","""event"",""trial"",""time""
""fullscreenenter"",""1"",""1893""
","
","","","-1","","","21","10974","4837","&#9789;","elianto","#f73b6a7A"," ","-1","0","-10","[]","0","0","4","","","","","","","",""
"pit-trial","92","811964","0.0-2.0-17.2-1.2","battery-v0.2","","""event"",""trial"",""time""
""fullscreenenter"",""1"",""1893""
","
","
","""event"",""trial"",""time""
""fullscreenenter"",""1"",""1893""
","
","","","-1","","","21","10974","4837","&#9789;","elianto","#f73b6a7A"," ","-1","0","-10","[]","0","0","4","","","","","","","",""
"pit-trial","93","816835","0.0-2.0-17.2-2.2","battery-v0.2","","""event"",""trial"",""time""
""fullscreenenter"",""1"",""1893""
","
","
","""event"",""trial"",""time""
""fullscreenenter"",""1"",""1893""
","
","","","-1","","","21","10974","4837","&#9789;","elianto","#f73b6a7A"," ","-1","0","-10","[]","0","0","4","","","","","","","",""
"pit-trial","94","821703","0.0-2.0-17.2-3.2","battery-v0.2","","""event"",""trial"",""time""
""fullscreenenter"",""1"",""1893""
","
","
","""event"",""trial"",""time""
""fullscreenenter"",""1"",""1893""
","
","","","-1","","","21","10974","4837","&#9789;","elianto","#f73b6a7A"," ","-1","0","0","[]","0","0","4","","","","","","","",""
"pit-trial","95","826565","0.0-2.0-17.2-4.2","battery-v0.2","","""event"",""trial"",""time""
""fullscreenenter"",""1"",""1893""
","
","
","""event"",""trial"",""time""
""fullscreenenter"",""1"",""1893""
","
","","","-1","","","21","10974","4837","&#9789;","elianto","#f73b6a7A"," ","-1","0","-10","[]","0","0","4","","","","","","","",""
"pit-trial","96","831440","0.0-2.0-17.3-0.3","battery-v0.2","","""event"",""trial"",""time""
""fullscreenenter"",""1"",""1893""
","
","
","""event"",""trial"",""time""
""fullscreenenter"",""1"",""1893""
","
","","","-1","","","21","10974","4837","&#9789;","elianto","#f73b6a7A"," ","-1","0","-10","[]","0","0","4","","","","","","","",""
"pit-trial","97","836318","0.0-2.0-17.3-1.3","battery-v0.2","","""event"",""trial"",""time""
""fullscreenenter"",""1"",""1893""
","
","
","""event"",""trial"",""time""
""fullscreenenter"",""1"",""1893""
","
","","","-1","","","21","10974","4837","&#9789;","elianto","#f73b6a7A"," ","-1","0","-10","[]","0","0","4","","","","","","","",""
"pit-trial","98","841192","0.0-2.0-17.3-2.3","battery-v0.2","","""event"",""trial"",""time""
""fullscreenenter"",""1"",""1893""
","
","
","""event"",""trial"",""time""
""fullscreenenter"",""1"",""1893""
","
","","","-1","","","21","10974","4837","&#9789;","elianto","#f73b6a7A"," ","-1","0","-10","[]","0","0","4","","","","","","","",""
"pit-trial","99","846066","0.0-2.0-17.3-3.3","battery-v0.2","","""event"",""trial"",""time""
""fullscreenenter"",""1"",""1893""
","
","
","""event"",""trial"",""time""
""fullscreenenter"",""1"",""1893""
","
","","","-1","","","21","10974","4837","&#9789;","elianto","#f73b6a7A"," ","-1","0","0","[]","0","0","4","","","","","","","",""
"pit-trial","100","850929","0.0-2.0-17.3-4.3","battery-v0.2","","""event"",""trial"",""time""
""fullscreenenter"",""1"",""1893""
","
","
","""event"",""trial"",""time""
""fullscreenenter"",""1"",""1893""
","
","","","-1","","","21","10974","4837","&#9789;","elianto","#f73b6a7A"," ","-1","0","-10","[]","0","0","4","","","","","","","",""
"call-function","101","850932","0.0-2.0-18.0","battery-v0.2","","""event"",""trial"",""time""
""fullscreenenter"",""1"",""1893""
","
","
","""event"",""trial"",""time""
""fullscreenenter"",""1"",""1893""
","
","","","","","","","","","","","","","","","","","","","","","","","","","","",""
"pit-instructions","102","950933","0.0-2.0-19.0","battery-v0.2","","""event"",""trial"",""time""
""fullscreenenter"",""1"",""1893""
","
","
","""event"",""trial"",""time""
""fullscreenenter"",""1"",""1893""
","
","","[{""page_index"":0,""viewing_time"":22763.800000000047},{""page_index"":1,""viewing_time"":5399.699999999953},{""page_index"":2,""viewing_time"":10375.699999999953},{""page_index"":3,""viewing_time"":10914.5},{""page_index"":4,""viewing_time"":19816.800000000047},{""page_index"":5,""viewing_time"":11227.5},{""page_index"":6,""viewing_time"":5670.199999999953},{""page_index"":7,""viewing_time"":6875.600000000093},{""page_index"":8,""viewing_time"":6954.199999999953}]","99998.5","","","","","","","","","","","","","","","","","","","","","","","",""
"pit-comprehension","103","955647","0.0-2.0-20.0-0.0","battery-v0.2","","""event"",""trial"",""time""
""fullscreenenter"",""1"",""1893""
","
","
","""event"",""trial"",""time""
""fullscreenenter"",""1"",""1893""
","
","","","4708.300000000047","[""SPACE""]","0","21","10974","4837","","","","","","","","","","","","","","","","","","",""
"pit-instructions","104","960968","0.0-2.0-20.0-1.0","battery-v0.2","","""event"",""trial"",""time""
""fullscreenenter"",""1"",""1893""
","
","
","""event"",""trial"",""time""
""fullscreenenter"",""1"",""1893""
","
","","[{""page_index"":0,""viewing_time"":5282}]","5282.5","","","","","","","","","","","","","","","","","","","","","","","",""
"pit-comprehension","105","968336","0.0-2.0-21.0-0.0","battery-v0.2","","""event"",""trial"",""time""
""fullscreenenter"",""1"",""1893""
","
","
","""event"",""trial"",""time""
""fullscreenenter"",""1"",""1893""
","
","","","7362.800000000047","[""10""]","0","21","10974","4837","","","","","","","","","","","","","","","","","","",""
"pit-instructions","106","976168","0.0-2.0-21.0-1.0","battery-v0.2","","""event"",""trial"",""time""
""fullscreenenter"",""1"",""1893""
","
","
","""event"",""trial"",""time""
""fullscreenenter"",""1"",""1893""
","
","","[{""page_index"":0,""viewing_time"":7790.899999999907}]","7791.5","","","","","","","","","","","","","","","","","","","","","","","",""
"pit-comprehension","107","982965","0.0-2.0-22.0-0.0","battery-v0.2","","""event"",""trial"",""time""
""fullscreenenter"",""1"",""1893""
","
","
","""event"",""trial"",""time""
""fullscreenenter"",""1"",""1893""
","
","","","6789.5","[""-10""]","1","21","10974","4837","","","","","","","","","","","","","","","","","","",""
"pit-instructions","108","989391","0.0-2.0-22.0-1.0","battery-v0.2","","""event"",""trial"",""time""
""fullscreenenter"",""1"",""1893""
","
","
","""event"",""trial"",""time""
""fullscreenenter"",""1"",""1893""
","
","","[{""page_index"":0,""viewing_time"":6387.799999999814}]","6388.09999999986","","","","","","","","","","","","","","","","","","","","","","","",""
"pit-instructions","109","994731","0.0-2.0-22.0-2.0-0.0","battery-v0.2","","""event"",""trial"",""time""
""fullscreenenter"",""1"",""1893""
","
","
","""event"",""trial"",""time""
""fullscreenenter"",""1"",""1893""
","
","","[{""page_index"":0,""viewing_time"":5335.299999999814}]","5336.199999999953","","","","","","","","","","","","","","","","","","","","","","","",""
"pit-comprehension","110","1002043","0.0-2.0-22.1-0.1","battery-v0.2","","""event"",""trial"",""time""
""fullscreenenter"",""1"",""1893""
","
","
","""event"",""trial"",""time""
""fullscreenenter"",""1"",""1893""
","
","","","7308.199999999953","[""0""]","0","21","10974","4837","","","","","","","","","","","","","","","","","","",""
"pit-instructions","111","1003885","0.0-2.0-22.1-1.1","battery-v0.2","","""event"",""trial"",""time""
""fullscreenenter"",""1"",""1893""
","
","
","""event"",""trial"",""time""
""fullscreenenter"",""1"",""1893""
","
","","[{""page_index"":0,""viewing_time"":1803.3000000000466}]","1803.6000000000931","","","","","","","","","","","","","","","","","","","","","","","",""
"pit-comprehension","112","1018152","0.0-2.0-23.0-0.0","battery-v0.2","","""event"",""trial"",""time""
""fullscreenenter"",""1"",""1893""
","
","
","""event"",""trial"",""time""
""fullscreenenter"",""1"",""1893""
","
","","","14264.299999999814","[""True""]","0","21","10974","4837","","","","","","","","","","","","","","","","","","",""
"pit-instructions","113","1021917","0.0-2.0-23.0-1.0","battery-v0.2","","""event"",""trial"",""time""
""fullscreenenter"",""1"",""1893""
","
","
","""event"",""trial"",""time""
""fullscreenenter"",""1"",""1893""
","
","","[{""page_index"":0,""viewing_time"":3724.899999999907}]","3725.899999999907","","","","","","","","","","","","","","","","","","","","","","","",""
"pit-comprehension","114","1029717","0.0-2.0-24.0-0.0","battery-v0.2","","""event"",""trial"",""time""
""fullscreenenter"",""1"",""1893""
","
","
","""event"",""trial"",""time""
""fullscreenenter"",""1"",""1893""
","
","","","7796.300000000047","[""True""]","0","21","10974","4837","","","","","","","","","","","","","","","","","","",""
"pit-instructions","115","1031562","0.0-2.0-24.0-1.0","battery-v0.2","","""event"",""trial"",""time""
""fullscreenenter"",""1"",""1893""
","
","
","""event"",""trial"",""time""
""fullscreenenter"",""1"",""1893""
","
","","[{""page_index"":0,""viewing_time"":1803.1000000000931}]","1803.3000000000466","","","","","","","","","","","","","","","","","","","","","","","",""
"pit-comprehension","116","1038257","0.0-2.0-25.0-0.0","battery-v0.2","","""event"",""trial"",""time""
""fullscreenenter"",""1"",""1893""
","
","
","""event"",""trial"",""time""
""fullscreenenter"",""1"",""1893""
","
","","","6690.899999999907","[""True""]","0","21","10974","4837","","","","","","","","","","","","","","","","","","",""
"pit-instructions","117","1040097","0.0-2.0-25.0-1.0","battery-v0.2","","""event"",""trial"",""time""
""fullscreenenter"",""1"",""1893""
","
","
","""event"",""trial"",""time""
""fullscreenenter"",""1"",""1893""
","
","","[{""page_index"":0,""viewing_time"":1800.7999999998137}]","1801.2999999998137","","","","","","","","","","","","","","","","","","","","","","","",""
"pit-comprehension","118","1045372","0.0-2.0-26.0-0.0","battery-v0.2","","""event"",""trial"",""time""
""fullscreenenter"",""1"",""1893""
","
","
","""event"",""trial"",""time""
""fullscreenenter"",""1"",""1893""
","
","","","5270.59999999986","[""True""]","1","21","10974","4837","","","","","","","","","","","","","","","","","","",""
"pit-instructions","119","1062195","0.0-2.0-26.0-1.0","battery-v0.2","","""event"",""trial"",""time""
""fullscreenenter"",""1"",""1893""
","
","
","""event"",""trial"",""time""
""fullscreenenter"",""1"",""1893""
","
","","[{""page_index"":0,""viewing_time"":16780.09999999986}]","16780.800000000047","","","","","","","","","","","","","","","","","","","","","","","",""
"pit-instructions","120","1069531","0.0-2.0-26.0-2.0-0.0","battery-v0.2","","""event"",""trial"",""time""
""fullscreenenter"",""1"",""1893""
","
","
","""event"",""trial"",""time""
""fullscreenenter"",""1"",""1893""
","
","","[{""page_index"":0,""viewing_time"":7332.600000000093}]","7332.90000000014","","","","","","","","","","","","","","","","","","","","","","","",""
"pit-comprehension","121","1075547","0.0-2.0-26.1-0.1","battery-v0.2","","""event"",""trial"",""time""
""fullscreenenter"",""1"",""1893""
","
","
","""event"",""trial"",""time""
""fullscreenenter"",""1"",""1893""
","
","","","6011.699999999953","[""False""]","0","21","10974","4837","","","","","","","","","","","","","","","","","","",""
"pit-instructions","122","1078041","0.0-2.0-26.1-1.1","battery-v0.2","","""event"",""trial"",""time""
""fullscreenenter"",""1"",""1893""
","
","
","""event"",""trial"",""time""
""fullscreenenter"",""1"",""1893""
","
","","[{""page_index"":0,""viewing_time"":2454}]","2454.399999999907","","","","","","","","","","","","","","","","","","","","","","","",""
"pit-instructions","123","1095883","0.0-3.0","battery-v0.2","","""event"",""trial"",""time""
""fullscreenenter"",""1"",""1893""
","
","
","""event"",""trial"",""time""
""fullscreenenter"",""1"",""1893""
","
","","[{""page_index"":0,""viewing_time"":4207.5},{""page_index"":1,""viewing_time"":6174.600000000093},{""page_index"":2,""viewing_time"":7456.799999999814}]","17839.399999999907","","","","","","","","","","","","","","","","","","","","","","","",""
"pit-trial","124","1099967","0.0-4.0","battery-v0.2","","""event"",""trial"",""time""
""fullscreenenter"",""1"",""1893""
","
","
","""event"",""trial"",""time""
""fullscreenenter"",""1"",""1893""
","
","","","1213.6999999999534","","","21","10974","4837","&#9752;","elianto","#f73b6a7A"," "," ","1","0","[2066.8000000000466]","1","1","","","10974","1","3","3","lose","go","0"
"pit-trial","125","1103607","0.0-5.0","battery-v0.2","","""event"",""trial"",""time""
""fullscreenenter"",""1"",""1893""
","
","
","""event"",""trial"",""time""
""fullscreenenter"",""1"",""1893""
","
","","","774.3999999999069","","","21","10974","4837","&#9730;","elianto","#3366ff99"," "," ","1","+10","[1627.3000000000466]","1","1","","","10974","2","1","1","win","go","0"
"pit-trial","126","1108477","0.0-6.0","battery-v0.2","","""event"",""trial"",""time""
""fullscreenenter"",""1"",""1893""
","
","
","""event"",""trial"",""time""
""fullscreenenter"",""1"",""1893""
","
","","","2004.2000000001863","","","21","10974","4837","&#9728;","elianto","#f73b6a7A","-1"," ","0","-10","[2854.600000000093]","1","1","","","10974","3","0","4","lose","no-go","0"
"pit-trial","127","1112194","0.0-7.0","battery-v0.2","","""event"",""trial"",""time""
""fullscreenenter"",""1"",""1893""
","
","
","""event"",""trial"",""time""
""fullscreenenter"",""1"",""1893""
","
","","","847.5","","","21","10974","4837","&#9733;","elianto","#3366ff99","-1"," ","0","0","[1700.3000000000466]","1","1","","","10974","4","2","2","win","no-go","0"
"pit-trial","128","1116693","0.0-8.0","battery-v0.2","","""event"",""trial"",""time""
""fullscreenenter"",""1"",""1893""
","
","
","""event"",""trial"",""time""
""fullscreenenter"",""1"",""1893""
","
","","","1638.7000000001863","","","21","10974","4837","&#9752;","elianto","#f73b6a7A"," "," ","1","0","[2490.8000000000466]","1","1","","","10974","5","3","3","lose","go","0"
"pit-trial","129","1120752","0.0-9.0","battery-v0.2","","""event"",""trial"",""time""
""fullscreenenter"",""1"",""1893""
","
","
","""event"",""trial"",""time""
""fullscreenenter"",""1"",""1893""
","
","","","1195.8000000000466","","","21","10974","4837","&#9733;","elianto","#3366ff99","-1"," ","0","0","[2047.6999999999534]","1","1","","","10974","6","2","2","win","no-go","0"
"pit-trial","130","1124480","0.0-10.0","battery-v0.2","","""event"",""trial"",""time""
""fullscreenenter"",""1"",""1893""
","
","
","""event"",""trial"",""time""
""fullscreenenter"",""1"",""1893""
","
","","","872","","","21","10974","4837","&#9730;","elianto","#3366ff99"," "," ","1","+10","[1722.6000000000931]","1","1","","","10974","7","1","1","win","go","0"
"pit-trial","131","1129346","0.0-11.0","battery-v0.2","","""event"",""trial"",""time""
""fullscreenenter"",""1"",""1893""
","
","
","""event"",""trial"",""time""
""fullscreenenter"",""1"",""1893""
","
","","","-1","","","21","10974","4837","&#9728;","elianto","#f73b6a7A","-1","-1","1","0","[]","0","1","","","10974","8","0","4","lose","no-go","0"
"pit-trial","132","1134201","0.0-12.0","battery-v0.2","","""event"",""trial"",""time""
""fullscreenenter"",""1"",""1893""
","
","
","""event"",""trial"",""time""
""fullscreenenter"",""1"",""1893""
","
","","","-1","","","21","10974","4837","&#9728;","elianto","#f73b6a7A","-1","-1","1","0","[3019.899999999907]","1","1","","","10974","9","0","4","lose","no-go","0"
"pit-trial","133","1138836","0.0-13.0","battery-v0.2","","""event"",""trial"",""time""
""fullscreenenter"",""1"",""1893""
","
","
","""event"",""trial"",""time""
""fullscreenenter"",""1"",""1893""
","
","","","1774.5","","","21","10974","4837","&#9752;","elianto","#f73b6a7A"," "," ","1","0","[2625.5]","1","1","","","10974","10","3","3","lose","go","0"
"pit-trial","134","1143709","0.0-14.0","battery-v0.2","","""event"",""trial"",""time""
""fullscreenenter"",""1"",""1893""
","
","
","""event"",""trial"",""time""
""fullscreenenter"",""1"",""1893""
","
","","","-1","","","21","10974","4837","&#9733;","elianto","#3366ff99","-1","-1","1","+10","[]","0","1","","","10974","11","2","2","win","no-go","0"
"pit-trial","135","1147463","0.0-15.0","battery-v0.2","","""event"",""trial"",""time""
""fullscreenenter"",""1"",""1893""
","
","
","""event"",""trial"",""time""
""fullscreenenter"",""1"",""1893""
","
","","","891.1999999999534","","","21","10974","4837","&#9730;","elianto","#3366ff99"," "," ","1","+10","[1742.2999999998137]","1","1","","","10974","12","1","1","win","go","0"
"pit-trial","136","1151501","0.0-16.0","battery-v0.2","","""event"",""trial"",""time""
""fullscreenenter"",""1"",""1893""
","
","
","""event"",""trial"",""time""
""fullscreenenter"",""1"",""1893""
","
","","","1178.2999999998137","","","21","10974","4837","&#9752;","elianto","#f73b6a7A"," "," ","1","0","[2030.4000000001397]","1","1","","","10974","13","3","3","lose","go","0"
"pit-trial","137","1155177","0.0-17.0","battery-v0.2","","""event"",""trial"",""time""
""fullscreenenter"",""1"",""1893""
","
","
","""event"",""trial"",""time""
""fullscreenenter"",""1"",""1893""
","
","","","815","","","21","10974","4837","&#9733;","elianto","#3366ff99","-1"," ","0","+10","[1665.8999999999069]","1","1","","","10974","14","2","2","win","no-go","1"
"pit-trial","138","1159081","0.0-18.0","battery-v0.2","","""event"",""trial"",""time""
""fullscreenenter"",""1"",""1893""
","
","
","""event"",""trial"",""time""
""fullscreenenter"",""1"",""1893""
","
","","","1043.1000000000931","","","21","10974","4837","&#9728;","elianto","#f73b6a7A","-1"," ","0","-10","[1893.5]","1","1","","","10974","15","0","4","lose","no-go","0"
"pit-trial","139","1162765","0.0-19.0","battery-v0.2","","""event"",""trial"",""time""
""fullscreenenter"",""1"",""1893""
","
","
","""event"",""trial"",""time""
""fullscreenenter"",""1"",""1893""
","
","","","826.3000000000466","","","21","10974","4837","&#9730;","elianto","#3366ff99"," "," ","1","+10","[1679.1999999999534]","1","1","","","10974","16","1","1","win","go","0"
"pit-trial","140","1166251","0.0-20.0","battery-v0.2","","""event"",""trial"",""time""
""fullscreenenter"",""1"",""1893""
","
","
","""event"",""trial"",""time""
""fullscreenenter"",""1"",""1893""
","
","","","613.5999999998603","","","21","10974","4837","&#9730;","elianto","#3366ff99"," "," ","1","0","[1467.8000000000466]","1","1","","","10974","17","1","1","win","go","1"
"pit-trial","141","1171116","0.0-21.0","battery-v0.2","","""event"",""trial"",""time""
""fullscreenenter"",""1"",""1893""
","
","
","""event"",""trial"",""time""
""fullscreenenter"",""1"",""1893""
","
","","","-1","","","21","10974","4837","&#9728;","elianto","#f73b6a7A","-1","-1","1","0","[]","0","1","","","10974","18","0","4","lose","no-go","0"
"pit-trial","142","1175775","0.0-22.0","battery-v0.2","","""event"",""trial"",""time""
""fullscreenenter"",""1"",""1893""
","
","
","""event"",""trial"",""time""
""fullscreenenter"",""1"",""1893""
","
","","","1797.1999999999534","","","21","10974","4837","&#9752;","elianto","#f73b6a7A"," "," ","1","0","[2647.5]","1","1","","","10974","19","3","3","lose","go","0"
"pit-trial","143","1179680","0.0-23.0","battery-v0.2","","""event"",""trial"",""time""
""fullscreenenter"",""1"",""1893""
","
","
","""event"",""trial"",""time""
""fullscreenenter"",""1"",""1893""
","
","","","1049.2000000001863","","","21","10974","4837","&#9733;","elianto","#3366ff99","-1"," ","0","0","[1899.8000000000466]","1","1","","","10974","20","2","2","win","no-go","0"
"pit-instructions","144","1196687","0.0-24.0","battery-v0.2","","""event"",""trial"",""time""
""fullscreenenter"",""1"",""1893""
","
","
","""event"",""trial"",""time""
""fullscreenenter"",""1"",""1893""
","
","","[{""page_index"":0,""viewing_time"":9423.300000000047},{""page_index"":1,""viewing_time"":7579.799999999814}]","17003.59999999986","","","","","","","","","","","","","","","","","","","","","","","",""
"pit-trial","145","1201546","0.0-25.0","battery-v0.2","","""event"",""trial"",""time""
""fullscreenenter"",""1"",""1893""
","
","
","""event"",""trial"",""time""
""fullscreenenter"",""1"",""1893""
","
","","","-1","","","21","10974","4837","n","elianto","#f73b6a7A","-1","-1","1","0","[]","0","2","","","10974","21","0","4","lose","no-go","0"
"pit-trial","146","1206426","0.0-26.0","battery-v0.2","","""event"",""trial"",""time""
""fullscreenenter"",""1"",""1893""
","
","
","""event"",""trial"",""time""
""fullscreenenter"",""1"",""1893""
","
","","","-1","","","21","10974","4837","b","elianto","#f73b6a7A"," ","-1","0","-10","[]","0","2","","","10974","22","3","3","lose","go","0"
"pit-trial","147","1210116","0.0-27.0","battery-v0.2","","""event"",""trial"",""time""
""fullscreenenter"",""1"",""1893""
","
","
","""event"",""trial"",""time""
""fullscreenenter"",""1"",""1893""
","
","","","829.3999999999069","","","21","10974","4837","f","elianto","#3366ff99"," "," ","1","+10","[1679.6000000000931]","1","2","","","10974","23","1","1","win","go","0"
"pit-trial","148","1214996","0.0-28.0","battery-v0.2","","""event"",""trial"",""time""
""fullscreenenter"",""1"",""1893""
","
","
","""event"",""trial"",""time""
""fullscreenenter"",""1"",""1893""
","
","","","-1","","","21","10974","4837","t","elianto","#f73b6a7A","-1","-1","1","0","[]","0","2","","","10974","24","2","4","lose","no-go","0"
"pit-trial","149","1218997","0.0-29.0","battery-v0.2","","""event"",""trial"",""time""
""fullscreenenter"",""1"",""1893""
","
","
","""event"",""trial"",""time""
""fullscreenenter"",""1"",""1893""
","
","","","1133.6999999999534","","","21","10974","4837","f","elianto","#3366ff99"," "," ","1","+10","[1988.3000000000466]","1","2","","","10974","25","1","1","win","go","0"
"pit-trial","150","1223869","0.0-30.0","battery-v0.2","","""event"",""trial"",""time""
""fullscreenenter"",""1"",""1893""
","
","
","""event"",""trial"",""time""
""fullscreenenter"",""1"",""1893""
","
","","","-1","","","21","10974","4837","n","elianto","#f73b6a7A","-1","-1","1","0","[]","0","2","","","10974","26","0","4","lose","no-go","0"
"pit-trial","151","1228731","0.0-31.0","battery-v0.2","","""event"",""trial"",""time""
""fullscreenenter"",""1"",""1893""
","
","
","""event"",""trial"",""time""
""fullscreenenter"",""1"",""1893""
","
","","","-1","","","21","10974","4837","t","elianto","#f73b6a7A","-1","-1","1","0","[]","0","2","","","10974","27","2","4","lose","no-go","0"
"pit-trial","152","1232318","0.0-32.0","battery-v0.2","","""event"",""trial"",""time""
""fullscreenenter"",""1"",""1893""
","
","
","""event"",""trial"",""time""
""fullscreenenter"",""1"",""1893""
","
","","","722.6999999999534","","","21","10974","4837","b","elianto","#f73b6a7A"," "," ","1","0","[1573.8000000000466]","1","2","","","10974","28","3","3","lose","go","0"
"pit-trial","153","1237194","0.0-33.0","battery-v0.2","","""event"",""trial"",""time""
""fullscreenenter"",""1"",""1893""
","
","
","""event"",""trial"",""time""
""fullscreenenter"",""1"",""1893""
","
","","","-1","","","21","10974","4837","n","elianto","#f73b6a7A","-1","-1","1","0","[]","0","2","","","10974","29","0","4","lose","no-go","0"
"pit-trial","154","1242058","0.0-34.0","battery-v0.2","","""event"",""trial"",""time""
""fullscreenenter"",""1"",""1893""
","
","
","""event"",""trial"",""time""
""fullscreenenter"",""1"",""1893""
","
","","","-1","","","21","10974","4837","t","elianto","#f73b6a7A","-1","-1","1","0","[]","0","2","","","10974","30","2","4","lose","no-go","0"
"pit-trial","155","1245669","0.0-35.0","battery-v0.2","","""event"",""trial"",""time""
""fullscreenenter"",""1"",""1893""
","
","
","""event"",""trial"",""time""
""fullscreenenter"",""1"",""1893""
","
","","","749.1000000000931","","","21","10974","4837","b","elianto","#f73b6a7A"," "," ","1","0","[1598.8000000000466]","1","2","","","10974","31","3","3","lose","go","0"
"pit-trial","156","1249131","0.0-36.0","battery-v0.2","","""event"",""trial"",""time""
""fullscreenenter"",""1"",""1893""
","
","
","""event"",""trial"",""time""
""fullscreenenter"",""1"",""1893""
","
","","","603.8999999999069","","","21","10974","4837","f","elianto","#3366ff99"," "," ","1","+10","[1454]","1","2","","","10974","32","1","1","win","go","0"
"pit-trial","157","1253998","0.0-37.0","battery-v0.2","","""event"",""trial"",""time""
""fullscreenenter"",""1"",""1893""
","
","
","""event"",""trial"",""time""
""fullscreenenter"",""1"",""1893""
","
","","","-1","","","21","10974","4837","t","elianto","#f73b6a7A","-1","-1","1","0","[]","0","2","","","10974","33","2","4","lose","no-go","0"
"pit-trial","158","1257643","0.0-38.0","battery-v0.2","","""event"",""trial"",""time""
""fullscreenenter"",""1"",""1893""
","
","
","""event"",""trial"",""time""
""fullscreenenter"",""1"",""1893""
","
","","","790.5","","","21","10974","4837","b","elianto","#f73b6a7A"," "," ","1","0","[1641.2000000001863]","1","2","","","10974","34","3","3","lose","go","0"
"pit-trial","159","1262511","0.0-39.0","battery-v0.2","","""event"",""trial"",""time""
""fullscreenenter"",""1"",""1893""
","
","
","""event"",""trial"",""time""
""fullscreenenter"",""1"",""1893""
","
","","","-1","","","21","10974","4837","n","elianto","#f73b6a7A","-1","-1","1","0","[]","0","2","","","10974","35","0","4","lose","no-go","0"
"pit-trial","160","1266349","0.0-40.0","battery-v0.2","","""event"",""trial"",""time""
""fullscreenenter"",""1"",""1893""
","
","
","""event"",""trial"",""time""
""fullscreenenter"",""1"",""1893""
","
","","","976.8999999999069","","","21","10974","4837","f","elianto","#3366ff99"," "," ","1","+10","[1827.1999999999534]","1","2","","","10974","36","1","1","win","go","0"
"pit-trial","161","1269885","0.0-41.0","battery-v0.2","","""event"",""trial"",""time""
""fullscreenenter"",""1"",""1893""
","
","
","""event"",""trial"",""time""
""fullscreenenter"",""1"",""1893""
","
","","","677.0999999998603","","","21","10974","4837","b","elianto","#f73b6a7A"," "," ","1","0","[1529.6000000000931]","1","2","","","10974","37","3","3","lose","go","0"
"pit-trial","162","1273473","0.0-42.0","battery-v0.2","","""event"",""trial"",""time""
""fullscreenenter"",""1"",""1893""
","
","
","""event"",""trial"",""time""
""fullscreenenter"",""1"",""1893""
","
","","","726.5999999998603","","","21","10974","4837","f","elianto","#3366ff99"," "," ","1","+10","[1578.2999999998137]","1","2","","","10974","38","1","1","win","go","0"
"pit-trial","163","1278351","0.0-43.0","battery-v0.2","","""event"",""trial"",""time""
""fullscreenenter"",""1"",""1893""
","
","
","""event"",""trial"",""time""
""fullscreenenter"",""1"",""1893""
","
","","","-1","","","21","10974","4837","t","elianto","#f73b6a7A","-1","-1","1","0","[]","0","2","","","10974","39","2","4","lose","no-go","0"
"pit-trial","164","1283230","0.0-44.0","battery-v0.2","","""event"",""trial"",""time""
""fullscreenenter"",""1"",""1893""
","
","
","""event"",""trial"",""time""
""fullscreenenter"",""1"",""1893""
","
","","","-1","","","21","10974","4837","n","elianto","#f73b6a7A","-1","-1","1","0","[]","0","2","","","10974","40","0","4","lose","no-go","0"
"pit-trial","165","1286936","0.0-45.0","battery-v0.2","","""event"",""trial"",""time""
""fullscreenenter"",""1"",""1893""
","
","
","""event"",""trial"",""time""
""fullscreenenter"",""1"",""1893""
","
","","","848.5","","","21","10974","4837","b","elianto","#f73b6a7A"," "," ","1","-10","[1700]","1","2","","","10974","41","3","3","lose","go","1"
"pit-trial","166","1290742","0.0-46.0","battery-v0.2","","""event"",""trial"",""time""
""fullscreenenter"",""1"",""1893""
","
","
","""event"",""trial"",""time""
""fullscreenenter"",""1"",""1893""
","
","","","944.1999999999534","","","21","10974","4837","f","elianto","#3366ff99"," "," ","1","+10","[1794.6999999999534]","1","2","","","10974","42","1","1","win","go","0"
"pit-trial","167","1295610","0.0-47.0","battery-v0.2","","""event"",""trial"",""time""
""fullscreenenter"",""1"",""1893""
","
","
","""event"",""trial"",""time""
""fullscreenenter"",""1"",""1893""
","
","","","-1","","","21","10974","4837","t","elianto","#f73b6a7A","-1","-1","1","0","[]","0","2","","","10974","43","2","4","lose","no-go","0"
"pit-trial","168","1300469","0.0-48.0","battery-v0.2","","""event"",""trial"",""time""
""fullscreenenter"",""1"",""1893""
","
","
","""event"",""trial"",""time""
""fullscreenenter"",""1"",""1893""
","
","","","-1","","","21","10974","4837","n","elianto","#f73b6a7A","-1","-1","1","0","[]","0","2","","","10974","44","0","4","lose","no-go","0"
"pit-trial","169","1304171","0.0-49.0","battery-v0.2","","""event"",""trial"",""time""
""fullscreenenter"",""1"",""1893""
","
","
","""event"",""trial"",""time""
""fullscreenenter"",""1"",""1893""
","
","","","844.8000000000466","","","21","10974","4837","b","elianto","#f73b6a7A"," "," ","1","0","[1695.2999999998137]","1","2","","","10974","45","3","3","lose","go","0"
"pit-trial","170","1309040","0.0-50.0","battery-v0.2","","""event"",""trial"",""time""
""fullscreenenter"",""1"",""1893""
","
","
","""event"",""trial"",""time""
""fullscreenenter"",""1"",""1893""
","
","","","-1","","","21","10974","4837","t","elianto","#f73b6a7A","-1","-1","1","0","[]","0","2","","","10974","46","2","4","lose","no-go","0"
"pit-trial","171","1312711","0.0-51.0","battery-v0.2","","""event"",""trial"",""time""
""fullscreenenter"",""1"",""1893""
","
","
","""event"",""trial"",""time""
""fullscreenenter"",""1"",""1893""
","
","","","806.3999999999069","","","21","10974","4837","c","elianto","#3366ff99","-1"," ","0","0","[1658.8999999999069]","1","2","","","10974","47","4","2","win","no-go","0"
"pit-trial","172","1317573","0.0-52.0","battery-v0.2","","""event"",""trial"",""time""
""fullscreenenter"",""1"",""1893""
","
","
","""event"",""trial"",""time""
""fullscreenenter"",""1"",""1893""
","
","","","-1","","","21","10974","4837","n","elianto","#f73b6a7A","-1","-1","1","0","[]","0","2","","","10974","48","0","4","lose","no-go","0"
"pit-trial","173","1322441","0.0-53.0","battery-v0.2","","""event"",""trial"",""time""
""fullscreenenter"",""1"",""1893""
","
","
","""event"",""trial"",""time""
""fullscreenenter"",""1"",""1893""
","
","","","-1","","","21","10974","4837","c","elianto","#3366ff99","-1","-1","1","+10","[]","0","2","","","10974","49","4","2","win","no-go","0"
"pit-trial","174","1326120","0.0-54.0","battery-v0.2","","""event"",""trial"",""time""
""fullscreenenter"",""1"",""1893""
","
","
","""event"",""trial"",""time""
""fullscreenenter"",""1"",""1893""
","
","","","821","","","21","10974","4837","b","elianto","#f73b6a7A"," "," ","1","0","[1675]","1","2","","","10974","50","3","3","lose","go","0"
"pit-trial","175","1330982","0.0-55.0","battery-v0.2","","""event"",""trial"",""time""
""fullscreenenter"",""1"",""1893""
","
","
","""event"",""trial"",""time""
""fullscreenenter"",""1"",""1893""
","
","","","-1","","","21","10974","4837","n","elianto","#f73b6a7A","-1","-1","1","0","[]","0","2","","","10974","51","0","4","lose","no-go","0"
"pit-trial","176","1334582","0.0-56.0","battery-v0.2","","""event"",""trial"",""time""
""fullscreenenter"",""1"",""1893""
","
","
","""event"",""trial"",""time""
""fullscreenenter"",""1"",""1893""
","
","","","744.7000000001863","","","21","10974","4837","f","elianto","#3366ff99"," "," ","1","+10","[1595.3000000000466]","1","2","","","10974","52","1","1","win","go","0"
"pit-trial","177","1339445","0.0-57.0","battery-v0.2","","""event"",""trial"",""time""
""fullscreenenter"",""1"",""1893""
","
","
","""event"",""trial"",""time""
""fullscreenenter"",""1"",""1893""
","
","","","-1","","","21","10974","4837","n","elianto","#f73b6a7A","-1","-1","1","0","[]","0","2","","","10974","53","0","4","lose","no-go","0"
"pit-trial","178","1344313","0.0-58.0","battery-v0.2","","""event"",""trial"",""time""
""fullscreenenter"",""1"",""1893""
","
","
","""event"",""trial"",""time""
""fullscreenenter"",""1"",""1893""
","
","","","-1","","","21","10974","4837","c","elianto","#3366ff99","-1","-1","1","+10","[]","0","2","","","10974","54","4","2","win","no-go","0"
"pit-trial","179","1348026","0.0-59.0","battery-v0.2","","""event"",""trial"",""time""
""fullscreenenter"",""1"",""1893""
","
","
","""event"",""trial"",""time""
""fullscreenenter"",""1"",""1893""
","
","","","850.3999999999069","","","21","10974","4837","f","elianto","#3366ff99"," "," ","1","+10","[1701.8000000000466]","1","2","","","10974","55","1","1","win","go","0"
"pit-trial","180","1352895","0.0-60.0","battery-v0.2","","""event"",""trial"",""time""
""fullscreenenter"",""1"",""1893""
","
","
","""event"",""trial"",""time""
""fullscreenenter"",""1"",""1893""
","
","","","-1","","","21","10974","4837","t","elianto","#f73b6a7A","-1","-1","1","0","[]","0","2","","","10974","56","2","4","lose","no-go","0"
"pit-trial","181","1356593","0.0-61.0","battery-v0.2","","""event"",""trial"",""time""
""fullscreenenter"",""1"",""1893""
","
","
","""event"",""trial"",""time""
""fullscreenenter"",""1"",""1893""
","
","","","841.6000000000931","","","21","10974","4837","f","elianto","#3366ff99"," "," ","1","+10","[1692.6999999999534]","1","2","","","10974","57","1","1","win","go","0"
"pit-trial","182","1361462","0.0-62.0","battery-v0.2","","""event"",""trial"",""time""
""fullscreenenter"",""1"",""1893""
","
","
","""event"",""trial"",""time""
""fullscreenenter"",""1"",""1893""
","
","","","-1","","","21","10974","4837","n","elianto","#f73b6a7A","-1","-1","1","0","[]","0","2","","","10974","58","0","4","lose","no-go","0"
"pit-trial","183","1366326","0.0-63.0","battery-v0.2","","""event"",""trial"",""time""
""fullscreenenter"",""1"",""1893""
","
","
","""event"",""trial"",""time""
""fullscreenenter"",""1"",""1893""
","
","","","-1","","","21","10974","4837","c","elianto","#3366ff99","-1","-1","1","+10","[]","0","2","","","10974","59","4","2","win","no-go","0"
"pit-trial","184","1370076","0.0-64.0","battery-v0.2","","""event"",""trial"",""time""
""fullscreenenter"",""1"",""1893""
","
","
","""event"",""trial"",""time""
""fullscreenenter"",""1"",""1893""
","
","","","894","","","21","10974","4837","b","elianto","#f73b6a7A"," "," ","1","0","[1745.3999999999069]","1","2","","","10974","60","3","3","lose","go","0"
"pit-trial","185","1374941","0.0-65.0","battery-v0.2","","""event"",""trial"",""time""
""fullscreenenter"",""1"",""1893""
","
","
","""event"",""trial"",""time""
""fullscreenenter"",""1"",""1893""
","
","","","-1","","","21","10974","4837","t","elianto","#f73b6a7A","-1","-1","1","0","[]","0","2","","","10974","61","2","4","lose","no-go","0"
"pit-trial","186","1378647","0.0-66.0","battery-v0.2","","""event"",""trial"",""time""
""fullscreenenter"",""1"",""1893""
","
","
","""event"",""trial"",""time""
""fullscreenenter"",""1"",""1893""
","
","","","848.6999999999534","","","21","10974","4837","f","elianto","#3366ff99"," "," ","1","+10","[1699.2999999998137]","1","2","","","10974","62","1","1","win","go","0"
"pit-trial","187","1383522","0.0-67.0","battery-v0.2","","""event"",""trial"",""time""
""fullscreenenter"",""1"",""1893""
","
","
","""event"",""trial"",""time""
""fullscreenenter"",""1"",""1893""
","
","","","-1","","","21","10974","4837","c","elianto","#3366ff99","-1","-1","1","+10","[]","0","2","","","10974","63","4","2","win","no-go","0"
"pit-trial","188","1388383","0.0-68.0","battery-v0.2","","""event"",""trial"",""time""
""fullscreenenter"",""1"",""1893""
","
","
","""event"",""trial"",""time""
""fullscreenenter"",""1"",""1893""
","
","","","-1","","","21","10974","4837","b","elianto","#f73b6a7A"," ","-1","0","-10","[]","0","2","","","10974","64","3","3","lose","go","0"
"pit-trial","189","1393254","0.0-69.0","battery-v0.2","","""event"",""trial"",""time""
""fullscreenenter"",""1"",""1893""
","
","
","""event"",""trial"",""time""
""fullscreenenter"",""1"",""1893""
","
","","","-1","","","21","10974","4837","t","elianto","#f73b6a7A","-1","-1","1","-10","[]","0","2","","","10974","65","2","4","lose","no-go","1"
"pit-trial","190","1397172","0.0-70.0","battery-v0.2","","""event"",""trial"",""time""
""fullscreenenter"",""1"",""1893""
","
","
","""event"",""trial"",""time""
""fullscreenenter"",""1"",""1893""
","
","","","1055.3999999999069","","","21","10974","4837","f","elianto","#3366ff99"," "," ","1","+10","[1906.8000000000466]","1","2","","","10974","66","1","1","win","go","0"
"pit-trial","191","1400962","0.0-71.0","battery-v0.2","","""event"",""trial"",""time""
""fullscreenenter"",""1"",""1893""
","
","
","""event"",""trial"",""time""
""fullscreenenter"",""1"",""1893""
","
","","","920.9000000001397","","","21","10974","4837","b","elianto","#f73b6a7A"," "," ","1","0","[1780.8999999999069]","1","2","","","10974","67","3","3","lose","go","0"
"pit-trial","192","1405823","0.0-72.0","battery-v0.2","","""event"",""trial"",""time""
""fullscreenenter"",""1"",""1893""
","
","
","""event"",""trial"",""time""
""fullscreenenter"",""1"",""1893""
","
","","","-1","","","21","10974","4837","c","elianto","#3366ff99","-1","-1","1","+10","[]","0","2","","","10974","68","4","2","win","no-go","0"
"pit-trial","193","1409926","0.0-73.0","battery-v0.2","","""event"",""trial"",""time""
""fullscreenenter"",""1"",""1893""
","
","
","""event"",""trial"",""time""
""fullscreenenter"",""1"",""1893""
","
","","","1243","","","21","10974","4837","z","elianto","#3366ff99"," "," ","1","+10","[2093.1999999999534]","1","2","","","10974","69","5","1","win","go","0"
"pit-trial","194","1414199","0.0-74.0","battery-v0.2","","""event"",""trial"",""time""
""fullscreenenter"",""1"",""1893""
","
","
","""event"",""trial"",""time""
""fullscreenenter"",""1"",""1893""
","
","","","1410.8000000000466","","","21","10974","4837","f","elianto","#3366ff99"," "," ","1","0","[2263.8000000000466]","1","2","","","10974","70","1","1","win","go","1"
"pit-trial","195","1419067","0.0-75.0","battery-v0.2","","""event"",""trial"",""time""
""fullscreenenter"",""1"",""1893""
","
","
","""event"",""trial"",""time""
""fullscreenenter"",""1"",""1893""
","
","","","-1","","","21","10974","4837","c","elianto","#3366ff99","-1","-1","1","+10","[]","0","2","","","10974","71","4","2","win","no-go","0"
"pit-trial","196","1423486","0.0-76.0","battery-v0.2","","""event"",""trial"",""time""
""fullscreenenter"",""1"",""1893""
","
","
","""event"",""trial"",""time""
""fullscreenenter"",""1"",""1893""
","
","","","1554.6999999999534","","","21","10974","4837","b","elianto","#f73b6a7A"," "," ","1","0","[2407.5]","1","2","","","10974","72","3","3","lose","go","0"
"pit-trial","197","1427242","0.0-77.0","battery-v0.2","","""event"",""trial"",""time""
""fullscreenenter"",""1"",""1893""
","
","
","""event"",""trial"",""time""
""fullscreenenter"",""1"",""1893""
","
","","","893","","","21","10974","4837","b","elianto","#f73b6a7A"," "," ","1","0","[1746.3000000000466]","1","2","","","10974","73","3","3","lose","go","0"
"pit-trial","198","1430954","0.0-78.0","battery-v0.2","","""event"",""trial"",""time""
""fullscreenenter"",""1"",""1893""
","
","
","""event"",""trial"",""time""
""fullscreenenter"",""1"",""1893""
","
","","","858.7000000001863","","","21","10974","4837","f","elianto","#3366ff99"," "," ","1","+10","[1709.1999999999534]","1","2","","","10974","74","1","1","win","go","0"
"pit-trial","199","1435833","0.0-79.0","battery-v0.2","","""event"",""trial"",""time""
""fullscreenenter"",""1"",""1893""
","
","
","""event"",""trial"",""time""
""fullscreenenter"",""1"",""1893""
","
","","","-1","","","21","10974","4837","c","elianto","#3366ff99","-1","-1","1","+10","[]","0","2","","","10974","75","4","2","win","no-go","0"
"pit-trial","200","1439568","0.0-80.0","battery-v0.2","","""event"",""trial"",""time""
""fullscreenenter"",""1"",""1893""
","
","
","""event"",""trial"",""time""
""fullscreenenter"",""1"",""1893""
","
","","","874","","","21","10974","4837","z","elianto","#3366ff99"," "," ","1","+10","[1724.5]","1","2","","","10974","76","5","1","win","go","0"
"pit-trial","201","1444430","0.0-81.0","battery-v0.2","","""event"",""trial"",""time""
""fullscreenenter"",""1"",""1893""
","
","
","""event"",""trial"",""time""
""fullscreenenter"",""1"",""1893""
","
","","","-1","","","21","10974","4837","h","elianto","#f73b6a7A","-1","-1","1","0","[]","0","2","","","10974","77","6","4","lose","no-go","0"
"pit-trial","202","1447982","0.0-82.0","battery-v0.2","","""event"",""trial"",""time""
""fullscreenenter"",""1"",""1893""
","
","
","""event"",""trial"",""time""
""fullscreenenter"",""1"",""1893""
","
","","","692.5","","","21","10974","4837","c","elianto","#3366ff99","-1"," ","0","0","[1543.3999999999069]","1","2","","","10974","78","4","2","win","no-go","0"
"pit-trial","203","1451569","0.0-83.0","battery-v0.2","","""event"",""trial"",""time""
""fullscreenenter"",""1"",""1893""
","
","
","""event"",""trial"",""time""
""fullscreenenter"",""1"",""1893""
","
","","","726.4000000001397","","","21","10974","4837","z","elianto","#3366ff99"," "," ","1","0","[1577]","1","2","","","10974","79","5","1","win","go","1"
"pit-trial","204","1456026","0.0-84.0","battery-v0.2","","""event"",""trial"",""time""
""fullscreenenter"",""1"",""1893""
","
","
","""event"",""trial"",""time""
""fullscreenenter"",""1"",""1893""
","
","","","1593.3000000000466","","","21","10974","4837","b","elianto","#f73b6a7A"," "," ","1","0","[2446.600000000093]","1","2","","","10974","80","3","3","lose","go","0"
"pit-trial","205","1460592","0.0-85.0","battery-v0.2","","""event"",""trial"",""time""
""fullscreenenter"",""1"",""1893""
","
","
","""event"",""trial"",""time""
""fullscreenenter"",""1"",""1893""
","
","","","1694.1000000000931","","","21","10974","4837","c","elianto","#3366ff99","-1"," ","0","0","[2545.6999999999534]","1","2","","","10974","81","4","2","win","no-go","0"
"pit-trial","206","1465453","0.0-86.0","battery-v0.2","","""event"",""trial"",""time""
""fullscreenenter"",""1"",""1893""
","
","
","""event"",""trial"",""time""
""fullscreenenter"",""1"",""1893""
","
","","","-1","","","21","10974","4837","y","elianto","#f73b6a7A"," ","-1","0","-10","[]","0","2","","","10974","82","7","3","lose","go","0"
"pit-trial","207","1470317","0.0-87.0","battery-v0.2","","""event"",""trial"",""time""
""fullscreenenter"",""1"",""1893""
","
","
","""event"",""trial"",""time""
""fullscreenenter"",""1"",""1893""
","
","","","-1","","","21","10974","4837","z","elianto","#3366ff99"," ","-1","0","+10","[]","0","2","","","10974","83","5","1","win","go","1"
"pit-trial","208","1475179","0.0-88.0","battery-v0.2","","""event"",""trial"",""time""
""fullscreenenter"",""1"",""1893""
","
","
","""event"",""trial"",""time""
""fullscreenenter"",""1"",""1893""
","
","","","-1","","","21","10974","4837","h","elianto","#f73b6a7A","-1","-1","1","-10","[2902.600000000093]","1","2","","","10974","84","6","4","lose","no-go","1"
"pit-trial","209","1479696","0.0-89.0","battery-v0.2","","""event"",""trial"",""time""
""fullscreenenter"",""1"",""1893""
","
","
","""event"",""trial"",""time""
""fullscreenenter"",""1"",""1893""
","
","","","1658.4000000001397","","","21","10974","4837","z","elianto","#3366ff99"," "," ","1","+10","[2508.5]","1","2","","","10974","85","5","1","win","go","0"
"pit-trial","210","1484572","0.0-90.0","battery-v0.2","","""event"",""trial"",""time""
""fullscreenenter"",""1"",""1893""
","
","
","""event"",""trial"",""time""
""fullscreenenter"",""1"",""1893""
","
","","","-1","","","21","10974","4837","c","elianto","#3366ff99","-1","-1","1","+10","[]","0","2","","","10974","86","4","2","win","no-go","0"
"pit-trial","211","1488388","0.0-91.0","battery-v0.2","","""event"",""trial"",""time""
""fullscreenenter"",""1"",""1893""
","
","
","""event"",""trial"",""time""
""fullscreenenter"",""1"",""1893""
","
","","","958.3999999999069","","","21","10974","4837","y","elianto","#f73b6a7A"," "," ","1","0","[1811.3000000000466]","1","2","","","10974","87","7","3","lose","go","0"
"pit-trial","212","1493258","0.0-92.0","battery-v0.2","","""event"",""trial"",""time""
""fullscreenenter"",""1"",""1893""
","
","
","""event"",""trial"",""time""
""fullscreenenter"",""1"",""1893""
","
","","","-1","","","21","10974","4837","h","elianto","#f73b6a7A","-1","-1","1","0","[]","0","2","","","10974","88","6","4","lose","no-go","0"
"pit-trial","213","1498120","0.0-93.0","battery-v0.2","","""event"",""trial"",""time""
""fullscreenenter"",""1"",""1893""
","
","
","""event"",""trial"",""time""
""fullscreenenter"",""1"",""1893""
","
","","","-1","","","21","10974","4837","y","elianto","#f73b6a7A"," ","-1","0","-10","[3520.600000000093]","1","2","","","10974","89","7","3","lose","go","0"
"pit-trial","214","1502488","0.0-94.0","battery-v0.2","","""event"",""trial"",""time""
""fullscreenenter"",""1"",""1893""
","
","
","""event"",""trial"",""time""
""fullscreenenter"",""1"",""1893""
","
","","","1510.1999999999534","","","21","10974","4837","z","elianto","#3366ff99"," "," ","1","0","[2360.5]","1","2","","","10974","90","5","1","win","go","1"
"pit-trial","215","1507368","0.0-95.0","battery-v0.2","","""event"",""trial"",""time""
""fullscreenenter"",""1"",""1893""
","
","
","""event"",""trial"",""time""
""fullscreenenter"",""1"",""1893""
","
","","","-1","","","21","10974","4837","h","elianto","#f73b6a7A","-1","-1","1","-10","[2878.6999999999534]","1","2","","","10974","91","6","4","lose","no-go","1"
"pit-trial","216","1511736","0.0-96.0","battery-v0.2","","""event"",""trial"",""time""
""fullscreenenter"",""1"",""1893""
","
","
","""event"",""trial"",""time""
""fullscreenenter"",""1"",""1893""
","
","","","1502.4000000001397","","","21","10974","4837","c","elianto","#3366ff99","-1"," ","0","+10","[2354.600000000093]","1","2","","","10974","92","4","2","win","no-go","1"
"pit-trial","217","1515737","0.0-97.0","battery-v0.2","","""event"",""trial"",""time""
""fullscreenenter"",""1"",""1893""
","
","
","""event"",""trial"",""time""
""fullscreenenter"",""1"",""1893""
","
","","","1135.0999999998603","","","21","10974","4837","r","elianto","#3366ff99","-1"," ","0","0","[1988.7000000001863]","1","2","","","10974","93","8","2","win","no-go","0"
"pit-trial","218","1520068","0.0-98.0","battery-v0.2","","""event"",""trial"",""time""
""fullscreenenter"",""1"",""1893""
","
","
","""event"",""trial"",""time""
""fullscreenenter"",""1"",""1893""
","
","","","1465.3000000000466","","","21","10974","4837","y","elianto","#f73b6a7A"," "," ","1","0","[2318.5999999998603]","1","2","","","10974","94","7","3","lose","go","0"
"pit-trial","219","1524117","0.0-99.0","battery-v0.2","","""event"",""trial"",""time""
""fullscreenenter"",""1"",""1893""
","
","
","""event"",""trial"",""time""
""fullscreenenter"",""1"",""1893""
","
","","","1178.8999999999069","","","21","10974","4837","z","elianto","#3366ff99"," "," ","1","+10","[2032.1999999999534]","1","2","","","10974","95","5","1","win","go","0"
"pit-trial","220","1528326","0.0-100.0","battery-v0.2","","""event"",""trial"",""time""
""fullscreenenter"",""1"",""1893""
","
","
","""event"",""trial"",""time""
""fullscreenenter"",""1"",""1893""
","
","","","1348.6000000000931","","","21","10974","4837","h","elianto","#f73b6a7A","-1"," ","0","-10","[2198.6999999999534]","1","2","","","10974","96","6","4","lose","no-go","0"
"pit-trial","221","1532467","0.0-101.0","battery-v0.2","","""event"",""trial"",""time""
""fullscreenenter"",""1"",""1893""
","
","
","""event"",""trial"",""time""
""fullscreenenter"",""1"",""1893""
","
","","","1284.2999999998137","","","21","10974","4837","r","elianto","#3366ff99","-1"," ","0","0","[2135.8000000000466]","1","2","","","10974","97","8","2","win","no-go","0"
"pit-trial","222","1536730","0.0-102.0","battery-v0.2","","""event"",""trial"",""time""
""fullscreenenter"",""1"",""1893""
","
","
","""event"",""trial"",""time""
""fullscreenenter"",""1"",""1893""
","
","","","1407","","","21","10974","4837","h","elianto","#f73b6a7A","-1"," ","0","-10","[2257.899999999907]","1","2","","","10974","98","6","4","lose","no-go","0"
"pit-trial","223","1541090","0.0-103.0","battery-v0.2","","""event"",""trial"",""time""
""fullscreenenter"",""1"",""1893""
","
","
","""event"",""trial"",""time""
""fullscreenenter"",""1"",""1893""
","
","","","1491","","","21","10974","4837","y","elianto","#f73b6a7A"," "," ","1","0","[2342.100000000093]","1","2","","","10974","99","7","3","lose","go","0"
"pit-trial","224","1545718","0.0-104.0","battery-v0.2","","""event"",""trial"",""time""
""fullscreenenter"",""1"",""1893""
","
","
","""event"",""trial"",""time""
""fullscreenenter"",""1"",""1893""
","
","","","1764.5","","","21","10974","4837","z","elianto","#3366ff99"," "," ","1","+10","[2617.100000000093]","1","2","","","10974","100","5","1","win","go","0"
"pit-trial","225","1549713","0.0-105.0","battery-v0.2","","""event"",""trial"",""time""
""fullscreenenter"",""1"",""1893""
","
","
","""event"",""trial"",""time""
""fullscreenenter"",""1"",""1893""
","
","","","1133.9000000001397","","","21","10974","4837","m","elianto","#3366ff99","-1"," ","0","0","[1984.3000000000466]","1","2","","","10974","101","9","2","win","no-go","0"
"pit-trial","226","1553627","0.0-106.0","battery-v0.2","","""event"",""trial"",""time""
""fullscreenenter"",""1"",""1893""
","
","
","""event"",""trial"",""time""
""fullscreenenter"",""1"",""1893""
","
","","","1051.9000000001397","","","21","10974","4837","z","elianto","#3366ff99"," "," ","1","+10","[1902.1000000000931]","1","2","","","10974","102","5","1","win","go","0"
"pit-trial","227","1558487","0.0-107.0","battery-v0.2","","""event"",""trial"",""time""
""fullscreenenter"",""1"",""1893""
","
","
","""event"",""trial"",""time""
""fullscreenenter"",""1"",""1893""
","
","","","-1","","","21","10974","4837","r","elianto","#3366ff99","-1","-1","1","+10","[]","0","2","","","10974","103","8","2","win","no-go","0"
"pit-trial","228","1563357","0.0-108.0","battery-v0.2","","""event"",""trial"",""time""
""fullscreenenter"",""1"",""1893""
","
","
","""event"",""trial"",""time""
""fullscreenenter"",""1"",""1893""
","
","","","-1","","","21","10974","4837","h","elianto","#f73b6a7A","-1","-1","1","-10","[]","0","2","","","10974","104","6","4","lose","no-go","1"
"pit-trial","229","1568224","0.0-109.0","battery-v0.2","","""event"",""trial"",""time""
""fullscreenenter"",""1"",""1893""
","
","
","""event"",""trial"",""time""
""fullscreenenter"",""1"",""1893""
","
","","","-1","","","21","10974","4837","r","elianto","#3366ff99","-1","-1","1","+10","[]","0","2","","","10974","105","8","2","win","no-go","0"
"pit-trial","230","1573090","0.0-110.0","battery-v0.2","","""event"",""trial"",""time""
""fullscreenenter"",""1"",""1893""
","
","
","""event"",""trial"",""time""
""fullscreenenter"",""1"",""1893""
","
","","","-1","","","21","10974","4837","h","elianto","#f73b6a7A","-1","-1","1","-10","[]","0","2","","","10974","106","6","4","lose","no-go","1"
"pit-trial","231","1576978","0.0-111.0","battery-v0.2","","""event"",""trial"",""time""
""fullscreenenter"",""1"",""1893""
","
","
","""event"",""trial"",""time""
""fullscreenenter"",""1"",""1893""
","
","","","1029.3999999999069","","","21","10974","4837","m","elianto","#3366ff99","-1"," ","0","0","[1879.6000000000931]","1","2","","","10974","107","9","2","win","no-go","0"
"pit-trial","232","1580669","0.0-112.0","battery-v0.2","","""event"",""trial"",""time""
""fullscreenenter"",""1"",""1893""
","
","
","""event"",""trial"",""time""
""fullscreenenter"",""1"",""1893""
","
","","","829.8000000000466","","","21","10974","4837","z","elianto","#3366ff99"," "," ","1","+10","[1680.2000000001863]","1","2","","","10974","108","5","1","win","go","0"
"pit-trial","233","1585534","0.0-113.0","battery-v0.2","","""event"",""trial"",""time""
""fullscreenenter"",""1"",""1893""
","
","
","""event"",""trial"",""time""
""fullscreenenter"",""1"",""1893""
","
","","","-1","","","21","10974","4837","r","elianto","#3366ff99","-1","-1","1","+10","[]","0","2","","","10974","109","8","2","win","no-go","0"
"pit-trial","234","1589466","0.0-114.0","battery-v0.2","","""event"",""trial"",""time""
""fullscreenenter"",""1"",""1893""
","
","
","""event"",""trial"",""time""
""fullscreenenter"",""1"",""1893""
","
","","","1072.5","","","21","10974","4837","h","elianto","#f73b6a7A","-1"," ","0","-10","[1922.8999999999069]","1","2","","","10974","110","6","4","lose","no-go","0"
"pit-trial","235","1593164","0.0-115.0","battery-v0.2","","""event"",""trial"",""time""
""fullscreenenter"",""1"",""1893""
","
","
","""event"",""trial"",""time""
""fullscreenenter"",""1"",""1893""
","
","","","839.5","","","21","10974","4837","z","elianto","#3366ff99"," "," ","1","+10","[1689.8999999999069]","1","2","","","10974","111","5","1","win","go","0"
"pit-trial","236","1597482","0.0-116.0","battery-v0.2","","""event"",""trial"",""time""
""fullscreenenter"",""1"",""1893""
","
","
","""event"",""trial"",""time""
""fullscreenenter"",""1"",""1893""
","
","","","1460.9000000001397","","","21","10974","4837","m","elianto","#3366ff99","-1"," ","0","0","[2311.5]","1","2","","","10974","112","9","2","win","no-go","0"
"pit-trial","237","1601585","0.0-117.0","battery-v0.2","","""event"",""trial"",""time""
""fullscreenenter"",""1"",""1893""
","
","
","""event"",""trial"",""time""
""fullscreenenter"",""1"",""1893""
","
","","","1237.5","","","21","10974","4837","y","elianto","#f73b6a7A"," "," ","1","0","[2089.9000000001397]","1","2","","","10974","113","7","3","lose","go","0"
"pit-trial","238","1605638","0.0-118.0","battery-v0.2","","""event"",""trial"",""time""
""fullscreenenter"",""1"",""1893""
","
","
","""event"",""trial"",""time""
""fullscreenenter"",""1"",""1893""
","
","","","1186","","","21","10974","4837","z","elianto","#3366ff99"," "," ","1","+10","[2036.5999999998603]","1","2","","","10974","114","5","1","win","go","0"
"pit-trial","239","1610508","0.0-119.0","battery-v0.2","","""event"",""trial"",""time""
""fullscreenenter"",""1"",""1893""
","
","
","""event"",""trial"",""time""
""fullscreenenter"",""1"",""1893""
","
","","","-1","","","21","10974","4837","r","elianto","#3366ff99","-1","-1","1","+10","[]","0","2","","","10974","115","8","2","win","no-go","0"
"pit-trial","240","1615379","0.0-120.0","battery-v0.2","","""event"",""trial"",""time""
""fullscreenenter"",""1"",""1893""
","
","
","""event"",""trial"",""time""
""fullscreenenter"",""1"",""1893""
","
","","","-1","","","21","10974","4837","m","elianto","#3366ff99","-1","-1","1","+10","[]","0","2","","","10974","116","9","2","win","no-go","0"
"pit-trial","241","1620246","0.0-121.0","battery-v0.2","","""event"",""trial"",""time""
""fullscreenenter"",""1"",""1893""
","
","
","""event"",""trial"",""time""
""fullscreenenter"",""1"",""1893""
","
","","","-1","","","21","10974","4837","m","elianto","#3366ff99","-1","-1","1","+10","[]","0","2","","","10974","117","9","2","win","no-go","0"
"pit-trial","242","1625112","0.0-122.0","battery-v0.2","","""event"",""trial"",""time""
""fullscreenenter"",""1"",""1893""
","
","
","""event"",""trial"",""time""
""fullscreenenter"",""1"",""1893""
","
","","","-1","","","21","10974","4837","r","elianto","#3366ff99","-1","-1","1","+10","[]","0","2","","","10974","118","8","2","win","no-go","0"
"pit-trial","243","1629253","0.0-123.0","battery-v0.2","","""event"",""trial"",""time""
""fullscreenenter"",""1"",""1893""
","
","
","""event"",""trial"",""time""
""fullscreenenter"",""1"",""1893""
","
","","","1276","","","21","10974","4837","h","elianto","#f73b6a7A","-1"," ","0","-10","[2128.100000000093]","1","2","","","10974","119","6","4","lose","no-go","0"
"pit-trial","244","1632863","0.0-124.0","battery-v0.2","","""event"",""trial"",""time""
""fullscreenenter"",""1"",""1893""
","
","
","""event"",""trial"",""time""
""fullscreenenter"",""1"",""1893""
","
","","","751.6999999999534","","","21","10974","4837","z","elianto","#3366ff99"," "," ","1","+10","[1602.5]","1","2","","","10974","120","5","1","win","go","0"
"pit-trial","245","1636864","0.0-125.0","battery-v0.2","","""event"",""trial"",""time""
""fullscreenenter"",""1"",""1893""
","
","
","""event"",""trial"",""time""
""fullscreenenter"",""1"",""1893""
","
","","","1146.3000000000466","","","21","10974","4837","z","elianto","#3366ff99"," "," ","1","+10","[1997.5999999998603]","1","2","","","10974","121","5","1","win","go","0"
"pit-trial","246","1640875","0.0-126.0","battery-v0.2","","""event"",""trial"",""time""
""fullscreenenter"",""1"",""1893""
","
","
","""event"",""trial"",""time""
""fullscreenenter"",""1"",""1893""
","
","","","1145.0999999998603","","","21","10974","4837","y","elianto","#f73b6a7A"," "," ","1","0","[1995.5]","1","2","","","10974","122","7","3","lose","go","0"
"pit-trial","247","1645738","0.0-127.0","battery-v0.2","","""event"",""trial"",""time""
""fullscreenenter"",""1"",""1893""
","
","
","""event"",""trial"",""time""
""fullscreenenter"",""1"",""1893""
","
","","","-1","","","21","10974","4837","r","elianto","#3366ff99","-1","-1","1","0","[]","0","2","","","10974","123","8","2","win","no-go","1"
"pit-trial","248","1650606","0.0-128.0","battery-v0.2","","""event"",""trial"",""time""
""fullscreenenter"",""1"",""1893""
","
","
","""event"",""trial"",""time""
""fullscreenenter"",""1"",""1893""
","
","","","-1","","","21","10974","4837","m","elianto","#3366ff99","-1","-1","1","+10","[]","0","2","","","10974","124","9","2","win","no-go","0"
"pit-trial","249","1654589","0.0-129.0","battery-v0.2","","""event"",""trial"",""time""
""fullscreenenter"",""1"",""1893""
","
","
","""event"",""trial"",""time""
""fullscreenenter"",""1"",""1893""
","
","","","1119.1000000000931","","","21","10974","4837","y","elianto","#f73b6a7A"," "," ","1","0","[1971.7000000001863]","1","2","","","10974","125","7","3","lose","go","0"
"pit-trial","250","1659458","0.0-130.0","battery-v0.2","","""event"",""trial"",""time""
""fullscreenenter"",""1"",""1893""
","
","
","""event"",""trial"",""time""
""fullscreenenter"",""1"",""1893""
","
","","","-1","","","21","10974","4837","m","elianto","#3366ff99","-1","-1","1","+10","[]","0","2","","","10974","126","9","2","win","no-go","0"
"pit-trial","251","1664324","0.0-131.0","battery-v0.2","","""event"",""trial"",""time""
""fullscreenenter"",""1"",""1893""
","
","
","""event"",""trial"",""time""
""fullscreenenter"",""1"",""1893""
","
","","","-1","","","21","10974","4837","h","elianto","#f73b6a7A","-1","-1","1","0","[]","0","2","","","10974","127","6","4","lose","no-go","0"
"pit-trial","252","1668117","0.0-132.0","battery-v0.2","","""event"",""trial"",""time""
""fullscreenenter"",""1"",""1893""
","
","
","""event"",""trial"",""time""
""fullscreenenter"",""1"",""1893""
","
","","","939.1999999999534","","","21","10974","4837","r","elianto","#3366ff99","-1"," ","0","0","[1789.3999999999069]","1","2","","","10974","128","8","2","win","no-go","0"
"pit-trial","253","1672983","0.0-133.0","battery-v0.2","","""event"",""trial"",""time""
""fullscreenenter"",""1"",""1893""
","
","
","""event"",""trial"",""time""
""fullscreenenter"",""1"",""1893""
","
","","","-1","","","21","10974","4837","m","elianto","#3366ff99","-1","-1","1","+10","[]","0","2","","","10974","129","9","2","win","no-go","0"
"pit-trial","254","1676876","0.0-134.0","battery-v0.2","","""event"",""trial"",""time""
""fullscreenenter"",""1"",""1893""
","
","
","""event"",""trial"",""time""
""fullscreenenter"",""1"",""1893""
","
","","","1029.3999999999069","","","21","10974","4837","y","elianto","#f73b6a7A"," "," ","1","0","[1881.4000000001397]","1","2","","","10974","130","7","3","lose","go","0"
"pit-trial","255","1681743","0.0-135.0","battery-v0.2","","""event"",""trial"",""time""
""fullscreenenter"",""1"",""1893""
","
","
","""event"",""trial"",""time""
""fullscreenenter"",""1"",""1893""
","
","","","-1","","","21","10974","4837","r","elianto","#3366ff99","-1","-1","1","+10","[]","0","2","","","10974","131","8","2","win","no-go","0"
"pit-trial","256","1686614","0.0-136.0","battery-v0.2","","""event"",""trial"",""time""
""fullscreenenter"",""1"",""1893""
","
","
","""event"",""trial"",""time""
""fullscreenenter"",""1"",""1893""
","
","","","-1","","","21","10974","4837","h","elianto","#f73b6a7A","-1","-1","1","-10","[]","0","2","","","10974","132","6","4","lose","no-go","1"
"pit-trial","257","1691481","0.0-137.0","battery-v0.2","","""event"",""trial"",""time""
""fullscreenenter"",""1"",""1893""
","
","
","""event"",""trial"",""time""
""fullscreenenter"",""1"",""1893""
","
","","","-1","","","21","10974","4837","h","elianto","#f73b6a7A","-1","-1","1","0","[]","0","2","","","10974","133","6","4","lose","no-go","0"
"pit-trial","258","1695746","0.0-138.0","battery-v0.2","","""event"",""trial"",""time""
""fullscreenenter"",""1"",""1893""
","
","
","""event"",""trial"",""time""
""fullscreenenter"",""1"",""1893""
","
","","","1405.5","","","21","10974","4837","r","elianto","#3366ff99","-1"," ","0","0","[2256.7999999998137]","1","2","","","10974","134","8","2","win","no-go","0"
"pit-trial","259","1700603","0.0-139.0","battery-v0.2","","""event"",""trial"",""time""
""fullscreenenter"",""1"",""1893""
","
","
","""event"",""trial"",""time""
""fullscreenenter"",""1"",""1893""
","
","","","-1","","","21","10974","4837","m","elianto","#3366ff99","-1","-1","1","+10","[]","0","2","","","10974","135","9","2","win","no-go","0"
"pit-trial","260","1704500","0.0-140.0","battery-v0.2","","""event"",""trial"",""time""
""fullscreenenter"",""1"",""1893""
","
","
","""event"",""trial"",""time""
""fullscreenenter"",""1"",""1893""
","
","","","1039.8000000000466","","","21","10974","4837","y","elianto","#f73b6a7A"," "," ","1","0","[1891.1999999999534]","1","2","","","10974","136","7","3","lose","go","0"
"pit-trial","261","1709366","0.0-141.0","battery-v0.2","","""event"",""trial"",""time""
""fullscreenenter"",""1"",""1893""
","
","
","""event"",""trial"",""time""
""fullscreenenter"",""1"",""1893""
","
","","","-1","","","21","10974","4837","h","elianto","#f73b6a7A","-1","-1","1","0","[]","0","2","","","10974","137","6","4","lose","no-go","0"
"pit-trial","262","1713242","0.0-142.0","battery-v0.2","","""event"",""trial"",""time""
""fullscreenenter"",""1"",""1893""
","
","
","""event"",""trial"",""time""
""fullscreenenter"",""1"",""1893""
","
","","","1020","","","21","10974","4837","y","elianto","#f73b6a7A"," "," ","1","0","[1870.5]","1","2","","","10974","138","7","3","lose","go","0"
"pit-trial","263","1718106","0.0-143.0","battery-v0.2","","""event"",""trial"",""time""
""fullscreenenter"",""1"",""1893""
","
","
","""event"",""trial"",""time""
""fullscreenenter"",""1"",""1893""
","
","","","-1","","","21","10974","4837","r","elianto","#3366ff99","-1","-1","1","+10","[]","0","2","","","10974","139","8","2","win","no-go","0"
"pit-trial","264","1722975","0.0-144.0","battery-v0.2","","""event"",""trial"",""time""
""fullscreenenter"",""1"",""1893""
","
","
","""event"",""trial"",""time""
""fullscreenenter"",""1"",""1893""
","
","","","-1","","","21","10974","4837","m","elianto","#3366ff99","-1","-1","1","+10","[]","0","2","","","10974","140","9","2","win","no-go","0"
"pit-instructions","265","1956751","0.0-145.0","battery-v0.2","","""event"",""trial"",""time""
""fullscreenenter"",""1"",""1893""
","
","
","""event"",""trial"",""time""
""fullscreenenter"",""1"",""1893""
","
","","[{""page_index"":0,""viewing_time"":46318},{""page_index"":1,""viewing_time"":187453.7000000002}]","233772.5","","","","","","","","","","","","","","","","","","","","","","","",""
"pit-trial","266","1961619","0.0-146.0","battery-v0.2","","""event"",""trial"",""time""
""fullscreenenter"",""1"",""1893""
","
","
","""event"",""trial"",""time""
""fullscreenenter"",""1"",""1893""
","
