"trial_type","trial_index","time_elapsed","internal_node_id","task_version","subject_id","interactions","blur_events","focus_events","fullscreenenter_events","fullscreenexit_events","success","view_history","rt","responses","num_errors","age","subject","participantId","rune","rune_set","hex","correct","choice","accuracy","outcome","keys","total_keys","block","practice","value","sub","trial","stimulus","robot","valence","action","sham"
"pavlovia","0","38","0.0-0.0","battery-v0.2","","""event"",""trial"",""time""
""fullscreenenter"",""1"",""8393""
","
","
","""event"",""trial"",""time""
""fullscreenenter"",""1"",""8393""
","
","","","","","","","","","","","","","","","","","","","","","","","","","","",""
"fullscreen","1","8900","0.0-1.0","battery-v0.2","","""event"",""trial"",""time""
""fullscreenenter"",""1"",""8393""
","
","
","""event"",""trial"",""time""
""fullscreenenter"",""1"",""8393""
","
","true","","","","","","","","","","","","","","","","","","","","","","","","","",""
"pit-instructions","2","71581","0.0-2.0-0.0","battery-v0.2","","""event"",""trial"",""time""
""fullscreenenter"",""1"",""8393""
","
","
","""event"",""trial"",""time""
""fullscreenenter"",""1"",""8393""
","
","","[{""page_index"":0,""viewing_time"":62661}]","62662","","","","","","","","","","","","","","","","","","","","","","","",""
"pit-comprehension","3","89797","0.0-2.0-1.0-0.0","battery-v0.2","","""event"",""trial"",""time""
""fullscreenenter"",""1"",""8393""
","
","
","""event"",""trial"",""time""
""fullscreenenter"",""1"",""8393""
","
","","","18195","[""shark""]","0","10","3780","1416","","","","","","","","","","","","","","","","","","",""
"pit-instructions","4","95467","0.0-2.0-1.0-1.0","battery-v0.2","","""event"",""trial"",""time""
""fullscreenenter"",""1"",""8393""
","
","
","""event"",""trial"",""time""
""fullscreenenter"",""1"",""8393""
","
","","[{""page_index"":0,""viewing_time"":5648}]","5649","","","","","","","","","","","","","","","","","","","","","","","",""
"pit-comprehension","5","99918","0.0-2.0-2.0-0.0","battery-v0.2","","""event"",""trial"",""time""
""fullscreenenter"",""1"",""8393""
","
","
","""event"",""trial"",""time""
""fullscreenenter"",""1"",""8393""
","
","","","4418","[""tiger""]","0","10","3780","1416","","","","","","","","","","","","","","","","","","",""
"pit-instructions","6","101364","0.0-2.0-2.0-1.0","battery-v0.2","","""event"",""trial"",""time""
""fullscreenenter"",""1"",""8393""
","
","
","""event"",""trial"",""time""
""fullscreenenter"",""1"",""8393""
","
","","[{""page_index"":0,""viewing_time"":1427}]","1428","","","","","","","","","","","","","","","","","","","","","","","",""
"pit-instructions","7","286768","0.0-2.0-3.0","battery-v0.2","","""event"",""trial"",""time""
""fullscreenenter"",""1"",""8393""
","
","
","""event"",""trial"",""time""
""fullscreenenter"",""1"",""8393""
","
","","[{""page_index"":0,""viewing_time"":14497},{""page_index"":1,""viewing_time"":8328},{""page_index"":2,""viewing_time"":8276},{""page_index"":3,""viewing_time"":7610},{""page_index"":4,""viewing_time"":9142},{""page_index"":5,""viewing_time"":16425},{""page_index"":6,""viewing_time"":10910},{""page_index"":7,""viewing_time"":8396},{""page_index"":8,""viewing_time"":6946},{""page_index"":9,""viewing_time"":9329},{""page_index"":10,""viewing_time"":5170},{""page_index"":9,""viewing_time"":4937},{""page_index"":10,""viewing_time"":4180},{""page_index"":9,""viewing_time"":707},{""page_index"":10,""viewing_time"":1097},{""page_index"":9,""viewing_time"":1463},{""page_index"":8,""viewing_time"":901},{""page_index"":9,""viewing_time"":1037},{""page_index"":8,""viewing_time"":731},{""page_index"":9,""viewing_time"":1000},{""page_index"":10,""viewing_time"":9316},{""page_index"":9,""viewing_time"":2133},{""page_index"":10,""viewing_time"":767},{""page_index"":9,""viewing_time"":1355},{""page_index"":8,""viewing_time"":1350},{""page_index"":7,""viewing_time"":745},{""page_index"":8,""viewing_time"":1329},{""page_index"":7,""viewing_time"":889},{""page_index"":8,""viewing_time"":697},{""page_index"":7,""viewing_time"":643},{""page_index"":8,""viewing_time"":7109},{""page_index"":9,""viewing_time"":5386},{""page_index"":10,""viewing_time"":8030},{""page_index"":11,""viewing_time"":9284},{""page_index"":12,""viewing_time"":8419},{""page_index"":13,""viewing_time"":6857}]","185392","","","","","","","","","","","","","","","","","","","","","","","",""
"pit-trial","8","290422","0.0-2.0-4.0-0.0","battery-v0.2","","""event"",""trial"",""time""
""fullscreenenter"",""1"",""8393""
","
","
","""event"",""trial"",""time""
""fullscreenenter"",""1"",""8393""
","
","","","796","","","10","3780","1416","&#9784;","elianto","#FFFFF080"," "," ","1","&#10004","[1644]","1","0","0","","","","","","","",""
"pit-trial","9","294376","0.0-2.0-4.1-0.1","battery-v0.2","","""event"",""trial"",""time""
""fullscreenenter"",""1"",""8393""
","
","
","""event"",""trial"",""time""
""fullscreenenter"",""1"",""8393""
","
","","","1093","","","10","3780","1416","&#9784;","elianto","#FFFFF080"," "," ","1","&#10004","[1946]","1","0","0","","","","","","","",""
"pit-trial","10","298284","0.0-2.0-4.2-0.2","battery-v0.2","","""event"",""trial"",""time""
""fullscreenenter"",""1"",""8393""
","
","
","""event"",""trial"",""time""
""fullscreenenter"",""1"",""8393""
","
","","","1044","","","10","3780","1416","&#9784;","elianto","#FFFFF080"," "," ","1","&#10004","[1900]","1","0","0","","","","","","","",""
"pit-trial","11","301897","0.0-2.0-4.3-0.3","battery-v0.2","","""event"",""trial"",""time""
""fullscreenenter"",""1"",""8393""
","
","
","""event"",""trial"",""time""
""fullscreenenter"",""1"",""8393""
","
","","","751","","","10","3780","1416","&#9784;","elianto","#FFFFF080"," "," ","1","&#10004","[1605]","1","0","0","","","","","","","",""
"pit-trial","12","305459","0.0-2.0-4.4-0.4","battery-v0.2","","""event"",""trial"",""time""
""fullscreenenter"",""1"",""8393""
","
","
","""event"",""trial"",""time""
""fullscreenenter"",""1"",""8393""
","
","","","706","","","10","3780","1416","&#9784;","elianto","#FFFFF080"," "," ","1","&#10004","[1556]","1","0","0","","","","","","","",""
"pit-instructions","13","331094","0.0-2.0-5.0","battery-v0.2","","""event"",""trial"",""time""
""fullscreenenter"",""1"",""8393""
","
","
","""event"",""trial"",""time""
""fullscreenenter"",""1"",""8393""
","
","","[{""page_index"":0,""viewing_time"":4922},{""page_index"":1,""viewing_time"":7763},{""page_index"":2,""viewing_time"":6785},{""page_index"":3,""viewing_time"":6155}]","25625","","","","","","","","","","","","","","","","","","","","","","","",""
"pit-trial","14","335951","0.0-2.0-6.0-0.0","battery-v0.2","","""event"",""trial"",""time""
""fullscreenenter"",""1"",""8393""
","
","
","""event"",""trial"",""time""
""fullscreenenter"",""1"",""8393""
","
","","","-1","","","10","3780","1416","&#9854;","elianto","#FFFFF080","-1","-1","1","&#10004","[]","0","0","1","","","","","","","",""
"pit-trial","15","340809","0.0-2.0-6.1-0.1","battery-v0.2","","""event"",""trial"",""time""
""fullscreenenter"",""1"",""8393""
","
","
","""event"",""trial"",""time""
""fullscreenenter"",""1"",""8393""
","
","","","-1","","","10","3780","1416","&#9854;","elianto","#FFFFF080","-1","-1","1","&#10004","[]","0","0","1","","","","","","","",""
"pit-trial","16","345665","0.0-2.0-6.2-0.2","battery-v0.2","","""event"",""trial"",""time""
""fullscreenenter"",""1"",""8393""
","
","
","""event"",""trial"",""time""
""fullscreenenter"",""1"",""8393""
","
","","","-1","","","10","3780","1416","&#9854;","elianto","#FFFFF080","-1","-1","1","&#10004","[]","0","0","1","","","","","","","",""
"pit-trial","17","350523","0.0-2.0-6.3-0.3","battery-v0.2","","""event"",""trial"",""time""
""fullscreenenter"",""1"",""8393""
","
","
","""event"",""trial"",""time""
""fullscreenenter"",""1"",""8393""
","
","","","-1","","","10","3780","1416","&#9854;","elianto","#FFFFF080","-1","-1","1","&#10004","[]","0","0","1","","","","","","","",""
"pit-trial","18","355380","0.0-2.0-6.4-0.4","battery-v0.2","","""event"",""trial"",""time""
""fullscreenenter"",""1"",""8393""
","
","
","""event"",""trial"",""time""
""fullscreenenter"",""1"",""8393""
","
","","","-1","","","10","3780","1416","&#9854;","elianto","#FFFFF080","-1","-1","1","&#10004","[]","0","0","1","","","","","","","",""
"pit-instructions","19","489572","0.0-2.0-7.0","battery-v0.2","","""event"",""trial"",""time""
""fullscreenenter"",""1"",""8393""
""blur"",""20"",""493449""
""focus"",""20"",""493679""
","""event"",""trial"",""time""
""blur"",""20"",""493449""
","""event"",""trial"",""time""
""focus"",""20"",""493679""
","""event"",""trial"",""time""
""fullscreenenter"",""1"",""8393""
","
","","[{""page_index"":0,""viewing_time"":6709},{""page_index"":1,""viewing_time"":8473},{""page_index"":2,""viewing_time"":6423},{""page_index"":3,""viewing_time"":7205},{""page_index"":4,""viewing_time"":6205},{""page_index"":5,""viewing_time"":6424},{""page_index"":6,""viewing_time"":6291},{""page_index"":7,""viewing_time"":8377},{""page_index"":8,""viewing_time"":7070},{""page_index"":9,""viewing_time"":7157},{""page_index"":10,""viewing_time"":8849},{""page_index"":11,""viewing_time"":5927},{""page_index"":12,""viewing_time"":8962},{""page_index"":13,""viewing_time"":8230},{""page_index"":14,""viewing_time"":7866},{""page_index"":15,""viewing_time"":7362},{""page_index"":16,""viewing_time"":6755},{""page_index"":17,""viewing_time"":9896}]","134182","","","","","","","","","","","","","","","","","","","","","","","",""
"pit-trial","20","494431","0.0-2.0-8.0-0.0","battery-v0.2","","""event"",""trial"",""time""
""fullscreenenter"",""1"",""8393""
""blur"",""20"",""493449""
""focus"",""20"",""493679""
","""event"",""trial"",""time""
""blur"",""20"",""493449""
","""event"",""trial"",""time""
""focus"",""20"",""493679""
","""event"",""trial"",""time""
""fullscreenenter"",""1"",""8393""
","
","","","-1","","","10","3780","1416","&#9776;","elianto","#3366ff99"," ","-1","0","0","[]","0","0","1","","","","","","","",""
"pit-trial","21","499286","0.0-2.0-8.0-1.0","battery-v0.2","","""event"",""trial"",""time""
""fullscreenenter"",""1"",""8393""
""blur"",""20"",""493449""
""focus"",""20"",""493679""
","""event"",""trial"",""time""
""blur"",""20"",""493449""
","""event"",""trial"",""time""
""focus"",""20"",""493679""
","""event"",""trial"",""time""
""fullscreenenter"",""1"",""8393""
","
","","","-1","","","10","3780","1416","&#9776;","elianto","#3366ff99"," ","-1","0","0","[]","0","0","1","","","","","","","",""
"pit-trial","22","503146","0.0-2.0-8.0-2.0","battery-v0.2","","""event"",""trial"",""time""
""fullscreenenter"",""1"",""8393""
""blur"",""20"",""493449""
""focus"",""20"",""493679""
","""event"",""trial"",""time""
""blur"",""20"",""493449""
","""event"",""trial"",""time""
""focus"",""20"",""493679""
","""event"",""trial"",""time""
""fullscreenenter"",""1"",""8393""
","
","","","1005","","","10","3780","1416","&#9776;","elianto","#3366ff99"," "," ","1","+10","[1855]","1","0","1","","","","","","","",""
"pit-trial","23","506760","0.0-2.0-8.0-3.0","battery-v0.2","","""event"",""trial"",""time""
""fullscreenenter"",""1"",""8393""
""blur"",""20"",""493449""
""focus"",""20"",""493679""
","""event"",""trial"",""time""
""blur"",""20"",""493449""
","""event"",""trial"",""time""
""focus"",""20"",""493679""
","""event"",""trial"",""time""
""fullscreenenter"",""1"",""8393""
","
","","","759","","","10","3780","1416","&#9776;","elianto","#3366ff99"," "," ","1","0","[1610]","1","0","1","","","","","","","",""
"pit-trial","24","510436","0.0-2.0-8.0-4.0","battery-v0.2","","""event"",""trial"",""time""
""fullscreenenter"",""1"",""8393""
""blur"",""20"",""493449""
""focus"",""20"",""493679""
","""event"",""trial"",""time""
""blur"",""20"",""493449""
","""event"",""trial"",""time""
""focus"",""20"",""493679""
","""event"",""trial"",""time""
""fullscreenenter"",""1"",""8393""
","
","","","815","","","10","3780","1416","&#9776;","elianto","#3366ff99"," "," ","1","+10","[1670]","1","0","1","","","","","","","",""
"pit-trial","25","514048","0.0-2.0-8.1-0.1","battery-v0.2","","""event"",""trial"",""time""
""fullscreenenter"",""1"",""8393""
""blur"",""20"",""493449""
""focus"",""20"",""493679""
","""event"",""trial"",""time""
""blur"",""20"",""493449""
","""event"",""trial"",""time""
""focus"",""20"",""493679""
","""event"",""trial"",""time""
""fullscreenenter"",""1"",""8393""
","
","","","757","","","10","3780","1416","&#9776;","elianto","#3366ff99"," "," ","1","+10","[1606]","1","0","1","","","","","","","",""
"pit-trial","26","517570","0.0-2.0-8.1-1.1","battery-v0.2","","""event"",""trial"",""time""
""fullscreenenter"",""1"",""8393""
""blur"",""20"",""493449""
""focus"",""20"",""493679""
","""event"",""trial"",""time""
""blur"",""20"",""493449""
","""event"",""trial"",""time""
""focus"",""20"",""493679""
","""event"",""trial"",""time""
""fullscreenenter"",""1"",""8393""
","
","","","666","","","10","3780","1416","&#9776;","elianto","#3366ff99"," "," ","1","+10","[1516]","1","0","1","","","","","","","",""
"pit-trial","27","521158","0.0-2.0-8.1-2.1","battery-v0.2","","""event"",""trial"",""time""
""fullscreenenter"",""1"",""8393""
""blur"",""20"",""493449""
""focus"",""20"",""493679""
","""event"",""trial"",""time""
""blur"",""20"",""493449""
","""event"",""trial"",""time""
""focus"",""20"",""493679""
","""event"",""trial"",""time""
""fullscreenenter"",""1"",""8393""
","
","","","724","","","10","3780","1416","&#9776;","elianto","#3366ff99"," "," ","1","+10","[1582]","1","0","1","","","","","","","",""
"pit-trial","28","524562","0.0-2.0-8.1-3.1","battery-v0.2","","""event"",""trial"",""time""
""fullscreenenter"",""1"",""8393""
""blur"",""20"",""493449""
""focus"",""20"",""493679""
","""event"",""trial"",""time""
""blur"",""20"",""493449""
","""event"",""trial"",""time""
""focus"",""20"",""493679""
","""event"",""trial"",""time""
""fullscreenenter"",""1"",""8393""
","
","","","547","","","10","3780","1416","&#9776;","elianto","#3366ff99"," "," ","1","0","[1398]","1","0","1","","","","","","","",""
"pit-trial","29","527995","0.0-2.0-8.1-4.1","battery-v0.2","","""event"",""trial"",""time""
""fullscreenenter"",""1"",""8393""
""blur"",""20"",""493449""
""focus"",""20"",""493679""
","""event"",""trial"",""time""
""blur"",""20"",""493449""
","""event"",""trial"",""time""
""focus"",""20"",""493679""
","""event"",""trial"",""time""
""fullscreenenter"",""1"",""8393""
","
","","","578","","","10","3780","1416","&#9776;","elianto","#3366ff99"," "," ","1","+10","[1429]","1","0","1","","","","","","","",""
"pit-trial","30","531583","0.0-2.0-8.2-0.2","battery-v0.2","","""event"",""trial"",""time""
""fullscreenenter"",""1"",""8393""
""blur"",""20"",""493449""
""focus"",""20"",""493679""
","""event"",""trial"",""time""
""blur"",""20"",""493449""
","""event"",""trial"",""time""
""focus"",""20"",""493679""
","""event"",""trial"",""time""
""fullscreenenter"",""1"",""8393""
","
","","","728","","","10","3780","1416","&#9776;","elianto","#3366ff99"," "," ","1","+10","[1582]","1","0","1","","","","","","","",""
"pit-trial","31","534982","0.0-2.0-8.2-1.2","battery-v0.2","","""event"",""trial"",""time""
""fullscreenenter"",""1"",""8393""
""blur"",""20"",""493449""
""focus"",""20"",""493679""
","""event"",""trial"",""time""
""blur"",""20"",""493449""
","""event"",""trial"",""time""
""focus"",""20"",""493679""
","""event"",""trial"",""time""
""fullscreenenter"",""1"",""8393""
","
","","","541","","","10","3780","1416","&#9776;","elianto","#3366ff99"," "," ","1","+10","[1391]","1","0","1","","","","","","","",""
"pit-trial","32","538418","0.0-2.0-8.2-2.2","battery-v0.2","","""event"",""trial"",""time""
""fullscreenenter"",""1"",""8393""
""blur"",""20"",""493449""
""focus"",""20"",""493679""
","""event"",""trial"",""time""
""blur"",""20"",""493449""
","""event"",""trial"",""time""
""focus"",""20"",""493679""
","""event"",""trial"",""time""
""fullscreenenter"",""1"",""8393""
","
","","","579","","","10","3780","1416","&#9776;","elianto","#3366ff99"," "," ","1","+10","[1431]","1","0","1","","","","","","","",""
"pit-trial","33","541991","0.0-2.0-8.2-3.2","battery-v0.2","","""event"",""trial"",""time""
""fullscreenenter"",""1"",""8393""
""blur"",""20"",""493449""
""focus"",""20"",""493679""
","""event"",""trial"",""time""
""blur"",""20"",""493449""
","""event"",""trial"",""time""
""focus"",""20"",""493679""
","""event"",""trial"",""time""
""fullscreenenter"",""1"",""8393""
","
","","","712","","","10","3780","1416","&#9776;","elianto","#3366ff99"," "," ","1","0","[1567]","1","0","1","","","","","","","",""
"pit-trial","34","545246","0.0-2.0-8.2-4.2","battery-v0.2","","""event"",""trial"",""time""
""fullscreenenter"",""1"",""8393""
""blur"",""20"",""493449""
""focus"",""20"",""493679""
","""event"",""trial"",""time""
""blur"",""20"",""493449""
","""event"",""trial"",""time""
""focus"",""20"",""493679""
","""event"",""trial"",""time""
""fullscreenenter"",""1"",""8393""
","
","","","400","","","10","3780","1416","&#9776;","elianto","#3366ff99"," "," ","1","+10","[1250]","1","0","1","","","","","","","",""
"call-function","35","545250","0.0-2.0-9.0","battery-v0.2","","""event"",""trial"",""time""
""fullscreenenter"",""1"",""8393""
""blur"",""20"",""493449""
""focus"",""20"",""493679""
","""event"",""trial"",""time""
""blur"",""20"",""493449""
","""event"",""trial"",""time""
""focus"",""20"",""493679""
","""event"",""trial"",""time""
""fullscreenenter"",""1"",""8393""
","
","","","","","","","","","","","","","","","","","","","","","","","","","","",""
"pit-instructions","36","600162","0.0-2.0-10.0","battery-v0.2","","""event"",""trial"",""time""
""fullscreenenter"",""1"",""8393""
""blur"",""20"",""493449""
""focus"",""20"",""493679""
","""event"",""trial"",""time""
""blur"",""20"",""493449""
","""event"",""trial"",""time""
""focus"",""20"",""493679""
","""event"",""trial"",""time""
""fullscreenenter"",""1"",""8393""
","
","","[{""page_index"":0,""viewing_time"":17367},{""page_index"":1,""viewing_time"":10830},{""page_index"":2,""viewing_time"":10723},{""page_index"":3,""viewing_time"":8056},{""page_index"":4,""viewing_time"":7933}]","54910","","","","","","","","","","","","","","","","","","","","","","","",""
"pit-trial","37","605022","0.0-2.0-11.0-0.0","battery-v0.2","","""event"",""trial"",""time""
""fullscreenenter"",""1"",""8393""
""blur"",""20"",""493449""
""focus"",""20"",""493679""
","""event"",""trial"",""time""
""blur"",""20"",""493449""
","""event"",""trial"",""time""
""focus"",""20"",""493679""
","""event"",""trial"",""time""
""fullscreenenter"",""1"",""8393""
","
","","","-1","","","10","3780","1416","&#9761;","elianto","#3366ff99","-1","-1","1","+10","[]","0","0","2","","","","","","","",""
"pit-trial","38","609877","0.0-2.0-11.0-1.0","battery-v0.2","","""event"",""trial"",""time""
""fullscreenenter"",""1"",""8393""
""blur"",""20"",""493449""
""focus"",""20"",""493679""
","""event"",""trial"",""time""
""blur"",""20"",""493449""
","""event"",""trial"",""time""
""focus"",""20"",""493679""
","""event"",""trial"",""time""
""fullscreenenter"",""1"",""8393""
","
","","","-1","","","10","3780","1416","&#9761;","elianto","#3366ff99","-1","-1","1","+10","[]","0","0","2","","","","","","","",""
"pit-trial","39","614732","0.0-2.0-11.0-2.0","battery-v0.2","","""event"",""trial"",""time""
""fullscreenenter"",""1"",""8393""
""blur"",""20"",""493449""
""focus"",""20"",""493679""
","""event"",""trial"",""time""
""blur"",""20"",""493449""
","""event"",""trial"",""time""
""focus"",""20"",""493679""
","""event"",""trial"",""time""
""fullscreenenter"",""1"",""8393""
","
","","","-1","","","10","3780","1416","&#9761;","elianto","#3366ff99","-1","-1","1","+10","[]","0","0","2","","","","","","","",""
"pit-trial","40","619588","0.0-2.0-11.0-3.0","battery-v0.2","","""event"",""trial"",""time""
""fullscreenenter"",""1"",""8393""
""blur"",""20"",""493449""
""focus"",""20"",""493679""
","""event"",""trial"",""time""
""blur"",""20"",""493449""
","""event"",""trial"",""time""
""focus"",""20"",""493679""
","""event"",""trial"",""time""
""fullscreenenter"",""1"",""8393""
","
","","","-1","","","10","3780","1416","&#9761;","elianto","#3366ff99","-1","-1","1","0","[]","0","0","2","","","","","","","",""
"pit-trial","41","624445","0.0-2.0-11.0-4.0","battery-v0.2","","""event"",""trial"",""time""
""fullscreenenter"",""1"",""8393""
""blur"",""20"",""493449""
""focus"",""20"",""493679""
","""event"",""trial"",""time""
""blur"",""20"",""493449""
","""event"",""trial"",""time""
""focus"",""20"",""493679""
","""event"",""trial"",""time""
""fullscreenenter"",""1"",""8393""
","
","","","-1","","","10","3780","1416","&#9761;","elianto","#3366ff99","-1","-1","1","+10","[]","0","0","2","","","","","","","",""
"pit-trial","42","629302","0.0-2.0-11.1-0.1","battery-v0.2","","""event"",""trial"",""time""
""fullscreenenter"",""1"",""8393""
""blur"",""20"",""493449""
""focus"",""20"",""493679""
","""event"",""trial"",""time""
""blur"",""20"",""493449""
","""event"",""trial"",""time""
""focus"",""20"",""493679""
","""event"",""trial"",""time""
""fullscreenenter"",""1"",""8393""
","
","","","-1","","","10","3780","1416","&#9761;","elianto","#3366ff99","-1","-1","1","+10","[]","0","0","2","","","","","","","",""
"pit-trial","43","634157","0.0-2.0-11.1-1.1","battery-v0.2","","""event"",""trial"",""time""
""fullscreenenter"",""1"",""8393""
""blur"",""20"",""493449""
""focus"",""20"",""493679""
","""event"",""trial"",""time""
""blur"",""20"",""493449""
","""event"",""trial"",""time""
""focus"",""20"",""493679""
","""event"",""trial"",""time""
""fullscreenenter"",""1"",""8393""
","
","","","-1","","","10","3780","1416","&#9761;","elianto","#3366ff99","-1","-1","1","+10","[]","0","0","2","","","","","","","",""
"pit-trial","44","639012","0.0-2.0-11.1-2.1","battery-v0.2","","""event"",""trial"",""time""
""fullscreenenter"",""1"",""8393""
""blur"",""20"",""493449""
""focus"",""20"",""493679""
","""event"",""trial"",""time""
""blur"",""20"",""493449""
","""event"",""trial"",""time""
""focus"",""20"",""493679""
","""event"",""trial"",""time""
""fullscreenenter"",""1"",""8393""
","
","","","-1","","","10","3780","1416","&#9761;","elianto","#3366ff99","-1","-1","1","+10","[]","0","0","2","","","","","","","",""
"pit-trial","45","643868","0.0-2.0-11.1-3.1","battery-v0.2","","""event"",""trial"",""time""
""fullscreenenter"",""1"",""8393""
""blur"",""20"",""493449""
""focus"",""20"",""493679""
","""event"",""trial"",""time""
""blur"",""20"",""493449""
","""event"",""trial"",""time""
""focus"",""20"",""493679""
","""event"",""trial"",""time""
""fullscreenenter"",""1"",""8393""
","
","","","-1","","","10","3780","1416","&#9761;","elianto","#3366ff99","-1","-1","1","0","[]","0","0","2","","","","","","","",""
"pit-trial","46","648723","0.0-2.0-11.1-4.1","battery-v0.2","","""event"",""trial"",""time""
""fullscreenenter"",""1"",""8393""
""blur"",""20"",""493449""
""focus"",""20"",""493679""
","""event"",""trial"",""time""
""blur"",""20"",""493449""
","""event"",""trial"",""time""
""focus"",""20"",""493679""
","""event"",""trial"",""time""
""fullscreenenter"",""1"",""8393""
","
","","","-1","","","10","3780","1416","&#9761;","elianto","#3366ff99","-1","-1","1","+10","[]","0","0","2","","","","","","","",""
"pit-trial","47","653578","0.0-2.0-11.2-0.2","battery-v0.2","","""event"",""trial"",""time""
""fullscreenenter"",""1"",""8393""
""blur"",""20"",""493449""
""focus"",""20"",""493679""
","""event"",""trial"",""time""
""blur"",""20"",""493449""
","""event"",""trial"",""time""
""focus"",""20"",""493679""
","""event"",""trial"",""time""
""fullscreenenter"",""1"",""8393""
","
","","","-1","","","10","3780","1416","&#9761;","elianto","#3366ff99","-1","-1","1","+10","[]","0","0","2","","","","","","","",""
"pit-trial","48","657479","0.0-2.0-11.2-1.2","battery-v0.2","","""event"",""trial"",""time""
""fullscreenenter"",""1"",""8393""
""blur"",""20"",""493449""
""focus"",""20"",""493679""
","""event"",""trial"",""time""
""blur"",""20"",""493449""
","""event"",""trial"",""time""
""focus"",""20"",""493679""
","""event"",""trial"",""time""
""fullscreenenter"",""1"",""8393""
","
","","","1044","","","10","3780","1416","&#9761;","elianto","#3366ff99","-1"," ","0","0","[1896]","1","0","2","","","","","","","",""
"pit-trial","49","662334","0.0-2.0-11.2-2.2","battery-v0.2","","""event"",""trial"",""time""
""fullscreenenter"",""1"",""8393""
""blur"",""20"",""493449""
""focus"",""20"",""493679""
","""event"",""trial"",""time""
""blur"",""20"",""493449""
","""event"",""trial"",""time""
""focus"",""20"",""493679""
","""event"",""trial"",""time""
""fullscreenenter"",""1"",""8393""
","
","","","-1","","","10","3780","1416","&#9761;","elianto","#3366ff99","-1","-1","1","+10","[]","0","0","2","","","","","","","",""
"pit-trial","50","667189","0.0-2.0-11.2-3.2","battery-v0.2","","""event"",""trial"",""time""
""fullscreenenter"",""1"",""8393""
""blur"",""20"",""493449""
""focus"",""20"",""493679""
","""event"",""trial"",""time""
""blur"",""20"",""493449""
","""event"",""trial"",""time""
""focus"",""20"",""493679""
","""event"",""trial"",""time""
""fullscreenenter"",""1"",""8393""
","
","","","-1","","","10","3780","1416","&#9761;","elianto","#3366ff99","-1","-1","1","0","[]","0","0","2","","","","","","","",""
"pit-trial","51","672044","0.0-2.0-11.2-4.2","battery-v0.2","","""event"",""trial"",""time""
""fullscreenenter"",""1"",""8393""
""blur"",""20"",""493449""
""focus"",""20"",""493679""
","""event"",""trial"",""time""
""blur"",""20"",""493449""
","""event"",""trial"",""time""
""focus"",""20"",""493679""
","""event"",""trial"",""time""
""fullscreenenter"",""1"",""8393""
","
","","","-1","","","10","3780","1416","&#9761;","elianto","#3366ff99","-1","-1","1","+10","[]","0","0","2","","","","","","","",""
"pit-trial","52","676901","0.0-2.0-11.3-0.3","battery-v0.2","","""event"",""trial"",""time""
""fullscreenenter"",""1"",""8393""
""blur"",""20"",""493449""
""focus"",""20"",""493679""
","""event"",""trial"",""time""
""blur"",""20"",""493449""
","""event"",""trial"",""time""
""focus"",""20"",""493679""
","""event"",""trial"",""time""
""fullscreenenter"",""1"",""8393""
","
","","","-1","","","10","3780","1416","&#9761;","elianto","#3366ff99","-1","-1","1","+10","[]","0","0","2","","","","","","","",""
"pit-trial","53","681757","0.0-2.0-11.3-1.3","battery-v0.2","","""event"",""trial"",""time""
""fullscreenenter"",""1"",""8393""
""blur"",""20"",""493449""
""focus"",""20"",""493679""
","""event"",""trial"",""time""
""blur"",""20"",""493449""
","""event"",""trial"",""time""
""focus"",""20"",""493679""
","""event"",""trial"",""time""
""fullscreenenter"",""1"",""8393""
","
","","","-1","","","10","3780","1416","&#9761;","elianto","#3366ff99","-1","-1","1","+10","[]","0","0","2","","","","","","","",""
"pit-trial","54","686614","0.0-2.0-11.3-2.3","battery-v0.2","","""event"",""trial"",""time""
""fullscreenenter"",""1"",""8393""
""blur"",""20"",""493449""
""focus"",""20"",""493679""
","""event"",""trial"",""time""
""blur"",""20"",""493449""
","""event"",""trial"",""time""
""focus"",""20"",""493679""
","""event"",""trial"",""time""
""fullscreenenter"",""1"",""8393""
","
","","","-1","","","10","3780","1416","&#9761;","elianto","#3366ff99","-1","-1","1","+10","[]","0","0","2","","","","","","","",""
"pit-trial","55","691469","0.0-2.0-11.3-3.3","battery-v0.2","","""event"",""trial"",""time""
""fullscreenenter"",""1"",""8393""
""blur"",""20"",""493449""
""focus"",""20"",""493679""
","""event"",""trial"",""time""
""blur"",""20"",""493449""
","""event"",""trial"",""time""
""focus"",""20"",""493679""
","""event"",""trial"",""time""
""fullscreenenter"",""1"",""8393""
","
","","","-1","","","10","3780","1416","&#9761;","elianto","#3366ff99","-1","-1","1","0","[]","0","0","2","","","","","","","",""
"pit-trial","56","696325","0.0-2.0-11.3-4.3","battery-v0.2","","""event"",""trial"",""time""
""fullscreenenter"",""1"",""8393""
""blur"",""20"",""493449""
""focus"",""20"",""493679""
","""event"",""trial"",""time""
""blur"",""20"",""493449""
","""event"",""trial"",""time""
""focus"",""20"",""493679""
","""event"",""trial"",""time""
""fullscreenenter"",""1"",""8393""
","
","","","-1","","","10","3780","1416","&#9761;","elianto","#3366ff99","-1","-1","1","+10","[]","0","0","2","","","","","","","",""
"call-function","57","696328","0.0-2.0-12.0","battery-v0.2","","""event"",""trial"",""time""
""fullscreenenter"",""1"",""8393""
""blur"",""20"",""493449""
""focus"",""20"",""493679""
","""event"",""trial"",""time""
""blur"",""20"",""493449""
","""event"",""trial"",""time""
""focus"",""20"",""493679""
","""event"",""trial"",""time""
""fullscreenenter"",""1"",""8393""
","
","","","","","","","","","","","","","","","","","","","","","","","","","","",""
"pit-instructions","58","728734","0.0-2.0-13.0","battery-v0.2","","""event"",""trial"",""time""
""fullscreenenter"",""1"",""8393""
""blur"",""20"",""493449""
""focus"",""20"",""493679""
","""event"",""trial"",""time""
""blur"",""20"",""493449""
","""event"",""trial"",""time""
""focus"",""20"",""493679""
","""event"",""trial"",""time""
""fullscreenenter"",""1"",""8393""
","
","","[{""page_index"":0,""viewing_time"":5590},{""page_index"":1,""viewing_time"":6149},{""page_index"":2,""viewing_time"":3940},{""page_index"":3,""viewing_time"":11613},{""page_index"":4,""viewing_time"":5111}]","32404","","","","","","","","","","","","","","","","","","","","","","","",""
"pit-trial","59","733591","0.0-2.0-14.0-0.0","battery-v0.2","","""event"",""trial"",""time""
""fullscreenenter"",""1"",""8393""
""blur"",""20"",""493449""
""focus"",""20"",""493679""
","""event"",""trial"",""time""
""blur"",""20"",""493449""
","""event"",""trial"",""time""
""focus"",""20"",""493679""
","""event"",""trial"",""time""
""fullscreenenter"",""1"",""8393""
","
","","","-1","","","10","3780","1416","&#9826;","elianto","#f73b6a7A","-1","-1","1","0","[]","0","0","3","","","","","","","",""
"pit-trial","60","738448","0.0-2.0-14.0-1.0","battery-v0.2","","""event"",""trial"",""time""
""fullscreenenter"",""1"",""8393""
""blur"",""20"",""493449""
""focus"",""20"",""493679""
","""event"",""trial"",""time""
""blur"",""20"",""493449""
","""event"",""trial"",""time""
""focus"",""20"",""493679""
","""event"",""trial"",""time""
""fullscreenenter"",""1"",""8393""
","
","","","-1","","","10","3780","1416","&#9826;","elianto","#f73b6a7A","-1","-1","1","0","[]","0","0","3","","","","","","","",""
"pit-trial","61","743304","0.0-2.0-14.0-2.0","battery-v0.2","","""event"",""trial"",""time""
""fullscreenenter"",""1"",""8393""
""blur"",""20"",""493449""
""focus"",""20"",""493679""
","""event"",""trial"",""time""
""blur"",""20"",""493449""
","""event"",""trial"",""time""
""focus"",""20"",""493679""
","""event"",""trial"",""time""
""fullscreenenter"",""1"",""8393""
","
","","","-1","","","10","3780","1416","&#9826;","elianto","#f73b6a7A","-1","-1","1","0","[]","0","0","3","","","","","","","",""
"pit-trial","62","748158","0.0-2.0-14.0-3.0","battery-v0.2","","""event"",""trial"",""time""
""fullscreenenter"",""1"",""8393""
""blur"",""20"",""493449""
""focus"",""20"",""493679""
","""event"",""trial"",""time""
""blur"",""20"",""493449""
","""event"",""trial"",""time""
""focus"",""20"",""493679""
","""event"",""trial"",""time""
""fullscreenenter"",""1"",""8393""
","
","","","-1","","","10","3780","1416","&#9826;","elianto","#f73b6a7A","-1","-1","1","-10","[]","0","0","3","","","","","","","",""
"pit-trial","63","753014","0.0-2.0-14.0-4.0","battery-v0.2","","""event"",""trial"",""time""
""fullscreenenter"",""1"",""8393""
""blur"",""20"",""493449""
""focus"",""20"",""493679""
","""event"",""trial"",""time""
""blur"",""20"",""493449""
","""event"",""trial"",""time""
""focus"",""20"",""493679""
","""event"",""trial"",""time""
""fullscreenenter"",""1"",""8393""
","
","","","-1","","","10","3780","1416","&#9826;","elianto","#f73b6a7A","-1","-1","1","0","[]","0","0","3","","","","","","","",""
"pit-trial","64","757869","0.0-2.0-14.1-0.1","battery-v0.2","","""event"",""trial"",""time""
""fullscreenenter"",""1"",""8393""
""blur"",""20"",""493449""
""focus"",""20"",""493679""
","""event"",""trial"",""time""
""blur"",""20"",""493449""
","""event"",""trial"",""time""
""focus"",""20"",""493679""
","""event"",""trial"",""time""
""fullscreenenter"",""1"",""8393""
","
","","","-1","","","10","3780","1416","&#9826;","elianto","#f73b6a7A","-1","-1","1","0","[]","0","0","3","","","","","","","",""
"pit-trial","65","762726","0.0-2.0-14.1-1.1","battery-v0.2","","""event"",""trial"",""time""
""fullscreenenter"",""1"",""8393""
""blur"",""20"",""493449""
""focus"",""20"",""493679""
","""event"",""trial"",""time""
""blur"",""20"",""493449""
","""event"",""trial"",""time""
""focus"",""20"",""493679""
","""event"",""trial"",""time""
""fullscreenenter"",""1"",""8393""
","
","","","-1","","","10","3780","1416","&#9826;","elianto","#f73b6a7A","-1","-1","1","0","[]","0","0","3","","","","","","","",""
"pit-trial","66","767581","0.0-2.0-14.1-2.1","battery-v0.2","","""event"",""trial"",""time""
""fullscreenenter"",""1"",""8393""
""blur"",""20"",""493449""
""focus"",""20"",""493679""
","""event"",""trial"",""time""
""blur"",""20"",""493449""
","""event"",""trial"",""time""
""focus"",""20"",""493679""
","""event"",""trial"",""time""
""fullscreenenter"",""1"",""8393""
","
","","","-1","","","10","3780","1416","&#9826;","elianto","#f73b6a7A","-1","-1","1","0","[]","0","0","3","","","","","","","",""
"pit-trial","67","772437","0.0-2.0-14.1-3.1","battery-v0.2","","""event"",""trial"",""time""
""fullscreenenter"",""1"",""8393""
""blur"",""20"",""493449""
""focus"",""20"",""493679""
","""event"",""trial"",""time""
""blur"",""20"",""493449""
","""event"",""trial"",""time""
""focus"",""20"",""493679""
","""event"",""trial"",""time""
""fullscreenenter"",""1"",""8393""
","
","","","-1","","","10","3780","1416","&#9826;","elianto","#f73b6a7A","-1","-1","1","-10","[]","0","0","3","","","","","","","",""
"pit-trial","68","777292","0.0-2.0-14.1-4.1","battery-v0.2","","""event"",""trial"",""time""
""fullscreenenter"",""1"",""8393""
""blur"",""20"",""493449""
""focus"",""20"",""493679""
","""event"",""trial"",""time""
""blur"",""20"",""493449""
","""event"",""trial"",""time""
""focus"",""20"",""493679""
","""event"",""trial"",""time""
""fullscreenenter"",""1"",""8393""
","
","","","-1","","","10","3780","1416","&#9826;","elianto","#f73b6a7A","-1","-1","1","0","[]","0","0","3","","","","","","","",""
"pit-trial","69","782147","0.0-2.0-14.2-0.2","battery-v0.2","","""event"",""trial"",""time""
""fullscreenenter"",""1"",""8393""
""blur"",""20"",""493449""
""focus"",""20"",""493679""
","""event"",""trial"",""time""
""blur"",""20"",""493449""
","""event"",""trial"",""time""
""focus"",""20"",""493679""
","""event"",""trial"",""time""
""fullscreenenter"",""1"",""8393""
","
","","","-1","","","10","3780","1416","&#9826;","elianto","#f73b6a7A","-1","-1","1","0","[]","0","0","3","","","","","","","",""
"pit-trial","70","787002","0.0-2.0-14.2-1.2","battery-v0.2","","""event"",""trial"",""time""
""fullscreenenter"",""1"",""8393""
""blur"",""20"",""493449""
""focus"",""20"",""493679""
","""event"",""trial"",""time""
""blur"",""20"",""493449""
","""event"",""trial"",""time""
""focus"",""20"",""493679""
","""event"",""trial"",""time""
""fullscreenenter"",""1"",""8393""
","
","","","-1","","","10","3780","1416","&#9826;","elianto","#f73b6a7A","-1","-1","1","0","[]","0","0","3","","","","","","","",""
"pit-trial","71","791857","0.0-2.0-14.2-2.2","battery-v0.2","","""event"",""trial"",""time""
""fullscreenenter"",""1"",""8393""
""blur"",""20"",""493449""
""focus"",""20"",""493679""
","""event"",""trial"",""time""
""blur"",""20"",""493449""
","""event"",""trial"",""time""
""focus"",""20"",""493679""
","""event"",""trial"",""time""
""fullscreenenter"",""1"",""8393""
","
","","","-1","","","10","3780","1416","&#9826;","elianto","#f73b6a7A","-1","-1","1","0","[]","0","0","3","","","","","","","",""
"pit-trial","72","796712","0.0-2.0-14.2-3.2","battery-v0.2","","""event"",""trial"",""time""
""fullscreenenter"",""1"",""8393""
""blur"",""20"",""493449""
""focus"",""20"",""493679""
","""event"",""trial"",""time""
""blur"",""20"",""493449""
","""event"",""trial"",""time""
""focus"",""20"",""493679""
","""event"",""trial"",""time""
""fullscreenenter"",""1"",""8393""
","
","","","-1","","","10","3780","1416","&#9826;","elianto","#f73b6a7A","-1","-1","1","-10","[]","0","0","3","","","","","","","",""
"pit-trial","73","801568","0.0-2.0-14.2-4.2","battery-v0.2","","""event"",""trial"",""time""
""fullscreenenter"",""1"",""8393""
""blur"",""20"",""493449""
""focus"",""20"",""493679""
","""event"",""trial"",""time""
""blur"",""20"",""493449""
","""event"",""trial"",""time""
""focus"",""20"",""493679""
","""event"",""trial"",""time""
""fullscreenenter"",""1"",""8393""
","
","","","-1","","","10","3780","1416","&#9826;","elianto","#f73b6a7A","-1","-1","1","0","[]","0","0","3","","","","","","","",""
"pit-trial","74","806422","0.0-2.0-14.3-0.3","battery-v0.2","","""event"",""trial"",""time""
""fullscreenenter"",""1"",""8393""
""blur"",""20"",""493449""
""focus"",""20"",""493679""
","""event"",""trial"",""time""
""blur"",""20"",""493449""
","""event"",""trial"",""time""
""focus"",""20"",""493679""
","""event"",""trial"",""time""
""fullscreenenter"",""1"",""8393""
","
","","","-1","","","10","3780","1416","&#9826;","elianto","#f73b6a7A","-1","-1","1","0","[]","0","0","3","","","","","","","",""
"pit-trial","75","811278","0.0-2.0-14.3-1.3","battery-v0.2","","""event"",""trial"",""time""
""fullscreenenter"",""1"",""8393""
""blur"",""20"",""493449""
""focus"",""20"",""493679""
","""event"",""trial"",""time""
""blur"",""20"",""493449""
","""event"",""trial"",""time""
""focus"",""20"",""493679""
","""event"",""trial"",""time""
""fullscreenenter"",""1"",""8393""
","
","","","-1","","","10","3780","1416","&#9826;","elianto","#f73b6a7A","-1","-1","1","0","[]","0","0","3","","","","","","","",""
"pit-trial","76","816134","0.0-2.0-14.3-2.3","battery-v0.2","","""event"",""trial"",""time""
""fullscreenenter"",""1"",""8393""
""blur"",""20"",""493449""
""focus"",""20"",""493679""
","""event"",""trial"",""time""
""blur"",""20"",""493449""
","""event"",""trial"",""time""
""focus"",""20"",""493679""
","""event"",""trial"",""time""
""fullscreenenter"",""1"",""8393""
","
","","","-1","","","10","3780","1416","&#9826;","elianto","#f73b6a7A","-1","-1","1","0","[]","0","0","3","","","","","","","",""
"pit-trial","77","820990","0.0-2.0-14.3-3.3","battery-v0.2","","""event"",""trial"",""time""
""fullscreenenter"",""1"",""8393""
""blur"",""20"",""493449""
""focus"",""20"",""493679""
","""event"",""trial"",""time""
""blur"",""20"",""493449""
","""event"",""trial"",""time""
""focus"",""20"",""493679""
","""event"",""trial"",""time""
""fullscreenenter"",""1"",""8393""
","
","","","-1","","","10","3780","1416","&#9826;","elianto","#f73b6a7A","-1","-1","1","-10","[]","0","0","3","","","","","","","",""
"pit-trial","78","825847","0.0-2.0-14.3-4.3","battery-v0.2","","""event"",""trial"",""time""
""fullscreenenter"",""1"",""8393""
""blur"",""20"",""493449""
""focus"",""20"",""493679""
","""event"",""trial"",""time""
""blur"",""20"",""493449""
","""event"",""trial"",""time""
""focus"",""20"",""493679""
","""event"",""trial"",""time""
""fullscreenenter"",""1"",""8393""
","
","","","-1","","","10","3780","1416","&#9826;","elianto","#f73b6a7A","-1","-1","1","0","[]","0","0","3","","","","","","","",""
"call-function","79","825850","0.0-2.0-15.0","battery-v0.2","","""event"",""trial"",""time""
""fullscreenenter"",""1"",""8393""
""blur"",""20"",""493449""
""focus"",""20"",""493679""
","""event"",""trial"",""time""
""blur"",""20"",""493449""
","""event"",""trial"",""time""
""focus"",""20"",""493679""
","""event"",""trial"",""time""
""fullscreenenter"",""1"",""8393""
","
","","","","","","","","","","","","","","","","","","","","","","","","","","",""
"pit-instructions","80","860798","0.0-2.0-16.0","battery-v0.2","","""event"",""trial"",""time""
""fullscreenenter"",""1"",""8393""
""blur"",""20"",""493449""
""focus"",""20"",""493679""
","""event"",""trial"",""time""
""blur"",""20"",""493449""
","""event"",""trial"",""time""
""focus"",""20"",""493679""
","""event"",""trial"",""time""
""fullscreenenter"",""1"",""8393""
","
","","[{""page_index"":0,""viewing_time"":8340},{""page_index"":1,""viewing_time"":8141},{""page_index"":2,""viewing_time"":10169},{""page_index"":3,""viewing_time"":8295}]","34946","","","","","","","","","","","","","","","","","","","","","","","",""
"pit-trial","81","864472","0.0-2.0-17.0-0.0","battery-v0.2","","""event"",""trial"",""time""
""fullscreenenter"",""1"",""8393""
""blur"",""20"",""493449""
""focus"",""20"",""493679""
","""event"",""trial"",""time""
""blur"",""20"",""493449""
","""event"",""trial"",""time""
""focus"",""20"",""493679""
","""event"",""trial"",""time""
""fullscreenenter"",""1"",""8393""
","
","","","814","","","10","3780","1416","&#9789;","elianto","#f73b6a7A"," "," ","1","0","[1667]","1","0","4","","","","","","","",""
"pit-trial","82","867505","0.0-2.0-17.0-1.0","battery-v0.2","","""event"",""trial"",""time""
""fullscreenenter"",""1"",""8393""
""blur"",""20"",""493449""
""focus"",""20"",""493679""
","""event"",""trial"",""time""
""blur"",""20"",""493449""
","""event"",""trial"",""time""
""focus"",""20"",""493679""
","""event"",""trial"",""time""
""fullscreenenter"",""1"",""8393""
","
","","","177","","","10","3780","1416","&#9789;","elianto","#f73b6a7A"," "," ","1","0","[1028]","1","0","4","","","","","","","",""
"pit-trial","83","870620","0.0-2.0-17.0-2.0","battery-v0.2","","""event"",""trial"",""time""
""fullscreenenter"",""1"",""8393""
""blur"",""20"",""493449""
""focus"",""20"",""493679""
","""event"",""trial"",""time""
""blur"",""20"",""493449""
","""event"",""trial"",""time""
""focus"",""20"",""493679""
","""event"",""trial"",""time""
""fullscreenenter"",""1"",""8393""
","
","","","260","","","10","3780","1416","&#9789;","elianto","#f73b6a7A"," "," ","1","0","[1110]","1","0","4","","","","","","","",""
"pit-trial","84","873772","0.0-2.0-17.0-3.0","battery-v0.2","","""event"",""trial"",""time""
""fullscreenenter"",""1"",""8393""
""blur"",""20"",""493449""
""focus"",""20"",""493679""
","""event"",""trial"",""time""
""blur"",""20"",""493449""
","""event"",""trial"",""time""
""focus"",""20"",""493679""
","""event"",""trial"",""time""
""fullscreenenter"",""1"",""8393""
","
","","","291","","","10","3780","1416","&#9789;","elianto","#f73b6a7A"," "," ","1","-10","[1146]","1","0","4","","","","","","","",""
"pit-trial","85","877115","0.0-2.0-17.0-4.0","battery-v0.2","","""event"",""trial"",""time""
""fullscreenenter"",""1"",""8393""
""blur"",""20"",""493449""
""focus"",""20"",""493679""
","""event"",""trial"",""time""
""blur"",""20"",""493449""
","""event"",""trial"",""time""
""focus"",""20"",""493679""
","""event"",""trial"",""time""
""fullscreenenter"",""1"",""8393""
","
","","","489","","","10","3780","1416","&#9789;","elianto","#f73b6a7A"," "," ","1","0","[1340]","1","0","4","","","","","","","",""
"pit-trial","86","880479","0.0-2.0-17.1-0.1","battery-v0.2","","""event"",""trial"",""time""
""fullscreenenter"",""1"",""8393""
""blur"",""20"",""493449""
""focus"",""20"",""493679""
","""event"",""trial"",""time""
""blur"",""20"",""493449""
","""event"",""trial"",""time""
""focus"",""20"",""493679""
","""event"",""trial"",""time""
""fullscreenenter"",""1"",""8393""
","
","","","507","","","10","3780","1416","&#9789;","elianto","#f73b6a7A"," "," ","1","0","[1358]","1","0","4","","","","","","","",""
"pit-trial","87","883710","0.0-2.0-17.1-1.1","battery-v0.2","","""event"",""trial"",""time""
""fullscreenenter"",""1"",""8393""
""blur"",""20"",""493449""
""focus"",""20"",""493679""
","""event"",""trial"",""time""
""blur"",""20"",""493449""
","""event"",""trial"",""time""
""focus"",""20"",""493679""
","""event"",""trial"",""time""
""fullscreenenter"",""1"",""8393""
","
","","","376","","","10","3780","1416","&#9789;","elianto","#f73b6a7A"," "," ","1","0","[1226]","1","0","4","","","","","","","",""
"pit-trial","88","886896","0.0-2.0-17.1-2.1","battery-v0.2","","""event"",""trial"",""time""
""fullscreenenter"",""1"",""8393""
""blur"",""20"",""493449""
""focus"",""20"",""493679""
","""event"",""trial"",""time""
""blur"",""20"",""493449""
","""event"",""trial"",""time""
""focus"",""20"",""493679""
","""event"",""trial"",""time""
""fullscreenenter"",""1"",""8393""
","
","","","330","","","10","3780","1416","&#9789;","elianto","#f73b6a7A"," "," ","1","0","[1181,2132]","2","0","4","","","","","","","",""
"pit-trial","89","890285","0.0-2.0-17.1-3.1","battery-v0.2","","""event"",""trial"",""time""
""fullscreenenter"",""1"",""8393""
""blur"",""20"",""493449""
""focus"",""20"",""493679""
","""event"",""trial"",""time""
""blur"",""20"",""493449""
","""event"",""trial"",""time""
""focus"",""20"",""493679""
","""event"",""trial"",""time""
""fullscreenenter"",""1"",""8393""
","
","","","528","","","10","3780","1416","&#9789;","elianto","#f73b6a7A"," "," ","1","-10","[1383]","1","0","4","","","","","","","",""
"pit-trial","90","893640","0.0-2.0-17.1-4.1","battery-v0.2","","""event"",""trial"",""time""
""fullscreenenter"",""1"",""8393""
""blur"",""20"",""493449""
""focus"",""20"",""493679""
","""event"",""trial"",""time""
""blur"",""20"",""493449""
","""event"",""trial"",""time""
""focus"",""20"",""493679""
","""event"",""trial"",""time""
""fullscreenenter"",""1"",""8393""
","
","","","496","","","10","3780","1416","&#9789;","elianto","#f73b6a7A"," "," ","1","0","[1351]","1","0","4","","","","","","","",""
"pit-trial","91","896843","0.0-2.0-17.2-0.2","battery-v0.2","","""event"",""trial"",""time""
""fullscreenenter"",""1"",""8393""
""blur"",""20"",""493449""
""focus"",""20"",""493679""
","""event"",""trial"",""time""
""blur"",""20"",""493449""
","""event"",""trial"",""time""
""focus"",""20"",""493679""
","""event"",""trial"",""time""
""fullscreenenter"",""1"",""8393""
","
","","","348","","","10","3780","1416","&#9789;","elianto","#f73b6a7A"," "," ","1","0","[1197]","1","0","4","","","","","","","",""
"pit-trial","92","900233","0.0-2.0-17.2-1.2","battery-v0.2","","""event"",""trial"",""time""
""fullscreenenter"",""1"",""8393""
""blur"",""20"",""493449""
""focus"",""20"",""493679""
","""event"",""trial"",""time""
""blur"",""20"",""493449""
","""event"",""trial"",""time""
""focus"",""20"",""493679""
","""event"",""trial"",""time""
""fullscreenenter"",""1"",""8393""
","
","","","536","","","10","3780","1416","&#9789;","elianto","#f73b6a7A"," "," ","1","0","[1385]","1","0","4","","","","","","","",""
"pit-trial","93","904138","0.0-2.0-17.2-2.2","battery-v0.2","","""event"",""trial"",""time""
""fullscreenenter"",""1"",""8393""
""blur"",""20"",""493449""
""focus"",""20"",""493679""
","""event"",""trial"",""time""
""blur"",""20"",""493449""
","""event"",""trial"",""time""
""focus"",""20"",""493679""
","""event"",""trial"",""time""
""fullscreenenter"",""1"",""8393""
","
","","","1050","","","10","3780","1416","&#9789;","elianto","#f73b6a7A"," "," ","1","0","[1901]","1","0","4","","","","","","","",""
"pit-trial","94","907757","0.0-2.0-17.2-3.2","battery-v0.2","","""event"",""trial"",""time""
""fullscreenenter"",""1"",""8393""
""blur"",""20"",""493449""
""focus"",""20"",""493679""
","""event"",""trial"",""time""
""blur"",""20"",""493449""
","""event"",""trial"",""time""
""focus"",""20"",""493679""
","""event"",""trial"",""time""
""fullscreenenter"",""1"",""8393""
","
","","","762","","","10","3780","1416","&#9789;","elianto","#f73b6a7A"," "," ","1","-10","[1614]","1","0","4","","","","","","","",""
"pit-trial","95","911313","0.0-2.0-17.2-4.2","battery-v0.2","","""event"",""trial"",""time""
""fullscreenenter"",""1"",""8393""
""blur"",""20"",""493449""
""focus"",""20"",""493679""
","""event"",""trial"",""time""
""blur"",""20"",""493449""
","""event"",""trial"",""time""
""focus"",""20"",""493679""
","""event"",""trial"",""time""
""fullscreenenter"",""1"",""8393""
","
","","","695","","","10","3780","1416","&#9789;","elianto","#f73b6a7A"," "," ","1","0","[1550,2007]","2","0","4","","","","","","","",""
"pit-trial","96","914581","0.0-2.0-17.3-0.3","battery-v0.2","","""event"",""trial"",""time""
""fullscreenenter"",""1"",""8393""
""blur"",""20"",""493449""
""focus"",""20"",""493679""
","""event"",""trial"",""time""
""blur"",""20"",""493449""
","""event"",""trial"",""time""
""focus"",""20"",""493679""
","""event"",""trial"",""time""
""fullscreenenter"",""1"",""8393""
","
","","","412","","","10","3780","1416","&#9789;","elianto","#f73b6a7A"," "," ","1","0","[1264,1644]","2","0","4","","","","","","","",""
"pit-trial","97","917823","0.0-2.0-17.3-1.3","battery-v0.2","","""event"",""trial"",""time""
""fullscreenenter"",""1"",""8393""
""blur"",""20"",""493449""
""focus"",""20"",""493679""
","""event"",""trial"",""time""
""blur"",""20"",""493449""
","""event"",""trial"",""time""
""focus"",""20"",""493679""
","""event"",""trial"",""time""
""fullscreenenter"",""1"",""8393""
","
","","","385","","","10","3780","1416","&#9789;","elianto","#f73b6a7A"," "," ","1","0","[1235]","1","0","4","","","","","","","",""
"pit-trial","98","920945","0.0-2.0-17.3-2.3","battery-v0.2","","""event"",""trial"",""time""
""fullscreenenter"",""1"",""8393""
""blur"",""20"",""493449""
""focus"",""20"",""493679""
","""event"",""trial"",""time""
""blur"",""20"",""493449""
","""event"",""trial"",""time""
""focus"",""20"",""493679""
","""event"",""trial"",""time""
""fullscreenenter"",""1"",""8393""
","
","","","267","","","10","3780","1416","&#9789;","elianto","#f73b6a7A"," "," ","1","0","[1117]","1","0","4","","","","","","","",""
"pit-trial","99","923981","0.0-2.0-17.3-3.3","battery-v0.2","","""event"",""trial"",""time""
""fullscreenenter"",""1"",""8393""
""blur"",""20"",""493449""
""focus"",""20"",""493679""
","""event"",""trial"",""time""
""blur"",""20"",""493449""
","""event"",""trial"",""time""
""focus"",""20"",""493679""
","""event"",""trial"",""time""
""fullscreenenter"",""1"",""8393""
","
","","","179","","","10","3780","1416","&#9789;","elianto","#f73b6a7A"," "," ","1","-10","[1030]","1","0","4","","","","","","","",""
"pit-trial","100","927240","0.0-2.0-17.3-4.3","battery-v0.2","","""event"",""trial"",""time""
""fullscreenenter"",""1"",""8393""
""blur"",""20"",""493449""
""focus"",""20"",""493679""
","""event"",""trial"",""time""
""blur"",""20"",""493449""
","""event"",""trial"",""time""
""focus"",""20"",""493679""
","""event"",""trial"",""time""
""fullscreenenter"",""1"",""8393""
","
","","","399","","","10","3780","1416","&#9789;","elianto","#f73b6a7A"," "," ","1","0","[1254]","1","0","4","","","","","","","",""
"call-function","101","927243","0.0-2.0-18.0","battery-v0.2","","""event"",""trial"",""time""
""fullscreenenter"",""1"",""8393""
""blur"",""20"",""493449""
""focus"",""20"",""493679""
","""event"",""trial"",""time""
""blur"",""20"",""493449""
","""event"",""trial"",""time""
""focus"",""20"",""493679""
","""event"",""trial"",""time""
""fullscreenenter"",""1"",""8393""
","
","","","","","","","","","","","","","","","","","","","","","","","","","","",""
"pit-instructions","102","1010135","0.0-2.0-19.0","battery-v0.2","","""event"",""trial"",""time""
""fullscreenenter"",""1"",""8393""
""blur"",""20"",""493449""
""focus"",""20"",""493679""
","""event"",""trial"",""time""
""blur"",""20"",""493449""
","""event"",""trial"",""time""
""focus"",""20"",""493679""
","""event"",""trial"",""time""
""fullscreenenter"",""1"",""8393""
","
","","[{""page_index"":0,""viewing_time"":6176},{""page_index"":1,""viewing_time"":7148},{""page_index"":2,""viewing_time"":15529},{""page_index"":3,""viewing_time"":9859},{""page_index"":4,""viewing_time"":11223},{""page_index"":5,""viewing_time"":9148},{""page_index"":6,""viewing_time"":9846},{""page_index"":7,""viewing_time"":7978},{""page_index"":8,""viewing_time"":5982}]","82890","","","","","","","","","","","","","","","","","","","","","","","",""
"pit-comprehension","103","1017958","0.0-2.0-20.0-0.0","battery-v0.2","","""event"",""trial"",""time""
""fullscreenenter"",""1"",""8393""
""blur"",""20"",""493449""
""focus"",""20"",""493679""
","""event"",""trial"",""time""
""blur"",""20"",""493449""
","""event"",""trial"",""time""
""focus"",""20"",""493679""
","""event"",""trial"",""time""
""fullscreenenter"",""1"",""8393""
","
","","","7778","[""SPACE""]","0","10","3780","1416","","","","","","","","","","","","","","","","","","",""
"pit-instructions","104","1025672","0.0-2.0-20.0-1.0","battery-v0.2","","""event"",""trial"",""time""
""fullscreenenter"",""1"",""8393""
""blur"",""20"",""493449""
""focus"",""20"",""493679""
","""event"",""trial"",""time""
""blur"",""20"",""493449""
","""event"",""trial"",""time""
""focus"",""20"",""493679""
","""event"",""trial"",""time""
""fullscreenenter"",""1"",""8393""
","
","","[{""page_index"":0,""viewing_time"":7358}]","7359","","","","","","","","","","","","","","","","","","","","","","","",""
"pit-comprehension","105","1036374","0.0-2.0-21.0-0.0","battery-v0.2","","""event"",""trial"",""time""
""fullscreenenter"",""1"",""8393""
""blur"",""20"",""493449""
""focus"",""20"",""493679""
","""event"",""trial"",""time""
""blur"",""20"",""493449""
","""event"",""trial"",""time""
""focus"",""20"",""493679""
","""event"",""trial"",""time""
""fullscreenenter"",""1"",""8393""
","
","","","10688","[""10""]","0","10","3780","1416","","","","","","","","","","","","","","","","","","",""
"pit-instructions","106","1045723","0.0-2.0-21.0-1.0","battery-v0.2","","""event"",""trial"",""time""
""fullscreenenter"",""1"",""8393""
""blur"",""20"",""493449""
""focus"",""20"",""493679""
","""event"",""trial"",""time""
""blur"",""20"",""493449""
","""event"",""trial"",""time""
""focus"",""20"",""493679""
","""event"",""trial"",""time""
""fullscreenenter"",""1"",""8393""
","
","","[{""page_index"":0,""viewing_time"":9082}]","9083","","","","","","","","","","","","","","","","","","","","","","","",""
"pit-comprehension","107","1055027","0.0-2.0-22.0-0.0","battery-v0.2","","""event"",""trial"",""time""
""fullscreenenter"",""1"",""8393""
""blur"",""20"",""493449""
""focus"",""20"",""493679""
","""event"",""trial"",""time""
""blur"",""20"",""493449""
","""event"",""trial"",""time""
""focus"",""20"",""493679""
","""event"",""trial"",""time""
""fullscreenenter"",""1"",""8393""
","
","","","9291","[""0""]","0","10","3780","1416","","","","","","","","","","","","","","","","","","",""
"pit-instructions","108","1057110","0.0-2.0-22.0-1.0","battery-v0.2","","""event"",""trial"",""time""
""fullscreenenter"",""1"",""8393""
""blur"",""20"",""493449""
""focus"",""20"",""493679""
","""event"",""trial"",""time""
""blur"",""20"",""493449""
","""event"",""trial"",""time""
""focus"",""20"",""493679""
","""event"",""trial"",""time""
""fullscreenenter"",""1"",""8393""
","
","","[{""page_index"":0,""viewing_time"":1815}]","1816","","","","","","","","","","","","","","","","","","","","","","","",""
"pit-comprehension","109","1077776","0.0-2.0-23.0-0.0","battery-v0.2","","""event"",""trial"",""time""
""fullscreenenter"",""1"",""8393""
""blur"",""20"",""493449""
""focus"",""20"",""493679""
","""event"",""trial"",""time""
""blur"",""20"",""493449""
","""event"",""trial"",""time""
""focus"",""20"",""493679""
","""event"",""trial"",""time""
""fullscreenenter"",""1"",""8393""
","
","","","20655","[""True""]","0","10","3780","1416","","","","","","","","","","","","","","","","","","",""
"pit-instructions","110","1079798","0.0-2.0-23.0-1.0","battery-v0.2","","""event"",""trial"",""time""
""fullscreenenter"",""1"",""8393""
""blur"",""20"",""493449""
""focus"",""20"",""493679""
","""event"",""trial"",""time""
""blur"",""20"",""493449""
","""event"",""trial"",""time""
""focus"",""20"",""493679""
","""event"",""trial"",""time""
""fullscreenenter"",""1"",""8393""
","
","","[{""page_index"":0,""viewing_time"":1746}]","1746","","","","","","","","","","","","","","","","","","","","","","","",""
"pit-comprehension","111","1091642","0.0-2.0-24.0-0.0","battery-v0.2","","""event"",""trial"",""time""
""fullscreenenter"",""1"",""8393""
""blur"",""20"",""493449""
""focus"",""20"",""493679""
","""event"",""trial"",""time""
""blur"",""20"",""493449""
","""event"",""trial"",""time""
""focus"",""20"",""493679""
","""event"",""trial"",""time""
""fullscreenenter"",""1"",""8393""
","
","","","11833","[""True""]","0","10","3780","1416","","","","","","","","","","","","","","","","","","",""
"pit-instructions","112","1094816","0.0-2.0-24.0-1.0","battery-v0.2","","""event"",""trial"",""time""
""fullscreenenter"",""1"",""8393""
""blur"",""20"",""493449""
""focus"",""20"",""493679""
","""event"",""trial"",""time""
""blur"",""20"",""493449""
","""event"",""trial"",""time""
""focus"",""20"",""493679""
","""event"",""trial"",""time""
""fullscreenenter"",""1"",""8393""
","
","","[{""page_index"":0,""viewing_time"":2895}]","2895","","","","","","","","","","","","","","","","","","","","","","","",""
"pit-comprehension","113","1108535","0.0-2.0-25.0-0.0","battery-v0.2","","""event"",""trial"",""time""
""fullscreenenter"",""1"",""8393""
""blur"",""20"",""493449""
""focus"",""20"",""493679""
","""event"",""trial"",""time""
""blur"",""20"",""493449""
","""event"",""trial"",""time""
""focus"",""20"",""493679""
","""event"",""trial"",""time""
""fullscreenenter"",""1"",""8393""
","
","","","13706","[""True""]","0","10","3780","1416","","","","","","","","","","","","","","","","","","",""
"pit-instructions","114","1111537","0.0-2.0-25.0-1.0","battery-v0.2","","""event"",""trial"",""time""
""fullscreenenter"",""1"",""8393""
""blur"",""20"",""493449""
""focus"",""20"",""493679""
","""event"",""trial"",""time""
""blur"",""20"",""493449""
","""event"",""trial"",""time""
""focus"",""20"",""493679""
","""event"",""trial"",""time""
""fullscreenenter"",""1"",""8393""
","
","","[{""page_index"":0,""viewing_time"":2723}]","2724","","","","","","","","","","","","","","","","","","","","","","","",""
"pit-comprehension","115","1119841","0.0-2.0-26.0-0.0","battery-v0.2","","""event"",""trial"",""time""
""fullscreenenter"",""1"",""8393""
""blur"",""20"",""493449""
""focus"",""20"",""493679""
","""event"",""trial"",""time""
""blur"",""20"",""493449""
","""event"",""trial"",""time""
""focus"",""20"",""493679""
","""event"",""trial"",""time""
""fullscreenenter"",""1"",""8393""
","
","","","8281","[""False""]","0","10","3780","1416","","","","","","","","","","","","","","","","","","",""
"pit-instructions","116","1121927","0.0-2.0-26.0-1.0","battery-v0.2","","""event"",""trial"",""time""
""fullscreenenter"",""1"",""8393""
""blur"",""20"",""493449""
""focus"",""20"",""493679""
","""event"",""trial"",""time""
""blur"",""20"",""493449""
","""event"",""trial"",""time""
""focus"",""20"",""493679""
","""event"",""trial"",""time""
""fullscreenenter"",""1"",""8393""
","
","","[{""page_index"":0,""viewing_time"":1802}]","1803","","","","","","","","","","","","","","","","","","","","","","","",""
"pit-instructions","117","1151447","0.0-3.0","battery-v0.2","","""event"",""trial"",""time""
""fullscreenenter"",""1"",""8393""
""blur"",""20"",""493449""
""focus"",""20"",""493679""
","""event"",""trial"",""time""
""blur"",""20"",""493449""
","""event"",""trial"",""time""
""focus"",""20"",""493679""
","""event"",""trial"",""time""
""fullscreenenter"",""1"",""8393""
","
","","[{""page_index"":0,""viewing_time"":14807},{""page_index"":1,""viewing_time"":6324},{""page_index"":2,""viewing_time"":8383}]","29515","","","","","","","","","","","","","","","","","","","","","","","",""
"pit-trial","118","1156310","0.0-4.0","battery-v0.2","","""event"",""trial"",""time""
""fullscreenenter"",""1"",""8393""
""blur"",""20"",""493449""
""focus"",""20"",""493679""
","""event"",""trial"",""time""
""blur"",""20"",""493449""
","""event"",""trial"",""time""
""focus"",""20"",""493679""
","""event"",""trial"",""time""
""fullscreenenter"",""1"",""8393""
","
","","","-1","","","10","3780","1416","&#9733;","elianto","#3366ff99","-1","-1","1","+10","[]","0","1","","","3780","1","2","2","win","no-go","0"
"pit-trial","119","1160100","0.0-5.0","battery-v0.2","","""event"",""trial"",""time""
""fullscreenenter"",""1"",""8393""
""blur"",""20"",""493449""
""focus"",""20"",""493679""
","""event"",""trial"",""time""
""blur"",""20"",""493449""
","""event"",""trial"",""time""
""focus"",""20"",""493679""
","""event"",""trial"",""time""
""fullscreenenter"",""1"",""8393""
","
","","","934","","","10","3780","1416","&#9728;","elianto","#f73b6a7A","-1"," ","0","-10","[1784]","1","1","","","3780","2","0","4","lose","no-go","0"
"pit-trial","120","1164956","0.0-6.0","battery-v0.2","","""event"",""trial"",""time""
""fullscreenenter"",""1"",""8393""
""blur"",""20"",""493449""
""focus"",""20"",""493679""
","""event"",""trial"",""time""
""blur"",""20"",""493449""
","""event"",""trial"",""time""
""focus"",""20"",""493679""
","""event"",""trial"",""time""
""fullscreenenter"",""1"",""8393""
","
","","","-1","","","10","3780","1416","&#9730;","elianto","#3366ff99"," ","-1","0","0","[]","0","1","","","3780","3","1","1","win","go","0"
"pit-trial","121","1168785","0.0-7.0","battery-v0.2","","""event"",""trial"",""time""
""fullscreenenter"",""1"",""8393""
""blur"",""20"",""493449""
""focus"",""20"",""493679""
","""event"",""trial"",""time""
""blur"",""20"",""493449""
","""event"",""trial"",""time""
""focus"",""20"",""493679""
","""event"",""trial"",""time""
""fullscreenenter"",""1"",""8393""
","
","","","972","","","10","3780","1416","&#9752;","elianto","#f73b6a7A"," "," ","1","0","[1823]","1","1","","","3780","4","3","3","lose","go","0"
"pit-trial","122","1172675","0.0-8.0","battery-v0.2","","""event"",""trial"",""time""
""fullscreenenter"",""1"",""8393""
""blur"",""20"",""493449""
""focus"",""20"",""493679""
","""event"",""trial"",""time""
""blur"",""20"",""493449""
","""event"",""trial"",""time""
""focus"",""20"",""493679""
","""event"",""trial"",""time""
""fullscreenenter"",""1"",""8393""
","
","","","1032","","","10","3780","1416","&#9752;","elianto","#f73b6a7A"," "," ","1","0","[1884]","1","1","","","3780","5","3","3","lose","go","0"
"pit-trial","123","1177230","0.0-9.0","battery-v0.2","","""event"",""trial"",""time""
""fullscreenenter"",""1"",""8393""
""blur"",""20"",""493449""
""focus"",""20"",""493679""
","""event"",""trial"",""time""
""blur"",""20"",""493449""
","""event"",""trial"",""time""
""focus"",""20"",""493679""
","""event"",""trial"",""time""
""fullscreenenter"",""1"",""8393""
","
","","","1698","","","10","3780","1416","&#9733;","elianto","#3366ff99","-1"," ","0","+10","[2549]","1","1","","","3780","6","2","2","win","no-go","1"
"pit-trial","124","1182085","0.0-10.0","battery-v0.2","","""event"",""trial"",""time""
""fullscreenenter"",""1"",""8393""
""blur"",""20"",""493449""
""focus"",""20"",""493679""
","""event"",""trial"",""time""
""blur"",""20"",""493449""
","""event"",""trial"",""time""
""focus"",""20"",""493679""
","""event"",""trial"",""time""
""fullscreenenter"",""1"",""8393""
","
","","","-1","","","10","3780","1416","&#9730;","elianto","#3366ff99"," ","-1","0","+10","[]","0","1","","","3780","7","1","1","win","go","1"
"pit-trial","125","1186941","0.0-11.0","battery-v0.2","","""event"",""trial"",""time""
""fullscreenenter"",""1"",""8393""
""blur"",""20"",""493449""
""focus"",""20"",""493679""
","""event"",""trial"",""time""
""blur"",""20"",""493449""
","""event"",""trial"",""time""
""focus"",""20"",""493679""
","""event"",""trial"",""time""
""fullscreenenter"",""1"",""8393""
","
","","","-1","","","10","3780","1416","&#9728;","elianto","#f73b6a7A","-1","-1","1","-10","[]","0","1","","","3780","8","0","4","lose","no-go","1"
"pit-trial","126","1190914","0.0-12.0","battery-v0.2","","""event"",""trial"",""time""
""fullscreenenter"",""1"",""8393""
""blur"",""20"",""493449""
""focus"",""20"",""493679""
","""event"",""trial"",""time""
""blur"",""20"",""493449""
","""event"",""trial"",""time""
""focus"",""20"",""493679""
","""event"",""trial"",""time""
""fullscreenenter"",""1"",""8393""
","
","","","1118","","","10","3780","1416","&#9730;","elianto","#3366ff99"," "," ","1","0","[1969]","1","1","","","3780","9","1","1","win","go","1"
"pit-trial","127","1194953","0.0-13.0","battery-v0.2","","""event"",""trial"",""time""
""fullscreenenter"",""1"",""8393""
""blur"",""20"",""493449""
""focus"",""20"",""493679""
","""event"",""trial"",""time""
""blur"",""20"",""493449""
","""event"",""trial"",""time""
""focus"",""20"",""493679""
","""event"",""trial"",""time""
""fullscreenenter"",""1"",""8393""
","
","","","1182","","","10","3780","1416","&#9752;","elianto","#f73b6a7A"," "," ","1","0","[2032]","1","1","","","3780","10","3","3","lose","go","0"
"pit-trial","128","1198923","0.0-14.0","battery-v0.2","","""event"",""trial"",""time""
""fullscreenenter"",""1"",""8393""
""blur"",""20"",""493449""
""focus"",""20"",""493679""
","""event"",""trial"",""time""
""blur"",""20"",""493449""
","""event"",""trial"",""time""
""focus"",""20"",""493679""
","""event"",""trial"",""time""
""fullscreenenter"",""1"",""8393""
","
","","","1114","","","10","3780","1416","&#9733;","elianto","#3366ff99","-1"," ","0","+10","[1964]","1","1","","","3780","11","2","2","win","no-go","1"
"pit-trial","129","1203780","0.0-15.0","battery-v0.2","","""event"",""trial"",""time""
""fullscreenenter"",""1"",""8393""
""blur"",""20"",""493449""
""focus"",""20"",""493679""
","""event"",""trial"",""time""
""blur"",""20"",""493449""
","""event"",""trial"",""time""
""focus"",""20"",""493679""
","""event"",""trial"",""time""
""fullscreenenter"",""1"",""8393""
","
","","","-1","","","10","3780","1416","&#9728;","elianto","#f73b6a7A","-1","-1","1","0","[]","0","1","","","3780","12","0","4","lose","no-go","0"
"pit-trial","130","1208204","0.0-16.0","battery-v0.2","","""event"",""trial"",""time""
""fullscreenenter"",""1"",""8393""
""blur"",""20"",""493449""
""focus"",""20"",""493679""
","""event"",""trial"",""time""
""blur"",""20"",""493449""
","""event"",""trial"",""time""
""focus"",""20"",""493679""
","""event"",""trial"",""time""
""fullscreenenter"",""1"",""8393""
","
","","","1560","","","10","3780","1416","&#9752;","elianto","#f73b6a7A"," "," ","1","0","[2419]","1","1","","","3780","13","3","3","lose","go","0"
"pit-trial","131","1213061","0.0-17.0","battery-v0.2","","""event"",""trial"",""time""
""fullscreenenter"",""1"",""8393""
""blur"",""20"",""493449""
""focus"",""20"",""493679""
","""event"",""trial"",""time""
""blur"",""20"",""493449""
","""event"",""trial"",""time""
""focus"",""20"",""493679""
","""event"",""trial"",""time""
""fullscreenenter"",""1"",""8393""
","
","","","-1","","","10","3780","1416","&#9728;","elianto","#f73b6a7A","-1","-1","1","0","[]","0","1","","","3780","14","0","4","lose","no-go","0"
"pit-trial","132","1216827","0.0-18.0","battery-v0.2","","""event"",""trial"",""time""
""fullscreenenter"",""1"",""8393""
""blur"",""20"",""493449""
""focus"",""20"",""493679""
","""event"",""trial"",""time""
""blur"",""20"",""493449""
","""event"",""trial"",""time""
""focus"",""20"",""493679""
","""event"",""trial"",""time""
""fullscreenenter"",""1"",""8393""
","
","","","904","","","10","3780","1416","&#9733;","elianto","#3366ff99","-1"," ","0","0","[1760]","1","1","","","3780","15","2","2","win","no-go","0"
"pit-trial","133","1221683","0.0-19.0","battery-v0.2","","""event"",""trial"",""time""
""fullscreenenter"",""1"",""8393""
""blur"",""20"",""493449""
""focus"",""20"",""493679""
","""event"",""trial"",""time""
""blur"",""20"",""493449""
","""event"",""trial"",""time""
""focus"",""20"",""493679""
","""event"",""trial"",""time""
""fullscreenenter"",""1"",""8393""
","
","","","-1","","","10","3780","1416","&#9730;","elianto","#3366ff99"," ","-1","0","0","[]","0","1","","","3780","16","1","1","win","go","0"
"pit-trial","134","1225523","0.0-20.0","battery-v0.2","","""event"",""trial"",""time""
""fullscreenenter"",""1"",""8393""
""blur"",""20"",""493449""
""focus"",""20"",""493679""
","""event"",""trial"",""time""
""blur"",""20"",""493449""
","""event"",""trial"",""time""
""focus"",""20"",""493679""
","""event"",""trial"",""time""
""fullscreenenter"",""1"",""8393""
","
","","","984","","","10","3780","1416","&#9752;","elianto","#f73b6a7A"," "," ","1","0","[1835]","1","1","","","3780","17","3","3","lose","go","0"
"pit-trial","135","1229572","0.0-21.0","battery-v0.2","","""event"",""trial"",""time""
""fullscreenenter"",""1"",""8393""
""blur"",""20"",""493449""
""focus"",""20"",""493679""
","""event"",""trial"",""time""
""blur"",""20"",""493449""
","""event"",""trial"",""time""
""focus"",""20"",""493679""
","""event"",""trial"",""time""
""fullscreenenter"",""1"",""8393""
","
","","","1192","","","10","3780","1416","&#9733;","elianto","#3366ff99","-1"," ","0","0","[2042]","1","1","","","3780","18","2","2","win","no-go","0"
"pit-trial","136","1234030","0.0-22.0","battery-v0.2","","""event"",""trial"",""time""
""fullscreenenter"",""1"",""8393""
""blur"",""20"",""493449""
""focus"",""20"",""493679""
","""event"",""trial"",""time""
""blur"",""20"",""493449""
","""event"",""trial"",""time""
""focus"",""20"",""493679""
","""event"",""trial"",""time""
""fullscreenenter"",""1"",""8393""
","
","","","1603","","","10","3780","1416","&#9730;","elianto","#3366ff99"," "," ","1","+10","[2453]","1","1","","","3780","19","1","1","win","go","0"
"pit-trial","137","1238094","0.0-23.0","battery-v0.2","","""event"",""trial"",""time""
""fullscreenenter"",""1"",""8393""
""blur"",""20"",""493449""
""focus"",""20"",""493679""
","""event"",""trial"",""time""
""blur"",""20"",""493449""
","""event"",""trial"",""time""
""focus"",""20"",""493679""
","""event"",""trial"",""time""
""fullscreenenter"",""1"",""8393""
","
","","","1209","","","10","3780","1416","&#9728;","elianto","#f73b6a7A","-1"," ","0","-10","[2059]","1","1","","","3780","20","0","4","lose","no-go","0"
"pit-instructions","138","1253303","0.0-24.0","battery-v0.2","","""event"",""trial"",""time""
""fullscreenenter"",""1"",""8393""
""blur"",""20"",""493449""
""focus"",""20"",""493679""
","""event"",""trial"",""time""
""blur"",""20"",""493449""
","""event"",""trial"",""time""
""focus"",""20"",""493679""
","""event"",""trial"",""time""
""fullscreenenter"",""1"",""8393""
","
","","[{""page_index"":0,""viewing_time"":7314},{""page_index"":1,""viewing_time"":7891}]","15205","","","","","","","","","","","","","","","","","","","","","","","",""
"pit-trial","139","1257058","0.0-25.0","battery-v0.2","","""event"",""trial"",""time""
""fullscreenenter"",""1"",""8393""
""blur"",""20"",""493449""
""focus"",""20"",""493679""
","""event"",""trial"",""time""
""blur"",""20"",""493449""
","""event"",""trial"",""time""
""focus"",""20"",""493679""
","""event"",""trial"",""time""
""fullscreenenter"",""1"",""8393""
","
","","","894","","","10","3780","1416","f","elianto","#3366ff99","-1"," ","0","0","[1744]","1","2","","","3780","21","1","2","win","no-go","0"
"pit-trial","140","1261096","0.0-26.0","battery-v0.2","","""event"",""trial"",""time""
""fullscreenenter"",""1"",""8393""
""blur"",""20"",""493449""
""focus"",""20"",""493679""
","""event"",""trial"",""time""
""blur"",""20"",""493449""
","""event"",""trial"",""time""
""focus"",""20"",""493679""
","""event"",""trial"",""time""
""fullscreenenter"",""1"",""8393""
","
","","","1181","","","10","3780","1416","b","elianto","#f73b6a7A","-1"," ","0","-10","[2031]","1","2","","","3780","22","3","4","lose","no-go","0"
"pit-trial","141","1265951","0.0-27.0","battery-v0.2","","""event"",""trial"",""time""
""fullscreenenter"",""1"",""8393""
""blur"",""20"",""493449""
""focus"",""20"",""493679""
","""event"",""trial"",""time""
""blur"",""20"",""493449""
","""event"",""trial"",""time""
""focus"",""20"",""493679""
","""event"",""trial"",""time""
""fullscreenenter"",""1"",""8393""
","
","","","-1","","","10","3780","1416","t","elianto","#f73b6a7A"," ","-1","0","-10","[]","0","2","","","3780","23","2","3","lose","go","0"
"pit-trial","142","1269915","0.0-28.0","battery-v0.2","","""event"",""trial"",""time""
""fullscreenenter"",""1"",""8393""
""blur"",""20"",""493449""
""focus"",""20"",""493679""
","""event"",""trial"",""time""
""blur"",""20"",""493449""
","""event"",""trial"",""time""
""focus"",""20"",""493679""
","""event"",""trial"",""time""
""fullscreenenter"",""1"",""8393""
","
","","","1109","","","10","3780","1416","n","elianto","#f73b6a7A"," "," ","1","-10","[1960]","1","2","","","3780","24","0","3","lose","go","1"
"pit-trial","143","1274770","0.0-29.0","battery-v0.2","","""event"",""trial"",""time""
""fullscreenenter"",""1"",""8393""
""blur"",""20"",""493449""
""focus"",""20"",""493679""
","""event"",""trial"",""time""
""blur"",""20"",""493449""
","""event"",""trial"",""time""
""focus"",""20"",""493679""
","""event"",""trial"",""time""
""fullscreenenter"",""1"",""8393""
","
","","","-1","","","10","3780","1416","n","elianto","#f73b6a7A"," ","-1","0","-10","[]","0","2","","","3780","25","0","3","lose","go","0"
"pit-trial","144","1278742","0.0-30.0","battery-v0.2","","""event"",""trial"",""time""
""fullscreenenter"",""1"",""8393""
""blur"",""20"",""493449""
""focus"",""20"",""493679""
","""event"",""trial"",""time""
""blur"",""20"",""493449""
","""event"",""trial"",""time""
""focus"",""20"",""493679""
","""event"",""trial"",""time""
""fullscreenenter"",""1"",""8393""
","
","","","1116","","","10","3780","1416","t","elianto","#f73b6a7A"," "," ","1","0","[1966]","1","2","","","3780","26","2","3","lose","go","0"
"pit-trial","145","1283596","0.0-31.0","battery-v0.2","","""event"",""trial"",""time""
""fullscreenenter"",""1"",""8393""
""blur"",""20"",""493449""
""focus"",""20"",""493679""
","""event"",""trial"",""time""
""blur"",""20"",""493449""
","""event"",""trial"",""time""
""focus"",""20"",""493679""
","""event"",""trial"",""time""
""fullscreenenter"",""1"",""8393""
","
","","","-1","","","10","3780","1416","f","elianto","#3366ff99","-1","-1","1","+10","[]","0","2","","","3780","27","1","2","win","no-go","0"
"pit-trial","146","1287708","0.0-32.0","battery-v0.2","","""event"",""trial"",""time""
""fullscreenenter"",""1"",""8393""
""blur"",""20"",""493449""
""focus"",""20"",""493679""
","""event"",""trial"",""time""
""blur"",""20"",""493449""
","""event"",""trial"",""time""
""focus"",""20"",""493679""
","""event"",""trial"",""time""
""fullscreenenter"",""1"",""8393""
","
","","","1253","","","10","3780","1416","b","elianto","#f73b6a7A","-1"," ","0","-10","[2104]","1","2","","","3780","28","3","4","lose","no-go","0"
"pit-trial","147","1291924","0.0-33.0","battery-v0.2","","""event"",""trial"",""time""
""fullscreenenter"",""1"",""8393""
""blur"",""20"",""493449""
""focus"",""20"",""493679""
","""event"",""trial"",""time""
""blur"",""20"",""493449""
","""event"",""trial"",""time""
""focus"",""20"",""493679""
","""event"",""trial"",""time""
""fullscreenenter"",""1"",""8393""
","
","","","1355","","","10","3780","1416","t","elianto","#f73b6a7A"," "," ","1","-10","[2210]","1","2","","","3780","29","2","3","lose","go","1"
"pit-trial","148","1296781","0.0-34.0","battery-v0.2","","""event"",""trial"",""time""
""fullscreenenter"",""1"",""8393""
""blur"",""20"",""493449""
""focus"",""20"",""493679""
","""event"",""trial"",""time""
""blur"",""20"",""493449""
","""event"",""trial"",""time""
""focus"",""20"",""493679""
","""event"",""trial"",""time""
""fullscreenenter"",""1"",""8393""
","
","","","-1","","","10","3780","1416","n","elianto","#f73b6a7A"," ","-1","0","-10","[]","0","2","","","3780","30","0","3","lose","go","0"
"pit-trial","149","1300968","0.0-35.0","battery-v0.2","","""event"",""trial"",""time""
""fullscreenenter"",""1"",""8393""
""blur"",""20"",""493449""
""focus"",""20"",""493679""
","""event"",""trial"",""time""
""blur"",""20"",""493449""
","""event"",""trial"",""time""
""focus"",""20"",""493679""
","""event"",""trial"",""time""
""fullscreenenter"",""1"",""8393""
","
","","","1332","","","10","3780","1416","f","elianto","#3366ff99","-1"," ","0","0","[2181]","1","2","","","3780","31","1","2","win","no-go","0"
"pit-trial","150","1305823","0.0-36.0","battery-v0.2","","""event"",""trial"",""time""
""fullscreenenter"",""1"",""8393""
""blur"",""20"",""493449""
""focus"",""20"",""493679""
","""event"",""trial"",""time""
""blur"",""20"",""493449""
","""event"",""trial"",""time""
""focus"",""20"",""493679""
","""event"",""trial"",""time""
""fullscreenenter"",""1"",""8393""
","
","","","-1","","","10","3780","1416","b","elianto","#f73b6a7A","-1","-1","1","0","[]","0","2","","","3780","32","3","4","lose","no-go","0"
"pit-trial","151","1310489","0.0-37.0","battery-v0.2","","""event"",""trial"",""time""
""fullscreenenter"",""1"",""8393""
""blur"",""20"",""493449""
""focus"",""20"",""493679""
","""event"",""trial"",""time""
""blur"",""20"",""493449""
","""event"",""trial"",""time""
""focus"",""20"",""493679""
","""event"",""trial"",""time""
""fullscreenenter"",""1"",""8393""
","
","","","1810","","","10","3780","1416","t","elianto","#f73b6a7A"," "," ","1","0","[2659]","1","2","","","3780","33","2","3","lose","go","0"
"pit-trial","152","1315344","0.0-38.0","battery-v0.2","","""event"",""trial"",""time""
""fullscreenenter"",""1"",""8393""
""blur"",""20"",""493449""
""focus"",""20"",""493679""
","""event"",""trial"",""time""
""blur"",""20"",""493449""
","""event"",""trial"",""time""
""focus"",""20"",""493679""
","""event"",""trial"",""time""
""fullscreenenter"",""1"",""8393""
","
","","","-1","","","10","3780","1416","f","elianto","#3366ff99","-1","-1","1","+10","[]","0","2","","","3780","34","1","2","win","no-go","0"
"pit-trial","153","1320100","0.0-39.0","battery-v0.2","","""event"",""trial"",""time""
""fullscreenenter"",""1"",""8393""
""blur"",""20"",""493449""
""focus"",""20"",""493679""
","""event"",""trial"",""time""
""blur"",""20"",""493449""
","""event"",""trial"",""time""
""focus"",""20"",""493679""
","""event"",""trial"",""time""
""fullscreenenter"",""1"",""8393""
","
","","","1901","","","10","3780","1416","n","elianto","#f73b6a7A"," "," ","1","0","[2751]","1","2","","","3780","35","0","3","lose","go","0"
"pit-trial","154","1324957","0.0-40.0","battery-v0.2","","""event"",""trial"",""time""
""fullscreenenter"",""1"",""8393""
""blur"",""20"",""493449""
""focus"",""20"",""493679""
","""event"",""trial"",""time""
""blur"",""20"",""493449""
","""event"",""trial"",""time""
""focus"",""20"",""493679""
","""event"",""trial"",""time""
""fullscreenenter"",""1"",""8393""
","
","","","-1","","","10","3780","1416","b","elianto","#f73b6a7A","-1","-1","1","0","[]","0","2","","","3780","36","3","4","lose","no-go","0"
"pit-trial","155","1329813","0.0-41.0","battery-v0.2","","""event"",""trial"",""time""
""fullscreenenter"",""1"",""8393""
""blur"",""20"",""493449""
""focus"",""20"",""493679""
","""event"",""trial"",""time""
""blur"",""20"",""493449""
","""event"",""trial"",""time""
""focus"",""20"",""493679""
","""event"",""trial"",""time""
""fullscreenenter"",""1"",""8393""
","
","","","-1","","","10","3780","1416","f","elianto","#3366ff99","-1","-1","1","+10","[]","0","2","","","3780","37","1","2","win","no-go","0"
"pit-trial","156","1334453","0.0-42.0","battery-v0.2","","""event"",""trial"",""time""
""fullscreenenter"",""1"",""8393""
""blur"",""20"",""493449""
""focus"",""20"",""493679""
","""event"",""trial"",""time""
""blur"",""20"",""493449""
","""event"",""trial"",""time""
""focus"",""20"",""493679""
","""event"",""trial"",""time""
""fullscreenenter"",""1"",""8393""
","
","","","1778","","","10","3780","1416","b","elianto","#f73b6a7A","-1"," ","0","-10","[2635]","1","2","","","3780","38","3","4","lose","no-go","0"
"pit-trial","157","1338384","0.0-43.0","battery-v0.2","","""event"",""trial"",""time""
""fullscreenenter"",""1"",""8393""
""blur"",""20"",""493449""
""focus"",""20"",""493679""
","""event"",""trial"",""time""
""blur"",""20"",""493449""
","""event"",""trial"",""time""
""focus"",""20"",""493679""
","""event"",""trial"",""time""
""fullscreenenter"",""1"",""8393""
","
","","","1072","","","10","3780","1416","t","elianto","#f73b6a7A"," "," ","1","-10","[1924]","1","2","","","3780","39","2","3","lose","go","1"
"pit-trial","158","1342537","0.0-44.0","battery-v0.2","","""event"",""trial"",""time""
""fullscreenenter"",""1"",""8393""
""blur"",""20"",""493449""
""focus"",""20"",""493679""
","""event"",""trial"",""time""
""blur"",""20"",""493449""
","""event"",""trial"",""time""
""focus"",""20"",""493679""
","""event"",""trial"",""time""
""fullscreenenter"",""1"",""8393""
","
","","","1298","","","10","3780","1416","n","elianto","#f73b6a7A"," "," ","1","-10","[2148]","1","2","","","3780","40","0","3","lose","go","1"
"pit-trial","159","1347394","0.0-45.0","battery-v0.2","","""event"",""trial"",""time""
""fullscreenenter"",""1"",""8393""
""blur"",""20"",""493449""
""focus"",""20"",""493679""
","""event"",""trial"",""time""
""blur"",""20"",""493449""
","""event"",""trial"",""time""
""focus"",""20"",""493679""
","""event"",""trial"",""time""
""fullscreenenter"",""1"",""8393""
","
","","","-1","","","10","3780","1416","f","elianto","#3366ff99","-1","-1","1","+10","[]","0","2","","","3780","41","1","2","win","no-go","0"
"pit-trial","160","1351386","0.0-46.0","battery-v0.2","","""event"",""trial"",""time""
""fullscreenenter"",""1"",""8393""
""blur"",""20"",""493449""
""focus"",""20"",""493679""
","""event"",""trial"",""time""
""blur"",""20"",""493449""
","""event"",""trial"",""time""
""focus"",""20"",""493679""
","""event"",""trial"",""time""
""fullscreenenter"",""1"",""8393""
","
","","","1138","","","10","3780","1416","t","elianto","#f73b6a7A"," "," ","1","0","[1988]","1","2","","","3780","42","2","3","lose","go","0"
"pit-trial","161","1355502","0.0-47.0","battery-v0.2","","""event"",""trial"",""time""
""fullscreenenter"",""1"",""8393""
""blur"",""20"",""493449""
""focus"",""20"",""493679""
","""event"",""trial"",""time""
""blur"",""20"",""493449""
","""event"",""trial"",""time""
""focus"",""20"",""493679""
","""event"",""trial"",""time""
""fullscreenenter"",""1"",""8393""
","
","","","1261","","","10","3780","1416","n","elianto","#f73b6a7A"," "," ","1","0","[2112]","1","2","","","3780","43","0","3","lose","go","0"
"pit-trial","162","1360360","0.0-48.0","battery-v0.2","","""event"",""trial"",""time""
""fullscreenenter"",""1"",""8393""
""blur"",""20"",""493449""
""focus"",""20"",""493679""
","""event"",""trial"",""time""
""blur"",""20"",""493449""
","""event"",""trial"",""time""
""focus"",""20"",""493679""
","""event"",""trial"",""time""
""fullscreenenter"",""1"",""8393""
","
","","","-1","","","10","3780","1416","b","elianto","#f73b6a7A","-1","-1","1","0","[]","0","2","","","3780","44","3","4","lose","no-go","0"
"pit-trial","163","1364542","0.0-49.0","battery-v0.2","","""event"",""trial"",""time""
""fullscreenenter"",""1"",""8393""
""blur"",""20"",""493449""
""focus"",""20"",""493679""
","""event"",""trial"",""time""
""blur"",""20"",""493449""
","""event"",""trial"",""time""
""focus"",""20"",""493679""
","""event"",""trial"",""time""
""fullscreenenter"",""1"",""8393""
","
","","","1326","","","10","3780","1416","n","elianto","#f73b6a7A"," "," ","1","0","[2176]","1","2","","","3780","45","0","3","lose","go","0"
"pit-trial","164","1369397","0.0-50.0","battery-v0.2","","""event"",""trial"",""time""
""fullscreenenter"",""1"",""8393""
""blur"",""20"",""493449""
""focus"",""20"",""493679""
","""event"",""trial"",""time""
""blur"",""20"",""493449""
","""event"",""trial"",""time""
""focus"",""20"",""493679""
","""event"",""trial"",""time""
""fullscreenenter"",""1"",""8393""
","
","","","-1","","","10","3780","1416","b","elianto","#f73b6a7A","-1","-1","1","0","[]","0","2","","","3780","46","3","4","lose","no-go","0"
"pit-trial","165","1374253","0.0-51.0","battery-v0.2","","""event"",""trial"",""time""
""fullscreenenter"",""1"",""8393""
""blur"",""20"",""493449""
""focus"",""20"",""493679""
","""event"",""trial"",""time""
""blur"",""20"",""493449""
","""event"",""trial"",""time""
""focus"",""20"",""493679""
","""event"",""trial"",""time""
""fullscreenenter"",""1"",""8393""
","
","","","-1","","","10","3780","1416","f","elianto","#3366ff99","-1","-1","1","+10","[]","0","2","","","3780","47","1","2","win","no-go","0"
"pit-trial","166","1378355","0.0-52.0","battery-v0.2","","""event"",""trial"",""time""
""fullscreenenter"",""1"",""8393""
""blur"",""20"",""493449""
""focus"",""20"",""493679""
","""event"",""trial"",""time""
""blur"",""20"",""493449""
","""event"",""trial"",""time""
""focus"",""20"",""493679""
","""event"",""trial"",""time""
""fullscreenenter"",""1"",""8393""
","
","","","1248","","","10","3780","1416","t","elianto","#f73b6a7A"," "," ","1","0","[2096]","1","2","","","3780","48","2","3","lose","go","0"
"pit-trial","167","1383230","0.0-53.0","battery-v0.2","","""event"",""trial"",""time""
""fullscreenenter"",""1"",""8393""
""blur"",""20"",""493449""
""focus"",""20"",""493679""
","""event"",""trial"",""time""
""blur"",""20"",""493449""
","""event"",""trial"",""time""
""focus"",""20"",""493679""
","""event"",""trial"",""time""
""fullscreenenter"",""1"",""8393""
","
","","","-1","","","10","3780","1416","b","elianto","#f73b6a7A","-1","-1","1","-10","[]","0","2","","","3780","49","3","4","lose","no-go","1"
"pit-trial","168","1387225","0.0-54.0","battery-v0.2","","""event"",""trial"",""time""
""fullscreenenter"",""1"",""8393""
""blur"",""20"",""493449""
""focus"",""20"",""493679""
","""event"",""trial"",""time""
""blur"",""20"",""493449""
","""event"",""trial"",""time""
""focus"",""20"",""493679""
","""event"",""trial"",""time""
""fullscreenenter"",""1"",""8393""
","
","","","1140","","","10","3780","1416","f","elianto","#3366ff99","-1"," ","0","+10","[1990]","1","2","","","3780","50","1","2","win","no-go","1"
"pit-trial","169","1391319","0.0-55.0","battery-v0.2","","""event"",""trial"",""time""
""fullscreenenter"",""1"",""8393""
""blur"",""20"",""493449""
""focus"",""20"",""493679""
","""event"",""trial"",""time""
""blur"",""20"",""493449""
","""event"",""trial"",""time""
""focus"",""20"",""493679""
","""event"",""trial"",""time""
""fullscreenenter"",""1"",""8393""
","
","","","1235","","","10","3780","1416","t","elianto","#f73b6a7A"," "," ","1","0","[2088]","1","2","","","3780","51","2","3","lose","go","0"
"pit-trial","170","1395254","0.0-56.0","battery-v0.2","","""event"",""trial"",""time""
""fullscreenenter"",""1"",""8393""
""blur"",""20"",""493449""
""focus"",""20"",""493679""
","""event"",""trial"",""time""
""blur"",""20"",""493449""
","""event"",""trial"",""time""
""focus"",""20"",""493679""
","""event"",""trial"",""time""
""fullscreenenter"",""1"",""8393""
","
","","","1078","","","10","3780","1416","n","elianto","#f73b6a7A"," "," ","1","-10","[1929]","1","2","","","3780","52","0","3","lose","go","1"
"pit-trial","171","1400109","0.0-57.0","battery-v0.2","","""event"",""trial"",""time""
""fullscreenenter"",""1"",""8393""
""blur"",""20"",""493449""
""focus"",""20"",""493679""
","""event"",""trial"",""time""
""blur"",""20"",""493449""
","""event"",""trial"",""time""
""focus"",""20"",""493679""
","""event"",""trial"",""time""
""fullscreenenter"",""1"",""8393""
","
","","","-1","","","10","3780","1416","f","elianto","#3366ff99","-1","-1","1","0","[]","0","2","","","3780","53","1","2","win","no-go","1"
"pit-trial","172","1403987","0.0-58.0","battery-v0.2","","""event"",""trial"",""time""
""fullscreenenter"",""1"",""8393""
""blur"",""20"",""493449""
""focus"",""20"",""493679""
","""event"",""trial"",""time""
""blur"",""20"",""493449""
","""event"",""trial"",""time""
""focus"",""20"",""493679""
","""event"",""trial"",""time""
""fullscreenenter"",""1"",""8393""
","
","","","1019","","","10","3780","1416","t","elianto","#f73b6a7A"," "," ","1","0","[1871]","1","2","","","3780","54","2","3","lose","go","0"
"pit-trial","173","1408844","0.0-59.0","battery-v0.2","","""event"",""trial"",""time""
""fullscreenenter"",""1"",""8393""
""blur"",""20"",""493449""
""focus"",""20"",""493679""
","""event"",""trial"",""time""
""blur"",""20"",""493449""
","""event"",""trial"",""time""
""focus"",""20"",""493679""
","""event"",""trial"",""time""
""fullscreenenter"",""1"",""8393""
","
","","","-1","","","10","3780","1416","b","elianto","#f73b6a7A","-1","-1","1","0","[]","0","2","","","3780","55","3","4","lose","no-go","0"
"pit-trial","174","1412736","0.0-60.0","battery-v0.2","","""event"",""trial"",""time""
""fullscreenenter"",""1"",""8393""
""blur"",""20"",""493449""
""focus"",""20"",""493679""
","""event"",""trial"",""time""
""blur"",""20"",""493449""
","""event"",""trial"",""time""
""focus"",""20"",""493679""
","""event"",""trial"",""time""
""fullscreenenter"",""1"",""8393""
","
","","","1037","","","10","3780","1416","n","elianto","#f73b6a7A"," "," ","1","-10","[1888]","1","2","","","3780","56","0","3","lose","go","1"
"pit-trial","175","1416709","0.0-61.0","battery-v0.2","","""event"",""trial"",""time""
""fullscreenenter"",""1"",""8393""
""blur"",""20"",""493449""
""focus"",""20"",""493679""
","""event"",""trial"",""time""
""blur"",""20"",""493449""
","""event"",""trial"",""time""
""focus"",""20"",""493679""
","""event"",""trial"",""time""
""fullscreenenter"",""1"",""8393""
","
","","","1113","","","10","3780","1416","n","elianto","#f73b6a7A"," "," ","1","0","[1968]","1","2","","","3780","57","0","3","lose","go","0"
"pit-trial","176","1420625","0.0-62.0","battery-v0.2","","""event"",""trial"",""time""
""fullscreenenter"",""1"",""8393""
""blur"",""20"",""493449""
""focus"",""20"",""493679""
","""event"",""trial"",""time""
""blur"",""20"",""493449""
","""event"",""trial"",""time""
""focus"",""20"",""493679""
","""event"",""trial"",""time""
""fullscreenenter"",""1"",""8393""
","
","","","1059","","","10","3780","1416","t","elianto","#f73b6a7A"," "," ","1","0","[1909]","1","2","","","3780","58","2","3","lose","go","0"
"pit-trial","177","1425480","0.0-63.0","battery-v0.2","","""event"",""trial"",""time""
""fullscreenenter"",""1"",""8393""
""blur"",""20"",""493449""
""focus"",""20"",""493679""
","""event"",""trial"",""time""
""blur"",""20"",""493449""
","""event"",""trial"",""time""
""focus"",""20"",""493679""
","""event"",""trial"",""time""
""fullscreenenter"",""1"",""8393""
","
","","","-1","","","10","3780","1416","b","elianto","#f73b6a7A","-1","-1","1","0","[]","0","2","","","3780","59","3","4","lose","no-go","0"
"pit-trial","178","1429573","0.0-64.0","battery-v0.2","","""event"",""trial"",""time""
""fullscreenenter"",""1"",""8393""
""blur"",""20"",""493449""
""focus"",""20"",""493679""
","""event"",""trial"",""time""
""blur"",""20"",""493449""
","""event"",""trial"",""time""
""focus"",""20"",""493679""
","""event"",""trial"",""time""
""fullscreenenter"",""1"",""8393""
","
","","","1237","","","10","3780","1416","c","elianto","#3366ff99"," "," ","1","+10","[2086]","1","2","","","3780","60","4","1","win","go","0"
"pit-trial","179","1433443","0.0-65.0","battery-v0.2","","""event"",""trial"",""time""
""fullscreenenter"",""1"",""8393""
""blur"",""20"",""493449""
""focus"",""20"",""493679""
","""event"",""trial"",""time""
""blur"",""20"",""493449""
","""event"",""trial"",""time""
""focus"",""20"",""493679""
","""event"",""trial"",""time""
""fullscreenenter"",""1"",""8393""
","
","","","1015","","","10","3780","1416","f","elianto","#3366ff99","-1"," ","0","0","[1865]","1","2","","","3780","61","1","2","win","no-go","0"
"pit-trial","180","1437270","0.0-66.0","battery-v0.2","","""event"",""trial"",""time""
""fullscreenenter"",""1"",""8393""
""blur"",""20"",""493449""
""focus"",""20"",""493679""
","""event"",""trial"",""time""
""blur"",""20"",""493449""
","""event"",""trial"",""time""
""focus"",""20"",""493679""
","""event"",""trial"",""time""
""fullscreenenter"",""1"",""8393""
","
","","","971","","","10","3780","1416","c","elianto","#3366ff99"," "," ","1","+10","[1823]","1","2","","","3780","62","4","1","win","go","0"
"pit-trial","181","1441116","0.0-67.0","battery-v0.2","","""event"",""trial"",""time""
""fullscreenenter"",""1"",""8393""
""blur"",""20"",""493449""
""focus"",""20"",""493679""
","""event"",""trial"",""time""
""blur"",""20"",""493449""
","""event"",""trial"",""time""
""focus"",""20"",""493679""
","""event"",""trial"",""time""
""fullscreenenter"",""1"",""8393""
","
","","","989","","","10","3780","1416","t","elianto","#f73b6a7A"," "," ","1","0","[1840]","1","2","","","3780","63","2","3","lose","go","0"
"pit-trial","182","1445973","0.0-68.0","battery-v0.2","","""event"",""trial"",""time""
""fullscreenenter"",""1"",""8393""
""blur"",""20"",""493449""
""focus"",""20"",""493679""
","""event"",""trial"",""time""
""blur"",""20"",""493449""
","""event"",""trial"",""time""
""focus"",""20"",""493679""
","""event"",""trial"",""time""
""fullscreenenter"",""1"",""8393""
","
","","","-1","","","10","3780","1416","b","elianto","#f73b6a7A","-1","-1","1","-10","[]","0","2","","","3780","64","3","4","lose","no-go","1"
"pit-trial","183","1449673","0.0-69.0","battery-v0.2","","""event"",""trial"",""time""
""fullscreenenter"",""1"",""8393""
""blur"",""20"",""493449""
""focus"",""20"",""493679""
","""event"",""trial"",""time""
""blur"",""20"",""493449""
","""event"",""trial"",""time""
""focus"",""20"",""493679""
","""event"",""trial"",""time""
""fullscreenenter"",""1"",""8393""
","
","","","844","","","10","3780","1416","b","elianto","#f73b6a7A","-1"," ","0","-10","[1694]","1","2","","","3780","65","3","4","lose","no-go","0"
"pit-trial","184","1453724","0.0-70.0","battery-v0.2","","""event"",""trial"",""time""
""fullscreenenter"",""1"",""8393""
""blur"",""20"",""493449""
""focus"",""20"",""493679""
","""event"",""trial"",""time""
""blur"",""20"",""493449""
","""event"",""trial"",""time""
""focus"",""20"",""493679""
","""event"",""trial"",""time""
""fullscreenenter"",""1"",""8393""
","
","","","1190","","","10","3780","1416","z","elianto","#3366ff99","-1"," ","0","0","[2045]","1","2","","","3780","66","5","2","win","no-go","0"
"pit-trial","185","1457795","0.0-71.0","battery-v0.2","","""event"",""trial"",""time""
""fullscreenenter"",""1"",""8393""
""blur"",""20"",""493449""
""focus"",""20"",""493679""
","""event"",""trial"",""time""
""blur"",""20"",""493449""
","""event"",""trial"",""time""
""focus"",""20"",""493679""
","""event"",""trial"",""time""
""fullscreenenter"",""1"",""8393""
","
","","","1216","","","10","3780","1416","c","elianto","#3366ff99"," "," ","1","+10","[2067]","1","2","","","3780","67","4","1","win","go","0"
"pit-trial","186","1461629","0.0-72.0","battery-v0.2","","""event"",""trial"",""time""
""fullscreenenter"",""1"",""8393""
""blur"",""20"",""493449""
""focus"",""20"",""493679""
","""event"",""trial"",""time""
""blur"",""20"",""493449""
","""event"",""trial"",""time""
""focus"",""20"",""493679""
","""event"",""trial"",""time""
""fullscreenenter"",""1"",""8393""
","
","","","979","","","10","3780","1416","f","elianto","#3366ff99","-1"," ","0","0","[1829]","1","2","","","3780","68","1","2","win","no-go","0"
"pit-trial","187","1465661","0.0-73.0","battery-v0.2","","""event"",""trial"",""time""
""fullscreenenter"",""1"",""8393""
""blur"",""20"",""493449""
""focus"",""20"",""493679""
","""event"",""trial"",""time""
""blur"",""20"",""493449""
","""event"",""trial"",""time""
""focus"",""20"",""493679""
","""event"",""trial"",""time""
""fullscreenenter"",""1"",""8393""
","
","","","1176","","","10","3780","1416","c","elianto","#3366ff99"," "," ","1","+10","[2026]","1","2","","","3780","69","4","1","win","go","0"
"pit-trial","188","1469513","0.0-74.0","battery-v0.2","","""event"",""trial"",""time""
""fullscreenenter"",""1"",""8393""
""blur"",""20"",""493449""
""focus"",""20"",""493679""
","""event"",""trial"",""time""
""blur"",""20"",""493449""
","""event"",""trial"",""time""
""focus"",""20"",""493679""
","""event"",""trial"",""time""
""fullscreenenter"",""1"",""8393""
","
","","","995","","","10","3780","1416","t","elianto","#f73b6a7A"," "," ","1","0","[1847]","1","2","","","3780","70","2","3","lose","go","0"
"pit-trial","189","1474370","0.0-75.0","battery-v0.2","","""event"",""trial"",""time""
""fullscreenenter"",""1"",""8393""
""blur"",""20"",""493449""
""focus"",""20"",""493679""
","""event"",""trial"",""time""
""blur"",""20"",""493449""
","""event"",""trial"",""time""
""focus"",""20"",""493679""
","""event"",""trial"",""time""
""fullscreenenter"",""1"",""8393""
","
","","","-1","","","10","3780","1416","f","elianto","#3366ff99","-1","-1","1","+10","[]","0","2","","","3780","71","1","2","win","no-go","0"
"pit-trial","190","1478999","0.0-76.0","battery-v0.2","","""event"",""trial"",""time""
""fullscreenenter"",""1"",""8393""
""blur"",""20"",""493449""
""focus"",""20"",""493679""
","""event"",""trial"",""time""
""blur"",""20"",""493449""
","""event"",""trial"",""time""
""focus"",""20"",""493679""
","""event"",""trial"",""time""
""fullscreenenter"",""1"",""8393""
","
","","","1773","","","10","3780","1416","z","elianto","#3366ff99","-1"," ","0","0","[2623]","1","2","","","3780","72","5","2","win","no-go","0"
"pit-trial","191","1483221","0.0-77.0","battery-v0.2","","""event"",""trial"",""time""
""fullscreenenter"",""1"",""8393""
""blur"",""20"",""493449""
""focus"",""20"",""493679""
","""event"",""trial"",""time""
""blur"",""20"",""493449""
","""event"",""trial"",""time""
""focus"",""20"",""493679""
","""event"",""trial"",""time""
""fullscreenenter"",""1"",""8393""
","
","","","1364","","","10","3780","1416","f","elianto","#3366ff99","-1"," ","0","0","[2215]","1","2","","","3780","73","1","2","win","no-go","0"
"pit-trial","192","1487702","0.0-78.0","battery-v0.2","","""event"",""trial"",""time""
""fullscreenenter"",""1"",""8393""
""blur"",""20"",""493449""
""focus"",""20"",""493679""
","""event"",""trial"",""time""
""blur"",""20"",""493449""
","""event"",""trial"",""time""
""focus"",""20"",""493679""
","""event"",""trial"",""time""
""fullscreenenter"",""1"",""8393""
","
