"trial_type","trial_index","time_elapsed","internal_node_id","task_version","subject_id","interactions","blur_events","focus_events","fullscreenenter_events","fullscreenexit_events","success","view_history","rt","responses","num_errors","age","subject","participantId","rune","rune_set","hex","correct","choice","accuracy","outcome","keys","total_keys","block","practice","value","sub","trial","stimulus","robot","valence","action","sham"
"pavlovia","0","10","0.0-0.0","battery-v0.2","","""event"",""trial"",""time""
""fullscreenenter"",""1"",""4836""
","
","
","""event"",""trial"",""time""
""fullscreenenter"",""1"",""4836""
","
","","","","","","","","","","","","","","","","","","","","","","","","","","",""
"fullscreen","1","5825","0.0-1.0","battery-v0.2","","""event"",""trial"",""time""
""fullscreenenter"",""1"",""4836""
","
","
","""event"",""trial"",""time""
""fullscreenenter"",""1"",""4836""
","
","true","","","","","","","","","","","","","","","","","","","","","","","","","",""
"pit-instructions","2","11687","0.0-2.0-0.0","battery-v0.2","","""event"",""trial"",""time""
""fullscreenenter"",""1"",""4836""
","
","
","""event"",""trial"",""time""
""fullscreenenter"",""1"",""4836""
","
","","[{""page_index"":0,""viewing_time"":5856.900000002235}]","5857.10000000149","","","","","","","","","","","","","","","","","","","","","","","",""
"pit-comprehension","3","16632","0.0-2.0-1.0-0.0","battery-v0.2","","""event"",""trial"",""time""
""fullscreenenter"",""1"",""4836""
","
","
","""event"",""trial"",""time""
""fullscreenenter"",""1"",""4836""
","
","","","4942.39999999851","[""shark""]","0","10","11076","5109","","","","","","","","","","","","","","","","","","",""
"pit-instructions","4","17991","0.0-2.0-1.0-1.0","battery-v0.2","","""event"",""trial"",""time""
""fullscreenenter"",""1"",""4836""
","
","
","""event"",""trial"",""time""
""fullscreenenter"",""1"",""4836""
","
","","[{""page_index"":0,""viewing_time"":1350.800000000745}]","1351","","","","","","","","","","","","","","","","","","","","","","","",""
"pit-comprehension","5","21432","0.0-2.0-2.0-0.0","battery-v0.2","","""event"",""trial"",""time""
""fullscreenenter"",""1"",""4836""
","
","
","""event"",""trial"",""time""
""fullscreenenter"",""1"",""4836""
","
","","","3438.599999997765","[""tiger""]","0","10","11076","5109","","","","","","","","","","","","","","","","","","",""
"pit-instructions","6","23959","0.0-2.0-2.0-1.0","battery-v0.2","","""event"",""trial"",""time""
""fullscreenenter"",""1"",""4836""
","
","
","""event"",""trial"",""time""
""fullscreenenter"",""1"",""4836""
","
","","[{""page_index"":0,""viewing_time"":2525.300000000745}]","2525.5","","","","","","","","","","","","","","","","","","","","","","","",""
"pit-instructions","7","129472","0.0-2.0-3.0","battery-v0.2","","""event"",""trial"",""time""
""fullscreenenter"",""1"",""4836""
","
","
","""event"",""trial"",""time""
""fullscreenenter"",""1"",""4836""
","
","","[{""page_index"":0,""viewing_time"":8782.5},{""page_index"":1,""viewing_time"":6112.199999999255},{""page_index"":2,""viewing_time"":8431.800000000745},{""page_index"":3,""viewing_time"":5640},{""page_index"":4,""viewing_time"":6240.10000000149},{""page_index"":5,""viewing_time"":6768},{""page_index"":6,""viewing_time"":7551.79999999702},{""page_index"":7,""viewing_time"":7936.20000000298},{""page_index"":8,""viewing_time"":8423.89999999851},{""page_index"":9,""viewing_time"":10720.10000000149},{""page_index"":10,""viewing_time"":8336},{""page_index"":11,""viewing_time"":8335.699999999255},{""page_index"":12,""viewing_time"":7112},{""page_index"":13,""viewing_time"":5120.300000000745}]","105510.89999999851","","","","","","","","","","","","","","","","","","","","","","","",""
"pit-trial","8","133136","0.0-2.0-4.0-0.0","battery-v0.2","","""event"",""trial"",""time""
""fullscreenenter"",""1"",""4836""
","
","
","""event"",""trial"",""time""
""fullscreenenter"",""1"",""4836""
","
","","","802.6000000014901","","","10","11076","5109","&#9784;","elianto","#FFFFF080"," "," ","1","&#10004","[1657.5]","1","0","0","","","","","","","",""
"pit-trial","9","136774","0.0-2.0-4.1-0.1","battery-v0.2","","""event"",""trial"",""time""
""fullscreenenter"",""1"",""4836""
","
","
","""event"",""trial"",""time""
""fullscreenenter"",""1"",""4836""
","
","","","769.5","","","10","11076","5109","&#9784;","elianto","#FFFFF080"," "," ","1","&#10004","[1629]","1","0","0","","","","","","","",""
"pit-trial","10","140408","0.0-2.0-4.2-0.2","battery-v0.2","","""event"",""trial"",""time""
""fullscreenenter"",""1"",""4836""
","
","
","""event"",""trial"",""time""
""fullscreenenter"",""1"",""4836""
","
","","","760.4000000022352","","","10","11076","5109","&#9784;","elianto","#FFFFF080"," "," ","1","&#10004","[1616.1000000014901]","1","0","0","","","","","","","",""
"pit-trial","11","144176","0.0-2.0-4.3-0.3","battery-v0.2","","""event"",""trial"",""time""
""fullscreenenter"",""1"",""4836""
","
","
","""event"",""trial"",""time""
""fullscreenenter"",""1"",""4836""
","
","","","894.4000000022352","","","10","11076","5109","&#9784;","elianto","#FFFFF080"," "," ","1","&#10004","[1750.1000000014901]","1","0","0","","","","","","","",""
"pit-trial","12","147769","0.0-2.0-4.4-0.4","battery-v0.2","","""event"",""trial"",""time""
""fullscreenenter"",""1"",""4836""
","
","
","""event"",""trial"",""time""
""fullscreenenter"",""1"",""4836""
","
","","","728.1000000014901","","","10","11076","5109","&#9784;","elianto","#FFFFF080"," "," ","1","&#10004","[1581.5]","1","0","0","","","","","","","",""
"pit-instructions","13","170176","0.0-2.0-5.0","battery-v0.2","","""event"",""trial"",""time""
""fullscreenenter"",""1"",""4836""
","
","
","""event"",""trial"",""time""
""fullscreenenter"",""1"",""4836""
","
","","[{""page_index"":0,""viewing_time"":6003},{""page_index"":1,""viewing_time"":5792.10000000149},{""page_index"":2,""viewing_time"":5224.10000000149},{""page_index"":3,""viewing_time"":5383.79999999702}]","22403.20000000298","","","","","","","","","","","","","","","","","","","","","","","",""
"pit-trial","14","175046","0.0-2.0-6.0-0.0","battery-v0.2","","""event"",""trial"",""time""
""fullscreenenter"",""1"",""4836""
","
","
","""event"",""trial"",""time""
""fullscreenenter"",""1"",""4836""
","
","","","-1","","","10","11076","5109","&#9854;","elianto","#FFFFF080","-1","-1","1","&#10004","[]","0","0","1","","","","","","","",""
"pit-trial","15","179923","0.0-2.0-6.1-0.1","battery-v0.2","","""event"",""trial"",""time""
""fullscreenenter"",""1"",""4836""
","
","
","""event"",""trial"",""time""
""fullscreenenter"",""1"",""4836""
","
","","","-1","","","10","11076","5109","&#9854;","elianto","#FFFFF080","-1","-1","1","&#10004","[]","0","0","1","","","","","","","",""
"pit-trial","16","184788","0.0-2.0-6.2-0.2","battery-v0.2","","""event"",""trial"",""time""
""fullscreenenter"",""1"",""4836""
","
","
","""event"",""trial"",""time""
""fullscreenenter"",""1"",""4836""
","
","","","-1","","","10","11076","5109","&#9854;","elianto","#FFFFF080","-1","-1","1","&#10004","[]","0","0","1","","","","","","","",""
"pit-trial","17","189652","0.0-2.0-6.3-0.3","battery-v0.2","","""event"",""trial"",""time""
""fullscreenenter"",""1"",""4836""
","
","
","""event"",""trial"",""time""
""fullscreenenter"",""1"",""4836""
","
","","","-1","","","10","11076","5109","&#9854;","elianto","#FFFFF080","-1","-1","1","&#10004","[]","0","0","1","","","","","","","",""
"pit-trial","18","194510","0.0-2.0-6.4-0.4","battery-v0.2","","""event"",""trial"",""time""
""fullscreenenter"",""1"",""4836""
","
","
","""event"",""trial"",""time""
""fullscreenenter"",""1"",""4836""
","
","","","-1","","","10","11076","5109","&#9854;","elianto","#FFFFF080","-1","-1","1","&#10004","[]","0","0","1","","","","","","","",""
"pit-instructions","19","314968","0.0-2.0-7.0","battery-v0.2","","""event"",""trial"",""time""
""fullscreenenter"",""1"",""4836""
","
","
","""event"",""trial"",""time""
""fullscreenenter"",""1"",""4836""
","
","","[{""page_index"":0,""viewing_time"":6085.699999999255},{""page_index"":1,""viewing_time"":8712.20000000298},{""page_index"":2,""viewing_time"":6616.099999997765},{""page_index"":3,""viewing_time"":7407.900000002235},{""page_index"":4,""viewing_time"":5688.099999997765},{""page_index"":5,""viewing_time"":5391.699999999255},{""page_index"":6,""viewing_time"":5200.300000000745},{""page_index"":7,""viewing_time"":7743.699999999255},{""page_index"":8,""viewing_time"":6752.20000000298},{""page_index"":9,""viewing_time"":6655.89999999851},{""page_index"":10,""viewing_time"":6551.89999999851},{""page_index"":11,""viewing_time"":4256.20000000298},{""page_index"":12,""viewing_time"":6383.699999999255},{""page_index"":13,""viewing_time"":6952.199999999255},{""page_index"":14,""viewing_time"":8232.10000000149},{""page_index"":15,""viewing_time"":7264},{""page_index"":16,""viewing_time"":6928.199999999255},{""page_index"":17,""viewing_time"":7631.800000000745}]","120454.10000000149","","","","","","","","","","","","","","","","","","","","","","","",""
"pit-trial","20","318601","0.0-2.0-8.0-0.0","battery-v0.2","","""event"",""trial"",""time""
""fullscreenenter"",""1"",""4836""
","
","
","""event"",""trial"",""time""
""fullscreenenter"",""1"",""4836""
","
","","","768.3000000007451","","","10","11076","5109","&#9776;","elianto","#3366ff99"," "," ","1","+10","[1623.7999999970198]","1","0","1","","","","","","","",""
"pit-trial","21","322183","0.0-2.0-8.0-1.0","battery-v0.2","","""event"",""trial"",""time""
""fullscreenenter"",""1"",""4836""
","
","
","""event"",""trial"",""time""
""fullscreenenter"",""1"",""4836""
","
","","","706.6999999992549","","","10","11076","5109","&#9776;","elianto","#3366ff99"," "," ","1","+10","[1565.3999999985099]","1","0","1","","","","","","","",""
"pit-trial","22","325743","0.0-2.0-8.0-2.0","battery-v0.2","","""event"",""trial"",""time""
""fullscreenenter"",""1"",""4836""
","
","
","""event"",""trial"",""time""
""fullscreenenter"",""1"",""4836""
","
","","","694.1999999992549","","","10","11076","5109","&#9776;","elianto","#3366ff99"," "," ","1","+10","[1551.8999999985099]","1","0","1","","","","","","","",""
"pit-trial","23","329368","0.0-2.0-8.0-3.0","battery-v0.2","","""event"",""trial"",""time""
""fullscreenenter"",""1"",""4836""
","
","
","""event"",""trial"",""time""
""fullscreenenter"",""1"",""4836""
","
","","","760.6999999992549","","","10","11076","5109","&#9776;","elianto","#3366ff99"," "," ","1","0","[1614.800000000745]","1","0","1","","","","","","","",""
"pit-trial","24","332941","0.0-2.0-8.0-4.0","battery-v0.2","","""event"",""trial"",""time""
""fullscreenenter"",""1"",""4836""
","
","
","""event"",""trial"",""time""
""fullscreenenter"",""1"",""4836""
","
","","","696.3000000007451","","","10","11076","5109","&#9776;","elianto","#3366ff99"," "," ","1","+10","[1558.2000000029802]","1","0","1","","","","","","","",""
"pit-trial","25","336436","0.0-2.0-8.1-0.1","battery-v0.2","","""event"",""trial"",""time""
""fullscreenenter"",""1"",""4836""
","
","
","""event"",""trial"",""time""
""fullscreenenter"",""1"",""4836""
","
","","","632.9000000022352","","","10","11076","5109","&#9776;","elianto","#3366ff99"," "," ","1","+10","[1488.1000000014901]","1","0","1","","","","","","","",""
"pit-trial","26","340016","0.0-2.0-8.1-1.1","battery-v0.2","","""event"",""trial"",""time""
""fullscreenenter"",""1"",""4836""
","
","
","""event"",""trial"",""time""
""fullscreenenter"",""1"",""4836""
","
","","","712.1999999992549","","","10","11076","5109","&#9776;","elianto","#3366ff99"," "," ","1","+10","[1569.5999999977648]","1","0","1","","","","","","","",""
"pit-trial","27","343522","0.0-2.0-8.1-2.1","battery-v0.2","","""event"",""trial"",""time""
""fullscreenenter"",""1"",""4836""
","
","
","""event"",""trial"",""time""
""fullscreenenter"",""1"",""4836""
","
","","","642.8000000007451","","","10","11076","5109","&#9776;","elianto","#3366ff99"," "," ","1","+10","[1501.5999999977648]","1","0","1","","","","","","","",""
"pit-trial","28","347225","0.0-2.0-8.1-3.1","battery-v0.2","","""event"",""trial"",""time""
""fullscreenenter"",""1"",""4836""
","
","
","""event"",""trial"",""time""
""fullscreenenter"",""1"",""4836""
","
","","","848.6999999992549","","","10","11076","5109","&#9776;","elianto","#3366ff99"," "," ","1","0","[1699.8999999985099]","1","0","1","","","","","","","",""
"pit-trial","29","350625","0.0-2.0-8.1-4.1","battery-v0.2","","""event"",""trial"",""time""
""fullscreenenter"",""1"",""4836""
","
","
","""event"",""trial"",""time""
""fullscreenenter"",""1"",""4836""
","
","","","546.3000000007451","","","10","11076","5109","&#9776;","elianto","#3366ff99"," "," ","1","+10","[1397.1000000014901]","1","0","1","","","","","","","",""
"pit-trial","30","354001","0.0-2.0-8.2-0.2","battery-v0.2","","""event"",""trial"",""time""
""fullscreenenter"",""1"",""4836""
","
","
","""event"",""trial"",""time""
""fullscreenenter"",""1"",""4836""
","
","","","520.6999999992549","","","10","11076","5109","&#9776;","elianto","#3366ff99"," "," ","1","+10","[1371.699999999255]","1","0","1","","","","","","","",""
"pit-trial","31","357736","0.0-2.0-8.2-1.2","battery-v0.2","","""event"",""trial"",""time""
""fullscreenenter"",""1"",""4836""
","
","
","""event"",""trial"",""time""
""fullscreenenter"",""1"",""4836""
","
","","","881.1999999992549","","","10","11076","5109","&#9776;","elianto","#3366ff99"," "," ","1","+10","[1732.5999999977648]","1","0","1","","","","","","","",""
"pit-trial","32","361241","0.0-2.0-8.2-2.2","battery-v0.2","","""event"",""trial"",""time""
""fullscreenenter"",""1"",""4836""
","
","
","""event"",""trial"",""time""
""fullscreenenter"",""1"",""4836""
","
","","","650.6999999992549","","","10","11076","5109","&#9776;","elianto","#3366ff99"," "," ","1","+10","[1501.300000000745]","1","0","1","","","","","","","",""
"pit-trial","33","364649","0.0-2.0-8.2-3.2","battery-v0.2","","""event"",""trial"",""time""
""fullscreenenter"",""1"",""4836""
","
","
","""event"",""trial"",""time""
""fullscreenenter"",""1"",""4836""
","
","","","555.4000000022352","","","10","11076","5109","&#9776;","elianto","#3366ff99"," "," ","1","0","[1405.699999999255]","1","0","1","","","","","","","",""
"pit-trial","34","368344","0.0-2.0-8.2-4.2","battery-v0.2","","""event"",""trial"",""time""
""fullscreenenter"",""1"",""4836""
","
","
","""event"",""trial"",""time""
""fullscreenenter"",""1"",""4836""
","
","","","840.7000000029802","","","10","11076","5109","&#9776;","elianto","#3366ff99"," "," ","1","+10","[1691.800000000745]","1","0","1","","","","","","","",""
"call-function","35","368347","0.0-2.0-9.0","battery-v0.2","","""event"",""trial"",""time""
""fullscreenenter"",""1"",""4836""
","
","
","""event"",""trial"",""time""
""fullscreenenter"",""1"",""4836""
","
","","","","","","","","","","","","","","","","","","","","","","","","","","",""
"pit-instructions","36","412000","0.0-2.0-10.0","battery-v0.2","","""event"",""trial"",""time""
""fullscreenenter"",""1"",""4836""
","
","
","""event"",""trial"",""time""
""fullscreenenter"",""1"",""4836""
","
","","[{""page_index"":0,""viewing_time"":9010.60000000149},{""page_index"":1,""viewing_time"":7040.300000000745},{""page_index"":2,""viewing_time"":9447.79999999702},{""page_index"":3,""viewing_time"":9128.20000000298},{""page_index"":4,""viewing_time"":9024}]","43651.10000000149","","","","","","","","","","","","","","","","","","","","","","","",""
"pit-trial","37","415735","0.0-2.0-11.0-0.0","battery-v0.2","","""event"",""trial"",""time""
""fullscreenenter"",""1"",""4836""
","
","
","""event"",""trial"",""time""
""fullscreenenter"",""1"",""4836""
","
","","","868.9000000022352","","","10","11076","5109","&#9761;","elianto","#3366ff99","-1"," ","0","0","[1719.5999999977648]","1","0","2","","","","","","","",""
"pit-trial","38","419255","0.0-2.0-11.0-1.0","battery-v0.2","","""event"",""trial"",""time""
""fullscreenenter"",""1"",""4836""
","
","
","""event"",""trial"",""time""
""fullscreenenter"",""1"",""4836""
","
","","","648.8999999985099","","","10","11076","5109","&#9761;","elianto","#3366ff99","-1"," ","0","0","[1503.699999999255]","1","0","2","","","","","","","",""
"pit-trial","39","422691","0.0-2.0-11.0-2.0","battery-v0.2","","""event"",""trial"",""time""
""fullscreenenter"",""1"",""4836""
","
","
","""event"",""trial"",""time""
""fullscreenenter"",""1"",""4836""
","
","","","571.5","","","10","11076","5109","&#9761;","elianto","#3366ff99","-1"," ","0","0","[1423.9000000022352]","1","0","2","","","","","","","",""
"pit-trial","40","427572","0.0-2.0-11.0-3.0","battery-v0.2","","""event"",""trial"",""time""
""fullscreenenter"",""1"",""4836""
","
","
","""event"",""trial"",""time""
""fullscreenenter"",""1"",""4836""
","
","","","-1","","","10","11076","5109","&#9761;","elianto","#3366ff99","-1","-1","1","0","[]","0","0","2","","","","","","","",""
"pit-trial","41","432442","0.0-2.0-11.0-4.0","battery-v0.2","","""event"",""trial"",""time""
""fullscreenenter"",""1"",""4836""
","
","
","""event"",""trial"",""time""
""fullscreenenter"",""1"",""4836""
","
","","","-1","","","10","11076","5109","&#9761;","elianto","#3366ff99","-1","-1","1","+10","[]","0","0","2","","","","","","","",""
"pit-trial","42","437304","0.0-2.0-11.1-0.1","battery-v0.2","","""event"",""trial"",""time""
""fullscreenenter"",""1"",""4836""
","
","
","""event"",""trial"",""time""
""fullscreenenter"",""1"",""4836""
","
","","","-1","","","10","11076","5109","&#9761;","elianto","#3366ff99","-1","-1","1","+10","[]","0","0","2","","","","","","","",""
"pit-trial","43","442169","0.0-2.0-11.1-1.1","battery-v0.2","","""event"",""trial"",""time""
""fullscreenenter"",""1"",""4836""
","
","
","""event"",""trial"",""time""
""fullscreenenter"",""1"",""4836""
","
","","","-1","","","10","11076","5109","&#9761;","elianto","#3366ff99","-1","-1","1","+10","[]","0","0","2","","","","","","","",""
"pit-trial","44","447023","0.0-2.0-11.1-2.1","battery-v0.2","","""event"",""trial"",""time""
""fullscreenenter"",""1"",""4836""
","
","
","""event"",""trial"",""time""
""fullscreenenter"",""1"",""4836""
","
","","","-1","","","10","11076","5109","&#9761;","elianto","#3366ff99","-1","-1","1","+10","[]","0","0","2","","","","","","","",""
"pit-trial","45","451878","0.0-2.0-11.1-3.1","battery-v0.2","","""event"",""trial"",""time""
""fullscreenenter"",""1"",""4836""
","
","
","""event"",""trial"",""time""
""fullscreenenter"",""1"",""4836""
","
","","","-1","","","10","11076","5109","&#9761;","elianto","#3366ff99","-1","-1","1","0","[]","0","0","2","","","","","","","",""
"pit-trial","46","456731","0.0-2.0-11.1-4.1","battery-v0.2","","""event"",""trial"",""time""
""fullscreenenter"",""1"",""4836""
","
","
","""event"",""trial"",""time""
""fullscreenenter"",""1"",""4836""
","
","","","-1","","","10","11076","5109","&#9761;","elianto","#3366ff99","-1","-1","1","+10","[]","0","0","2","","","","","","","",""
"pit-trial","47","461586","0.0-2.0-11.2-0.2","battery-v0.2","","""event"",""trial"",""time""
""fullscreenenter"",""1"",""4836""
","
","
","""event"",""trial"",""time""
""fullscreenenter"",""1"",""4836""
","
","","","-1","","","10","11076","5109","&#9761;","elianto","#3366ff99","-1","-1","1","+10","[]","0","0","2","","","","","","","",""
"pit-trial","48","466440","0.0-2.0-11.2-1.2","battery-v0.2","","""event"",""trial"",""time""
""fullscreenenter"",""1"",""4836""
","
","
","""event"",""trial"",""time""
""fullscreenenter"",""1"",""4836""
","
","","","-1","","","10","11076","5109","&#9761;","elianto","#3366ff99","-1","-1","1","+10","[]","0","0","2","","","","","","","",""
"pit-trial","49","471294","0.0-2.0-11.2-2.2","battery-v0.2","","""event"",""trial"",""time""
""fullscreenenter"",""1"",""4836""
","
","
","""event"",""trial"",""time""
""fullscreenenter"",""1"",""4836""
","
","","","-1","","","10","11076","5109","&#9761;","elianto","#3366ff99","-1","-1","1","+10","[]","0","0","2","","","","","","","",""
"pit-trial","50","476148","0.0-2.0-11.2-3.2","battery-v0.2","","""event"",""trial"",""time""
""fullscreenenter"",""1"",""4836""
","
","
","""event"",""trial"",""time""
""fullscreenenter"",""1"",""4836""
","
","","","-1","","","10","11076","5109","&#9761;","elianto","#3366ff99","-1","-1","1","0","[]","0","0","2","","","","","","","",""
"pit-trial","51","481002","0.0-2.0-11.2-4.2","battery-v0.2","","""event"",""trial"",""time""
""fullscreenenter"",""1"",""4836""
","
","
","""event"",""trial"",""time""
""fullscreenenter"",""1"",""4836""
","
","","","-1","","","10","11076","5109","&#9761;","elianto","#3366ff99","-1","-1","1","+10","[]","0","0","2","","","","","","","",""
"pit-trial","52","485854","0.0-2.0-11.3-0.3","battery-v0.2","","""event"",""trial"",""time""
""fullscreenenter"",""1"",""4836""
","
","
","""event"",""trial"",""time""
""fullscreenenter"",""1"",""4836""
","
","","","-1","","","10","11076","5109","&#9761;","elianto","#3366ff99","-1","-1","1","+10","[]","0","0","2","","","","","","","",""
"pit-trial","53","490708","0.0-2.0-11.3-1.3","battery-v0.2","","""event"",""trial"",""time""
""fullscreenenter"",""1"",""4836""
","
","
","""event"",""trial"",""time""
""fullscreenenter"",""1"",""4836""
","
","","","-1","","","10","11076","5109","&#9761;","elianto","#3366ff99","-1","-1","1","+10","[]","0","0","2","","","","","","","",""
"pit-trial","54","495562","0.0-2.0-11.3-2.3","battery-v0.2","","""event"",""trial"",""time""
""fullscreenenter"",""1"",""4836""
","
","
","""event"",""trial"",""time""
""fullscreenenter"",""1"",""4836""
","
","","","-1","","","10","11076","5109","&#9761;","elianto","#3366ff99","-1","-1","1","+10","[]","0","0","2","","","","","","","",""
"pit-trial","55","500417","0.0-2.0-11.3-3.3","battery-v0.2","","""event"",""trial"",""time""
""fullscreenenter"",""1"",""4836""
","
","
","""event"",""trial"",""time""
""fullscreenenter"",""1"",""4836""
","
","","","-1","","","10","11076","5109","&#9761;","elianto","#3366ff99","-1","-1","1","0","[]","0","0","2","","","","","","","",""
"pit-trial","56","505271","0.0-2.0-11.3-4.3","battery-v0.2","","""event"",""trial"",""time""
""fullscreenenter"",""1"",""4836""
","
","
","""event"",""trial"",""time""
""fullscreenenter"",""1"",""4836""
","
","","","-1","","","10","11076","5109","&#9761;","elianto","#3366ff99","-1","-1","1","+10","[]","0","0","2","","","","","","","",""
"call-function","57","505274","0.0-2.0-12.0","battery-v0.2","","""event"",""trial"",""time""
""fullscreenenter"",""1"",""4836""
","
","
","""event"",""trial"",""time""
""fullscreenenter"",""1"",""4836""
","
","","","","","","","","","","","","","","","","","","","","","","","","","","",""
"pit-instructions","58","540840","0.0-2.0-13.0","battery-v0.2","","""event"",""trial"",""time""
""fullscreenenter"",""1"",""4836""
","
","
","""event"",""trial"",""time""
""fullscreenenter"",""1"",""4836""
","
","","[{""page_index"":0,""viewing_time"":6333.300000000745},{""page_index"":1,""viewing_time"":7759.89999999851},{""page_index"":2,""viewing_time"":4367.800000000745},{""page_index"":3,""viewing_time"":11440},{""page_index"":4,""viewing_time"":5664.199999999255}]","35565.5","","","","","","","","","","","","","","","","","","","","","","","",""
"pit-trial","59","544487","0.0-2.0-14.0-0.0","battery-v0.2","","""event"",""trial"",""time""
""fullscreenenter"",""1"",""4836""
","
","
","""event"",""trial"",""time""
""fullscreenenter"",""1"",""4836""
","
","","","787.8000000007451","","","10","11076","5109","&#9826;","elianto","#f73b6a7A","-1"," ","0","-10","[1639.5999999977648]","1","0","3","","","","","","","",""
"pit-trial","60","547874","0.0-2.0-14.0-1.0","battery-v0.2","","""event"",""trial"",""time""
""fullscreenenter"",""1"",""4836""
","
","
","""event"",""trial"",""time""
""fullscreenenter"",""1"",""4836""
","
","","","523","","","10","11076","5109","&#9826;","elianto","#f73b6a7A","-1"," ","0","-10","[1376.2000000029802]","1","0","3","","","","","","","",""
"pit-trial","61","552743","0.0-2.0-14.0-2.0","battery-v0.2","","""event"",""trial"",""time""
""fullscreenenter"",""1"",""4836""
","
","
","""event"",""trial"",""time""
""fullscreenenter"",""1"",""4836""
","
","","","-1","","","10","11076","5109","&#9826;","elianto","#f73b6a7A","-1","-1","1","0","[]","0","0","3","","","","","","","",""
"pit-trial","62","557610","0.0-2.0-14.0-3.0","battery-v0.2","","""event"",""trial"",""time""
""fullscreenenter"",""1"",""4836""
","
","
","""event"",""trial"",""time""
""fullscreenenter"",""1"",""4836""
","
","","","-1","","","10","11076","5109","&#9826;","elianto","#f73b6a7A","-1","-1","1","-10","[]","0","0","3","","","","","","","",""
"pit-trial","63","561046","0.0-2.0-14.0-4.0","battery-v0.2","","""event"",""trial"",""time""
""fullscreenenter"",""1"",""4836""
","
","
","""event"",""trial"",""time""
""fullscreenenter"",""1"",""4836""
","
","","","566","","","10","11076","5109","&#9826;","elianto","#f73b6a7A","-1"," ","0","-10","[1420.2999999970198]","1","0","3","","","","","","","",""
"pit-trial","64","565920","0.0-2.0-14.1-0.1","battery-v0.2","","""event"",""trial"",""time""
""fullscreenenter"",""1"",""4836""
","
","
","""event"",""trial"",""time""
""fullscreenenter"",""1"",""4836""
","
","","","-1","","","10","11076","5109","&#9826;","elianto","#f73b6a7A","-1","-1","1","0","[]","0","0","3","","","","","","","",""
"pit-trial","65","570776","0.0-2.0-14.1-1.1","battery-v0.2","","""event"",""trial"",""time""
""fullscreenenter"",""1"",""4836""
","
","
","""event"",""trial"",""time""
""fullscreenenter"",""1"",""4836""
","
","","","-1","","","10","11076","5109","&#9826;","elianto","#f73b6a7A","-1","-1","1","0","[]","0","0","3","","","","","","","",""
"pit-trial","66","575629","0.0-2.0-14.1-2.1","battery-v0.2","","""event"",""trial"",""time""
""fullscreenenter"",""1"",""4836""
","
","
","""event"",""trial"",""time""
""fullscreenenter"",""1"",""4836""
","
","","","-1","","","10","11076","5109","&#9826;","elianto","#f73b6a7A","-1","-1","1","0","[]","0","0","3","","","","","","","",""
"pit-trial","67","580483","0.0-2.0-14.1-3.1","battery-v0.2","","""event"",""trial"",""time""
""fullscreenenter"",""1"",""4836""
","
","
","""event"",""trial"",""time""
""fullscreenenter"",""1"",""4836""
","
","","","-1","","","10","11076","5109","&#9826;","elianto","#f73b6a7A","-1","-1","1","-10","[]","0","0","3","","","","","","","",""
"pit-trial","68","585337","0.0-2.0-14.1-4.1","battery-v0.2","","""event"",""trial"",""time""
""fullscreenenter"",""1"",""4836""
","
","
","""event"",""trial"",""time""
""fullscreenenter"",""1"",""4836""
","
","","","-1","","","10","11076","5109","&#9826;","elianto","#f73b6a7A","-1","-1","1","0","[]","0","0","3","","","","","","","",""
"pit-trial","69","590191","0.0-2.0-14.2-0.2","battery-v0.2","","""event"",""trial"",""time""
""fullscreenenter"",""1"",""4836""
","
","
","""event"",""trial"",""time""
""fullscreenenter"",""1"",""4836""
","
","","","-1","","","10","11076","5109","&#9826;","elianto","#f73b6a7A","-1","-1","1","0","[]","0","0","3","","","","","","","",""
"pit-trial","70","595045","0.0-2.0-14.2-1.2","battery-v0.2","","""event"",""trial"",""time""
""fullscreenenter"",""1"",""4836""
","
","
","""event"",""trial"",""time""
""fullscreenenter"",""1"",""4836""
","
","","","-1","","","10","11076","5109","&#9826;","elianto","#f73b6a7A","-1","-1","1","0","[]","0","0","3","","","","","","","",""
"pit-trial","71","599898","0.0-2.0-14.2-2.2","battery-v0.2","","""event"",""trial"",""time""
""fullscreenenter"",""1"",""4836""
","
","
","""event"",""trial"",""time""
""fullscreenenter"",""1"",""4836""
","
","","","-1","","","10","11076","5109","&#9826;","elianto","#f73b6a7A","-1","-1","1","0","[]","0","0","3","","","","","","","",""
"pit-trial","72","604751","0.0-2.0-14.2-3.2","battery-v0.2","","""event"",""trial"",""time""
""fullscreenenter"",""1"",""4836""
","
","
","""event"",""trial"",""time""
""fullscreenenter"",""1"",""4836""
","
","","","-1","","","10","11076","5109","&#9826;","elianto","#f73b6a7A","-1","-1","1","-10","[]","0","0","3","","","","","","","",""
"pit-trial","73","609605","0.0-2.0-14.2-4.2","battery-v0.2","","""event"",""trial"",""time""
""fullscreenenter"",""1"",""4836""
","
","
","""event"",""trial"",""time""
""fullscreenenter"",""1"",""4836""
","
","","","-1","","","10","11076","5109","&#9826;","elianto","#f73b6a7A","-1","-1","1","0","[]","0","0","3","","","","","","","",""
"pit-trial","74","614460","0.0-2.0-14.3-0.3","battery-v0.2","","""event"",""trial"",""time""
""fullscreenenter"",""1"",""4836""
","
","
","""event"",""trial"",""time""
""fullscreenenter"",""1"",""4836""
","
","","","-1","","","10","11076","5109","&#9826;","elianto","#f73b6a7A","-1","-1","1","0","[]","0","0","3","","","","","","","",""
"pit-trial","75","619313","0.0-2.0-14.3-1.3","battery-v0.2","","""event"",""trial"",""time""
""fullscreenenter"",""1"",""4836""
","
","
","""event"",""trial"",""time""
""fullscreenenter"",""1"",""4836""
","
","","","-1","","","10","11076","5109","&#9826;","elianto","#f73b6a7A","-1","-1","1","0","[]","0","0","3","","","","","","","",""
"pit-trial","76","624167","0.0-2.0-14.3-2.3","battery-v0.2","","""event"",""trial"",""time""
""fullscreenenter"",""1"",""4836""
","
","
","""event"",""trial"",""time""
""fullscreenenter"",""1"",""4836""
","
","","","-1","","","10","11076","5109","&#9826;","elianto","#f73b6a7A","-1","-1","1","0","[]","0","0","3","","","","","","","",""
"pit-trial","77","629020","0.0-2.0-14.3-3.3","battery-v0.2","","""event"",""trial"",""time""
""fullscreenenter"",""1"",""4836""
","
","
","""event"",""trial"",""time""
""fullscreenenter"",""1"",""4836""
","
","","","-1","","","10","11076","5109","&#9826;","elianto","#f73b6a7A","-1","-1","1","-10","[]","0","0","3","","","","","","","",""
"pit-trial","78","633875","0.0-2.0-14.3-4.3","battery-v0.2","","""event"",""trial"",""time""
""fullscreenenter"",""1"",""4836""
","
","
","""event"",""trial"",""time""
""fullscreenenter"",""1"",""4836""
","
","","","-1","","","10","11076","5109","&#9826;","elianto","#f73b6a7A","-1","-1","1","0","[]","0","0","3","","","","","","","",""
"call-function","79","633877","0.0-2.0-15.0","battery-v0.2","","""event"",""trial"",""time""
""fullscreenenter"",""1"",""4836""
","
","
","""event"",""trial"",""time""
""fullscreenenter"",""1"",""4836""
","
","","","","","","","","","","","","","","","","","","","","","","","","","","",""
"pit-instructions","80","662656","0.0-2.0-16.0","battery-v0.2","","""event"",""trial"",""time""
""fullscreenenter"",""1"",""4836""
","
","
","""event"",""trial"",""time""
""fullscreenenter"",""1"",""4836""
","
","","[{""page_index"":0,""viewing_time"":7569.599999997765},{""page_index"":1,""viewing_time"":10104},{""page_index"":2,""viewing_time"":5888.10000000149},{""page_index"":3,""viewing_time"":5215.699999999255}]","28777.599999997765","","","","","","","","","","","","","","","","","","","","","","","",""
"pit-trial","81","666355","0.0-2.0-17.0-0.0","battery-v0.2","","""event"",""trial"",""time""
""fullscreenenter"",""1"",""4836""
","
","
","""event"",""trial"",""time""
""fullscreenenter"",""1"",""4836""
","
","","","838.5999999977648","","","10","11076","5109","&#9789;","elianto","#f73b6a7A"," "," ","1","0","[1695.8999999985099]","1","0","4","","","","","","","",""
"pit-trial","82","669700","0.0-2.0-17.0-1.0","battery-v0.2","","""event"",""trial"",""time""
""fullscreenenter"",""1"",""4836""
","
","
","""event"",""trial"",""time""
""fullscreenenter"",""1"",""4836""
","
","","","476.8999999985099","","","10","11076","5109","&#9789;","elianto","#f73b6a7A"," "," ","1","0","[1331.8999999985099]","1","0","4","","","","","","","",""
"pit-trial","83","672854","0.0-2.0-17.0-2.0","battery-v0.2","","""event"",""trial"",""time""
""fullscreenenter"",""1"",""4836""
","
","
","""event"",""trial"",""time""
""fullscreenenter"",""1"",""4836""
","
","","","296.69999999925494","","","10","11076","5109","&#9789;","elianto","#f73b6a7A"," "," ","1","0","[1147]","1","0","4","","","","","","","",""
"pit-trial","84","676065","0.0-2.0-17.0-3.0","battery-v0.2","","""event"",""trial"",""time""
""fullscreenenter"",""1"",""4836""
","
","
","""event"",""trial"",""time""
""fullscreenenter"",""1"",""4836""
","
","","","335.30000000074506","","","10","11076","5109","&#9789;","elianto","#f73b6a7A"," "," ","1","-10","[1193.199999999255]","1","0","4","","","","","","","",""
"pit-trial","85","679362","0.0-2.0-17.0-4.0","battery-v0.2","","""event"",""trial"",""time""
""fullscreenenter"",""1"",""4836""
","
","
","""event"",""trial"",""time""
""fullscreenenter"",""1"",""4836""
","
","","","442.1000000014901","","","10","11076","5109","&#9789;","elianto","#f73b6a7A"," "," ","1","0","[1293.7999999970198]","1","0","4","","","","","","","",""
"pit-trial","86","682847","0.0-2.0-17.1-0.1","battery-v0.2","","""event"",""trial"",""time""
""fullscreenenter"",""1"",""4836""
","
","
","""event"",""trial"",""time""
""fullscreenenter"",""1"",""4836""
","
","","","623.7000000029802","","","10","11076","5109","&#9789;","elianto","#f73b6a7A"," "," ","1","0","[1474.4000000022352]","1","0","4","","","","","","","",""
"pit-trial","87","686186","0.0-2.0-17.1-1.1","battery-v0.2","","""event"",""trial"",""time""
""fullscreenenter"",""1"",""4836""
","
","
","""event"",""trial"",""time""
""fullscreenenter"",""1"",""4836""
","
","","","484.79999999701977","","","10","11076","5109","&#9789;","elianto","#f73b6a7A"," "," ","1","0","[1335.699999999255]","1","0","4","","","","","","","",""
"pit-trial","88","689538","0.0-2.0-17.1-2.1","battery-v0.2","","""event"",""trial"",""time""
""fullscreenenter"",""1"",""4836""
","
","
","""event"",""trial"",""time""
""fullscreenenter"",""1"",""4836""
","
","","","497.19999999925494","","","10","11076","5109","&#9789;","elianto","#f73b6a7A"," "," ","1","0","[1348.800000000745]","1","0","4","","","","","","","",""
"pit-trial","89","693202","0.0-2.0-17.1-3.1","battery-v0.2","","""event"",""trial"",""time""
""fullscreenenter"",""1"",""4836""
","
","
","""event"",""trial"",""time""
""fullscreenenter"",""1"",""4836""
","
","","","801.5999999977648","","","10","11076","5109","&#9789;","elianto","#f73b6a7A"," "," ","1","-10","[1660.2000000029802]","1","0","4","","","","","","","",""
"pit-trial","90","697330","0.0-2.0-17.1-4.1","battery-v0.2","","""event"",""trial"",""time""
""fullscreenenter"",""1"",""4836""
","
","
","""event"",""trial"",""time""
""fullscreenenter"",""1"",""4836""
","
","","","1273.9000000022352","","","10","11076","5109","&#9789;","elianto","#f73b6a7A"," "," ","1","0","[2124.800000000745]","1","0","4","","","","","","","",""
"pit-trial","91","700738","0.0-2.0-17.2-0.2","battery-v0.2","","""event"",""trial"",""time""
""fullscreenenter"",""1"",""4836""
","
","
","""event"",""trial"",""time""
""fullscreenenter"",""1"",""4836""
","
","","","551.1000000014901","","","10","11076","5109","&#9789;","elianto","#f73b6a7A"," "," ","1","0","[1403.300000000745]","1","0","4","","","","","","","",""
"pit-trial","92","704394","0.0-2.0-17.2-1.2","battery-v0.2","","""event"",""trial"",""time""
""fullscreenenter"",""1"",""4836""
","
","
","""event"",""trial"",""time""
""fullscreenenter"",""1"",""4836""
","
","","","800.9000000022352","","","10","11076","5109","&#9789;","elianto","#f73b6a7A"," "," ","1","0","[1652.800000000745]","1","0","4","","","","","","","",""
"pit-trial","93","707961","0.0-2.0-17.2-2.2","battery-v0.2","","""event"",""trial"",""time""
""fullscreenenter"",""1"",""4836""
","
","
","""event"",""trial"",""time""
""fullscreenenter"",""1"",""4836""
","
","","","714.8999999985099","","","10","11076","5109","&#9789;","elianto","#f73b6a7A"," "," ","1","0","[1565.199999999255]","1","0","4","","","","","","","",""
"pit-trial","94","711377","0.0-2.0-17.2-3.2","battery-v0.2","","""event"",""trial"",""time""
""fullscreenenter"",""1"",""4836""
","
","
","""event"",""trial"",""time""
""fullscreenenter"",""1"",""4836""
","
","","","561.8999999985099","","","10","11076","5109","&#9789;","elianto","#f73b6a7A"," "," ","1","-10","[1413.0999999977648]","1","0","4","","","","","","","",""
"pit-trial","95","714785","0.0-2.0-17.2-4.2","battery-v0.2","","""event"",""trial"",""time""
""fullscreenenter"",""1"",""4836""
","
","
","""event"",""trial"",""time""
""fullscreenenter"",""1"",""4836""
","
","","","554.8000000007451","","","10","11076","5109","&#9789;","elianto","#f73b6a7A"," "," ","1","0","[1405]","1","0","4","","","","","","","",""
"pit-trial","96","718187","0.0-2.0-17.3-0.3","battery-v0.2","","""event"",""trial"",""time""
""fullscreenenter"",""1"",""4836""
","
","
","""event"",""trial"",""time""
""fullscreenenter"",""1"",""4836""
","
","","","546.1999999992549","","","10","11076","5109","&#9789;","elianto","#f73b6a7A"," "," ","1","0","[1396.300000000745]","1","0","4","","","","","","","",""
"pit-trial","97","721601","0.0-2.0-17.3-1.3","battery-v0.2","","""event"",""trial"",""time""
""fullscreenenter"",""1"",""4836""
","
","
","""event"",""trial"",""time""
""fullscreenenter"",""1"",""4836""
","
","","","551.6000000014901","","","10","11076","5109","&#9789;","elianto","#f73b6a7A"," "," ","1","0","[1411.5]","1","0","4","","","","","","","",""
"pit-trial","98","725210","0.0-2.0-17.3-2.3","battery-v0.2","","""event"",""trial"",""time""
""fullscreenenter"",""1"",""4836""
","
","
","""event"",""trial"",""time""
""fullscreenenter"",""1"",""4836""
","
","","","754","","","10","11076","5109","&#9789;","elianto","#f73b6a7A"," "," ","1","0","[1605.5]","1","0","4","","","","","","","",""
"pit-trial","99","728713","0.0-2.0-17.3-3.3","battery-v0.2","","""event"",""trial"",""time""
""fullscreenenter"",""1"",""4836""
","
","
","""event"",""trial"",""time""
""fullscreenenter"",""1"",""4836""
","
","","","650.3000000007451","","","10","11076","5109","&#9789;","elianto","#f73b6a7A"," "," ","1","-10","[1500.9000000022352]","1","0","4","","","","","","","",""
"pit-trial","100","732049","0.0-2.0-17.3-4.3","battery-v0.2","","""event"",""trial"",""time""
""fullscreenenter"",""1"",""4836""
","
","
","""event"",""trial"",""time""
""fullscreenenter"",""1"",""4836""
","
","","","483.3999999985099","","","10","11076","5109","&#9789;","elianto","#f73b6a7A"," "," ","1","0","[1333.5]","1","0","4","","","","","","","",""
"call-function","101","732052","0.0-2.0-18.0","battery-v0.2","","""event"",""trial"",""time""
""fullscreenenter"",""1"",""4836""
","
","
","""event"",""trial"",""time""
""fullscreenenter"",""1"",""4836""
","
","","","","","","","","","","","","","","","","","","","","","","","","","","",""
"pit-instructions","102","805776","0.0-2.0-19.0","battery-v0.2","","""event"",""trial"",""time""
""fullscreenenter"",""1"",""4836""
","
","
","""event"",""trial"",""time""
""fullscreenenter"",""1"",""4836""
","
","","[{""page_index"":0,""viewing_time"":7139.300000000745},{""page_index"":1,""viewing_time"":6272},{""page_index"":2,""viewing_time"":13831.800000000745},{""page_index"":3,""viewing_time"":7856.199999999255},{""page_index"":4,""viewing_time"":8695.699999999255},{""page_index"":5,""viewing_time"":9816.300000000745},{""page_index"":6,""viewing_time"":8663.800000000745},{""page_index"":7,""viewing_time"":7184.199999999255},{""page_index"":8,""viewing_time"":4263.89999999851}]","73723.5","","","","","","","","","","","","","","","","","","","","","","","",""
"pit-comprehension","103","812576","0.0-2.0-20.0-0.0","battery-v0.2","","""event"",""trial"",""time""
""fullscreenenter"",""1"",""4836""
","
","
","""event"",""trial"",""time""
""fullscreenenter"",""1"",""4836""
","
","","","6798.10000000149","[""SPACE""]","0","10","11076","5109","","","","","","","","","","","","","","","","","","",""
"pit-instructions","104","816464","0.0-2.0-20.0-1.0","battery-v0.2","","""event"",""trial"",""time""
""fullscreenenter"",""1"",""4836""
","
","
","""event"",""trial"",""time""
""fullscreenenter"",""1"",""4836""
","
","","[{""page_index"":0,""viewing_time"":3856}]","3856.199999999255","","","","","","","","","","","","","","","","","","","","","","","",""
"pit-comprehension","105","824536","0.0-2.0-21.0-0.0","battery-v0.2","","""event"",""trial"",""time""
""fullscreenenter"",""1"",""4836""
","
","
","""event"",""trial"",""time""
""fullscreenenter"",""1"",""4836""
","
","","","8070.199999999255","[""10""]","0","10","11076","5109","","","","","","","","","","","","","","","","","","",""
"pit-instructions","106","827408","0.0-2.0-21.0-1.0","battery-v0.2","","""event"",""trial"",""time""
""fullscreenenter"",""1"",""4836""
","
","
","""event"",""trial"",""time""
""fullscreenenter"",""1"",""4836""
","
","","[{""page_index"":0,""viewing_time"":2842.800000000745}]","2843","","","","","","","","","","","","","","","","","","","","","","","",""
"pit-comprehension","107","837145","0.0-2.0-22.0-0.0","battery-v0.2","","""event"",""trial"",""time""
""fullscreenenter"",""1"",""4836""
","
","
","""event"",""trial"",""time""
""fullscreenenter"",""1"",""4836""
","
","","","9734.900000002235","[""0""]","0","10","11076","5109","","","","","","","","","","","","","","","","","","",""
"pit-instructions","108","838784","0.0-2.0-22.0-1.0","battery-v0.2","","""event"",""trial"",""time""
""fullscreenenter"",""1"",""4836""
","
","
","""event"",""trial"",""time""
""fullscreenenter"",""1"",""4836""
","
","","[{""page_index"":0,""viewing_time"":1609.5999999977648}]","1609.699999999255","","","","","","","","","","","","","","","","","","","","","","","",""
"pit-comprehension","109","848121","0.0-2.0-23.0-0.0","battery-v0.2","","""event"",""trial"",""time""
""fullscreenenter"",""1"",""4836""
","
","
","""event"",""trial"",""time""
""fullscreenenter"",""1"",""4836""
","
","","","9334.599999997765","[""True""]","0","10","11076","5109","","","","","","","","","","","","","","","","","","",""
"pit-instructions","110","850232","0.0-2.0-23.0-1.0","battery-v0.2","","""event"",""trial"",""time""
""fullscreenenter"",""1"",""4836""
","
","
","""event"",""trial"",""time""
""fullscreenenter"",""1"",""4836""
","
","","[{""page_index"":0,""viewing_time"":2081.5}]","2081.60000000149","","","","","","","","","","","","","","","","","","","","","","","",""
"pit-comprehension","111","859048","0.0-2.0-24.0-0.0","battery-v0.2","","""event"",""trial"",""time""
""fullscreenenter"",""1"",""4836""
","
","
","""event"",""trial"",""time""
""fullscreenenter"",""1"",""4836""
","
","","","8814.39999999851","[""True""]","0","10","11076","5109","","","","","","","","","","","","","","","","","","",""
"pit-instructions","112","861160","0.0-2.0-24.0-1.0","battery-v0.2","","""event"",""trial"",""time""
""fullscreenenter"",""1"",""4836""
","
","
","""event"",""trial"",""time""
""fullscreenenter"",""1"",""4836""
","
","","[{""page_index"":0,""viewing_time"":2080.400000002235}]","2080.60000000149","","","","","","","","","","","","","","","","","","","","","","","",""
"pit-comprehension","113","873345","0.0-2.0-25.0-0.0","battery-v0.2","","""event"",""trial"",""time""
""fullscreenenter"",""1"",""4836""
","
","
","""event"",""trial"",""time""
""fullscreenenter"",""1"",""4836""
","
","","","12182.800000000745","[""True""]","0","10","11076","5109","","","","","","","","","","","","","","","","","","",""
"pit-instructions","114","875312","0.0-2.0-25.0-1.0","battery-v0.2","","""event"",""trial"",""time""
""fullscreenenter"",""1"",""4836""
","
","
","""event"",""trial"",""time""
""fullscreenenter"",""1"",""4836""
","
","","[{""page_index"":0,""viewing_time"":1937.8999999985099}]","1938.1000000014901","","","","","","","","","","","","","","","","","","","","","","","",""
"pit-comprehension","115","881641","0.0-2.0-26.0-0.0","battery-v0.2","","""event"",""trial"",""time""
""fullscreenenter"",""1"",""4836""
","
","
","""event"",""trial"",""time""
""fullscreenenter"",""1"",""4836""
","
","","","6326.60000000149","[""False""]","0","10","11076","5109","","","","","","","","","","","","","","","","","","",""
"pit-instructions","116","883776","0.0-2.0-26.0-1.0","battery-v0.2","","""event"",""trial"",""time""
""fullscreenenter"",""1"",""4836""
","
","
","""event"",""trial"",""time""
""fullscreenenter"",""1"",""4836""
","
","","[{""page_index"":0,""viewing_time"":2104.199999999255}]","2104.5","","","","","","","","","","","","","","","","","","","","","","","",""
"pit-instructions","117","902920","0.0-3.0","battery-v0.2","","""event"",""trial"",""time""
""fullscreenenter"",""1"",""4836""
","
","
","""event"",""trial"",""time""
""fullscreenenter"",""1"",""4836""
","
","","[{""page_index"":0,""viewing_time"":5990.5},{""page_index"":1,""viewing_time"":5024.300000000745},{""page_index"":2,""viewing_time"":8127.800000000745}]","19142.89999999851","","","","","","","","","","","","","","","","","","","","","","","",""
"pit-trial","118","907199","0.0-4.0","battery-v0.2","","""event"",""trial"",""time""
""fullscreenenter"",""1"",""4836""
","
","
","""event"",""trial"",""time""
""fullscreenenter"",""1"",""4836""
","
","","","1408.8999999985099","","","10","11076","5109","&#9752;","elianto","#f73b6a7A"," "," ","1","0","[2269.5]","1","1","","","11076","1","3","3","lose","go","0"
"pit-trial","119","910967","0.0-5.0","battery-v0.2","","""event"",""trial"",""time""
""fullscreenenter"",""1"",""4836""
","
","
","""event"",""trial"",""time""
""fullscreenenter"",""1"",""4836""
","
","","","908.7999999970198","","","10","11076","5109","&#9728;","elianto","#f73b6a7A","-1"," ","0","-10","[1759.6000000014901]","1","1","","","11076","2","0","4","lose","no-go","0"
"pit-trial","120","914741","0.0-6.0","battery-v0.2","","""event"",""trial"",""time""
""fullscreenenter"",""1"",""4836""
","
","
","""event"",""trial"",""time""
""fullscreenenter"",""1"",""4836""
","
","","","903","","","10","11076","5109","&#9733;","elianto","#3366ff99","-1"," ","0","0","[1759.5999999977648]","1","1","","","11076","3","2","2","win","no-go","0"
"pit-trial","121","918584","0.0-7.0","battery-v0.2","","""event"",""trial"",""time""
""fullscreenenter"",""1"",""4836""
","
","
","""event"",""trial"",""time""
""fullscreenenter"",""1"",""4836""
","
","","","977.9000000022352","","","10","11076","5109","&#9730;","elianto","#3366ff99"," "," ","1","0","[1833.8999999985099]","1","1","","","11076","4","1","1","win","go","1"
"pit-trial","122","923449","0.0-8.0","battery-v0.2","","""event"",""trial"",""time""
""fullscreenenter"",""1"",""4836""
","
","
","""event"",""trial"",""time""
""fullscreenenter"",""1"",""4836""
","
","","","-1","","","10","11076","5109","&#9728;","elianto","#f73b6a7A","-1","-1","1","0","[]","0","1","","","11076","5","0","4","lose","no-go","0"
"pit-trial","123","928101","0.0-9.0","battery-v0.2","","""event"",""trial"",""time""
""fullscreenenter"",""1"",""4836""
","
","
","""event"",""trial"",""time""
""fullscreenenter"",""1"",""4836""
","
","","","1780.5","","","10","11076","5109","&#9752;","elianto","#f73b6a7A"," "," ","1","-10","[2636.900000002235]","1","1","","","11076","6","3","3","lose","go","1"
"pit-trial","124","932962","0.0-10.0","battery-v0.2","","""event"",""trial"",""time""
""fullscreenenter"",""1"",""4836""
","
","
","""event"",""trial"",""time""
""fullscreenenter"",""1"",""4836""
","
","","","-1","","","10","11076","5109","&#9730;","elianto","#3366ff99"," ","-1","0","+10","[]","0","1","","","11076","7","1","1","win","go","1"
"pit-trial","125","937815","0.0-11.0","battery-v0.2","","""event"",""trial"",""time""
""fullscreenenter"",""1"",""4836""
","
","
","""event"",""trial"",""time""
""fullscreenenter"",""1"",""4836""
","
","","","-1","","","10","11076","5109","&#9733;","elianto","#3366ff99","-1","-1","1","+10","[]","0","1","","","11076","8","2","2","win","no-go","0"
"pit-trial","126","942669","0.0-12.0","battery-v0.2","","""event"",""trial"",""time""
""fullscreenenter"",""1"",""4836""
","
","
","""event"",""trial"",""time""
""fullscreenenter"",""1"",""4836""
","
","","","-1","","","10","11076","5109","&#9733;","elianto","#3366ff99","-1","-1","1","+10","[]","0","1","","","11076","9","2","2","win","no-go","0"
"pit-trial","127","946691","0.0-13.0","battery-v0.2","","""event"",""trial"",""time""
""fullscreenenter"",""1"",""4836""
","
","
","""event"",""trial"",""time""
""fullscreenenter"",""1"",""4836""
","
","","","1167.2999999970198","","","10","11076","5109","&#9728;","elianto","#f73b6a7A","-1"," ","0","0","[2018.1000000014901]","1","1","","","11076","10","0","4","lose","no-go","1"
"pit-trial","128","951546","0.0-14.0","battery-v0.2","","""event"",""trial"",""time""
""fullscreenenter"",""1"",""4836""
","
","
","""event"",""trial"",""time""
""fullscreenenter"",""1"",""4836""
","
","","","-1","","","10","11076","5109","&#9730;","elianto","#3366ff99"," ","-1","0","0","[]","0","1","","","11076","11","1","1","win","go","0"
"pit-trial","129","955666","0.0-15.0","battery-v0.2","","""event"",""trial"",""time""
""fullscreenenter"",""1"",""4836""
","
","
","""event"",""trial"",""time""
""fullscreenenter"",""1"",""4836""
","
","","","1266.6000000014901","","","10","11076","5109","&#9752;","elianto","#f73b6a7A"," "," ","1","0","[2116.7000000029802]","1","1","","","11076","12","3","3","lose","go","0"
"pit-trial","130","960520","0.0-16.0","battery-v0.2","","""event"",""trial"",""time""
""fullscreenenter"",""1"",""4836""
","
","
","""event"",""trial"",""time""
""fullscreenenter"",""1"",""4836""
","
","","","-1","","","10","11076","5109","&#9733;","elianto","#3366ff99","-1","-1","1","+10","[]","0","1","","","11076","13","2","2","win","no-go","0"
"pit-trial","131","965381","0.0-17.0","battery-v0.2","","""event"",""trial"",""time""
""fullscreenenter"",""1"",""4836""
","
","
","""event"",""trial"",""time""
""fullscreenenter"",""1"",""4836""
","
","","","-1","","","10","11076","5109","&#9728;","elianto","#f73b6a7A","-1","-1","1","-10","[2942.099999997765]","1","1","","","11076","14","0","4","lose","no-go","1"
"pit-trial","132","970236","0.0-18.0","battery-v0.2","","""event"",""trial"",""time""
""fullscreenenter"",""1"",""4836""
","
","
","""event"",""trial"",""time""
""fullscreenenter"",""1"",""4836""
","
","","","-1","","","10","11076","5109","&#9730;","elianto","#3366ff99"," ","-1","0","0","[]","0","1","","","11076","15","1","1","win","go","0"
"pit-trial","133","974634","0.0-19.0","battery-v0.2","","""event"",""trial"",""time""
""fullscreenenter"",""1"",""4836""
","
","
","""event"",""trial"",""time""
""fullscreenenter"",""1"",""4836""
","
","","","1543.8999999985099","","","10","11076","5109","&#9752;","elianto","#f73b6a7A"," "," ","1","0","[2395]","1","1","","","11076","16","3","3","lose","go","0"
"pit-trial","134","979487","0.0-20.0","battery-v0.2","","""event"",""trial"",""time""
""fullscreenenter"",""1"",""4836""
","
","
","""event"",""trial"",""time""
""fullscreenenter"",""1"",""4836""
","
","","","-1","","","10","11076","5109","&#9730;","elianto","#3366ff99"," ","-1","0","0","[]","0","1","","","11076","17","1","1","win","go","0"
"pit-trial","135","984341","0.0-21.0","battery-v0.2","","""event"",""trial"",""time""
""fullscreenenter"",""1"",""4836""
","
","
","""event"",""trial"",""time""
""fullscreenenter"",""1"",""4836""
","
","","","-1","","","10","11076","5109","&#9733;","elianto","#3366ff99","-1","-1","1","+10","[]","0","1","","","11076","18","2","2","win","no-go","0"
"pit-trial","136","988834","0.0-22.0","battery-v0.2","","""event"",""trial"",""time""
""fullscreenenter"",""1"",""4836""
","
","
","""event"",""trial"",""time""
""fullscreenenter"",""1"",""4836""
","
","","","1640","","","10","11076","5109","&#9752;","elianto","#f73b6a7A"," "," ","1","-10","[2490.60000000149]","1","1","","","11076","19","3","3","lose","go","1"
"pit-trial","137","993688","0.0-23.0","battery-v0.2","","""event"",""trial"",""time""
""fullscreenenter"",""1"",""4836""
","
","
","""event"",""trial"",""time""
""fullscreenenter"",""1"",""4836""
","
","","","-1","","","10","11076","5109","&#9728;","elianto","#f73b6a7A","-1","-1","1","0","[]","0","1","","","11076","20","0","4","lose","no-go","0"
"pit-instructions","138","1007304","0.0-24.0","battery-v0.2","","""event"",""trial"",""time""
""fullscreenenter"",""1"",""4836""
","
","
","""event"",""trial"",""time""
""fullscreenenter"",""1"",""4836""
","
","","[{""page_index"":0,""viewing_time"":6158.10000000149},{""page_index"":1,""viewing_time"":7455.89999999851}]","13614.30000000447","","","","","","","","","","","","","","","","","","","","","","","",""
"pit-trial","139","1011502","0.0-25.0","battery-v0.2","","""event"",""trial"",""time""
""fullscreenenter"",""1"",""4836""
","
","
","""event"",""trial"",""time""
""fullscreenenter"",""1"",""4836""
","
","","","1330.2999999970198","","","10","11076","5109","n","elianto","#f73b6a7A"," "," ","1","0","[2183.10000000149]","1","2","","","11076","21","0","3","lose","go","0"
"pit-trial","140","1015375","0.0-26.0","battery-v0.2","","""event"",""trial"",""time""
""fullscreenenter"",""1"",""4836""
","
","
","""event"",""trial"",""time""
""fullscreenenter"",""1"",""4836""
","
","","","1003.5","","","10","11076","5109","b","elianto","#f73b6a7A","-1"," ","0","-10","[1857.3999999985099]","1","2","","","11076","22","3","4","lose","no-go","0"
"pit-trial","141","1019713","0.0-27.0","battery-v0.2","","""event"",""trial"",""time""
""fullscreenenter"",""1"",""4836""
","
","
","""event"",""trial"",""time""
""fullscreenenter"",""1"",""4836""
","
","","","1465.3000000044703","","","10","11076","5109","f","elianto","#3366ff99","-1"," ","0","+10","[2319.60000000149]","1","2","","","11076","23","1","2","win","no-go","1"
"pit-trial","142","1023757","0.0-28.0","battery-v0.2","","""event"",""trial"",""time""
""fullscreenenter"",""1"",""4836""
","
","
","""event"",""trial"",""time""
""fullscreenenter"",""1"",""4836""
","
","","","1178.5","","","10","11076","5109","t","elianto","#f73b6a7A"," "," ","1","0","[2029.6000000014901]","1","2","","","11076","24","2","3","lose","go","0"
"pit-trial","143","1027976","0.0-29.0","battery-v0.2","","""event"",""trial"",""time""
""fullscreenenter"",""1"",""4836""
","
","
","""event"",""trial"",""time""
""fullscreenenter"",""1"",""4836""
","
","","","1353.1000000014901","","","10","11076","5109","f","elianto","#3366ff99","-1"," ","0","0","[2210.39999999851]","1","2","","","11076","25","1","2","win","no-go","0"
"pit-trial","144","1032854","0.0-30.0","battery-v0.2","","""event"",""trial"",""time""
""fullscreenenter"",""1"",""4836""
","
","
","""event"",""trial"",""time""
""fullscreenenter"",""1"",""4836""
","
","","","-1","","","10","11076","5109","n","elianto","#f73b6a7A"," ","-1","0","-10","[]","0","2","","","11076","26","0","3","lose","go","0"
"pit-trial","145","1037717","0.0-31.0","battery-v0.2","","""event"",""trial"",""time""
""fullscreenenter"",""1"",""4836""
","
","
","""event"",""trial"",""time""
""fullscreenenter"",""1"",""4836""
","
","","","-1","","","10","11076","5109","b","elianto","#f73b6a7A","-1","-1","1","0","[]","0","2","","","11076","27","3","4","lose","no-go","0"
"pit-trial","146","1041627","0.0-32.0","battery-v0.2","","""event"",""trial"",""time""
""fullscreenenter"",""1"",""4836""
","
","
","""event"",""trial"",""time""
""fullscreenenter"",""1"",""4836""
","
","","","1056.6000000014901","","","10","11076","5109","t","elianto","#f73b6a7A"," "," ","1","0","[1906.9000000059605]","1","2","","","11076","28","2","3","lose","go","0"
"pit-trial","147","1045354","0.0-33.0","battery-v0.2","","""event"",""trial"",""time""
""fullscreenenter"",""1"",""4836""
","
","
","""event"",""trial"",""time""
""fullscreenenter"",""1"",""4836""
","
","","","872.5","","","10","11076","5109","n","elianto","#f73b6a7A"," "," ","1","0","[1723.6000000014901]","1","2","","","11076","29","0","3","lose","go","0"
"pit-trial","148","1049105","0.0-34.0","battery-v0.2","","""event"",""trial"",""time""
""fullscreenenter"",""1"",""4836""
","
","
","""event"",""trial"",""time""
""fullscreenenter"",""1"",""4836""
","
","","","898.5","","","10","11076","5109","t","elianto","#f73b6a7A"," "," ","1","0","[1749.2999999970198]","1","2","","","11076","30","2","3","lose","go","0"
"pit-trial","149","1053555","0.0-35.0","battery-v0.2","","""event"",""trial"",""time""
""fullscreenenter"",""1"",""4836""
","
","
","""event"",""trial"",""time""
""fullscreenenter"",""1"",""4836""
","
","","","1594.7000000029802","","","10","11076","5109","f","elianto","#3366ff99","-1"," ","0","+10","[2445.8000000044703]","1","2","","","11076","31","1","2","win","no-go","1"
"pit-trial","150","1057786","0.0-36.0","battery-v0.2","","""event"",""trial"",""time""
""fullscreenenter"",""1"",""4836""
","
","
","""event"",""trial"",""time""
""fullscreenenter"",""1"",""4836""
","
","","","1377.2000000029802","","","10","11076","5109","b","elianto","#f73b6a7A","-1"," ","0","0","[2227.7000000029802]","1","2","","","11076","32","3","4","lose","no-go","1"
"pit-trial","151","1062639","0.0-37.0","battery-v0.2","","""event"",""trial"",""time""
""fullscreenenter"",""1"",""4836""
","
","
","""event"",""trial"",""time""
""fullscreenenter"",""1"",""4836""
","
","","","-1","","","10","11076","5109","b","elianto","#f73b6a7A","-1","-1","1","0","[]","0","2","","","11076","33","3","4","lose","no-go","0"
"pit-trial","152","1066858","0.0-38.0","battery-v0.2","","""event"",""trial"",""time""
""fullscreenenter"",""1"",""4836""
","
","
","""event"",""trial"",""time""
""fullscreenenter"",""1"",""4836""
","
","","","1365","","","10","11076","5109","n","elianto","#f73b6a7A"," "," ","1","0","[2215.9000000059605]","1","2","","","11076","34","0","3","lose","go","0"
"pit-trial","153","1070337","0.0-39.0","battery-v0.2","","""event"",""trial"",""time""
""fullscreenenter"",""1"",""4836""
","
","
","""event"",""trial"",""time""
""fullscreenenter"",""1"",""4836""
","
","","","625.2999999970198","","","10","11076","5109","t","elianto","#f73b6a7A"," "," ","1","0","[1476.2999999970198]","1","2","","","11076","35","2","3","lose","go","0"
"pit-trial","154","1074490","0.0-40.0","battery-v0.2","","""event"",""trial"",""time""
""fullscreenenter"",""1"",""4836""
","
","
","""event"",""trial"",""time""
""fullscreenenter"",""1"",""4836""
","
","","","1299.1000000014901","","","10","11076","5109","f","elianto","#3366ff99","-1"," ","0","0","[2149.39999999851]","1","2","","","11076","36","1","2","win","no-go","0"
"pit-trial","155","1079345","0.0-41.0","battery-v0.2","","""event"",""trial"",""time""
""fullscreenenter"",""1"",""4836""
","
","
","""event"",""trial"",""time""
""fullscreenenter"",""1"",""4836""
","
","","","-1","","","10","11076","5109","b","elianto","#f73b6a7A","-1","-1","1","0","[]","0","2","","","11076","37","3","4","lose","no-go","0"
"pit-trial","156","1083434","0.0-42.0","battery-v0.2","","""event"",""trial"",""time""
""fullscreenenter"",""1"",""4836""
","
","
","""event"",""trial"",""time""
""fullscreenenter"",""1"",""4836""
","
","","","1234.8000000044703","","","10","11076","5109","f","elianto","#3366ff99","-1"," ","0","0","[2086]","1","2","","","11076","38","1","2","win","no-go","0"
"pit-trial","157","1087393","0.0-43.0","battery-v0.2","","""event"",""trial"",""time""
""fullscreenenter"",""1"",""4836""
","
","
","""event"",""trial"",""time""
""fullscreenenter"",""1"",""4836""
","
","","","1106.1000000014901","","","10","11076","5109","n","elianto","#f73b6a7A"," "," ","1","0","[1956.6000000014901]","1","2","","","11076","39","0","3","lose","go","0"
"pit-trial","158","1092248","0.0-44.0","battery-v0.2","","""event"",""trial"",""time""
""fullscreenenter"",""1"",""4836""
","
","
","""event"",""trial"",""time""
""fullscreenenter"",""1"",""4836""
","
","","","-1","","","10","11076","5109","t","elianto","#f73b6a7A"," ","-1","0","0","[2988.5]","1","2","","","11076","40","2","3","lose","go","1"
"pit-trial","159","1097101","0.0-45.0","battery-v0.2","","""event"",""trial"",""time""
""fullscreenenter"",""1"",""4836""
","
","
","""event"",""trial"",""time""
""fullscreenenter"",""1"",""4836""
","
","","","-1","","","10","11076","5109","f","elianto","#3366ff99","-1","-1","1","+10","[]","0","2","","","11076","41","1","2","win","no-go","0"
"pit-trial","160","1101706","0.0-46.0","battery-v0.2","","""event"",""trial"",""time""
""fullscreenenter"",""1"",""4836""
","
","
","""event"",""trial"",""time""
""fullscreenenter"",""1"",""4836""
","
","","","1751","","","10","11076","5109","b","elianto","#f73b6a7A","-1"," ","0","-10","[2601.89999999851]","1","2","","","11076","42","3","4","lose","no-go","0"
"pit-trial","161","1105578","0.0-47.0","battery-v0.2","","""event"",""trial"",""time""
""fullscreenenter"",""1"",""4836""
","
","
","""event"",""trial"",""time""
""fullscreenenter"",""1"",""4836""
","
","","","1018.5","","","10","11076","5109","n","elianto","#f73b6a7A"," "," ","1","0","[1869.6000000014901]","1","2","","","11076","43","0","3","lose","go","0"
"pit-trial","162","1109417","0.0-48.0","battery-v0.2","","""event"",""trial"",""time""
""fullscreenenter"",""1"",""4836""
","
","
","""event"",""trial"",""time""
""fullscreenenter"",""1"",""4836""
","
","","","985.9000000059605","","","10","11076","5109","t","elianto","#f73b6a7A"," "," ","1","0","[1836.7000000029802]","1","2","","","11076","44","2","3","lose","go","0"
"pit-trial","163","1114272","0.0-49.0","battery-v0.2","","""event"",""trial"",""time""
""fullscreenenter"",""1"",""4836""
","
","
","""event"",""trial"",""time""
""fullscreenenter"",""1"",""4836""
","
","","","-1","","","10","11076","5109","f","elianto","#3366ff99","-1","-1","1","+10","[]","0","2","","","11076","45","1","2","win","no-go","0"
"pit-trial","164","1118122","0.0-50.0","battery-v0.2","","""event"",""trial"",""time""
""fullscreenenter"",""1"",""4836""
","
","
","""event"",""trial"",""time""
""fullscreenenter"",""1"",""4836""
","
","","","996.1000000014901","","","10","11076","5109","n","elianto","#f73b6a7A"," "," ","1","-10","[1846.5]","1","2","","","11076","46","0","3","lose","go","1"
"pit-trial","165","1122962","0.0-51.0","battery-v0.2","","""event"",""trial"",""time""
""fullscreenenter"",""1"",""4836""
","
","
","""event"",""trial"",""time""
""fullscreenenter"",""1"",""4836""
","
","","","1986","","","10","11076","5109","t","elianto","#f73b6a7A"," "," ","1","0","[2836.2999999970198]","1","2","","","11076","47","2","3","lose","go","0"
"pit-trial","166","1126474","0.0-52.0","battery-v0.2","","""event"",""trial"",""time""
""fullscreenenter"",""1"",""4836""
","
","
","""event"",""trial"",""time""
""fullscreenenter"",""1"",""4836""
","
","","","657","","","10","11076","5109","b","elianto","#f73b6a7A","-1"," ","0","-10","[1508.1000000014901]","1","2","","","11076","48","3","4","lose","no-go","0"
"pit-trial","167","1130290","0.0-53.0","battery-v0.2","","""event"",""trial"",""time""
""fullscreenenter"",""1"",""4836""
","
","
","""event"",""trial"",""time""
""fullscreenenter"",""1"",""4836""
","
","","","962.1999999955297","","","10","11076","5109","f","elianto","#3366ff99","-1"," ","0","0","[1812.8999999985099]","1","2","","","11076","49","1","2","win","no-go","0"
"pit-trial","168","1134457","0.0-54.0","battery-v0.2","","""event"",""trial"",""time""
""fullscreenenter"",""1"",""4836""
","
","
","""event"",""trial"",""time""
""fullscreenenter"",""1"",""4836""
","
","","","1307.7999999970198","","","10","11076","5109","n","elianto","#f73b6a7A"," "," ","1","0","[2164.1999999955297]","1","2","","","11076","50","0","3","lose","go","0"
"pit-trial","169","1138242","0.0-55.0","battery-v0.2","","""event"",""trial"",""time""
""fullscreenenter"",""1"",""4836""
","
","
","""event"",""trial"",""time""
""fullscreenenter"",""1"",""4836""
","
","","","929.8999999985099","","","10","11076","5109","t","elianto","#f73b6a7A"," "," ","1","0","[1780.8999999985099]","1","2","","","11076","51","2","3","lose","go","0"
"pit-trial","170","1143095","0.0-56.0","battery-v0.2","","""event"",""trial"",""time""
""fullscreenenter"",""1"",""4836""
","
","
","""event"",""trial"",""time""
""fullscreenenter"",""1"",""4836""
","
","","","-1","","","10","11076","5109","b","elianto","#f73b6a7A","-1","-1","1","0","[]","0","2","","","11076","52","3","4","lose","no-go","0"
"pit-trial","171","1146930","0.0-57.0","battery-v0.2","","""event"",""trial"",""time""
""fullscreenenter"",""1"",""4836""
","
","
","""event"",""trial"",""time""
""fullscreenenter"",""1"",""4836""
","
","","","981","","","10","11076","5109","t","elianto","#f73b6a7A"," "," ","1","-10","[1831.1000000014901]","1","2","","","11076","53","2","3","lose","go","1"
"pit-trial","172","1150673","0.0-58.0","battery-v0.2","","""event"",""trial"",""time""
""fullscreenenter"",""1"",""4836""
","
","
","""event"",""trial"",""time""
""fullscreenenter"",""1"",""4836""
","
","","","887.5","","","10","11076","5109","n","elianto","#f73b6a7A"," "," ","1","0","[1740]","1","2","","","11076","54","0","3","lose","go","0"
"pit-trial","173","1154657","0.0-59.0","battery-v0.2","","""event"",""trial"",""time""
""fullscreenenter"",""1"",""4836""
","
","
","""event"",""trial"",""time""
""fullscreenenter"",""1"",""4836""
","
","","","1130.6000000014901","","","10","11076","5109","b","elianto","#f73b6a7A","-1"," ","0","-10","[1981.2999999970198]","1","2","","","11076","55","3","4","lose","no-go","0"
"pit-trial","174","1159511","0.0-60.0","battery-v0.2","","""event"",""trial"",""time""
""fullscreenenter"",""1"",""4836""
","
","
","""event"",""trial"",""time""
""fullscreenenter"",""1"",""4836""
","
","","","-1","","","10","11076","5109","f","elianto","#3366ff99","-1","-1","1","+10","[]","0","2","","","11076","56","1","2","win","no-go","0"
"pit-trial","175","1163794","0.0-61.0","battery-v0.2","","""event"",""trial"",""time""
""fullscreenenter"",""1"",""4836""
","
","
","""event"",""trial"",""time""
""fullscreenenter"",""1"",""4836""
","
","","","1429","","","10","11076","5109","n","elianto","#f73b6a7A"," "," ","1","0","[2279.89999999851]","1","2","","","11076","57","0","3","lose","go","0"
"pit-trial","176","1167817","0.0-62.0","battery-v0.2","","""event"",""trial"",""time""
""fullscreenenter"",""1"",""4836""
","
","
","""event"",""trial"",""time""
""fullscreenenter"",""1"",""4836""
","
","","","1170","","","10","11076","5109","b","elianto","#f73b6a7A","-1"," ","0","-10","[2020.1000000014901]","1","2","","","11076","58","3","4","lose","no-go","0"
"pit-trial","177","1172672","0.0-63.0","battery-v0.2","","""event"",""trial"",""time""
""fullscreenenter"",""1"",""4836""
","
","
","""event"",""trial"",""time""
""fullscreenenter"",""1"",""4836""
","
","","","-1","","","10","11076","5109","c","elianto","#3366ff99"," ","-1","0","0","[]","0","2","","","11076","59","4","1","win","go","0"
"pit-trial","178","1176491","0.0-64.0","battery-v0.2","","""event"",""trial"",""time""
""fullscreenenter"",""1"",""4836""
","
","
","""event"",""trial"",""time""
""fullscreenenter"",""1"",""4836""
","
","","","963.2999999970198","","","10","11076","5109","t","elianto","#f73b6a7A"," "," ","1","0","[1814.7999999970198]","1","2","","","11076","60","2","3","lose","go","0"
"pit-trial","179","1181344","0.0-65.0","battery-v0.2","","""event"",""trial"",""time""
""fullscreenenter"",""1"",""4836""
","
","
","""event"",""trial"",""time""
""fullscreenenter"",""1"",""4836""
","
","","","-1","","","10","11076","5109","f","elianto","#3366ff99","-1","-1","1","+10","[]","0","2","","","11076","61","1","2","win","no-go","0"
"pit-trial","180","1184994","0.0-66.0","battery-v0.2","","""event"",""trial"",""time""
""fullscreenenter"",""1"",""4836""
","
","
","""event"",""trial"",""time""
""fullscreenenter"",""1"",""4836""
","
","","","795.2000000029802","","","10","11076","5109","c","elianto","#3366ff99"," "," ","1","0","[1646.2999999970198]","1","2","","","11076","62","4","1","win","go","1"
"pit-trial","181","1189027","0.0-67.0","battery-v0.2","","""event"",""trial"",""time""
""fullscreenenter"",""1"",""4836""
","
","
","""event"",""trial"",""time""
""fullscreenenter"",""1"",""4836""
","
","","","1178.7999999970198","","","10","11076","5109","t","elianto","#f73b6a7A"," "," ","1","0","[2029]","1","2","","","11076","63","2","3","lose","go","0"
"pit-trial","182","1193881","0.0-68.0","battery-v0.2","","""event"",""trial"",""time""
""fullscreenenter"",""1"",""4836""
","
","
","""event"",""trial"",""time""
""fullscreenenter"",""1"",""4836""
","
","","","-1","","","10","11076","5109","b","elianto","#f73b6a7A","-1","-1","1","0","[2860.1999999955297]","1","2","","","11076","64","3","4","lose","no-go","0"
"pit-trial","183","1197826","0.0-69.0","battery-v0.2","","""event"",""trial"",""time""
""fullscreenenter"",""1"",""4836""
","
","
","""event"",""trial"",""time""
""fullscreenenter"",""1"",""4836""
","
","","","1089.3999999985099","","","10","11076","5109","b","elianto","#f73b6a7A","-1"," ","0","-10","[1942.2000000029802]","1","2","","","11076","65","3","4","lose","no-go","0"
"pit-trial","184","1202680","0.0-70.0","battery-v0.2","","""event"",""trial"",""time""
""fullscreenenter"",""1"",""4836""
","
","
","""event"",""trial"",""time""
""fullscreenenter"",""1"",""4836""
","
","","","-1","","","10","11076","5109","f","elianto","#3366ff99","-1","-1","1","+10","[]","0","2","","","11076","66","1","2","win","no-go","0"
"pit-trial","185","1207533","0.0-71.0","battery-v0.2","","""event"",""trial"",""time""
""fullscreenenter"",""1"",""4836""
","
","
","""event"",""trial"",""time""
""fullscreenenter"",""1"",""4836""
","
","","","-1","","","10","11076","5109","c","elianto","#3366ff99"," ","-1","0","0","[]","0","2","","","11076","67","4","1","win","go","0"
"pit-trial","186","1211626","0.0-72.0","battery-v0.2","","""event"",""trial"",""time""
""fullscreenenter"",""1"",""4836""
","
","
","""event"",""trial"",""time""
""fullscreenenter"",""1"",""4836""
","
","","","1238.5","","","10","11076","5109","z","elianto","#3366ff99","-1"," ","0","+10","[2090.10000000149]","1","2","","","11076","68","5","2","win","no-go","1"
"pit-trial","187","1215322","0.0-73.0","battery-v0.2","","""event"",""trial"",""time""
""fullscreenenter"",""1"",""4836""
","
","
","""event"",""trial"",""time""
""fullscreenenter"",""1"",""4836""
","
","","","842","","","10","11076","5109","z","elianto","#3366ff99","-1"," ","0","0","[1692.7999999970198]","1","2","","","11076","69","5","2","win","no-go","0"
"pit-trial","188","1219241","0.0-74.0","battery-v0.2","","""event"",""trial"",""time""
""fullscreenenter"",""1"",""4836""
","
","
","""event"",""trial"",""time""
""fullscreenenter"",""1"",""4836""
","
","","","1067.2000000029802","","","10","11076","5109","c","elianto","#3366ff99"," "," ","1","+10","[1918]","1","2","","","11076","70","4","1","win","go","0"
"pit-trial","189","1223698","0.0-75.0","battery-v0.2","","""event"",""trial"",""time""
""fullscreenenter"",""1"",""4836""
","
","
","""event"",""trial"",""time""
""fullscreenenter"",""1"",""4836""
","
","","","1602.8000000044703","","","10","11076","5109","f","elianto","#3366ff99","-1"," ","0","+10","[2453.89999999851]","1","2","","","11076","71","1","2","win","no-go","1"
"pit-trial","190","1227483","0.0-76.0","battery-v0.2","","""event"",""trial"",""time""
""fullscreenenter"",""1"",""4836""
","
","
","""event"",""trial"",""time""
""fullscreenenter"",""1"",""4836""
","
","","","928.7999999970198","","","10","11076","5109","t","elianto","#f73b6a7A"," "," ","1","0","[1780.3999999985099]","1","2","","","11076","72","2","3","lose","go","0"
"pit-trial","191","1232337","0.0-77.0","battery-v0.2","","""event"",""trial"",""time""
""fullscreenenter"",""1"",""4836""
","
","
","""event"",""trial"",""time""
""fullscreenenter"",""1"",""4836""
","
","","","-1","","","10","11076","5109","f","elianto","#3366ff99","-1","-1","1","+10","[]","0","2","","","11076","73","1","2","win","no-go","0"
"pit-trial","192","1236386","0.0-78.0","battery-v0.2","","""event"",""trial"",""time""
""fullscreenenter"",""1"",""4836""
","
","
","""event"",""trial"",""time""
""fullscreenenter"",""1"",""4836""
","
","","","1193.7999999970198","","","10","11076","5109","b","elianto","#f73b6a7A","-1"," ","0","-10","[2044.8999999985099]","1","2","","","11076","74","3","4","lose","no-go","0"
"pit-trial","193","1241240","0.0-79.0","battery-v0.2","","""event"",""trial"",""time""
""fullscreenenter"",""1"",""4836""
","
","
","""event"",""trial"",""time""
""fullscreenenter"",""1"",""4836""
","
","","","-1","","","10","11076","5109","z","elianto","#3366ff99","-1","-1","1","+10","[]","0","2","","","11076","75","5","2","win","no-go","0"
"pit-trial","194","1245257","0.0-80.0","battery-v0.2","","""event"",""trial"",""time""
""fullscreenenter"",""1"",""4836""
","
","
","""event"",""trial"",""time""
""fullscreenenter"",""1"",""4836""
","
","","","1164.3999999985099","","","10","11076","5109","c","elianto","#3366ff99"," "," ","1","0","[2014.3999999985099]","1","2","","","11076","76","4","1","win","go","1"
"pit-trial","195","1250111","0.0-81.0","battery-v0.2","","""event"",""trial"",""time""
""fullscreenenter"",""1"",""4836""
","
","
","""event"",""trial"",""time""
""fullscreenenter"",""1"",""4836""
","
","","","-1","","","10","11076","5109","c","elianto","#3366ff99"," ","-1","0","0","[]","0","2","","","11076","77","4","1","win","go","0"
"pit-trial","196","1253906","0.0-82.0","battery-v0.2","","""event"",""trial"",""time""
""fullscreenenter"",""1"",""4836""
","
","
","""event"",""trial"",""time""
""fullscreenenter"",""1"",""4836""
","
","","","940.4000000059605","","","10","11076","5109","c","elianto","#3366ff99"," "," ","1","+10","[1791.4000000059605]","1","2","","","11076","78","4","1","win","go","0"
"pit-trial","197","1257913","0.0-83.0","battery-v0.2","","""event"",""trial"",""time""
""fullscreenenter"",""1"",""4836""
","
","
","""event"",""trial"",""time""
""fullscreenenter"",""1"",""4836""
","
","","","1153.6000000014901","","","10","11076","5109","b","elianto","#f73b6a7A","-1"," ","0","0","[2004.7000000029802]","1","2","","","11076","79","3","4","lose","no-go","1"
"pit-trial","198","1262250","0.0-84.0","battery-v0.2","","""event"",""trial"",""time""
""fullscreenenter"",""1"",""4836""
","
","
","""event"",""trial"",""time""
""fullscreenenter"",""1"",""4836""
","
","","","1482.8000000044703","","","10","11076","5109","z","elianto","#3366ff99","-1"," ","0","0","[2333.3000000044703]","1","2","","","11076","80","5","2","win","no-go","0"
"pit-trial","199","1266306","0.0-85.0","battery-v0.2","","""event"",""trial"",""time""
""fullscreenenter"",""1"",""4836""
","
","
","""event"",""trial"",""time""
""fullscreenenter"",""1"",""4836""
","
","","","1202.5","","","10","11076","5109","y","elianto","#f73b6a7A","-1"," ","0","-10","[2052.5]","1","2","","","11076","81","7","4","lose","no-go","0"
"pit-trial","200","1270177","0.0-86.0","battery-v0.2","","""event"",""trial"",""time""
""fullscreenenter"",""1"",""4836""
","
","
","""event"",""trial"",""time""
""fullscreenenter"",""1"",""4836""
","
","","","1017","","","10","11076","5109","b","elianto","#f73b6a7A","-1"," ","0","-10","[1867.7999999970198]","1","2","","","11076","82","3","4","lose","no-go","0"
"pit-trial","201","1275031","0.0-87.0","battery-v0.2","","""event"",""trial"",""time""
""fullscreenenter"",""1"",""4836""
","
","
","""event"",""trial"",""time""
""fullscreenenter"",""1"",""4836""
","
","","","-1","","","10","11076","5109","z","elianto","#3366ff99","-1","-1","1","+10","[]","0","2","","","11076","83","5","2","win","no-go","0"
"pit-trial","202","1278658","0.0-88.0","battery-v0.2","","""event"",""trial"",""time""
""fullscreenenter"",""1"",""4836""
","
","
","""event"",""trial"",""time""
""fullscreenenter"",""1"",""4836""
","
","","","772","","","10","11076","5109","c","elianto","#3366ff99"," "," ","1","0","[1623]","1","2","","","11076","84","4","1","win","go","1"
"pit-trial","203","1282907","0.0-89.0","battery-v0.2","","""event"",""trial"",""time""
""fullscreenenter"",""1"",""4836""
","
","
","""event"",""trial"",""time""
""fullscreenenter"",""1"",""4836""
","
","","","1394.2000000029802","","","10","11076","5109","c","elianto","#3366ff99"," "," ","1","+10","[2245.39999999851]","1","2","","","11076","85","4","1","win","go","0"
"pit-trial","204","1287400","0.0-90.0","battery-v0.2","","""event"",""trial"",""time""
""fullscreenenter"",""1"",""4836""
","
","
","""event"",""trial"",""time""
""fullscreenenter"",""1"",""4836""
","
","","","1640.1000000014901","","","10","11076","5109","h","elianto","#f73b6a7A"," "," ","1","0","[2491.2999999970198]","1","2","","","11076","86","6","3","lose","go","0"
"pit-trial","205","1292255","0.0-91.0","battery-v0.2","","""event"",""trial"",""time""
""fullscreenenter"",""1"",""4836""
","
","
","""event"",""trial"",""time""
""fullscreenenter"",""1"",""4836""
","
","","","-1","","","10","11076","5109","y","elianto","#f73b6a7A","-1","-1","1","0","[]","0","2","","","11076","87","7","4","lose","no-go","0"
"pit-trial","206","1297108","0.0-92.0","battery-v0.2","","""event"",""trial"",""time""
""fullscreenenter"",""1"",""4836""
","
","
","""event"",""trial"",""time""
""fullscreenenter"",""1"",""4836""
","
","","","-1","","","10","11076","5109","z","elianto","#3366ff99","-1","-1","1","+10","[]","0","2","","","11076","88","5","2","win","no-go","0"
"pit-trial","207","1301962","0.0-93.0","battery-v0.2","","""event"",""trial"",""time""
""fullscreenenter"",""1"",""4836""
","
","
","""event"",""trial"",""time""
""fullscreenenter"",""1"",""4836""
","
","","","-1","","","10","11076","5109","y","elianto","#f73b6a7A","-1","-1","1","0","[]","0","2","","","11076","89","7","4","lose","no-go","0"
"pit-trial","208","1306816","0.0-94.0","battery-v0.2","","""event"",""trial"",""time""
""fullscreenenter"",""1"",""4836""
","
","
","""event"",""trial"",""time""
""fullscreenenter"",""1"",""4836""
","
","","","-1","","","10","11076","5109","c","elianto","#3366ff99"," ","-1","0","0","[]","0","2","","","11076","90","4","1","win","go","0"
"pit-trial","209","1311098","0.0-95.0","battery-v0.2","","""event"",""trial"",""time""
""fullscreenenter"",""1"",""4836""
","
","
","""event"",""trial"",""time""
""fullscreenenter"",""1"",""4836""
","
","","","1428.3999999985099","","","10","11076","5109","z","elianto","#3366ff99","-1"," ","0","0","[2278.89999999851]","1","2","","","11076","91","5","2","win","no-go","0"
"pit-trial","210","1315951","0.0-96.0","battery-v0.2","","""event"",""trial"",""time""
""fullscreenenter"",""1"",""4836""
","
","
","""event"",""trial"",""time""
""fullscreenenter"",""1"",""4836""
","
","","","-1","","","10","11076","5109","h","elianto","#f73b6a7A"," ","-1","0","-10","[]","0","2","","","11076","92","6","3","lose","go","0"
"pit-trial","211","1320804","0.0-97.0","battery-v0.2","","""event"",""trial"",""time""
""fullscreenenter"",""1"",""4836""
","
","
","""event"",""trial"",""time""
""fullscreenenter"",""1"",""4836""
","
","","","-1","","","10","11076","5109","y","elianto","#f73b6a7A","-1","-1","1","0","[]","0","2","","","11076","93","7","4","lose","no-go","0"
"pit-trial","212","1325658","0.0-98.0","battery-v0.2","","""event"",""trial"",""time""
""fullscreenenter"",""1"",""4836""
","
","
","""event"",""trial"",""time""
""fullscreenenter"",""1"",""4836""
","
","","","-1","","","10","11076","5109","z","elianto","#3366ff99","-1","-1","1","0","[]","0","2","","","11076","94","5","2","win","no-go","1"
"pit-trial","213","1329370","0.0-99.0","battery-v0.2","","""event"",""trial"",""time""
""fullscreenenter"",""1"",""4836""
","
","
","""event"",""trial"",""time""
""fullscreenenter"",""1"",""4836""
","
","","","857.1999999955297","","","10","11076","5109","h","elianto","#f73b6a7A"," "," ","1","0","[1708]","1","2","","","11076","95","6","3","lose","go","0"
"pit-trial","214","1333330","0.0-100.0","battery-v0.2","","""event"",""trial"",""time""
""fullscreenenter"",""1"",""4836""
","
","
","""event"",""trial"",""time""
""fullscreenenter"",""1"",""4836""
","
","","","1104.7999999970198","","","10","11076","5109","r","elianto","#3366ff99"," "," ","1","+10","[1955.6999999955297]","1","2","","","11076","96","8","1","win","go","0"
"pit-trial","215","1338137","0.0-101.0","battery-v0.2","","""event"",""trial"",""time""
""fullscreenenter"",""1"",""4836""
","
","
","""event"",""trial"",""time""
""fullscreenenter"",""1"",""4836""
","
","","","1953.3999999985099","","","10","11076","5109","h","elianto","#f73b6a7A"," "," ","1","0","[2803.89999999851]","1","2","","","11076","97","6","3","lose","go","0"
"pit-trial","216","1342050","0.0-102.0","battery-v0.2","","""event"",""trial"",""time""
""fullscreenenter"",""1"",""4836""
","
","
","""event"",""trial"",""time""
""fullscreenenter"",""1"",""4836""
","
","","","1059.2999999970198","","","10","11076","5109","r","elianto","#3366ff99"," "," ","1","0","[1909.5999999940395]","1","2","","","11076","98","8","1","win","go","1"
"pit-trial","217","1346903","0.0-103.0","battery-v0.2","","""event"",""trial"",""time""
""fullscreenenter"",""1"",""4836""
","
","
","""event"",""trial"",""time""
""fullscreenenter"",""1"",""4836""
","
","","","-1","","","10","11076","5109","y","elianto","#f73b6a7A","-1","-1","1","0","[]","0","2","","","11076","99","7","4","lose","no-go","0"
"pit-trial","218","1351757","0.0-104.0","battery-v0.2","","""event"",""trial"",""time""
""fullscreenenter"",""1"",""4836""
","
","
","""event"",""trial"",""time""
""fullscreenenter"",""1"",""4836""
","
","","","-1","","","10","11076","5109","z","elianto","#3366ff99","-1","-1","1","+10","[]","0","2","","","11076","100","5","2","win","no-go","0"
"pit-trial","219","1356610","0.0-105.0","battery-v0.2","","""event"",""trial"",""time""
""fullscreenenter"",""1"",""4836""
","
","
","""event"",""trial"",""time""
""fullscreenenter"",""1"",""4836""
","
","","","-1","","","10","11076","5109","y","elianto","#f73b6a7A","-1","-1","1","0","[]","0","2","","","11076","101","7","4","lose","no-go","0"
"pit-trial","220","1361464","0.0-106.0","battery-v0.2","","""event"",""trial"",""time""
""fullscreenenter"",""1"",""4836""
","
","
","""event"",""trial"",""time""
""fullscreenenter"",""1"",""4836""
","
","","","-1","","","10","11076","5109","r","elianto","#3366ff99"," ","-1","0","0","[]","0","2","","","11076","102","8","1","win","go","0"
"pit-trial","221","1366319","0.0-107.0","battery-v0.2","","""event"",""trial"",""time""
""fullscreenenter"",""1"",""4836""
","
","
","""event"",""trial"",""time""
""fullscreenenter"",""1"",""4836""
","
","","","-1","","","10","11076","5109","z","elianto","#3366ff99","-1","-1","1","+10","[]","0","2","","","11076","103","5","2","win","no-go","0"
"pit-trial","222","1370386","0.0-108.0","battery-v0.2","","""event"",""trial"",""time""
""fullscreenenter"",""1"",""4836""
","
","
","""event"",""trial"",""time""
""fullscreenenter"",""1"",""4836""
","
","","","1214.9000000059605","","","10","11076","5109","m","elianto","#3366ff99"," "," ","1","+10","[2064.89999999851]","1","2","","","11076","104","9","1","win","go","0"
"pit-trial","223","1374145","0.0-109.0","battery-v0.2","","""event"",""trial"",""time""
""fullscreenenter"",""1"",""4836""
","
","
","""event"",""trial"",""time""
""fullscreenenter"",""1"",""4836""
","
","","","904.9000000059605","","","10","11076","5109","m","elianto","#3366ff99"," "," ","1","+10","[1756.2000000029802]","1","2","","","11076","105","9","1","win","go","0"
"pit-trial","224","1378362","0.0-110.0","battery-v0.2","","""event"",""trial"",""time""
""fullscreenenter"",""1"",""4836""
","
","
","""event"",""trial"",""time""
""fullscreenenter"",""1"",""4836""
","
","","","1362.5","","","10","11076","5109","r","elianto","#3366ff99"," "," ","1","0","[2212.60000000149]","1","2","","","11076","106","8","1","win","go","1"
"pit-trial","225","1383216","0.0-111.0","battery-v0.2","","""event"",""trial"",""time""
""fullscreenenter"",""1"",""4836""
","
","
","""event"",""trial"",""time""
""fullscreenenter"",""1"",""4836""
","
","","","-1","","","10","11076","5109","c","elianto","#3366ff99"," ","-1","0","+10","[]","0","2","","","11076","107","4","1","win","go","1"
"pit-trial","226","1387890","0.0-112.0","battery-v0.2","","""event"",""trial"",""time""
""fullscreenenter"",""1"",""4836""
","
","
","""event"",""trial"",""time""
""fullscreenenter"",""1"",""4836""
","
","","","1819.7999999970198","","","10","11076","5109","h","elianto","#f73b6a7A"," "," ","1","0","[2670]","1","2","","","11076","108","6","3","lose","go","0"
"pit-trial","227","1392745","0.0-113.0","battery-v0.2","","""event"",""trial"",""time""
""fullscreenenter"",""1"",""4836""
","
","
","""event"",""trial"",""time""
""fullscreenenter"",""1"",""4836""
","
","","","-1","","","10","11076","5109","r","elianto","#3366ff99"," ","-1","0","+10","[]","0","2","","","11076","109","8","1","win","go","1"
"pit-trial","228","1397599","0.0-114.0","battery-v0.2","","""event"",""trial"",""time""
""fullscreenenter"",""1"",""4836""
","
","
","""event"",""trial"",""time""
""fullscreenenter"",""1"",""4836""
","
","","","-1","","","10","11076","5109","z","elianto","#3366ff99","-1","-1","1","0","[]","0","2","","","11076","110","5","2","win","no-go","1"
"pit-trial","229","1401641","0.0-115.0","battery-v0.2","","""event"",""trial"",""time""
""fullscreenenter"",""1"",""4836""
","
","
","""event"",""trial"",""time""
""fullscreenenter"",""1"",""4836""
","
","","","1189.3999999985099","","","10","11076","5109","h","elianto","#f73b6a7A"," "," ","1","0","[2040.6999999955297]","1","2","","","11076","111","6","3","lose","go","0"
"pit-trial","230","1405273","0.0-116.0","battery-v0.2","","""event"",""trial"",""time""
""fullscreenenter"",""1"",""4836""
","
","
","""event"",""trial"",""time""
""fullscreenenter"",""1"",""4836""
","
","","","777.7000000029802","","","10","11076","5109","m","elianto","#3366ff99"," "," ","1","+10","[1628.1000000014901]","1","2","","","11076","112","9","1","win","go","0"
"pit-trial","231","1409194","0.0-117.0","battery-v0.2","","""event"",""trial"",""time""
""fullscreenenter"",""1"",""4836""
","
","
","""event"",""trial"",""time""
""fullscreenenter"",""1"",""4836""
","
","","","1065.8999999985099","","","10","11076","5109","h","elianto","#f73b6a7A"," "," ","1","-10","[1917.0999999940395]","1","2","","","11076","113","6","3","lose","go","1"
"pit-trial","232","1414047","0.0-118.0","battery-v0.2","","""event"",""trial"",""time""
""fullscreenenter"",""1"",""4836""
","
","
","""event"",""trial"",""time""
""fullscreenenter"",""1"",""4836""
","
","","","-1","","","10","11076","5109","r","elianto","#3366ff99"," ","-1","0","0","[]","0","2","","","11076","114","8","1","win","go","0"
"pit-trial","233","1417890","0.0-119.0","battery-v0.2","","""event"",""trial"",""time""
""fullscreenenter"",""1"",""4836""
","
","
","""event"",""trial"",""time""
""fullscreenenter"",""1"",""4836""
","
","","","989.5","","","10","11076","5109","m","elianto","#3366ff99"," "," ","1","+10","[1839.6999999955297]","1","2","","","11076","115","9","1","win","go","0"
"pit-trial","234","1422744","0.0-120.0","battery-v0.2","","""event"",""trial"",""time""
""fullscreenenter"",""1"",""4836""
","
","
","""event"",""trial"",""time""
""fullscreenenter"",""1"",""4836""
","
","","","-1","","","10","11076","5109","z","elianto","#3366ff99","-1","-1","1","+10","[]","0","2","","","11076","116","5","2","win","no-go","0"
"pit-trial","235","1426970","0.0-121.0","battery-v0.2","","""event"",""trial"",""time""
""fullscreenenter"",""1"",""4836""
","
","
","""event"",""trial"",""time""
""fullscreenenter"",""1"",""4836""
","
","","","1372.2999999970198","","","10","11076","5109","h","elianto","#f73b6a7A"," "," ","1","-10","[2222.7999999970198]","1","2","","","11076","117","6","3","lose","go","1"
"pit-trial","236","1431410","0.0-122.0","battery-v0.2","","""event"",""trial"",""time""
""fullscreenenter"",""1"",""4836""
","
","
","""event"",""trial"",""time""
""fullscreenenter"",""1"",""4836""
","
","","","1586.2000000029802","","","10","11076","5109","m","elianto","#3366ff99"," "," ","1","+10","[2436.60000000149]","1","2","","","11076","118","9","1","win","go","0"
"pit-trial","237","1436194","0.0-123.0","battery-v0.2","","""event"",""trial"",""time""
""fullscreenenter"",""1"",""4836""
","
","
","""event"",""trial"",""time""
""fullscreenenter"",""1"",""4836""
","
","","","1930.7999999970198","","","10","11076","5109","z","elianto","#3366ff99","-1"," ","0","0","[2781.2000000029802]","1","2","","","11076","119","5","2","win","no-go","0"
"pit-trial","238","1441049","0.0-124.0","battery-v0.2","","""event"",""trial"",""time""
""fullscreenenter"",""1"",""4836""
","
","
","""event"",""trial"",""time""
""fullscreenenter"",""1"",""4836""
","
","","","-1","","","10","11076","5109","r","elianto","#3366ff99"," ","-1","0","0","[]","0","2","","","11076","120","8","1","win","go","0"
"pit-trial","239","1445904","0.0-125.0","battery-v0.2","","""event"",""trial"",""time""
""fullscreenenter"",""1"",""4836""
","
","
","""event"",""trial"",""time""
""fullscreenenter"",""1"",""4836""
","
","","","-1","","","10","11076","5109","r","elianto","#3366ff99"," ","-1","0","0","[]","0","2","","","11076","121","8","1","win","go","0"
"pit-trial","240","1449610","0.0-126.0","battery-v0.2","","""event"",""trial"",""time""
""fullscreenenter"",""1"",""4836""
","
","
","""event"",""trial"",""time""
""fullscreenenter"",""1"",""4836""
","
","","","844","","","10","11076","5109","m","elianto","#3366ff99"," "," ","1","0","[1694.5999999940395]","1","2","","","11076","122","9","1","win","go","1"
"pit-trial","241","1454465","0.0-127.0","battery-v0.2","","""event"",""trial"",""time""
""fullscreenenter"",""1"",""4836""
","
","
","""event"",""trial"",""time""
""fullscreenenter"",""1"",""4836""
","
","","","-1","","","10","11076","5109","y","elianto","#f73b6a7A","-1","-1","1","0","[]","0","2","","","11076","123","7","4","lose","no-go","0"
"pit-trial","242","1458577","0.0-128.0","battery-v0.2","","""event"",""trial"",""time""
""fullscreenenter"",""1"",""4836""
","
","
","""event"",""trial"",""time""
""fullscreenenter"",""1"",""4836""
","
","","","1256.7000000029802","","","10","11076","5109","h","elianto","#f73b6a7A"," "," ","1","0","[2109.7999999970198]","1","2","","","11076","124","6","3","lose","go","0"
"pit-trial","243","1463439","0.0-129.0","battery-v0.2","","""event"",""trial"",""time""
""fullscreenenter"",""1"",""4836""
","
","
","""event"",""trial"",""time""
""fullscreenenter"",""1"",""4836""
","
","","","-1","","","10","11076","5109","y","elianto","#f73b6a7A","-1","-1","1","0","[]","0","2","","","11076","125","7","4","lose","no-go","0"
"pit-trial","244","1467986","0.0-130.0","battery-v0.2","","""event"",""trial"",""time""
""fullscreenenter"",""1"",""4836""
","
","
","""event"",""trial"",""time""
""fullscreenenter"",""1"",""4836""
","
","","","1693.3999999985099","","","10","11076","5109","h","elianto","#f73b6a7A"," "," ","1","0","[2543.4000000059605]","1","2","","","11076","126","6","3","lose","go","0"
"pit-trial","245","1471674","0.0-131.0","battery-v0.2","","""event"",""trial"",""time""
""fullscreenenter"",""1"",""4836""
","
","
","""event"",""trial"",""time""
""fullscreenenter"",""1"",""4836""
","
","","","833.5","","","10","11076","5109","r","elianto","#3366ff99"," "," ","1","+10","[1684.6999999955297]","1","2","","","11076","127","8","1","win","go","0"
"pit-trial","246","1475442","0.0-132.0","battery-v0.2","","""event"",""trial"",""time""
""fullscreenenter"",""1"",""4836""
","
","
","""event"",""trial"",""time""
""fullscreenenter"",""1"",""4836""
","
","","","914.3000000044703","","","10","11076","5109","m","elianto","#3366ff99"," "," ","1","+10","[1764.8999999985099]","1","2","","","11076","128","9","1","win","go","0"
"pit-trial","247","1479002","0.0-133.0","battery-v0.2","","""event"",""trial"",""time""
""fullscreenenter"",""1"",""4836""
","
","
","""event"",""trial"",""time""
""fullscreenenter"",""1"",""4836""
","
","","","707.1000000014901","","","10","11076","5109","m","elianto","#3366ff99"," "," ","1","+10","[1557.5]","1","2","","","11076","129","9","1","win","go","0"
"pit-trial","248","1483121","0.0-134.0","battery-v0.2","","""event"",""trial"",""time""
""fullscreenenter"",""1"",""4836""
","
","
","""event"",""trial"",""time""
""fullscreenenter"",""1"",""4836""
","
","","","1266.8000000044703","","","10","11076","5109","r","elianto","#3366ff99"," "," ","1","+10","[2116.8000000044703]","1","2","","","11076","130","8","1","win","go","0"
"pit-trial","249","1487974","0.0-135.0","battery-v0.2","","""event"",""trial"",""time""
""fullscreenenter"",""1"",""4836""
","
","
","""event"",""trial"",""time""
""fullscreenenter"",""1"",""4836""
","
","","","-1","","","10","11076","5109","y","elianto","#f73b6a7A","-1","-1","1","-10","[]","0","2","","","11076","131","7","4","lose","no-go","1"
"pit-trial","250","1492522","0.0-136.0","battery-v0.2","","""event"",""trial"",""time""
""fullscreenenter"",""1"",""4836""
","
","
","""event"",""trial"",""time""
""fullscreenenter"",""1"",""4836""
","
","","","1694","","","10","11076","5109","h","elianto","#f73b6a7A"," "," ","1","0","[2544.5]","1","2","","","11076","132","6","3","lose","go","0"
"pit-trial","251","1497154","0.0-137.0","battery-v0.2","","""event"",""trial"",""time""
""fullscreenenter"",""1"",""4836""
","
","
","""event"",""trial"",""time""
""fullscreenenter"",""1"",""4836""
","
","","","1777.7000000029802","","","10","11076","5109","h","elianto","#f73b6a7A"," "," ","1","-10","[2628.5]","1","2","","","11076","133","6","3","lose","go","1"
"pit-trial","252","1502008","0.0-138.0","battery-v0.2","","""event"",""trial"",""time""
""fullscreenenter"",""1"",""4836""
","
","
","""event"",""trial"",""time""
""fullscreenenter"",""1"",""4836""
","
","","","-1","","","10","11076","5109","y","elianto","#f73b6a7A","-1","-1","1","0","[]","0","2","","","11076","134","7","4","lose","no-go","0"
"pit-trial","253","1505770","0.0-139.0","battery-v0.2","","""event"",""trial"",""time""
""fullscreenenter"",""1"",""4836""
","
","
","""event"",""trial"",""time""
""fullscreenenter"",""1"",""4836""
","
","","","910.2000000029802","","","10","11076","5109","r","elianto","#3366ff99"," "," ","1","+10","[1760.3000000044703]","1","2","","","11076","135","8","1","win","go","0"
"pit-trial","254","1509506","0.0-140.0","battery-v0.2","","""event"",""trial"",""time""
""fullscreenenter"",""1"",""4836""
","
","
","""event"",""trial"",""time""
""fullscreenenter"",""1"",""4836""
","
","","","882","","","10","11076","5109","m","elianto","#3366ff99"," "," ","1","+10","[1732.6999999955297]","1","2","","","11076","136","9","1","win","go","0"
"pit-trial","255","1514359","0.0-141.0","battery-v0.2","","""event"",""trial"",""time""
""fullscreenenter"",""1"",""4836""
","
","
","""event"",""trial"",""time""
""fullscreenenter"",""1"",""4836""
","
","","","-1","","","10","11076","5109","y","elianto","#f73b6a7A","-1","-1","1","0","[]","0","2","","","11076","137","7","4","lose","no-go","0"
"pit-trial","256","1518386","0.0-142.0","battery-v0.2","","""event"",""trial"",""time""
""fullscreenenter"",""1"",""4836""
","
","
","""event"",""trial"",""time""
""fullscreenenter"",""1"",""4836""
","
","","","1173.5","","","10","11076","5109","h","elianto","#f73b6a7A"," "," ","1","0","[2023.9000000059605]","1","2","","","11076","138","6","3","lose","go","0"
"pit-trial","257","1522290","0.0-143.0","battery-v0.2","","""event"",""trial"",""time""
""fullscreenenter"",""1"",""4836""
","
","
","""event"",""trial"",""time""
""fullscreenenter"",""1"",""4836""
","
","","","1050.1000000014901","","","10","11076","5109","m","elianto","#3366ff99"," "," ","1","0","[1900.8000000044703]","1","2","","","11076","139","9","1","win","go","1"
"pit-trial","258","1526370","0.0-144.0","battery-v0.2","","""event"",""trial"",""time""
""fullscreenenter"",""1"",""4836""
","
","
","""event"",""trial"",""time""
""fullscreenenter"",""1"",""4836""
","
","","","1227.1000000014901","","","10","11076","5109","r","elianto","#3366ff99"," "," ","1","+10","[2077.10000000149]","1","2","","","11076","140","8","1","win","go","0"
"pit-instructions","259","1605592","0.0-145.0","battery-v0.2","","""event"",""trial"",""time""
""fullscreenenter"",""1"",""4836""
","
","
","""event"",""trial"",""time""
""fullscreenenter"",""1"",""4836""
","
","","[{""page_index"":0,""viewing_time"":68211.69999999553},{""page_index"":1,""viewing_time"":11008}]","79219.89999999851","","","","","","","","","","","","","","","","","","","","","","","",""
"pit-trial","260","1609927","0.0-146.0","battery-v0.2","","""event"",""trial"",""time""
""fullscreenenter"",""1"",""4836""
","
","
","""event"",""trial"",""time""
""fullscreenenter"",""1"",""4836""
","
","","","1471.7999999970198","","","10","11076","5109","w","elianto","#f73b6a7A"," "," ","1","0","[2326.10000000149]","1","3","","","11076","141","3","3","lose","go","0"
"pit-trial","261","1613586","0.0-147.0","battery-v0.2","","""event"",""trial"",""time""
""fullscreenenter"",""1"",""4836""
","
","
","""event"",""trial"",""time""
""fullscreenenter"",""1"",""4836""
","
","","","802.8000000044703","","","10","11076","5109","j","elianto","#f73b6a7A","-1"," ","0","-10","[1655.6000000014901]","1","3","","","11076","142","0","4","lose","no-go","0"
"pit-trial","262","1617336","0.0-148.0","battery-v0.2","","""event"",""trial"",""time""
""fullscreenenter"",""1"",""4836""
","
","
","""event"",""trial"",""time""
""fullscreenenter"",""1"",""4836""
","
","","","884.7000000029802","","","10","11076","5109","d","elianto","#3366ff99"," "," ","1","+10","[620.7000000029802,1741.3000000044703]","2","3","","","11076","143","1","1","win","go","0"
"pit-trial","263","1621435","0.0-149.0","battery-v0.2","","""event"",""trial"",""time""
""fullscreenenter"",""1"",""4836""
","
","
","""event"",""trial"",""time""
""fullscreenenter"",""1"",""4836""
","
","","","1241.2999999970198","","","10","11076","5109","e","elianto","#f73b6a7A","-1"," ","0","-10","[2094.2999999970198]","1","3","","","11076","144","2","4","lose","no-go","0"
"pit-trial","264","1626314","0.0-150.0","battery-v0.2","","""event"",""trial"",""time""
""fullscreenenter"",""1"",""4836""
","
","
","""event"",""trial"",""time""
""fullscreenenter"",""1"",""4836""
","
","","","-1","","","10","11076","5109","j","elianto","#f73b6a7A","-1","-1","1","-10","[]","0","3","","","11076","145","0","4","lose","no-go","1"
"pit-trial","265","1630405","0.0-151.0","battery-v0.2","","""event"",""trial"",""time""
""fullscreenenter"",""1"",""4836""
","
","
","""event"",""trial"",""time""
""fullscreenenter"",""1"",""4836""
","
","","","1224.2000000029802","","","10","11076","5109","e","elianto","#f73b6a7A","-1"," ","0","-10","[243.69999999552965,2076.39999999851]","2","3","","","11076","146","2","4","lose","no-go","0"
"pit-trial","266","1635267","0.0-152.0","battery-v0.2","","""event"",""trial"",""time""
