"trial_type","trial_index","time_elapsed","internal_node_id","task_version","subject_id","interactions","blur_events","focus_events","fullscreenenter_events","fullscreenexit_events","success","view_history","rt","responses","num_errors","age","subject","participantId","rune","rune_set","hex","correct","choice","accuracy","outcome","keys","total_keys","block","practice","value","sub","trial","stimulus","robot","valence","action","sham"
"pavlovia","0","6","0.0-0.0","battery-v0.2","","""event"",""trial"",""time""
""fullscreenenter"",""1"",""1654""
","
","
","""event"",""trial"",""time""
""fullscreenenter"",""1"",""1654""
","
","","","","","","","","","","","","","","","","","","","","","","","","","","",""
"fullscreen","1","2612","0.0-1.0","battery-v0.2","","""event"",""trial"",""time""
""fullscreenenter"",""1"",""1654""
","
","
","""event"",""trial"",""time""
""fullscreenenter"",""1"",""1654""
","
","true","","","","","","","","","","","","","","","","","","","","","","","","","",""
"pit-instructions","2","7331","0.0-2.0-0.0","battery-v0.2","","""event"",""trial"",""time""
""fullscreenenter"",""1"",""1654""
","
","
","""event"",""trial"",""time""
""fullscreenenter"",""1"",""1654""
","
","","[{""page_index"":0,""viewing_time"":4716}]","4717","","","","","","","","","","","","","","","","","","","","","","","",""
"pit-comprehension","3","9751","0.0-2.0-1.0-0.0","battery-v0.2","","""event"",""trial"",""time""
""fullscreenenter"",""1"",""1654""
","
","
","""event"",""trial"",""time""
""fullscreenenter"",""1"",""1654""
","
","","","2283.000000000002","[""shark""]","0","25","5153","263","","","","","","","","","","","","","","","","","","",""
"pit-instructions","4","13199","0.0-2.0-1.0-1.0","battery-v0.2","","""event"",""trial"",""time""
""fullscreenenter"",""1"",""1654""
","
","
","""event"",""trial"",""time""
""fullscreenenter"",""1"",""1654""
","
","","[{""page_index"":0,""viewing_time"":3444}]","3444","","","","","","","","","","","","","","","","","","","","","","","",""
"pit-comprehension","5","15215","0.0-2.0-2.0-0.0","battery-v0.2","","""event"",""trial"",""time""
""fullscreenenter"",""1"",""1654""
","
","
","""event"",""trial"",""time""
""fullscreenenter"",""1"",""1654""
","
","","","2012.9999999999982","[""tiger""]","0","25","5153","263","","","","","","","","","","","","","","","","","","",""
"pit-instructions","6","16683","0.0-2.0-2.0-1.0","battery-v0.2","","""event"",""trial"",""time""
""fullscreenenter"",""1"",""1654""
","
","
","""event"",""trial"",""time""
""fullscreenenter"",""1"",""1654""
","
","","[{""page_index"":0,""viewing_time"":1464}]","1464","","","","","","","","","","","","","","","","","","","","","","","",""
"pit-instructions","7","115591","0.0-2.0-3.0","battery-v0.2","","""event"",""trial"",""time""
""fullscreenenter"",""1"",""1654""
","
","
","""event"",""trial"",""time""
""fullscreenenter"",""1"",""1654""
","
","","[{""page_index"":0,""viewing_time"":14998.000000000007},{""page_index"":1,""viewing_time"":5452.999999999993},{""page_index"":2,""viewing_time"":6101},{""page_index"":3,""viewing_time"":5084},{""page_index"":4,""viewing_time"":5617},{""page_index"":5,""viewing_time"":6435},{""page_index"":6,""viewing_time"":6285},{""page_index"":7,""viewing_time"":6068},{""page_index"":8,""viewing_time"":7286},{""page_index"":9,""viewing_time"":7435},{""page_index"":10,""viewing_time"":8202},{""page_index"":11,""viewing_time"":7119},{""page_index"":12,""viewing_time"":6903},{""page_index"":13,""viewing_time"":5917}]","98903","","","","","","","","","","","","","","","","","","","","","","","",""
"pit-trial","8","119010","0.0-2.0-4.0-0.0","battery-v0.2","","""event"",""trial"",""time""
""fullscreenenter"",""1"",""1654""
","
","
","""event"",""trial"",""time""
""fullscreenenter"",""1"",""1654""
","
","","","566.0000000000146","","","25","5153","263","&#9784;","elianto","#FFFFF080"," "," ","1","&#10004","[848,1416.0000000000146]","2","0","0","","","","","","","",""
"pit-trial","9","122538","0.0-2.0-4.1-0.1","battery-v0.2","","""event"",""trial"",""time""
""fullscreenenter"",""1"",""1654""
","
","
","""event"",""trial"",""time""
""fullscreenenter"",""1"",""1654""
","
","","","675","","","25","5153","263","&#9784;","elianto","#FFFFF080"," "," ","1","&#10004","[1524.9999999999854]","1","0","0","","","","","","","",""
"pit-trial","10","125954","0.0-2.0-4.2-0.2","battery-v0.2","","""event"",""trial"",""time""
""fullscreenenter"",""1"",""1654""
","
","
","""event"",""trial"",""time""
""fullscreenenter"",""1"",""1654""
","
","","","562.9999999999854","","","25","5153","263","&#9784;","elianto","#FFFFF080"," "," ","1","&#10004","[1413]","1","0","0","","","","","","","",""
"pit-trial","11","129291","0.0-2.0-4.3-0.3","battery-v0.2","","""event"",""trial"",""time""
""fullscreenenter"",""1"",""1654""
","
","
","""event"",""trial"",""time""
""fullscreenenter"",""1"",""1654""
","
","","","483.00000000001455","","","25","5153","263","&#9784;","elianto","#FFFFF080"," "," ","1","&#10004","[1333]","1","0","0","","","","","","","",""
"pit-trial","12","132618","0.0-2.0-4.4-0.4","battery-v0.2","","""event"",""trial"",""time""
""fullscreenenter"",""1"",""1654""
","
","
","""event"",""trial"",""time""
""fullscreenenter"",""1"",""1654""
","
","","","475","","","25","5153","263","&#9784;","elianto","#FFFFF080"," "," ","1","&#10004","[1325]","1","0","0","","","","","","","",""
"pit-instructions","13","153970","0.0-2.0-5.0","battery-v0.2","","""event"",""trial"",""time""
""fullscreenenter"",""1"",""1654""
","
","
","""event"",""trial"",""time""
""fullscreenenter"",""1"",""1654""
","
","","[{""page_index"":0,""viewing_time"":4411},{""page_index"":1,""viewing_time"":5450},{""page_index"":2,""viewing_time"":5134},{""page_index"":3,""viewing_time"":6354.000000000029}]","21349.00000000003","","","","","","","","","","","","","","","","","","","","","","","",""
"pit-trial","14","158823","0.0-2.0-6.0-0.0","battery-v0.2","","""event"",""trial"",""time""
""fullscreenenter"",""1"",""1654""
","
","
","""event"",""trial"",""time""
""fullscreenenter"",""1"",""1654""
","
","","","-1","","","25","5153","263","&#9854;","elianto","#FFFFF080","-1","-1","1","&#10004","[]","0","0","1","","","","","","","",""
"pit-trial","15","163677","0.0-2.0-6.1-0.1","battery-v0.2","","""event"",""trial"",""time""
""fullscreenenter"",""1"",""1654""
","
","
","""event"",""trial"",""time""
""fullscreenenter"",""1"",""1654""
","
","","","-1","","","25","5153","263","&#9854;","elianto","#FFFFF080","-1","-1","1","&#10004","[]","0","0","1","","","","","","","",""
"pit-trial","16","168531","0.0-2.0-6.2-0.2","battery-v0.2","","""event"",""trial"",""time""
""fullscreenenter"",""1"",""1654""
","
","
","""event"",""trial"",""time""
""fullscreenenter"",""1"",""1654""
","
","","","-1","","","25","5153","263","&#9854;","elianto","#FFFFF080","-1","-1","1","&#10004","[]","0","0","1","","","","","","","",""
"pit-trial","17","173384","0.0-2.0-6.3-0.3","battery-v0.2","","""event"",""trial"",""time""
""fullscreenenter"",""1"",""1654""
","
","
","""event"",""trial"",""time""
""fullscreenenter"",""1"",""1654""
","
","","","-1","","","25","5153","263","&#9854;","elianto","#FFFFF080","-1","-1","1","&#10004","[]","0","0","1","","","","","","","",""
"pit-trial","18","178238","0.0-2.0-6.4-0.4","battery-v0.2","","""event"",""trial"",""time""
""fullscreenenter"",""1"",""1654""
","
","
","""event"",""trial"",""time""
""fullscreenenter"",""1"",""1654""
","
","","","-1","","","25","5153","263","&#9854;","elianto","#FFFFF080","-1","-1","1","&#10004","[]","0","0","1","","","","","","","",""
"pit-instructions","19","290488","0.0-2.0-7.0","battery-v0.2","","""event"",""trial"",""time""
""fullscreenenter"",""1"",""1654""
","
","
","""event"",""trial"",""time""
""fullscreenenter"",""1"",""1654""
","
","","[{""page_index"":0,""viewing_time"":5401},{""page_index"":1,""viewing_time"":6369},{""page_index"":2,""viewing_time"":5868},{""page_index"":3,""viewing_time"":5701},{""page_index"":4,""viewing_time"":6102},{""page_index"":5,""viewing_time"":6652},{""page_index"":6,""viewing_time"":4101},{""page_index"":7,""viewing_time"":7936},{""page_index"":8,""viewing_time"":6167},{""page_index"":9,""viewing_time"":5819.000000000029},{""page_index"":10,""viewing_time"":6983.999999999971},{""page_index"":11,""viewing_time"":4268},{""page_index"":12,""viewing_time"":6519},{""page_index"":13,""viewing_time"":7020},{""page_index"":14,""viewing_time"":6683},{""page_index"":15,""viewing_time"":7287},{""page_index"":16,""viewing_time"":6118},{""page_index"":17,""viewing_time"":7251}]","112246","","","","","","","","","","","","","","","","","","","","","","","",""
"pit-trial","20","293751","0.0-2.0-8.0-0.0","battery-v0.2","","""event"",""trial"",""time""
""fullscreenenter"",""1"",""1654""
","
","
","""event"",""trial"",""time""
""fullscreenenter"",""1"",""1654""
","
","","","409","","","25","5153","263","&#9776;","elianto","#3366ff99"," "," ","1","+10","[1260]","1","0","1","","","","","","","",""
"pit-trial","21","296995","0.0-2.0-8.0-1.0","battery-v0.2","","""event"",""trial"",""time""
""fullscreenenter"",""1"",""1654""
","
","
","""event"",""trial"",""time""
""fullscreenenter"",""1"",""1654""
","
","","","392","","","25","5153","263","&#9776;","elianto","#3366ff99"," "," ","1","+10","[1242]","1","0","1","","","","","","","",""
"pit-trial","22","300300","0.0-2.0-8.0-2.0","battery-v0.2","","""event"",""trial"",""time""
""fullscreenenter"",""1"",""1654""
","
","
","""event"",""trial"",""time""
""fullscreenenter"",""1"",""1654""
","
","","","451","","","25","5153","263","&#9776;","elianto","#3366ff99"," "," ","1","+10","[1302]","1","0","1","","","","","","","",""
"pit-trial","23","303628","0.0-2.0-8.0-3.0","battery-v0.2","","""event"",""trial"",""time""
""fullscreenenter"",""1"",""1654""
","
","
","""event"",""trial"",""time""
""fullscreenenter"",""1"",""1654""
","
","","","475","","","25","5153","263","&#9776;","elianto","#3366ff99"," "," ","1","0","[1325.9999999999418]","1","0","1","","","","","","","",""
"pit-trial","24","306916","0.0-2.0-8.0-4.0","battery-v0.2","","""event"",""trial"",""time""
""fullscreenenter"",""1"",""1654""
","
","
","""event"",""trial"",""time""
""fullscreenenter"",""1"",""1654""
","
","","","435","","","25","5153","263","&#9776;","elianto","#3366ff99"," "," ","1","+10","[1286]","1","0","1","","","","","","","",""
"pit-trial","25","310235","0.0-2.0-8.1-0.1","battery-v0.2","","""event"",""trial"",""time""
""fullscreenenter"",""1"",""1654""
","
","
","""event"",""trial"",""time""
""fullscreenenter"",""1"",""1654""
","
","","","466","","","25","5153","263","&#9776;","elianto","#3366ff99"," "," ","1","+10","[1317]","1","0","1","","","","","","","",""
"pit-trial","26","313516","0.0-2.0-8.1-1.1","battery-v0.2","","""event"",""trial"",""time""
""fullscreenenter"",""1"",""1654""
","
","
","""event"",""trial"",""time""
""fullscreenenter"",""1"",""1654""
","
","","","427","","","25","5153","263","&#9776;","elianto","#3366ff99"," "," ","1","+10","[1278]","1","0","1","","","","","","","",""
"pit-trial","27","316829","0.0-2.0-8.1-2.1","battery-v0.2","","""event"",""trial"",""time""
""fullscreenenter"",""1"",""1654""
","
","
","""event"",""trial"",""time""
""fullscreenenter"",""1"",""1654""
","
","","","460","","","25","5153","263","&#9776;","elianto","#3366ff99"," "," ","1","+10","[1311]","1","0","1","","","","","","","",""
"pit-trial","28","320492","0.0-2.0-8.1-3.1","battery-v0.2","","""event"",""trial"",""time""
""fullscreenenter"",""1"",""1654""
","
","
","""event"",""trial"",""time""
""fullscreenenter"",""1"",""1654""
","
","","","810","","","25","5153","263","&#9776;","elianto","#3366ff99"," "," ","1","0","[1660]","1","0","1","","","","","","","",""
"pit-trial","29","323836","0.0-2.0-8.1-4.1","battery-v0.2","","""event"",""trial"",""time""
""fullscreenenter"",""1"",""1654""
","
","
","""event"",""trial"",""time""
""fullscreenenter"",""1"",""1654""
","
","","","491","","","25","5153","263","&#9776;","elianto","#3366ff99"," "," ","1","+10","[1340]","1","0","1","","","","","","","",""
"pit-trial","30","327050","0.0-2.0-8.2-0.2","battery-v0.2","","""event"",""trial"",""time""
""fullscreenenter"",""1"",""1654""
","
","
","""event"",""trial"",""time""
""fullscreenenter"",""1"",""1654""
","
","","","363","","","25","5153","263","&#9776;","elianto","#3366ff99"," "," ","1","+10","[1213.0000000000582]","1","0","1","","","","","","","",""
"pit-trial","31","330290","0.0-2.0-8.2-1.2","battery-v0.2","","""event"",""trial"",""time""
""fullscreenenter"",""1"",""1654""
","
","
","""event"",""trial"",""time""
""fullscreenenter"",""1"",""1654""
","
","","","388","","","25","5153","263","&#9776;","elianto","#3366ff99"," "," ","1","+10","[1238]","1","0","1","","","","","","","",""
"pit-trial","32","333521","0.0-2.0-8.2-2.2","battery-v0.2","","""event"",""trial"",""time""
""fullscreenenter"",""1"",""1654""
","
","
","""event"",""trial"",""time""
""fullscreenenter"",""1"",""1654""
","
","","","379","","","25","5153","263","&#9776;","elianto","#3366ff99"," "," ","1","+10","[1230]","1","0","1","","","","","","","",""
"pit-trial","33","336633","0.0-2.0-8.2-3.2","battery-v0.2","","""event"",""trial"",""time""
""fullscreenenter"",""1"",""1654""
","
","
","""event"",""trial"",""time""
""fullscreenenter"",""1"",""1654""
","
","","","260.0000000000582","","","25","5153","263","&#9776;","elianto","#3366ff99"," "," ","1","0","[1110.0000000000582]","1","0","1","","","","","","","",""
"pit-trial","34","339616","0.0-2.0-8.2-4.2","battery-v0.2","","""event"",""trial"",""time""
""fullscreenenter"",""1"",""1654""
","
","
","""event"",""trial"",""time""
""fullscreenenter"",""1"",""1654""
","
","","","130","","","25","5153","263","&#9776;","elianto","#3366ff99"," "," ","1","+10","[980]","1","0","1","","","","","","","",""
"call-function","35","339618","0.0-2.0-9.0","battery-v0.2","","""event"",""trial"",""time""
""fullscreenenter"",""1"",""1654""
","
","
","""event"",""trial"",""time""
""fullscreenenter"",""1"",""1654""
","
","","","","","","","","","","","","","","","","","","","","","","","","","","",""
"pit-instructions","36","378173","0.0-2.0-10.0","battery-v0.2","","""event"",""trial"",""time""
""fullscreenenter"",""1"",""1654""
","
","
","""event"",""trial"",""time""
""fullscreenenter"",""1"",""1654""
","
","","[{""page_index"":0,""viewing_time"":6396},{""page_index"":1,""viewing_time"":6503},{""page_index"":2,""viewing_time"":9887},{""page_index"":3,""viewing_time"":8466},{""page_index"":4,""viewing_time"":7303}]","38556","","","","","","","","","","","","","","","","","","","","","","","",""
"pit-trial","37","381536","0.0-2.0-11.0-0.0","battery-v0.2","","""event"",""trial"",""time""
""fullscreenenter"",""1"",""1654""
","
","
","""event"",""trial"",""time""
""fullscreenenter"",""1"",""1654""
","
","","","510","","","25","5153","263","&#9761;","elianto","#3366ff99","-1"," ","0","0","[1361]","1","0","2","","","","","","","",""
"pit-trial","38","384727","0.0-2.0-11.0-1.0","battery-v0.2","","""event"",""trial"",""time""
""fullscreenenter"",""1"",""1654""
","
","
","""event"",""trial"",""time""
""fullscreenenter"",""1"",""1654""
","
","","","339.0000000000582","","","25","5153","263","&#9761;","elianto","#3366ff99","-1"," ","0","0","[1189.0000000000582]","1","0","2","","","","","","","",""
"pit-trial","39","389580","0.0-2.0-11.0-2.0","battery-v0.2","","""event"",""trial"",""time""
""fullscreenenter"",""1"",""1654""
","
","
","""event"",""trial"",""time""
""fullscreenenter"",""1"",""1654""
","
","","","-1","","","25","5153","263","&#9761;","elianto","#3366ff99","-1","-1","1","+10","[]","0","0","2","","","","","","","",""
"pit-trial","40","394433","0.0-2.0-11.0-3.0","battery-v0.2","","""event"",""trial"",""time""
""fullscreenenter"",""1"",""1654""
","
","
","""event"",""trial"",""time""
""fullscreenenter"",""1"",""1654""
","
","","","-1","","","25","5153","263","&#9761;","elianto","#3366ff99","-1","-1","1","0","[]","0","0","2","","","","","","","",""
"pit-trial","41","399285","0.0-2.0-11.0-4.0","battery-v0.2","","""event"",""trial"",""time""
""fullscreenenter"",""1"",""1654""
","
","
","""event"",""trial"",""time""
""fullscreenenter"",""1"",""1654""
","
","","","-1","","","25","5153","263","&#9761;","elianto","#3366ff99","-1","-1","1","+10","[]","0","0","2","","","","","","","",""
"pit-trial","42","404139","0.0-2.0-11.1-0.1","battery-v0.2","","""event"",""trial"",""time""
""fullscreenenter"",""1"",""1654""
","
","
","""event"",""trial"",""time""
""fullscreenenter"",""1"",""1654""
","
","","","-1","","","25","5153","263","&#9761;","elianto","#3366ff99","-1","-1","1","+10","[]","0","0","2","","","","","","","",""
"pit-trial","43","408992","0.0-2.0-11.1-1.1","battery-v0.2","","""event"",""trial"",""time""
""fullscreenenter"",""1"",""1654""
","
","
","""event"",""trial"",""time""
""fullscreenenter"",""1"",""1654""
","
","","","-1","","","25","5153","263","&#9761;","elianto","#3366ff99","-1","-1","1","+10","[]","0","0","2","","","","","","","",""
"pit-trial","44","413845","0.0-2.0-11.1-2.1","battery-v0.2","","""event"",""trial"",""time""
""fullscreenenter"",""1"",""1654""
","
","
","""event"",""trial"",""time""
""fullscreenenter"",""1"",""1654""
","
","","","-1","","","25","5153","263","&#9761;","elianto","#3366ff99","-1","-1","1","+10","[]","0","0","2","","","","","","","",""
"pit-trial","45","418699","0.0-2.0-11.1-3.1","battery-v0.2","","""event"",""trial"",""time""
""fullscreenenter"",""1"",""1654""
","
","
","""event"",""trial"",""time""
""fullscreenenter"",""1"",""1654""
","
","","","-1","","","25","5153","263","&#9761;","elianto","#3366ff99","-1","-1","1","0","[]","0","0","2","","","","","","","",""
"pit-trial","46","423553","0.0-2.0-11.1-4.1","battery-v0.2","","""event"",""trial"",""time""
""fullscreenenter"",""1"",""1654""
","
","
","""event"",""trial"",""time""
""fullscreenenter"",""1"",""1654""
","
","","","-1","","","25","5153","263","&#9761;","elianto","#3366ff99","-1","-1","1","+10","[]","0","0","2","","","","","","","",""
"pit-trial","47","428406","0.0-2.0-11.2-0.2","battery-v0.2","","""event"",""trial"",""time""
""fullscreenenter"",""1"",""1654""
","
","
","""event"",""trial"",""time""
""fullscreenenter"",""1"",""1654""
","
","","","-1","","","25","5153","263","&#9761;","elianto","#3366ff99","-1","-1","1","+10","[]","0","0","2","","","","","","","",""
"pit-trial","48","433259","0.0-2.0-11.2-1.2","battery-v0.2","","""event"",""trial"",""time""
""fullscreenenter"",""1"",""1654""
","
","
","""event"",""trial"",""time""
""fullscreenenter"",""1"",""1654""
","
","","","-1","","","25","5153","263","&#9761;","elianto","#3366ff99","-1","-1","1","+10","[]","0","0","2","","","","","","","",""
"pit-trial","49","438113","0.0-2.0-11.2-2.2","battery-v0.2","","""event"",""trial"",""time""
""fullscreenenter"",""1"",""1654""
","
","
","""event"",""trial"",""time""
""fullscreenenter"",""1"",""1654""
","
","","","-1","","","25","5153","263","&#9761;","elianto","#3366ff99","-1","-1","1","+10","[]","0","0","2","","","","","","","",""
"pit-trial","50","442966","0.0-2.0-11.2-3.2","battery-v0.2","","""event"",""trial"",""time""
""fullscreenenter"",""1"",""1654""
","
","
","""event"",""trial"",""time""
""fullscreenenter"",""1"",""1654""
","
","","","-1","","","25","5153","263","&#9761;","elianto","#3366ff99","-1","-1","1","0","[]","0","0","2","","","","","","","",""
"pit-trial","51","447819","0.0-2.0-11.2-4.2","battery-v0.2","","""event"",""trial"",""time""
""fullscreenenter"",""1"",""1654""
","
","
","""event"",""trial"",""time""
""fullscreenenter"",""1"",""1654""
","
","","","-1","","","25","5153","263","&#9761;","elianto","#3366ff99","-1","-1","1","+10","[]","0","0","2","","","","","","","",""
"pit-trial","52","452671","0.0-2.0-11.3-0.3","battery-v0.2","","""event"",""trial"",""time""
""fullscreenenter"",""1"",""1654""
","
","
","""event"",""trial"",""time""
""fullscreenenter"",""1"",""1654""
","
","","","-1","","","25","5153","263","&#9761;","elianto","#3366ff99","-1","-1","1","+10","[]","0","0","2","","","","","","","",""
"pit-trial","53","457524","0.0-2.0-11.3-1.3","battery-v0.2","","""event"",""trial"",""time""
""fullscreenenter"",""1"",""1654""
","
","
","""event"",""trial"",""time""
""fullscreenenter"",""1"",""1654""
","
","","","-1","","","25","5153","263","&#9761;","elianto","#3366ff99","-1","-1","1","+10","[]","0","0","2","","","","","","","",""
"pit-trial","54","462376","0.0-2.0-11.3-2.3","battery-v0.2","","""event"",""trial"",""time""
""fullscreenenter"",""1"",""1654""
","
","
","""event"",""trial"",""time""
""fullscreenenter"",""1"",""1654""
","
","","","-1","","","25","5153","263","&#9761;","elianto","#3366ff99","-1","-1","1","+10","[]","0","0","2","","","","","","","",""
"pit-trial","55","467230","0.0-2.0-11.3-3.3","battery-v0.2","","""event"",""trial"",""time""
""fullscreenenter"",""1"",""1654""
","
","
","""event"",""trial"",""time""
""fullscreenenter"",""1"",""1654""
","
","","","-1","","","25","5153","263","&#9761;","elianto","#3366ff99","-1","-1","1","0","[]","0","0","2","","","","","","","",""
"pit-trial","56","472082","0.0-2.0-11.3-4.3","battery-v0.2","","""event"",""trial"",""time""
""fullscreenenter"",""1"",""1654""
","
","
","""event"",""trial"",""time""
""fullscreenenter"",""1"",""1654""
","
","","","-1","","","25","5153","263","&#9761;","elianto","#3366ff99","-1","-1","1","+10","[]","0","0","2","","","","","","","",""
"call-function","57","472084","0.0-2.0-12.0","battery-v0.2","","""event"",""trial"",""time""
""fullscreenenter"",""1"",""1654""
","
","
","""event"",""trial"",""time""
""fullscreenenter"",""1"",""1654""
","
","","","","","","","","","","","","","","","","","","","","","","","","","","",""
"pit-instructions","58","526908","0.0-2.0-13.0","battery-v0.2","","""event"",""trial"",""time""
""fullscreenenter"",""1"",""1654""
","
","
","""event"",""trial"",""time""
""fullscreenenter"",""1"",""1654""
","
","","[{""page_index"":0,""viewing_time"":26217},{""page_index"":1,""viewing_time"":6920},{""page_index"":2,""viewing_time"":3750},{""page_index"":3,""viewing_time"":12785},{""page_index"":4,""viewing_time"":5151}]","54823","","","","","","","","","","","","","","","","","","","","","","","",""
"pit-trial","59","530080","0.0-2.0-14.0-0.0","battery-v0.2","","""event"",""trial"",""time""
""fullscreenenter"",""1"",""1654""
","
","
","""event"",""trial"",""time""
""fullscreenenter"",""1"",""1654""
","
","","","318","","","25","5153","263","&#9826;","elianto","#f73b6a7A","-1"," ","0","-10","[1168]","1","0","3","","","","","","","",""
"pit-trial","60","534934","0.0-2.0-14.0-1.0","battery-v0.2","","""event"",""trial"",""time""
""fullscreenenter"",""1"",""1654""
","
","
","""event"",""trial"",""time""
""fullscreenenter"",""1"",""1654""
","
","","","-1","","","25","5153","263","&#9826;","elianto","#f73b6a7A","-1","-1","1","0","[]","0","0","3","","","","","","","",""
"pit-trial","61","539788","0.0-2.0-14.0-2.0","battery-v0.2","","""event"",""trial"",""time""
""fullscreenenter"",""1"",""1654""
","
","
","""event"",""trial"",""time""
""fullscreenenter"",""1"",""1654""
","
","","","-1","","","25","5153","263","&#9826;","elianto","#f73b6a7A","-1","-1","1","0","[]","0","0","3","","","","","","","",""
"pit-trial","62","544640","0.0-2.0-14.0-3.0","battery-v0.2","","""event"",""trial"",""time""
""fullscreenenter"",""1"",""1654""
","
","
","""event"",""trial"",""time""
""fullscreenenter"",""1"",""1654""
","
","","","-1","","","25","5153","263","&#9826;","elianto","#f73b6a7A","-1","-1","1","-10","[]","0","0","3","","","","","","","",""
"pit-trial","63","549494","0.0-2.0-14.0-4.0","battery-v0.2","","""event"",""trial"",""time""
""fullscreenenter"",""1"",""1654""
","
","
","""event"",""trial"",""time""
""fullscreenenter"",""1"",""1654""
","
","","","-1","","","25","5153","263","&#9826;","elianto","#f73b6a7A","-1","-1","1","0","[]","0","0","3","","","","","","","",""
"pit-trial","64","554348","0.0-2.0-14.1-0.1","battery-v0.2","","""event"",""trial"",""time""
""fullscreenenter"",""1"",""1654""
","
","
","""event"",""trial"",""time""
""fullscreenenter"",""1"",""1654""
","
","","","-1","","","25","5153","263","&#9826;","elianto","#f73b6a7A","-1","-1","1","0","[]","0","0","3","","","","","","","",""
"pit-trial","65","559201","0.0-2.0-14.1-1.1","battery-v0.2","","""event"",""trial"",""time""
""fullscreenenter"",""1"",""1654""
","
","
","""event"",""trial"",""time""
""fullscreenenter"",""1"",""1654""
","
","","","-1","","","25","5153","263","&#9826;","elianto","#f73b6a7A","-1","-1","1","0","[]","0","0","3","","","","","","","",""
"pit-trial","66","564054","0.0-2.0-14.1-2.1","battery-v0.2","","""event"",""trial"",""time""
""fullscreenenter"",""1"",""1654""
","
","
","""event"",""trial"",""time""
""fullscreenenter"",""1"",""1654""
","
","","","-1","","","25","5153","263","&#9826;","elianto","#f73b6a7A","-1","-1","1","0","[]","0","0","3","","","","","","","",""
"pit-trial","67","568907","0.0-2.0-14.1-3.1","battery-v0.2","","""event"",""trial"",""time""
""fullscreenenter"",""1"",""1654""
","
","
","""event"",""trial"",""time""
""fullscreenenter"",""1"",""1654""
","
","","","-1","","","25","5153","263","&#9826;","elianto","#f73b6a7A","-1","-1","1","-10","[]","0","0","3","","","","","","","",""
"pit-trial","68","573760","0.0-2.0-14.1-4.1","battery-v0.2","","""event"",""trial"",""time""
""fullscreenenter"",""1"",""1654""
","
","
","""event"",""trial"",""time""
""fullscreenenter"",""1"",""1654""
","
","","","-1","","","25","5153","263","&#9826;","elianto","#f73b6a7A","-1","-1","1","0","[]","0","0","3","","","","","","","",""
"pit-trial","69","578613","0.0-2.0-14.2-0.2","battery-v0.2","","""event"",""trial"",""time""
""fullscreenenter"",""1"",""1654""
","
","
","""event"",""trial"",""time""
""fullscreenenter"",""1"",""1654""
","
","","","-1","","","25","5153","263","&#9826;","elianto","#f73b6a7A","-1","-1","1","0","[]","0","0","3","","","","","","","",""
"pit-trial","70","583466","0.0-2.0-14.2-1.2","battery-v0.2","","""event"",""trial"",""time""
""fullscreenenter"",""1"",""1654""
","
","
","""event"",""trial"",""time""
""fullscreenenter"",""1"",""1654""
","
","","","-1","","","25","5153","263","&#9826;","elianto","#f73b6a7A","-1","-1","1","0","[]","0","0","3","","","","","","","",""
"pit-trial","71","588319","0.0-2.0-14.2-2.2","battery-v0.2","","""event"",""trial"",""time""
""fullscreenenter"",""1"",""1654""
","
","
","""event"",""trial"",""time""
""fullscreenenter"",""1"",""1654""
","
","","","-1","","","25","5153","263","&#9826;","elianto","#f73b6a7A","-1","-1","1","0","[]","0","0","3","","","","","","","",""
"pit-trial","72","593172","0.0-2.0-14.2-3.2","battery-v0.2","","""event"",""trial"",""time""
""fullscreenenter"",""1"",""1654""
","
","
","""event"",""trial"",""time""
""fullscreenenter"",""1"",""1654""
","
","","","-1","","","25","5153","263","&#9826;","elianto","#f73b6a7A","-1","-1","1","-10","[]","0","0","3","","","","","","","",""
"pit-trial","73","598025","0.0-2.0-14.2-4.2","battery-v0.2","","""event"",""trial"",""time""
""fullscreenenter"",""1"",""1654""
","
","
","""event"",""trial"",""time""
""fullscreenenter"",""1"",""1654""
","
","","","-1","","","25","5153","263","&#9826;","elianto","#f73b6a7A","-1","-1","1","0","[]","0","0","3","","","","","","","",""
"pit-trial","74","602878","0.0-2.0-14.3-0.3","battery-v0.2","","""event"",""trial"",""time""
""fullscreenenter"",""1"",""1654""
","
","
","""event"",""trial"",""time""
""fullscreenenter"",""1"",""1654""
","
","","","-1","","","25","5153","263","&#9826;","elianto","#f73b6a7A","-1","-1","1","0","[]","0","0","3","","","","","","","",""
"pit-trial","75","607732","0.0-2.0-14.3-1.3","battery-v0.2","","""event"",""trial"",""time""
""fullscreenenter"",""1"",""1654""
","
","
","""event"",""trial"",""time""
""fullscreenenter"",""1"",""1654""
","
","","","-1","","","25","5153","263","&#9826;","elianto","#f73b6a7A","-1","-1","1","0","[]","0","0","3","","","","","","","",""
"pit-trial","76","612585","0.0-2.0-14.3-2.3","battery-v0.2","","""event"",""trial"",""time""
""fullscreenenter"",""1"",""1654""
","
","
","""event"",""trial"",""time""
""fullscreenenter"",""1"",""1654""
","
","","","-1","","","25","5153","263","&#9826;","elianto","#f73b6a7A","-1","-1","1","0","[]","0","0","3","","","","","","","",""
"pit-trial","77","617437","0.0-2.0-14.3-3.3","battery-v0.2","","""event"",""trial"",""time""
""fullscreenenter"",""1"",""1654""
","
","
","""event"",""trial"",""time""
""fullscreenenter"",""1"",""1654""
","
","","","-1","","","25","5153","263","&#9826;","elianto","#f73b6a7A","-1","-1","1","-10","[]","0","0","3","","","","","","","",""
"pit-trial","78","622290","0.0-2.0-14.3-4.3","battery-v0.2","","""event"",""trial"",""time""
""fullscreenenter"",""1"",""1654""
","
","
","""event"",""trial"",""time""
""fullscreenenter"",""1"",""1654""
","
","","","-1","","","25","5153","263","&#9826;","elianto","#f73b6a7A","-1","-1","1","0","[]","0","0","3","","","","","","","",""
"call-function","79","622292","0.0-2.0-15.0","battery-v0.2","","""event"",""trial"",""time""
""fullscreenenter"",""1"",""1654""
","
","
","""event"",""trial"",""time""
""fullscreenenter"",""1"",""1654""
","
","","","","","","","","","","","","","","","","","","","","","","","","","","",""
"pit-instructions","80","681149","0.0-2.0-16.0","battery-v0.2","","""event"",""trial"",""time""
""fullscreenenter"",""1"",""1654""
","
","
","""event"",""trial"",""time""
""fullscreenenter"",""1"",""1654""
","
","","[{""page_index"":0,""viewing_time"":7094},{""page_index"":1,""viewing_time"":11519},{""page_index"":2,""viewing_time"":9235},{""page_index"":3,""viewing_time"":31008}]","58856","","","","","","","","","","","","","","","","","","","","","","","",""
"pit-trial","81","684497","0.0-2.0-17.0-0.0","battery-v0.2","","""event"",""trial"",""time""
""fullscreenenter"",""1"",""1654""
","
","
","""event"",""trial"",""time""
""fullscreenenter"",""1"",""1654""
","
","","","495.9999999998836","","","25","5153","263","&#9789;","elianto","#f73b6a7A"," "," ","1","0","[1345.0000000001164]","1","0","4","","","","","","","",""
"pit-trial","82","687609","0.0-2.0-17.0-1.0","battery-v0.2","","""event"",""trial"",""time""
""fullscreenenter"",""1"",""1654""
","
","
","""event"",""trial"",""time""
""fullscreenenter"",""1"",""1654""
","
","","","258","","","25","5153","263","&#9789;","elianto","#f73b6a7A"," "," ","1","0","[1109]","1","0","4","","","","","","","",""
"pit-trial","83","690856","0.0-2.0-17.0-2.0","battery-v0.2","","""event"",""trial"",""time""
""fullscreenenter"",""1"",""1654""
","
","
","""event"",""trial"",""time""
""fullscreenenter"",""1"",""1654""
","
","","","394","","","25","5153","263","&#9789;","elianto","#f73b6a7A"," "," ","1","0","[1245]","1","0","4","","","","","","","",""
"pit-trial","84","695385","0.0-2.0-17.0-3.0","battery-v0.2","","""event"",""trial"",""time""
""fullscreenenter"",""1"",""1654""
","
","
","""event"",""trial"",""time""
""fullscreenenter"",""1"",""1654""
","
","","","1676","","","25","5153","263","&#9789;","elianto","#f73b6a7A"," "," ","1","-10","[2526]","1","0","4","","","","","","","",""
"pit-trial","85","698536","0.0-2.0-17.0-4.0","battery-v0.2","","""event"",""trial"",""time""
""fullscreenenter"",""1"",""1654""
","
","
","""event"",""trial"",""time""
""fullscreenenter"",""1"",""1654""
","
","","","299","","","25","5153","263","&#9789;","elianto","#f73b6a7A"," "," ","1","0","[1150]","1","0","4","","","","","","","",""
"pit-trial","86","703177","0.0-2.0-17.1-0.1","battery-v0.2","","""event"",""trial"",""time""
""fullscreenenter"",""1"",""1654""
","
","
","""event"",""trial"",""time""
""fullscreenenter"",""1"",""1654""
","
","","","1787","","","25","5153","263","&#9789;","elianto","#f73b6a7A"," "," ","1","0","[2637]","1","0","4","","","","","","","",""
"pit-trial","87","706120","0.0-2.0-17.1-1.1","battery-v0.2","","""event"",""trial"",""time""
""fullscreenenter"",""1"",""1654""
","
","
","""event"",""trial"",""time""
""fullscreenenter"",""1"",""1654""
","
","","","90","","","25","5153","263","&#9789;","elianto","#f73b6a7A"," "," ","1","0","[941]","1","0","4","","","","","","","",""
"pit-trial","88","708977","0.0-2.0-17.1-2.1","battery-v0.2","","""event"",""trial"",""time""
""fullscreenenter"",""1"",""1654""
","
","
","""event"",""trial"",""time""
""fullscreenenter"",""1"",""1654""
","
","","","3.9999999998835847","","","25","5153","263","&#9789;","elianto","#f73b6a7A"," "," ","1","0","[854.9999999998836]","1","0","4","","","","","","","",""
"pit-trial","89","712081","0.0-2.0-17.1-3.1","battery-v0.2","","""event"",""trial"",""time""
""fullscreenenter"",""1"",""1654""
","
","
","""event"",""trial"",""time""
""fullscreenenter"",""1"",""1654""
","
","","","251","","","25","5153","263","&#9789;","elianto","#f73b6a7A"," "," ","1","-10","[1102]","1","0","4","","","","","","","",""
"pit-trial","90","715432","0.0-2.0-17.1-4.1","battery-v0.2","","""event"",""trial"",""time""
""fullscreenenter"",""1"",""1654""
","
","
","""event"",""trial"",""time""
""fullscreenenter"",""1"",""1654""
","
","","","497","","","25","5153","263","&#9789;","elianto","#f73b6a7A"," "," ","1","0","[774,1348]","2","0","4","","","","","","","",""
"pit-trial","91","718601","0.0-2.0-17.2-0.2","battery-v0.2","","""event"",""trial"",""time""
""fullscreenenter"",""1"",""1654""
","
","
","""event"",""trial"",""time""
""fullscreenenter"",""1"",""1654""
","
","","","315","","","25","5153","263","&#9789;","elianto","#f73b6a7A"," "," ","1","0","[742,1166]","2","0","4","","","","","","","",""
"pit-trial","92","721705","0.0-2.0-17.2-1.2","battery-v0.2","","""event"",""trial"",""time""
""fullscreenenter"",""1"",""1654""
","
","
","""event"",""trial"",""time""
""fullscreenenter"",""1"",""1654""
","
","","","250.99999999988358","","","25","5153","263","&#9789;","elianto","#f73b6a7A"," "," ","1","0","[1101.9999999998836,1973.9999999998836]","2","0","4","","","","","","","",""
"pit-trial","93","724720","0.0-2.0-17.2-2.2","battery-v0.2","","""event"",""trial"",""time""
""fullscreenenter"",""1"",""1654""
","
","
","""event"",""trial"",""time""
""fullscreenenter"",""1"",""1654""
","
","","","162","","","25","5153","263","&#9789;","elianto","#f73b6a7A"," "," ","1","0","[1013]","1","0","4","","","","","","","",""
"pit-trial","94","727671","0.0-2.0-17.2-3.2","battery-v0.2","","""event"",""trial"",""time""
""fullscreenenter"",""1"",""1654""
","
","
","""event"",""trial"",""time""
""fullscreenenter"",""1"",""1654""
","
","","","99","","","25","5153","263","&#9789;","elianto","#f73b6a7A"," "," ","1","-10","[207,950]","2","0","4","","","","","","","",""
"pit-trial","95","730657","0.0-2.0-17.2-4.2","battery-v0.2","","""event"",""trial"",""time""
""fullscreenenter"",""1"",""1654""
","
","
","""event"",""trial"",""time""
""fullscreenenter"",""1"",""1654""
","
","","","132","","","25","5153","263","&#9789;","elianto","#f73b6a7A"," "," ","1","0","[983]","1","0","4","","","","","","","",""
"pit-trial","96","735194","0.0-2.0-17.3-0.3","battery-v0.2","","""event"",""trial"",""time""
""fullscreenenter"",""1"",""1654""
","
","
","""event"",""trial"",""time""
""fullscreenenter"",""1"",""1654""
","
","","","1684.0000000001164","","","25","5153","263","&#9789;","elianto","#f73b6a7A"," "," ","1","0","[2533]","1","0","4","","","","","","","",""
"pit-trial","97","738250","0.0-2.0-17.3-1.3","battery-v0.2","","""event"",""trial"",""time""
""fullscreenenter"",""1"",""1654""
","
","
","""event"",""trial"",""time""
""fullscreenenter"",""1"",""1654""
","
","","","203","","","25","5153","263","&#9789;","elianto","#f73b6a7A"," "," ","1","0","[1053]","1","0","4","","","","","","","",""
"pit-trial","98","741129","0.0-2.0-17.3-2.3","battery-v0.2","","""event"",""trial"",""time""
""fullscreenenter"",""1"",""1654""
","
","
","""event"",""trial"",""time""
""fullscreenenter"",""1"",""1654""
","
","","","28","","","25","5153","263","&#9789;","elianto","#f73b6a7A"," "," ","1","0","[877.9999999998836]","1","0","4","","","","","","","",""
"pit-trial","99","744520","0.0-2.0-17.3-3.3","battery-v0.2","","""event"",""trial"",""time""
""fullscreenenter"",""1"",""1654""
","
","
","""event"",""trial"",""time""
""fullscreenenter"",""1"",""1654""
","
","","","538","","","25","5153","263","&#9789;","elianto","#f73b6a7A"," "," ","1","-10","[277,820,1388]","3","0","4","","","","","","","",""
"pit-trial","100","747490","0.0-2.0-17.3-4.3","battery-v0.2","","""event"",""trial"",""time""
""fullscreenenter"",""1"",""1654""
","
","
","""event"",""trial"",""time""
""fullscreenenter"",""1"",""1654""
","
","","","116.99999999988358","","","25","5153","263","&#9789;","elianto","#f73b6a7A"," "," ","1","0","[967]","1","0","4","","","","","","","",""
"call-function","101","747491","0.0-2.0-18.0","battery-v0.2","","""event"",""trial"",""time""
""fullscreenenter"",""1"",""1654""
","
","
","""event"",""trial"",""time""
""fullscreenenter"",""1"",""1654""
","
","","","","","","","","","","","","","","","","","","","","","","","","","","",""
"pit-instructions","102","816886","0.0-2.0-19.0","battery-v0.2","","""event"",""trial"",""time""
""fullscreenenter"",""1"",""1654""
","
","
","""event"",""trial"",""time""
""fullscreenenter"",""1"",""1654""
","
","","[{""page_index"":0,""viewing_time"":7677.000000000116},{""page_index"":1,""viewing_time"":6034},{""page_index"":2,""viewing_time"":14971},{""page_index"":3,""viewing_time"":7851},{""page_index"":4,""viewing_time"":9068.999999999884},{""page_index"":5,""viewing_time"":8153},{""page_index"":6,""viewing_time"":5917.000000000116},{""page_index"":7,""viewing_time"":5250.999999999884},{""page_index"":8,""viewing_time"":4470}]","69393","","","","","","","","","","","","","","","","","","","","","","","",""
"pit-comprehension","103","821271","0.0-2.0-20.0-0.0","battery-v0.2","","""event"",""trial"",""time""
""fullscreenenter"",""1"",""1654""
","
","
","""event"",""trial"",""time""
""fullscreenenter"",""1"",""1654""
","
","","","4382.000000000116","[""SPACE""]","0","25","5153","263","","","","","","","","","","","","","","","","","","",""
"pit-instructions","104","823735","0.0-2.0-20.0-1.0","battery-v0.2","","""event"",""trial"",""time""
""fullscreenenter"",""1"",""1654""
","
","
","""event"",""trial"",""time""
""fullscreenenter"",""1"",""1654""
","
","","[{""page_index"":0,""viewing_time"":2421}]","2421","","","","","","","","","","","","","","","","","","","","","","","",""
"pit-comprehension","105","829655","0.0-2.0-21.0-0.0","battery-v0.2","","""event"",""trial"",""time""
""fullscreenenter"",""1"",""1654""
","
","
","""event"",""trial"",""time""
""fullscreenenter"",""1"",""1654""
","
","","","5918","[""10""]","0","25","5153","263","","","","","","","","","","","","","","","","","","",""
"pit-instructions","106","831724","0.0-2.0-21.0-1.0","battery-v0.2","","""event"",""trial"",""time""
""fullscreenenter"",""1"",""1654""
","
","
","""event"",""trial"",""time""
""fullscreenenter"",""1"",""1654""
","
","","[{""page_index"":0,""viewing_time"":2022}]","2022","","","","","","","","","","","","","","","","","","","","","","","",""
"pit-comprehension","107","838174","0.0-2.0-22.0-0.0","battery-v0.2","","""event"",""trial"",""time""
""fullscreenenter"",""1"",""1654""
","
","
","""event"",""trial"",""time""
""fullscreenenter"",""1"",""1654""
","
","","","6447","[""0""]","0","25","5153","263","","","","","","","","","","","","","","","","","","",""
"pit-instructions","108","840239","0.0-2.0-22.0-1.0","battery-v0.2","","""event"",""trial"",""time""
""fullscreenenter"",""1"",""1654""
","
","
","""event"",""trial"",""time""
""fullscreenenter"",""1"",""1654""
","
","","[{""page_index"":0,""viewing_time"":2025}]","2025","","","","","","","","","","","","","","","","","","","","","","","",""
"pit-comprehension","109","848593","0.0-2.0-23.0-0.0","battery-v0.2","","""event"",""trial"",""time""
""fullscreenenter"",""1"",""1654""
","
","
","""event"",""trial"",""time""
""fullscreenenter"",""1"",""1654""
","
","","","8350.000000000116","[""True""]","0","25","5153","263","","","","","","","","","","","","","","","","","","",""
"pit-instructions","110","849728","0.0-2.0-23.0-1.0","battery-v0.2","","""event"",""trial"",""time""
""fullscreenenter"",""1"",""1654""
","
","
","""event"",""trial"",""time""
""fullscreenenter"",""1"",""1654""
","
","","[{""page_index"":0,""viewing_time"":1089.0000000001164}]","1090","","","","","","","","","","","","","","","","","","","","","","","",""
"pit-comprehension","111","856861","0.0-2.0-24.0-0.0","battery-v0.2","","""event"",""trial"",""time""
""fullscreenenter"",""1"",""1654""
","
","
","""event"",""trial"",""time""
""fullscreenenter"",""1"",""1654""
","
","","","7128","[""True""]","0","25","5153","263","","","","","","","","","","","","","","","","","","",""
"pit-instructions","112","858263","0.0-2.0-24.0-1.0","battery-v0.2","","""event"",""trial"",""time""
""fullscreenenter"",""1"",""1654""
","
","
","""event"",""trial"",""time""
""fullscreenenter"",""1"",""1654""
","
","","[{""page_index"":0,""viewing_time"":1355}]","1355","","","","","","","","","","","","","","","","","","","","","","","",""
"pit-comprehension","113","864598","0.0-2.0-25.0-0.0","battery-v0.2","","""event"",""trial"",""time""
""fullscreenenter"",""1"",""1654""
","
","
","""event"",""trial"",""time""
""fullscreenenter"",""1"",""1654""
","
","","","6332","[""True""]","0","25","5153","263","","","","","","","","","","","","","","","","","","",""
"pit-instructions","114","866163","0.0-2.0-25.0-1.0","battery-v0.2","","""event"",""trial"",""time""
""fullscreenenter"",""1"",""1654""
","
","
","""event"",""trial"",""time""
""fullscreenenter"",""1"",""1654""
","
","","[{""page_index"":0,""viewing_time"":1516.9999999998836}]","1516.9999999998836","","","","","","","","","","","","","","","","","","","","","","","",""
"pit-comprehension","115","870481","0.0-2.0-26.0-0.0","battery-v0.2","","""event"",""trial"",""time""
""fullscreenenter"",""1"",""1654""
","
","
","""event"",""trial"",""time""
""fullscreenenter"",""1"",""1654""
","
","","","4315","[""False""]","0","25","5153","263","","","","","","","","","","","","","","","","","","",""
"pit-instructions","116","872016","0.0-2.0-26.0-1.0","battery-v0.2","","""event"",""trial"",""time""
""fullscreenenter"",""1"",""1654""
","
","
","""event"",""trial"",""time""
""fullscreenenter"",""1"",""1654""
","
","","[{""page_index"":0,""viewing_time"":1492.0000000001164}]","1492.0000000001164","","","","","","","","","","","","","","","","","","","","","","","",""
"pit-instructions","117","888103","0.0-3.0","battery-v0.2","","""event"",""trial"",""time""
""fullscreenenter"",""1"",""1654""
","
","
","""event"",""trial"",""time""
""fullscreenenter"",""1"",""1654""
","
","","[{""page_index"":0,""viewing_time"":3481},{""page_index"":1,""viewing_time"":5469.000000000116},{""page_index"":2,""viewing_time"":7135}]","16085.000000000116","","","","","","","","","","","","","","","","","","","","","","","",""
"pit-trial","118","892958","0.0-4.0","battery-v0.2","","""event"",""trial"",""time""
""fullscreenenter"",""1"",""1654""
","
","
","""event"",""trial"",""time""
""fullscreenenter"",""1"",""1654""
","
","","","-1","","","25","5153","263","&#9752;","elianto","#f73b6a7A"," ","-1","0","-10","[]","0","1","","","5153","1","3","3","lose","go","0"
"pit-trial","119","896818","0.0-5.0","battery-v0.2","","""event"",""trial"",""time""
""fullscreenenter"",""1"",""1654""
","
","
","""event"",""trial"",""time""
""fullscreenenter"",""1"",""1654""
","
","","","1007","","","25","5153","263","&#9728;","elianto","#f73b6a7A","-1"," ","0","-10","[1857]","1","1","","","5153","2","0","4","lose","no-go","0"
"pit-trial","120","900529","0.0-6.0","battery-v0.2","","""event"",""trial"",""time""
""fullscreenenter"",""1"",""1654""
","
","
","""event"",""trial"",""time""
""fullscreenenter"",""1"",""1654""
","
","","","858.9999999998836","","","25","5153","263","&#9733;","elianto","#3366ff99","-1"," ","0","0","[1708]","1","1","","","5153","3","2","2","win","no-go","0"
"pit-trial","121","903793","0.0-7.0","battery-v0.2","","""event"",""trial"",""time""
""fullscreenenter"",""1"",""1654""
","
","
","""event"",""trial"",""time""
""fullscreenenter"",""1"",""1654""
","
","","","412","","","25","5153","263","&#9730;","elianto","#3366ff99"," "," ","1","+10","[1262]","1","1","","","5153","4","1","1","win","go","0"
"pit-trial","122","908649","0.0-8.0","battery-v0.2","","""event"",""trial"",""time""
""fullscreenenter"",""1"",""1654""
","
","
","""event"",""trial"",""time""
""fullscreenenter"",""1"",""1654""
","
","","","-1","","","25","5153","263","&#9728;","elianto","#f73b6a7A","-1","-1","1","0","[]","0","1","","","5153","5","0","4","lose","no-go","0"
"pit-trial","123","912195","0.0-9.0","battery-v0.2","","""event"",""trial"",""time""
""fullscreenenter"",""1"",""1654""
","
","
","""event"",""trial"",""time""
""fullscreenenter"",""1"",""1654""
","
","","","690.9999999998836","","","25","5153","263","&#9752;","elianto","#f73b6a7A"," "," ","1","0","[1541]","1","1","","","5153","6","3","3","lose","go","0"
"pit-trial","124","917049","0.0-10.0","battery-v0.2","","""event"",""trial"",""time""
""fullscreenenter"",""1"",""1654""
","
","
","""event"",""trial"",""time""
""fullscreenenter"",""1"",""1654""
","
","","","-1","","","25","5153","263","&#9733;","elianto","#3366ff99","-1","-1","1","0","[]","0","1","","","5153","7","2","2","win","no-go","1"
"pit-trial","125","920355","0.0-11.0","battery-v0.2","","""event"",""trial"",""time""
""fullscreenenter"",""1"",""1654""
","
","
","""event"",""trial"",""time""
""fullscreenenter"",""1"",""1654""
","
","","","451.0000000001164","","","25","5153","263","&#9730;","elianto","#3366ff99"," "," ","1","+10","[1301.0000000001164]","1","1","","","5153","8","1","1","win","go","0"
"pit-trial","126","925209","0.0-12.0","battery-v0.2","","""event"",""trial"",""time""
""fullscreenenter"",""1"",""1654""
","
","
","""event"",""trial"",""time""
""fullscreenenter"",""1"",""1654""
","
","","","-1","","","25","5153","263","&#9728;","elianto","#f73b6a7A","-1","-1","1","-10","[]","0","1","","","5153","9","0","4","lose","no-go","1"
"pit-trial","127","930064","0.0-13.0","battery-v0.2","","""event"",""trial"",""time""
""fullscreenenter"",""1"",""1654""
","
","
","""event"",""trial"",""time""
""fullscreenenter"",""1"",""1654""
","
","","","-1","","","25","5153","263","&#9733;","elianto","#3366ff99","-1","-1","1","+10","[]","0","1","","","5153","10","2","2","win","no-go","0"
"pit-trial","128","933449","0.0-14.0","battery-v0.2","","""event"",""trial"",""time""
""fullscreenenter"",""1"",""1654""
","
","
","""event"",""trial"",""time""
""fullscreenenter"",""1"",""1654""
","
","","","532.0000000001164","","","25","5153","263","&#9752;","elianto","#f73b6a7A"," "," ","1","0","[1383.0000000001164]","1","1","","","5153","11","3","3","lose","go","0"
"pit-trial","129","936746","0.0-15.0","battery-v0.2","","""event"",""trial"",""time""
""fullscreenenter"",""1"",""1654""
","
","
","""event"",""trial"",""time""
""fullscreenenter"",""1"",""1654""
","
","","","442","","","25","5153","263","&#9730;","elianto","#3366ff99"," "," ","1","+10","[1293]","1","1","","","5153","12","1","1","win","go","0"
"pit-trial","130","940170","0.0-16.0","battery-v0.2","","""event"",""trial"",""time""
""fullscreenenter"",""1"",""1654""
","
","
","""event"",""trial"",""time""
""fullscreenenter"",""1"",""1654""
","
","","","570","","","25","5153","263","&#9752;","elianto","#f73b6a7A"," "," ","1","0","[1421]","1","1","","","5153","13","3","3","lose","go","0"
"pit-trial","131","945024","0.0-17.0","battery-v0.2","","""event"",""trial"",""time""
""fullscreenenter"",""1"",""1654""
","
","
","""event"",""trial"",""time""
""fullscreenenter"",""1"",""1654""
","
","","","-1","","","25","5153","263","&#9733;","elianto","#3366ff99","-1","-1","1","+10","[]","0","1","","","5153","14","2","2","win","no-go","0"
"pit-trial","132","948386","0.0-18.0","battery-v0.2","","""event"",""trial"",""time""
""fullscreenenter"",""1"",""1654""
","
","
","""event"",""trial"",""time""
""fullscreenenter"",""1"",""1654""
","
","","","507.9999999998836","","","25","5153","263","&#9730;","elianto","#3366ff99"," "," ","1","+10","[1358.9999999998836]","1","1","","","5153","15","1","1","win","go","0"
"pit-trial","133","953240","0.0-19.0","battery-v0.2","","""event"",""trial"",""time""
""fullscreenenter"",""1"",""1654""
","
","
","""event"",""trial"",""time""
""fullscreenenter"",""1"",""1654""
","
","","","-1","","","25","5153","263","&#9728;","elianto","#f73b6a7A","-1","-1","1","0","[]","0","1","","","5153","16","0","4","lose","no-go","0"
"pit-trial","134","958094","0.0-20.0","battery-v0.2","","""event"",""trial"",""time""
""fullscreenenter"",""1"",""1654""
","
","
","""event"",""trial"",""time""
""fullscreenenter"",""1"",""1654""
","
","","","-1","","","25","5153","263","&#9728;","elianto","#f73b6a7A","-1","-1","1","0","[]","0","1","","","5153","17","0","4","lose","no-go","0"
"pit-trial","135","961466","0.0-21.0","battery-v0.2","","""event"",""trial"",""time""
""fullscreenenter"",""1"",""1654""
","
","
","""event"",""trial"",""time""
""fullscreenenter"",""1"",""1654""
","
","","","518","","","25","5153","263","&#9730;","elianto","#3366ff99"," "," ","1","+10","[1369]","1","1","","","5153","18","1","1","win","go","0"
"pit-trial","136","964818","0.0-22.0","battery-v0.2","","""event"",""trial"",""time""
""fullscreenenter"",""1"",""1654""
","
","
","""event"",""trial"",""time""
""fullscreenenter"",""1"",""1654""
","
","","","497.9999999998836","","","25","5153","263","&#9752;","elianto","#f73b6a7A"," "," ","1","0","[1348]","1","1","","","5153","19","3","3","lose","go","0"
"pit-trial","137","969672","0.0-23.0","battery-v0.2","","""event"",""trial"",""time""
""fullscreenenter"",""1"",""1654""
","
","
","""event"",""trial"",""time""
""fullscreenenter"",""1"",""1654""
","
","","","-1","","","25","5153","263","&#9733;","elianto","#3366ff99","-1","-1","1","+10","[]","0","1","","","5153","20","2","2","win","no-go","0"
"pit-instructions","138","981912","0.0-24.0","battery-v0.2","","""event"",""trial"",""time""
""fullscreenenter"",""1"",""1654""
","
","
","""event"",""trial"",""time""
""fullscreenenter"",""1"",""1654""
","
","","[{""page_index"":0,""viewing_time"":5687},{""page_index"":1,""viewing_time"":6550}]","12238","","","","","","","","","","","","","","","","","","","","","","","",""
"pit-trial","139","985482","0.0-25.0","battery-v0.2","","""event"",""trial"",""time""
""fullscreenenter"",""1"",""1654""
","
","
","""event"",""trial"",""time""
""fullscreenenter"",""1"",""1654""
","
","","","714","","","25","5153","263","r","elianto","#3366ff99","-1"," ","0","0","[1565]","1","2","","","5153","21","1","2","win","no-go","0"
"pit-trial","140","989010","0.0-26.0","battery-v0.2","","""event"",""trial"",""time""
""fullscreenenter"",""1"",""1654""
","
","
","""event"",""trial"",""time""
""fullscreenenter"",""1"",""1654""
","
","","","675","","","25","5153","263","m","elianto","#f73b6a7A"," "," ","1","-10","[1525]","1","2","","","5153","22","0","3","lose","go","1"
"pit-trial","141","992499","0.0-27.0","battery-v0.2","","""event"",""trial"",""time""
""fullscreenenter"",""1"",""1654""
","
","
","""event"",""trial"",""time""
""fullscreenenter"",""1"",""1654""
","
","","","635","","","25","5153","263","y","elianto","#f73b6a7A"," "," ","1","0","[1486]","1","2","","","5153","23","2","3","lose","go","0"
"pit-trial","142","995905","0.0-28.0","battery-v0.2","","""event"",""trial"",""time""
""fullscreenenter"",""1"",""1654""
","
","
","""event"",""trial"",""time""
""fullscreenenter"",""1"",""1654""
","
","","","552","","","25","5153","263","h","elianto","#f73b6a7A","-1"," ","0","-10","[1403]","1","2","","","5153","24","3","4","lose","no-go","0"
"pit-trial","143","1000760","0.0-29.0","battery-v0.2","","""event"",""trial"",""time""
""fullscreenenter"",""1"",""1654""
","
","
","""event"",""trial"",""time""
""fullscreenenter"",""1"",""1654""
","
","","","-1","","","25","5153","263","h","elianto","#f73b6a7A","-1","-1","1","0","[]","0","2","","","5153","25","3","4","lose","no-go","0"
"pit-trial","144","1005614","0.0-30.0","battery-v0.2","","""event"",""trial"",""time""
""fullscreenenter"",""1"",""1654""
","
","
","""event"",""trial"",""time""
""fullscreenenter"",""1"",""1654""
","
","","","-1","","","25","5153","263","m","elianto","#f73b6a7A"," ","-1","0","0","[]","0","2","","","5153","26","0","3","lose","go","1"
"pit-trial","145","1008946","0.0-31.0","battery-v0.2","","""event"",""trial"",""time""
""fullscreenenter"",""1"",""1654""
","
","
","""event"",""trial"",""time""
""fullscreenenter"",""1"",""1654""
","
","","","478","","","25","5153","263","r","elianto","#3366ff99","-1"," ","0","+10","[1329]","1","2","","","5153","27","1","2","win","no-go","1"
"pit-trial","146","1013800","0.0-32.0","battery-v0.2","","""event"",""trial"",""time""
""fullscreenenter"",""1"",""1654""
","
","
","""event"",""trial"",""time""
""fullscreenenter"",""1"",""1654""
","
","","","-1","","","25","5153","263","y","elianto","#f73b6a7A"," ","-1","0","-10","[]","0","2","","","5153","28","2","3","lose","go","0"
"pit-trial","147","1017090","0.0-33.0","battery-v0.2","","""event"",""trial"",""time""
""fullscreenenter"",""1"",""1654""
","
","
","""event"",""trial"",""time""
""fullscreenenter"",""1"",""1654""
","
","","","435","","","25","5153","263","r","elianto","#3366ff99","-1"," ","0","0","[1287]","1","2","","","5153","29","1","2","win","no-go","0"
"pit-trial","148","1021944","0.0-34.0","battery-v0.2","","""event"",""trial"",""time""
""fullscreenenter"",""1"",""1654""
","
","
","""event"",""trial"",""time""
""fullscreenenter"",""1"",""1654""
","
","","","-1","","","25","5153","263","m","elianto","#f73b6a7A"," ","-1","0","-10","[]","0","2","","","5153","30","0","3","lose","go","0"
"pit-trial","149","1026798","0.0-35.0","battery-v0.2","","""event"",""trial"",""time""
""fullscreenenter"",""1"",""1654""
","
","
","""event"",""trial"",""time""
""fullscreenenter"",""1"",""1654""
","
","","","-1","","","25","5153","263","h","elianto","#f73b6a7A","-1","-1","1","0","[3054.9999999998836]","1","2","","","5153","31","3","4","lose","no-go","0"
"pit-trial","150","1030426","0.0-36.0","battery-v0.2","","""event"",""trial"",""time""
""fullscreenenter"",""1"",""1654""
","
","
","""event"",""trial"",""time""
""fullscreenenter"",""1"",""1654""
","
","","","772.9999999998836","","","25","5153","263","y","elianto","#f73b6a7A"," "," ","1","0","[1624]","1","2","","","5153","32","2","3","lose","go","0"
"pit-trial","151","1033947","0.0-37.0","battery-v0.2","","""event"",""trial"",""time""
""fullscreenenter"",""1"",""1654""
","
","
","""event"",""trial"",""time""
""fullscreenenter"",""1"",""1654""
","
","","","665.9999999998836","","","25","5153","263","y","elianto","#f73b6a7A"," "," ","1","0","[1516.9999999997672]","1","2","","","5153","33","2","3","lose","go","0"
"pit-trial","152","1037610","0.0-38.0","battery-v0.2","","""event"",""trial"",""time""
""fullscreenenter"",""1"",""1654""
","
","
","""event"",""trial"",""time""
""fullscreenenter"",""1"",""1654""
","
","","","809.9999999998836","","","25","5153","263","h","elianto","#f73b6a7A","-1"," ","0","-10","[1659.9999999997672]","1","2","","","5153","34","3","4","lose","no-go","0"
"pit-trial","153","1042464","0.0-39.0","battery-v0.2","","""event"",""trial"",""time""
""fullscreenenter"",""1"",""1654""
","
","
","""event"",""trial"",""time""
""fullscreenenter"",""1"",""1654""
","
","","","-1","","","25","5153","263","m","elianto","#f73b6a7A"," ","-1","0","-10","[]","0","2","","","5153","35","0","3","lose","go","0"
"pit-trial","154","1045771","0.0-40.0","battery-v0.2","","""event"",""trial"",""time""
""fullscreenenter"",""1"",""1654""
","
","
","""event"",""trial"",""time""
""fullscreenenter"",""1"",""1654""
","
","","","452","","","25","5153","263","r","elianto","#3366ff99","-1"," ","0","+10","[1302.9999999998836]","1","2","","","5153","36","1","2","win","no-go","1"
"pit-trial","155","1050625","0.0-41.0","battery-v0.2","","""event"",""trial"",""time""
""fullscreenenter"",""1"",""1654""
","
","
","""event"",""trial"",""time""
""fullscreenenter"",""1"",""1654""
","
","","","-1","","","25","5153","263","m","elianto","#f73b6a7A"," ","-1","0","0","[]","0","2","","","5153","37","0","3","lose","go","1"
"pit-trial","156","1053931","0.0-42.0","battery-v0.2","","""event"",""trial"",""time""
""fullscreenenter"",""1"",""1654""
","
","
","""event"",""trial"",""time""
""fullscreenenter"",""1"",""1654""
","
","","","453","","","25","5153","263","r","elianto","#3366ff99","-1"," ","0","+10","[1303]","1","2","","","5153","38","1","2","win","no-go","1"
"pit-trial","157","1057347","0.0-43.0","battery-v0.2","","""event"",""trial"",""time""
""fullscreenenter"",""1"",""1654""
","
","
","""event"",""trial"",""time""
""fullscreenenter"",""1"",""1654""
","
","","","561.9999999997672","","","25","5153","263","y","elianto","#f73b6a7A"," "," ","1","0","[1412]","1","2","","","5153","39","2","3","lose","go","0"
"pit-trial","158","1062201","0.0-44.0","battery-v0.2","","""event"",""trial"",""time""
""fullscreenenter"",""1"",""1654""
","
","
","""event"",""trial"",""time""
""fullscreenenter"",""1"",""1654""
","
","","","-1","","","25","5153","263","h","elianto","#f73b6a7A","-1","-1","1","0","[]","0","2","","","5153","40","3","4","lose","no-go","0"
"pit-trial","159","1065643","0.0-45.0","battery-v0.2","","""event"",""trial"",""time""
""fullscreenenter"",""1"",""1654""
","
","
","""event"",""trial"",""time""
""fullscreenenter"",""1"",""1654""
","
","","","589","","","25","5153","263","y","elianto","#f73b6a7A"," "," ","1","0","[1438]","1","2","","","5153","41","2","3","lose","go","0"
"pit-trial","160","1070498","0.0-46.0","battery-v0.2","","""event"",""trial"",""time""
""fullscreenenter"",""1"",""1654""
","
","
","""event"",""trial"",""time""
""fullscreenenter"",""1"",""1654""
","
","","","-1","","","25","5153","263","m","elianto","#f73b6a7A"," ","-1","0","-10","[]","0","2","","","5153","42","0","3","lose","go","0"
"pit-trial","161","1073907","0.0-47.0","battery-v0.2","","""event"",""trial"",""time""
""fullscreenenter"",""1"",""1654""
","
","
","""event"",""trial"",""time""
""fullscreenenter"",""1"",""1654""
","
","","","554.9999999997672","","","25","5153","263","h","elianto","#f73b6a7A","-1"," ","0","0","[1406]","1","2","","","5153","43","3","4","lose","no-go","1"
"pit-trial","162","1077234","0.0-48.0","battery-v0.2","","""event"",""trial"",""time""
""fullscreenenter"",""1"",""1654""
","
","
","""event"",""trial"",""time""
""fullscreenenter"",""1"",""1654""
","
","","","473","","","25","5153","263","r","elianto","#3366ff99","-1"," ","0","+10","[1324]","1","2","","","5153","44","1","2","win","no-go","1"
"pit-trial","163","1080603","0.0-49.0","battery-v0.2","","""event"",""trial"",""time""
""fullscreenenter"",""1"",""1654""
","
","
","""event"",""trial"",""time""
""fullscreenenter"",""1"",""1654""
","
","","","515","","","25","5153","263","h","elianto","#f73b6a7A","-1"," ","0","-10","[1365]","1","2","","","5153","45","3","4","lose","no-go","0"
"pit-trial","164","1083891","0.0-50.0","battery-v0.2","","""event"",""trial"",""time""
""fullscreenenter"",""1"",""1654""
","
","
","""event"",""trial"",""time""
""fullscreenenter"",""1"",""1654""
","
","","","435.00000000023283","","","25","5153","263","r","elianto","#3366ff99","-1"," ","0","0","[1285.0000000002328]","1","2","","","5153","46","1","2","win","no-go","0"
"pit-trial","165","1087322","0.0-51.0","battery-v0.2","","""event"",""trial"",""time""
""fullscreenenter"",""1"",""1654""
","
","
","""event"",""trial"",""time""
""fullscreenenter"",""1"",""1654""
","
","","","577","","","25","5153","263","y","elianto","#f73b6a7A"," "," ","1","0","[1427]","1","2","","","5153","47","2","3","lose","go","0"
"pit-trial","166","1090699","0.0-52.0","battery-v0.2","","""event"",""trial"",""time""
""fullscreenenter"",""1"",""1654""
","
","
","""event"",""trial"",""time""
""fullscreenenter"",""1"",""1654""
","
","","","523","","","25","5153","263","m","elianto","#f73b6a7A"," "," ","1","0","[1374]","1","2","","","5153","48","0","3","lose","go","0"
"pit-trial","167","1093995","0.0-53.0","battery-v0.2","","""event"",""trial"",""time""
""fullscreenenter"",""1"",""1654""
","
","
","""event"",""trial"",""time""
""fullscreenenter"",""1"",""1654""
","
","","","442","","","25","5153","263","r","elianto","#3366ff99","-1"," ","0","0","[1293]","1","2","","","5153","49","1","2","win","no-go","0"
"pit-trial","168","1097259","0.0-54.0","battery-v0.2","","""event"",""trial"",""time""
""fullscreenenter"",""1"",""1654""
","
","
","""event"",""trial"",""time""
""fullscreenenter"",""1"",""1654""
","
","","","410","","","25","5153","263","y","elianto","#f73b6a7A"," "," ","1","0","[1261]","1","2","","","5153","50","2","3","lose","go","0"
"pit-trial","169","1100531","0.0-55.0","battery-v0.2","","""event"",""trial"",""time""
""fullscreenenter"",""1"",""1654""
","
","
","""event"",""trial"",""time""
""fullscreenenter"",""1"",""1654""
","
","","","417","","","25","5153","263","h","elianto","#f73b6a7A","-1"," ","0","0","[1268]","1","2","","","5153","51","3","4","lose","no-go","1"
"pit-trial","170","1104043","0.0-56.0","battery-v0.2","","""event"",""trial"",""time""
""fullscreenenter"",""1"",""1654""
","
","
","""event"",""trial"",""time""
""fullscreenenter"",""1"",""1654""
","
","","","658","","","25","5153","263","m","elianto","#f73b6a7A"," "," ","1","0","[1507.9999999997672]","1","2","","","5153","52","0","3","lose","go","0"
"pit-trial","171","1107347","0.0-57.0","battery-v0.2","","""event"",""trial"",""time""
""fullscreenenter"",""1"",""1654""
","
","
","""event"",""trial"",""time""
""fullscreenenter"",""1"",""1654""
","
","","","450","","","25","5153","263","y","elianto","#f73b6a7A"," "," ","1","0","[1300]","1","2","","","5153","53","2","3","lose","go","0"
"pit-trial","172","1110611","0.0-58.0","battery-v0.2","","""event"",""trial"",""time""
""fullscreenenter"",""1"",""1654""
","
","
","""event"",""trial"",""time""
""fullscreenenter"",""1"",""1654""
","
","","","410","","","25","5153","263","r","elianto","#3366ff99","-1"," ","0","0","[1261]","1","2","","","5153","54","1","2","win","no-go","0"
"pit-trial","173","1113867","0.0-59.0","battery-v0.2","","""event"",""trial"",""time""
""fullscreenenter"",""1"",""1654""
","
","
","""event"",""trial"",""time""
""fullscreenenter"",""1"",""1654""
","
","","","401","","","25","5153","263","m","elianto","#f73b6a7A"," "," ","1","0","[1252]","1","2","","","5153","55","0","3","lose","go","0"
"pit-trial","174","1117147","0.0-60.0","battery-v0.2","","""event"",""trial"",""time""
""fullscreenenter"",""1"",""1654""
","
","
","""event"",""trial"",""time""
""fullscreenenter"",""1"",""1654""
","
","","","425","","","25","5153","263","h","elianto","#f73b6a7A","-1"," ","0","-10","[1275.9999999997672]","1","2","","","5153","56","3","4","lose","no-go","0"
"pit-trial","175","1120379","0.0-61.0","battery-v0.2","","""event"",""trial"",""time""
""fullscreenenter"",""1"",""1654""
","
","
","""event"",""trial"",""time""
""fullscreenenter"",""1"",""1654""
","
","","","376","","","25","5153","263","z","elianto","#3366ff99"," "," ","1","+10","[1227.9999999997672]","1","2","","","5153","57","4","1","win","go","0"
"pit-trial","176","1123819","0.0-62.0","battery-v0.2","","""event"",""trial"",""time""
""fullscreenenter"",""1"",""1654""
","
","
","""event"",""trial"",""time""
""fullscreenenter"",""1"",""1654""
","
","","","587","","","25","5153","263","y","elianto","#f73b6a7A"," "," ","1","0","[1437]","1","2","","","5153","58","2","3","lose","go","0"
"pit-trial","177","1127331","0.0-63.0","battery-v0.2","","""event"",""trial"",""time""
""fullscreenenter"",""1"",""1654""
","
","
","""event"",""trial"",""time""
""fullscreenenter"",""1"",""1654""
","
","","","658","","","25","5153","263","h","elianto","#f73b6a7A","-1"," ","0","-10","[1509]","1","2","","","5153","59","3","4","lose","no-go","0"
"pit-trial","178","1130842","0.0-64.0","battery-v0.2","","""event"",""trial"",""time""
""fullscreenenter"",""1"",""1654""
","
","
","""event"",""trial"",""time""
""fullscreenenter"",""1"",""1654""
","
","","","657","","","25","5153","263","m","elianto","#f73b6a7A"," "," ","1","0","[1508]","1","2","","","5153","60","0","3","lose","go","0"
"pit-trial","179","1134708","0.0-65.0","battery-v0.2","","""event"",""trial"",""time""
""fullscreenenter"",""1"",""1654""
","
","
","""event"",""trial"",""time""
""fullscreenenter"",""1"",""1654""
","
","","","1012.0000000002328","","","25","5153","263","y","elianto","#f73b6a7A"," "," ","1","0","[1862.0000000002328]","1","2","","","5153","61","2","3","lose","go","0"
"pit-trial","180","1138379","0.0-66.0","battery-v0.2","","""event"",""trial"",""time""
""fullscreenenter"",""1"",""1654""
","
","
","""event"",""trial"",""time""
""fullscreenenter"",""1"",""1654""
","
","","","816","","","25","5153","263","h","elianto","#f73b6a7A","-1"," ","0","-10","[1666]","1","2","","","5153","62","3","4","lose","no-go","0"
"pit-trial","181","1141692","0.0-67.0","battery-v0.2","","""event"",""trial"",""time""
""fullscreenenter"",""1"",""1654""
","
","
","""event"",""trial"",""time""
""fullscreenenter"",""1"",""1654""
","
","","","458","","","25","5153","263","z","elianto","#3366ff99"," "," ","1","+10","[1309]","1","2","","","5153","63","4","1","win","go","0"
"pit-trial","182","1144979","0.0-68.0","battery-v0.2","","""event"",""trial"",""time""
""fullscreenenter"",""1"",""1654""
","
","
","""event"",""trial"",""time""
""fullscreenenter"",""1"",""1654""
","
","","","434","","","25","5153","263","r","elianto","#3366ff99","-1"," ","0","0","[1284]","1","2","","","5153","64","1","2","win","no-go","0"
"pit-trial","183","1148292","0.0-69.0","battery-v0.2","","""event"",""trial"",""time""
""fullscreenenter"",""1"",""1654""
","
","
","""event"",""trial"",""time""
""fullscreenenter"",""1"",""1654""
","
","","","457.99999999976717","","","25","5153","263","r","elianto","#3366ff99","-1"," ","0","0","[1308]","1","2","","","5153","65","1","2","win","no-go","0"
"pit-trial","184","1151587","0.0-70.0","battery-v0.2","","""event"",""trial"",""time""
""fullscreenenter"",""1"",""1654""
","
","
","""event"",""trial"",""time""
""fullscreenenter"",""1"",""1654""
","
","","","441","","","25","5153","263","z","elianto","#3366ff99"," "," ","1","0","[1292]","1","2","","","5153","66","4","1","win","go","1"
"pit-trial","185","1155227","0.0-71.0","battery-v0.2","","""event"",""trial"",""time""
""fullscreenenter"",""1"",""1654""
","
","
","""event"",""trial"",""time""
""fullscreenenter"",""1"",""1654""
","
","","","785","","","25","5153","263","h","elianto","#f73b6a7A","-1"," ","0","-10","[1636]","1","2","","","5153","67","3","4","lose","no-go","0"
"pit-trial","186","1158731","0.0-72.0","battery-v0.2","","""event"",""trial"",""time""
""fullscreenenter"",""1"",""1654""
","
","
","""event"",""trial"",""time""
""fullscreenenter"",""1"",""1654""
","
","","","650","","","25","5153","263","c","elianto","#3366ff99","-1"," ","0","0","[1501]","1","2","","","5153","68","5","2","win","no-go","0"
"pit-trial","187","1162243","0.0-73.0","battery-v0.2","","""event"",""trial"",""time""
""fullscreenenter"",""1"",""1654""
","
","
","""event"",""trial"",""time""
""fullscreenenter"",""1"",""1654""
","
","","","658","","","25","5153","263","c","elianto","#3366ff99","-1"," ","0","0","[1508]","1","2","","","5153","69","5","2","win","no-go","0"
"pit-trial","188","1165579","0.0-74.0","battery-v0.2","","""event"",""trial"",""time""
""fullscreenenter"",""1"",""1654""
","
","
","""event"",""trial"",""time""
""fullscreenenter"",""1"",""1654""
","
","","","481","","","25","5153","263","z","elianto","#3366ff99"," "," ","1","0","[1331.9999999997672]","1","2","","","5153","70","4","1","win","go","1"
"pit-trial","189","1169163","0.0-75.0","battery-v0.2","","""event"",""trial"",""time""
""fullscreenenter"",""1"",""1654""
","
","
","""event"",""trial"",""time""
""fullscreenenter"",""1"",""1654""
","
","","","730","","","25","5153","263","y","elianto","#f73b6a7A"," "," ","1","0","[1581]","1","2","","","5153","71","2","3","lose","go","0"
"pit-trial","190","1172612","0.0-76.0","battery-v0.2","","""event"",""trial"",""time""
""fullscreenenter"",""1"",""1654""
","
","
","""event"",""trial"",""time""
""fullscreenenter"",""1"",""1654""
","
","","","595.0000000002328","","","25","5153","263","r","elianto","#3366ff99","-1"," ","0","0","[1445.0000000002328]","1","2","","","5153","72","1","2","win","no-go","0"
"pit-trial","191","1177466","0.0-77.0","battery-v0.2","","""event"",""trial"",""time""
""fullscreenenter"",""1"",""1654""
","
","
","""event"",""trial"",""time""
""fullscreenenter"",""1"",""1654""
","
","","","-1","","","25","5153","263","h","elianto","#f73b6a7A","-1","-1","1","0","[]","0","2","","","5153","73","3","4","lose","no-go","0"
"pit-trial","192","1180835","0.0-78.0","battery-v0.2","","""event"",""trial"",""time""
""fullscreenenter"",""1"",""1654""
","
","
","""event"",""trial"",""time""
""fullscreenenter"",""1"",""1654""
","
","","","516","","","25","5153","263","z","elianto","#3366ff99"," "," ","1","0","[1366]","1","2","","","5153","74","4","1","win","go","1"
"pit-trial","193","1185689","0.0-79.0","battery-v0.2","","""event"",""trial"",""time""
""fullscreenenter"",""1"",""1654""
","
","
","""event"",""trial"",""time""
""fullscreenenter"",""1"",""1654""
","
","","","-1","","","25","5153","263","r","elianto","#3366ff99","-1","-1","1","+10","[]","0","2","","","5153","75","1","2","win","no-go","0"
"pit-trial","194","1190542","0.0-80.0","battery-v0.2","","""event"",""trial"",""time""
""fullscreenenter"",""1"",""1654""
","
","
","""event"",""trial"",""time""
""fullscreenenter"",""1"",""1654""
","
","","","-1","","","25","5153","263","c","elianto","#3366ff99","-1","-1","1","+10","[]","0","2","","","5153","76","5","2","win","no-go","0"
"pit-trial","195","1195395","0.0-81.0","battery-v0.2","","""event"",""trial"",""time""
""fullscreenenter"",""1"",""1654""
","
","
","""event"",""trial"",""time""
""fullscreenenter"",""1"",""1654""
","
","","","-1","","","25","5153","263","z","elianto","#3366ff99"," ","-1","0","+10","[]","0","2","","","5153","77","4","1","win","go","1"
"pit-trial","196","1200249","0.0-82.0","battery-v0.2","","""event"",""trial"",""time""
""fullscreenenter"",""1"",""1654""
","
","
","""event"",""trial"",""time""
""fullscreenenter"",""1"",""1654""
","
","","","-1","","","25","5153","263","h","elianto","#f73b6a7A","-1","-1","1","0","[]","0","2","","","5153","78","3","4","lose","no-go","0"
"pit-trial","197","1205103","0.0-83.0","battery-v0.2","","""event"",""trial"",""time""
""fullscreenenter"",""1"",""1654""
","
","
","""event"",""trial"",""time""
""fullscreenenter"",""1"",""1654""
","
","","","-1","","","25","5153","263","c","elianto","#3366ff99","-1","-1","1","+10","[]","0","2","","","5153","79","5","2","win","no-go","0"
"pit-trial","198","1209958","0.0-84.0","battery-v0.2","","""event"",""trial"",""time""
""fullscreenenter"",""1"",""1654""
","
","
","""event"",""trial"",""time""
""fullscreenenter"",""1"",""1654""
","
","","","-1","","","25","5153","263","z","elianto","#3366ff99"," ","-1","0","+10","[]","0","2","","","5153","80","4","1","win","go","1"
"pit-trial","199","1214812","0.0-85.0","battery-v0.2","","""event"",""trial"",""time""
""fullscreenenter"",""1"",""1654""
","
","
","""event"",""trial"",""time""
""fullscreenenter"",""1"",""1654""
","
","","","-1","","","25","5153","263","z","elianto","#3366ff99"," ","-1","0","+10","[]","0","2","","","5153","81","4","1","win","go","1"
"pit-trial","200","1219665","0.0-86.0","battery-v0.2","","""event"",""trial"",""time""
""fullscreenenter"",""1"",""1654""
","
","
","""event"",""trial"",""time""
""fullscreenenter"",""1"",""1654""
","
","","","-1","","","25","5153","263","t","elianto","#f73b6a7A","-1","-1","1","-10","[]","0","2","","","5153","82","7","4","lose","no-go","1"
"pit-trial","201","1224520","0.0-87.0","battery-v0.2","","""event"",""trial"",""time""
""fullscreenenter"",""1"",""1654""
","
","
","""event"",""trial"",""time""
""fullscreenenter"",""1"",""1654""
","
","","","-1","","","25","5153","263","h","elianto","#f73b6a7A","-1","-1","1","0","[]","0","2","","","5153","83","3","4","lose","no-go","0"
"pit-trial","202","1229375","0.0-88.0","battery-v0.2","","""event"",""trial"",""time""
""fullscreenenter"",""1"",""1654""
","
","
","""event"",""trial"",""time""
""fullscreenenter"",""1"",""1654""
","
","","","-1","","","25","5153","263","c","elianto","#3366ff99","-1","-1","1","0","[]","0","2","","","5153","84","5","2","win","no-go","1"
"pit-trial","203","1234230","0.0-89.0","battery-v0.2","","""event"",""trial"",""time""
""fullscreenenter"",""1"",""1654""
","
","
","""event"",""trial"",""time""
""fullscreenenter"",""1"",""1654""
","
","","","-1","","","25","5153","263","z","elianto","#3366ff99"," ","-1","0","0","[]","0","2","","","5153","85","4","1","win","go","0"
"pit-trial","204","1237852","0.0-90.0","battery-v0.2","","""event"",""trial"",""time""
""fullscreenenter"",""1"",""1654""
","
","
","""event"",""trial"",""time""
""fullscreenenter"",""1"",""1654""
","
","","","767","","","25","5153","263","c","elianto","#3366ff99","-1"," ","0","0","[1618]","1","2","","","5153","86","5","2","win","no-go","0"
"pit-trial","205","1241307","0.0-91.0","battery-v0.2","","""event"",""trial"",""time""
""fullscreenenter"",""1"",""1654""
","
","
","""event"",""trial"",""time""
""fullscreenenter"",""1"",""1654""
","
","","","602","","","25","5153","263","t","elianto","#f73b6a7A","-1"," ","0","-10","[1451]","1","2","","","5153","87","7","4","lose","no-go","0"
"pit-trial","206","1246161","0.0-92.0","battery-v0.2","","""event"",""trial"",""time""
""fullscreenenter"",""1"",""1654""
","
","
","""event"",""trial"",""time""
""fullscreenenter"",""1"",""1654""
","
","","","-1","","","25","5153","263","b","elianto","#f73b6a7A"," ","-1","0","0","[517]","1","2","","","5153","88","6","3","lose","go","1"
"pit-trial","207","1250171","0.0-93.0","battery-v0.2","","""event"",""trial"",""time""
""fullscreenenter"",""1"",""1654""
","
","
","""event"",""trial"",""time""
""fullscreenenter"",""1"",""1654""
","
","","","1157","","","25","5153","263","c","elianto","#3366ff99","-1"," ","0","0","[2007]","1","2","","","5153","89","5","2","win","no-go","0"
"pit-trial","208","1255024","0.0-94.0","battery-v0.2","","""event"",""trial"",""time""
""fullscreenenter"",""1"",""1654""
","
","
","""event"",""trial"",""time""
""fullscreenenter"",""1"",""1654""
","
","","","-1","","","25","5153","263","t","elianto","#f73b6a7A","-1","-1","1","0","[]","0","2","","","5153","90","7","4","lose","no-go","0"
"pit-trial","209","1259877","0.0-95.0","battery-v0.2","","""event"",""trial"",""time""
""fullscreenenter"",""1"",""1654""
","
","
","""event"",""trial"",""time""
""fullscreenenter"",""1"",""1654""
","
","","","-1","","","25","5153","263","z","elianto","#3366ff99"," ","-1","0","0","[]","0","2","","","5153","91","4","1","win","go","0"
"pit-trial","210","1264731","0.0-96.0","battery-v0.2","","""event"",""trial"",""time""
""fullscreenenter"",""1"",""1654""
","
","
","""event"",""trial"",""time""
""fullscreenenter"",""1"",""1654""
","
","","","-1","","","25","5153","263","b","elianto","#f73b6a7A"," ","-1","0","-10","[]","0","2","","","5153","92","6","3","lose","go","0"
"pit-trial","211","1269586","0.0-97.0","battery-v0.2","","""event"",""trial"",""time""
""fullscreenenter"",""1"",""1654""
","
","
","""event"",""trial"",""time""
""fullscreenenter"",""1"",""1654""
","
","","","-1","","","25","5153","263","t","elianto","#f73b6a7A","-1","-1","1","0","[]","0","2","","","5153","93","7","4","lose","no-go","0"
"pit-trial","212","1274440","0.0-98.0","battery-v0.2","","""event"",""trial"",""time""
""fullscreenenter"",""1"",""1654""
","
","
","""event"",""trial"",""time""
""fullscreenenter"",""1"",""1654""
","
","","","-1","","","25","5153","263","f","elianto","#3366ff99"," ","-1","0","0","[]","0","2","","","5153","94","8","1","win","go","0"
"pit-trial","213","1278268","0.0-99.0","battery-v0.2","","""event"",""trial"",""time""
""fullscreenenter"",""1"",""1654""
","
","
","""event"",""trial"",""time""
""fullscreenenter"",""1"",""1654""
","
","","","974","","","25","5153","263","b","elianto","#f73b6a7A"," "," ","1","0","[1824]","1","2","","","5153","95","6","3","lose","go","0"
"pit-trial","214","1282371","0.0-100.0","battery-v0.2","","""event"",""trial"",""time""
""fullscreenenter"",""1"",""1654""
","
","
","""event"",""trial"",""time""
""fullscreenenter"",""1"",""1654""
","
","","","1250","","","25","5153","263","c","elianto","#3366ff99","-1"," ","0","0","[2099]","1","2","","","5153","96","5","2","win","no-go","0"
"pit-trial","215","1287224","0.0-101.0","battery-v0.2","","""event"",""trial"",""time""
""fullscreenenter"",""1"",""1654""
","
","
","""event"",""trial"",""time""
""fullscreenenter"",""1"",""1654""
","
","","","-1","","","25","5153","263","c","elianto","#3366ff99","-1","-1","1","+10","[]","0","2","","","5153","97","5","2","win","no-go","0"
"pit-trial","216","1291013","0.0-102.0","battery-v0.2","","""event"",""trial"",""time""
""fullscreenenter"",""1"",""1654""
","
","
","""event"",""trial"",""time""
""fullscreenenter"",""1"",""1654""
","
","","","934","","","25","5153","263","f","elianto","#3366ff99"," "," ","1","+10","[1784.9999999997672]","1","2","","","5153","98","8","1","win","go","0"
"pit-trial","217","1295179","0.0-103.0","battery-v0.2","","""event"",""trial"",""time""
""fullscreenenter"",""1"",""1654""
","
","
","""event"",""trial"",""time""
""fullscreenenter"",""1"",""1654""
","
","","","1313","","","25","5153","263","b","elianto","#f73b6a7A"," "," ","1","0","[2163]","1","2","","","5153","99","6","3","lose","go","0"
"pit-trial","218","1299284","0.0-104.0","battery-v0.2","","""event"",""trial"",""time""
""fullscreenenter"",""1"",""1654""
","
","
","""event"",""trial"",""time""
""fullscreenenter"",""1"",""1654""
","
","","","1250","","","25","5153","263","t","elianto","#f73b6a7A","-1"," ","0","-10","[2101]","1","2","","","5153","100","7","4","lose","no-go","0"
"pit-trial","219","1304138","0.0-105.0","battery-v0.2","","""event"",""trial"",""time""
""fullscreenenter"",""1"",""1654""
","
","
","""event"",""trial"",""time""
""fullscreenenter"",""1"",""1654""
","
","","","-1","","","25","5153","263","t","elianto","#f73b6a7A","-1","-1","1","0","[]","0","2","","","5153","101","7","4","lose","no-go","0"
"pit-trial","220","1307571","0.0-106.0","battery-v0.2","","""event"",""trial"",""time""
""fullscreenenter"",""1"",""1654""
","
","
","""event"",""trial"",""time""
""fullscreenenter"",""1"",""1654""
","
","","","580","","","25","5153","263","f","elianto","#3366ff99"," "," ","1","0","[1429.9999999997672]","1","2","","","5153","102","8","1","win","go","1"
"pit-trial","221","1312425","0.0-107.0","battery-v0.2","","""event"",""trial"",""time""
""fullscreenenter"",""1"",""1654""
","
","
","""event"",""trial"",""time""
""fullscreenenter"",""1"",""1654""
","
","","","-1","","","25","5153","263","c","elianto","#3366ff99","-1","-1","1","+10","[]","0","2","","","5153","103","5","2","win","no-go","0"
"pit-trial","222","1317280","0.0-108.0","battery-v0.2","","""event"",""trial"",""time""
""fullscreenenter"",""1"",""1654""
","
","
","""event"",""trial"",""time""
""fullscreenenter"",""1"",""1654""
","
","","","-1","","","25","5153","263","n","elianto","#3366ff99"," ","-1","0","0","[]","0","2","","","5153","104","9","1","win","go","0"
"pit-trial","223","1321244","0.0-109.0","battery-v0.2","","""event"",""trial"",""time""
""fullscreenenter"",""1"",""1654""
","
","
","""event"",""trial"",""time""
""fullscreenenter"",""1"",""1654""
","
","","","1110","","","25","5153","263","b","elianto","#f73b6a7A"," "," ","1","0","[1961]","1","2","","","5153","105","6","3","lose","go","0"
"pit-trial","224","1324571","0.0-110.0","battery-v0.2","","""event"",""trial"",""time""
""fullscreenenter"",""1"",""1654""
","
","
","""event"",""trial"",""time""
""fullscreenenter"",""1"",""1654""
","
","","","474","","","25","5153","263","n","elianto","#3366ff99"," "," ","1","+10","[1323.9999999997672]","1","2","","","5153","106","9","1","win","go","0"
"pit-trial","225","1328036","0.0-111.0","battery-v0.2","","""event"",""trial"",""time""
""fullscreenenter"",""1"",""1654""
","
","
","""event"",""trial"",""time""
""fullscreenenter"",""1"",""1654""
","
","","","611.0000000002328","","","25","5153","263","f","elianto","#3366ff99"," "," ","1","0","[1461.0000000002328]","1","2","","","5153","107","8","1","win","go","1"
"pit-trial","226","1331500","0.0-112.0","battery-v0.2","","""event"",""trial"",""time""
""fullscreenenter"",""1"",""1654""
","
","
","""event"",""trial"",""time""
""fullscreenenter"",""1"",""1654""
","
","","","611","","","25","5153","263","z","elianto","#3366ff99"," "," ","1","+10","[1461]","1","2","","","5153","108","4","1","win","go","0"
"pit-trial","227","1334813","0.0-113.0","battery-v0.2","","""event"",""trial"",""time""
""fullscreenenter"",""1"",""1654""
","
","
","""event"",""trial"",""time""
""fullscreenenter"",""1"",""1654""
","
","","","458","","","25","5153","263","c","elianto","#3366ff99","-1"," ","0","0","[1309]","1","2","","","5153","109","5","2","win","no-go","0"
"pit-trial","228","1339668","0.0-114.0","battery-v0.2","","""event"",""trial"",""time""
""fullscreenenter"",""1"",""1654""
","
","
","""event"",""trial"",""time""
""fullscreenenter"",""1"",""1654""
","
","","","-1","","","25","5153","263","b","elianto","#f73b6a7A"," ","-1","0","-10","[]","0","2","","","5153","110","6","3","lose","go","0"
"pit-trial","229","1343188","0.0-115.0","battery-v0.2","","""event"",""trial"",""time""
""fullscreenenter"",""1"",""1654""
","
","
","""event"",""trial"",""time""
""fullscreenenter"",""1"",""1654""
","
","","","666","","","25","5153","263","f","elianto","#3366ff99"," "," ","1","0","[1517]","1","2","","","5153","111","8","1","win","go","1"
"pit-trial","230","1346580","0.0-116.0","battery-v0.2","","""event"",""trial"",""time""
""fullscreenenter"",""1"",""1654""
","
","
","""event"",""trial"",""time""
""fullscreenenter"",""1"",""1654""
","
","","","537","","","25","5153","263","n","elianto","#3366ff99"," "," ","1","+10","[1388]","1","2","","","5153","112","9","1","win","go","0"
"pit-trial","231","1350116","0.0-117.0","battery-v0.2","","""event"",""trial"",""time""
""fullscreenenter"",""1"",""1654""
","
","
","""event"",""trial"",""time""
""fullscreenenter"",""1"",""1654""
","
","","","683","","","25","5153","263","b","elianto","#f73b6a7A"," "," ","1","-10","[1533]","1","2","","","5153","113","6","3","lose","go","1"
"pit-trial","232","1353573","0.0-118.0","battery-v0.2","","""event"",""trial"",""time""
""fullscreenenter"",""1"",""1654""
","
","
","""event"",""trial"",""time""
""fullscreenenter"",""1"",""1654""
","
","","","602","","","25","5153","263","n","elianto","#3366ff99"," "," ","1","+10","[1453]","1","2","","","5153","114","9","1","win","go","0"
"pit-trial","233","1357723","0.0-119.0","battery-v0.2","","""event"",""trial"",""time""
""fullscreenenter"",""1"",""1654""
","
","
","""event"",""trial"",""time""
""fullscreenenter"",""1"",""1654""
","
","","","1298","","","25","5153","263","c","elianto","#3366ff99","-1"," ","0","0","[2148]","1","2","","","5153","115","5","2","win","no-go","0"
"pit-trial","234","1361084","0.0-120.0","battery-v0.2","","""event"",""trial"",""time""
""fullscreenenter"",""1"",""1654""
","
","
","""event"",""trial"",""time""
""fullscreenenter"",""1"",""1654""
","
","","","506.00000000023283","","","25","5153","263","f","elianto","#3366ff99"," "," ","1","+10","[1357.0000000002328]","1","2","","","5153","116","8","1","win","go","0"
"pit-trial","235","1364493","0.0-121.0","battery-v0.2","","""event"",""trial"",""time""
""fullscreenenter"",""1"",""1654""
","
","
","""event"",""trial"",""time""
""fullscreenenter"",""1"",""1654""
","
","","","555","","","25","5153","263","n","elianto","#3366ff99"," "," ","1","+10","[1405]","1","2","","","5153","117","9","1","win","go","0"
"pit-trial","236","1367861","0.0-122.0","battery-v0.2","","""event"",""trial"",""time""
""fullscreenenter"",""1"",""1654""
","
","
","""event"",""trial"",""time""
""fullscreenenter"",""1"",""1654""
","
","","","514","","","25","5153","263","f","elianto","#3366ff99"," "," ","1","+10","[1364]","1","2","","","5153","118","8","1","win","go","0"
"pit-trial","237","1371196","0.0-123.0","battery-v0.2","","""event"",""trial"",""time""
""fullscreenenter"",""1"",""1654""
","
","
","""event"",""trial"",""time""
""fullscreenenter"",""1"",""1654""
","
","","","481","","","25","5153","263","c","elianto","#3366ff99","-1"," ","0","+10","[1332]","1","2","","","5153","119","5","2","win","no-go","1"
"pit-trial","238","1375124","0.0-124.0","battery-v0.2","","""event"",""trial"",""time""
""fullscreenenter"",""1"",""1654""
","
","
","""event"",""trial"",""time""
""fullscreenenter"",""1"",""1654""
","
","","","1073","","","25","5153","263","b","elianto","#f73b6a7A"," "," ","1","0","[1923.9999999997672]","1","2","","","5153","120","6","3","lose","go","0"
"pit-trial","239","1378500","0.0-125.0","battery-v0.2","","""event"",""trial"",""time""
""fullscreenenter"",""1"",""1654""
","
","
","""event"",""trial"",""time""
""fullscreenenter"",""1"",""1654""
","
","","","523","","","25","5153","263","f","elianto","#3366ff99"," "," ","1","+10","[1373]","1","2","","","5153","121","8","1","win","go","0"
"pit-trial","240","1381788","0.0-126.0","battery-v0.2","","""event"",""trial"",""time""
""fullscreenenter"",""1"",""1654""
","
","
","""event"",""trial"",""time""
""fullscreenenter"",""1"",""1654""
","
","","","434","","","25","5153","263","n","elianto","#3366ff99"," "," ","1","+10","[1284]","1","2","","","5153","122","9","1","win","go","0"
"pit-trial","241","1386642","0.0-127.0","battery-v0.2","","""event"",""trial"",""time""
""fullscreenenter"",""1"",""1654""
","
","
","""event"",""trial"",""time""
""fullscreenenter"",""1"",""1654""
","
","","","-1","","","25","5153","263","t","elianto","#f73b6a7A","-1","-1","1","-10","[]","0","2","","","5153","123","7","4","lose","no-go","1"
"pit-trial","242","1390389","0.0-128.0","battery-v0.2","","""event"",""trial"",""time""
""fullscreenenter"",""1"",""1654""
","
","
","""event"",""trial"",""time""
""fullscreenenter"",""1"",""1654""
","
","","","893","","","25","5153","263","b","elianto","#f73b6a7A"," "," ","1","-10","[1743]","1","2","","","5153","124","6","3","lose","go","1"
"pit-trial","243","1393813","0.0-129.0","battery-v0.2","","""event"",""trial"",""time""
""fullscreenenter"",""1"",""1654""
","
","
","""event"",""trial"",""time""
""fullscreenenter"",""1"",""1654""
","
","","","570","","","25","5153","263","n","elianto","#3366ff99"," "," ","1","+10","[1419.9999999997672,3034.999999999767]","2","2","","","5153","125","9","1","win","go","0"
"pit-trial","244","1397084","0.0-130.0","battery-v0.2","","""event"",""trial"",""time""
""fullscreenenter"",""1"",""1654""
","
","
","""event"",""trial"",""time""
""fullscreenenter"",""1"",""1654""
","
","","","417","","","25","5153","263","f","elianto","#3366ff99"," "," ","1","+10","[1267]","1","2","","","5153","126","8","1","win","go","0"
"pit-trial","245","1401938","0.0-131.0","battery-v0.2","","""event"",""trial"",""time""
""fullscreenenter"",""1"",""1654""
","
","
","""event"",""trial"",""time""
""fullscreenenter"",""1"",""1654""
","
","","","-1","","","25","5153","263","b","elianto","#f73b6a7A"," ","-1","0","0","[]","0","2","","","5153","127","6","3","lose","go","1"
"pit-trial","246","1406793","0.0-132.0","battery-v0.2","","""event"",""trial"",""time""
""fullscreenenter"",""1"",""1654""
","
","
","""event"",""trial"",""time""
""fullscreenenter"",""1"",""1654""
","
","","","-1","","","25","5153","263","t","elianto","#f73b6a7A","-1","-1","1","0","[]","0","2","","","5153","128","7","4","lose","no-go","0"
"pit-trial","247","1410245","0.0-133.0","battery-v0.2","","""event"",""trial"",""time""
""fullscreenenter"",""1"",""1654""
","
","
","""event"",""trial"",""time""
""fullscreenenter"",""1"",""1654""
","
","","","599","","","25","5153","263","f","elianto","#3366ff99"," "," ","1","+10","[1449.9999999997672,2415.999999999767]","2","2","","","5153","129","8","1","win","go","0"
"pit-trial","248","1415099","0.0-134.0","battery-v0.2","","""event"",""trial"",""time""
""fullscreenenter"",""1"",""1654""
","
","
","""event"",""trial"",""time""
""fullscreenenter"",""1"",""1654""
","
","","","-1","","","25","5153","263","t","elianto","#f73b6a7A","-1","-1","1","0","[]","0","2","","","5153","130","7","4","lose","no-go","0"
"pit-trial","249","1418524","0.0-135.0","battery-v0.2","","""event"",""trial"",""time""
""fullscreenenter"",""1"",""1654""
","
","
","""event"",""trial"",""time""
""fullscreenenter"",""1"",""1654""
","
","","","571","","","25","5153","263","n","elianto","#3366ff99"," "," ","1","+10","[1422]","1","2","","","5153","131","9","1","win","go","0"
"pit-trial","250","1423379","0.0-136.0","battery-v0.2","","""event"",""trial"",""time""
""fullscreenenter"",""1"",""1654""
","
","
","""event"",""trial"",""time""
""fullscreenenter"",""1"",""1654""
","
","","","-1","","","25","5153","263","b","elianto","#f73b6a7A"," ","-1","0","0","[]","0","2","","","5153","132","6","3","lose","go","1"
"pit-trial","251","1428233","0.0-137.0","battery-v0.2","","""event"",""trial"",""time""
""fullscreenenter"",""1"",""1654""
","
","
","""event"",""trial"",""time""
""fullscreenenter"",""1"",""1654""
","
","","","-1","","","25","5153","263","b","elianto","#f73b6a7A"," ","-1","0","-10","[]","0","2","","","5153","133","6","3","lose","go","0"
"pit-trial","252","1431596","0.0-138.0","battery-v0.2","","""event"",""trial"",""time""
""fullscreenenter"",""1"",""1654""
","
","
","""event"",""trial"",""time""
""fullscreenenter"",""1"",""1654""
","
","","","508","","","25","5153","263","n","elianto","#3366ff99"," "," ","1","+10","[1359]","1","2","","","5153","134","9","1","win","go","0"
"pit-trial","253","1434949","0.0-139.0","battery-v0.2","","""event"",""trial"",""time""
""fullscreenenter"",""1"",""1654""
","
","
","""event"",""trial"",""time""
""fullscreenenter"",""1"",""1654""
","
","","","498","","","25","5153","263","f","elianto","#3366ff99"," "," ","1","+10","[1349]","1","2","","","5153","135","8","1","win","go","0"
"pit-trial","254","1439803","0.0-140.0","battery-v0.2","","""event"",""trial"",""time""
""fullscreenenter"",""1"",""1654""
","
","
","""event"",""trial"",""time""
""fullscreenenter"",""1"",""1654""
","
","","","-1","","","25","5153","263","t","elianto","#f73b6a7A","-1","-1","1","0","[]","0","2","","","5153","136","7","4","lose","no-go","0"
"pit-trial","255","1444656","0.0-141.0","battery-v0.2","","""event"",""trial"",""time""
""fullscreenenter"",""1"",""1654""
","
","
","""event"",""trial"",""time""
""fullscreenenter"",""1"",""1654""
","
","","","-1","","","25","5153","263","b","elianto","#f73b6a7A"," ","-1","0","0","[]","0","2","","","5153","137","6","3","lose","go","1"
"pit-trial","256","1449510","0.0-142.0","battery-v0.2","","""event"",""trial"",""time""
""fullscreenenter"",""1"",""1654""
","
","
","""event"",""trial"",""time""
""fullscreenenter"",""1"",""1654""
","
","","","-1","","","25","5153","263","t","elianto","#f73b6a7A","-1","-1","1","0","[]","0","2","","","5153","138","7","4","lose","no-go","0"
"pit-trial","257","1452869","0.0-143.0","battery-v0.2","","""event"",""trial"",""time""
""fullscreenenter"",""1"",""1654""
","
","
","""event"",""trial"",""time""
""fullscreenenter"",""1"",""1654""
","
","","","504.99999999976717","","","25","5153","263","n","elianto","#3366ff99"," "," ","1","+10","[1355]","1","2","","","5153","139","9","1","win","go","0"
"pit-trial","258","1456445","0.0-144.0","battery-v0.2","","""event"",""trial"",""time""
""fullscreenenter"",""1"",""1654""
","
","
","""event"",""trial"",""time""
""fullscreenenter"",""1"",""1654""
","
","","","721","","","25","5153","263","f","elianto","#3366ff99"," "," ","1","+10","[1571.9999999997672]","1","2","","","5153","140","8","1","win","go","0"
"pit-instructions","259","1831081","0.0-145.0","battery-v0.2","","""event"",""trial"",""time""
""fullscreenenter"",""1"",""1654""
","
","
","""event"",""trial"",""time""
""fullscreenenter"",""1"",""1654""
","
","","[{""page_index"":0,""viewing_time"":365774},{""page_index"":1,""viewing_time"":8953}]","374727","","","","","","","","","","","","","","","","","","","","","","","",""
"pit-trial","260","1835223","0.0-146.0","battery-v0.2","","""event"",""trial"",""time""
""fullscreenenter"",""1"",""1654""
","
","
","""event"",""trial"",""time""
""fullscreenenter"",""1"",""1654""
","
","","","1286","","","25","5153","263","d","elianto","#3366ff99"," "," ","1","+10","[2137]","1","3","","","5153","141","1","1","win","go","0"
"pit-trial","261","1840076","0.0-147.0","battery-v0.2","","""event"",""trial"",""time""
""fullscreenenter"",""1"",""1654""
","
","
","""event"",""trial"",""time""
""fullscreenenter"",""1"",""1654""
","
","","","-1","","","25","5153","263","j","elianto","#f73b6a7A","-1","-1","1","0","[]","0","3","","","5153","142","0","4","lose","no-go","0"
"pit-trial","262","1843967","0.0-148.0","battery-v0.2","","""event"",""trial"",""time""
""fullscreenenter"",""1"",""1654""
","
","
","""event"",""trial"",""time""
""fullscreenenter"",""1"",""1654""
","
","","","1037","","","25","5153","263","e","elianto","#f73b6a7A","-1"," ","0","-10","[1887]","1","3","","","5153","143","2","4","lose","no-go","0"
"pit-trial","263","1848350","0.0-149.0","battery-v0.2","","""event"",""trial"",""time""
""fullscreenenter"",""1"",""1654""
","
","
","""event"",""trial"",""time""
""fullscreenenter"",""1"",""1654""
","
","","","1530","","","25","5153","263","w","elianto","#f73b6a7A"," "," ","1","0","[2379.999999999767]","1","3","","","5153","144","3","3","lose","go","0"
"pit-trial","264","1853204","0.0-150.0","battery-v0.2","","""event"",""trial"",""time""
""fullscreenenter"",""1"",""1654""
","
","
","""event"",""trial"",""time""
""fullscreenenter"",""1"",""1654""
","
","","","-1","","","25","5153","263","e","elianto","#f73b6a7A","-1","-1","1","0","[]","0","3","","","5153","145","2","4","lose","no-go","0"
"pit-trial","265","1857022","0.0-151.0","battery-v0.2","","""event"",""trial"",""time""
""fullscreenenter"",""1"",""1654""
","
","
","""event"",""trial"",""time""
""fullscreenenter"",""1"",""1654""
","
","","","964","","","25","5153","263","j","elianto","#f73b6a7A","-1"," ","0","-10","[1814]","1","3","","","5153","146","0","4","lose","no-go","0"
"pit-trial","266","1860367","0.0-152.0","battery-v0.2","","""event"",""trial"",""time""
""fullscreenenter"",""1"",""1654""
","
","
","""event"",""trial"",""time""
""fullscreenenter"",""1"",""1654""
","
","","","490","","","25","5153","263","d","elianto","#3366ff99"," "," ","1","+10","[1341]","1","3","","","5153","147","1","1","win","go","0"
"pit-trial","267","1864094","0.0-153.0","battery-v0.2","","""event"",""trial"",""time""
""fullscreenenter"",""1"",""1654""
","
","
","""event"",""trial"",""time""
""fullscreenenter"",""1"",""1654""
","
","","","873.9999999997672","","","25","5153","263","w","elianto","#f73b6a7A"," "," ","1","0","[1724]","1","3","","","5153","148","3","3","lose","go","0"
"pit-trial","268","1867734","0.0-154.0","battery-v0.2","","""event"",""trial"",""time""
""fullscreenenter"",""1"",""1654""
","
","
","""event"",""trial"",""time""
""fullscreenenter"",""1"",""1654""
","
","","","786","","","25","5153","263","w","elianto","#f73b6a7A"," "," ","1","0","[1636]","1","3","","","5153","149","3","3","lose","go","0"
"pit-trial","269","1871606","0.0-155.0","battery-v0.2","","""event"",""trial"",""time""
""fullscreenenter"",""1"",""1654""
","
","
","""event"",""trial"",""time""
""fullscreenenter"",""1"",""1654""
","
","","","1018","","","25","5153","263","j","elianto","#f73b6a7A","-1"," ","0","-10","[1868]","1","3","","","5153","150","0","4","lose","no-go","0"
"pit-trial","270","1875125","0.0-156.0","battery-v0.2","","""event"",""trial"",""time""
""fullscreenenter"",""1"",""1654""
","
","
","""event"",""trial"",""time""
""fullscreenenter"",""1"",""1654""
","
","","","665","","","25","5153","263","d","elianto","#3366ff99"," "," ","1","+10","[1515]","1","3","","","5153","151","1","1","win","go","0"
"pit-trial","271","1879061","0.0-157.0","battery-v0.2","","""event"",""trial"",""time""
""fullscreenenter"",""1"",""1654""
","
","
","""event"",""trial"",""time""
""fullscreenenter"",""1"",""1654""
","
","","","1081.9999999997672","","","25","5153","263","e","elianto","#f73b6a7A","-1"," ","0","-10","[1933]","1","3","","","5153","152","2","4","lose","no-go","0"
"pit-trial","272","1882358","0.0-158.0","battery-v0.2","","""event"",""trial"",""time""
""fullscreenenter"",""1"",""1654""
","
","
","""event"",""trial"",""time""
""fullscreenenter"",""1"",""1654""
","
","","","443","","","25","5153","263","d","elianto","#3366ff99"," "," ","1","+10","[1293]","1","3","","","5153","153","1","1","win","go","0"
"pit-trial","273","1885773","0.0-159.0","battery-v0.2","","""event"",""trial"",""time""
""fullscreenenter"",""1"",""1654""
","
","
","""event"",""trial"",""time""
""fullscreenenter"",""1"",""1654""
","
","","","561","","","25","5153","263","e","elianto","#f73b6a7A","-1"," ","0","-10","[1411]","1","3","","","5153","154","2","4","lose","no-go","0"
"pit-trial","274","1890627","0.0-160.0","battery-v0.2","","""event"",""trial"",""time""
""fullscreenenter"",""1"",""1654""
","
","
","""event"",""trial"",""time""
""fullscreenenter"",""1"",""1654""
","
","","","-1","","","25","5153","263","j","elianto","#f73b6a7A","-1","-1","1","0","[]","0","3","","","5153","155","0","4","lose","no-go","0"
"pit-trial","275","1894020","0.0-161.0","battery-v0.2","","""event"",""trial"",""time""
""fullscreenenter"",""1"",""1654""
","
","
","""event"",""trial"",""time""
""fullscreenenter"",""1"",""1654""
","
","","","540","","","25","5153","263","w","elianto","#f73b6a7A"," "," ","1","0","[1390]","1","3","","","5153","156","3","3","lose","go","0"
"pit-trial","276","1897373","0.0-162.0","battery-v0.2","","""event"",""trial"",""time""
""fullscreenenter"",""1"",""1654""
","
","
","""event"",""trial"",""time""
""fullscreenenter"",""1"",""1654""
","
