"trial_type","trial_index","time_elapsed","internal_node_id","task_version","subject_id","interactions","blur_events","focus_events","fullscreenenter_events","fullscreenexit_events","success","view_history","rt","responses","num_errors","age","subject","participantId","rune","rune_set","hex","correct","choice","accuracy","outcome","keys","total_keys","block","practice","value","sub","trial","stimulus","robot","valence","action","sham"
"pavlovia","0","6","0.0-0.0","battery-v0.2","","""event"",""trial"",""time""
""fullscreenenter"",""1"",""2983""
","
","
","""event"",""trial"",""time""
""fullscreenenter"",""1"",""2983""
","
","","","","","","","","","","","","","","","","","","","","","","","","","","",""
"fullscreen","1","3973","0.0-1.0","battery-v0.2","","""event"",""trial"",""time""
""fullscreenenter"",""1"",""2983""
","
","
","""event"",""trial"",""time""
""fullscreenenter"",""1"",""2983""
","
","true","","","","","","","","","","","","","","","","","","","","","","","","","",""
"pit-instructions","2","9629","0.0-2.0-0.0","battery-v0.2","","""event"",""trial"",""time""
""fullscreenenter"",""1"",""2983""
","
","
","""event"",""trial"",""time""
""fullscreenenter"",""1"",""2983""
","
","","[{""page_index"":0,""viewing_time"":5654}]","5654.0999999940395","","","","","","","","","","","","","","","","","","","","","","","",""
"pit-comprehension","3","13223","0.0-2.0-1.0-0.0","battery-v0.2","","""event"",""trial"",""time""
""fullscreenenter"",""1"",""2983""
","
","
","""event"",""trial"",""time""
""fullscreenenter"",""1"",""2983""
","
","","","3591.8999999910593","[""shark""]","0","16","15548","6239","","","","","","","","","","","","","","","","","","",""
"pit-instructions","4","14366","0.0-2.0-1.0-1.0","battery-v0.2","","""event"",""trial"",""time""
""fullscreenenter"",""1"",""2983""
","
","
","""event"",""trial"",""time""
""fullscreenenter"",""1"",""2983""
","
","","[{""page_index"":0,""viewing_time"":1138.4000000059605}]","1138.6000000089407","","","","","","","","","","","","","","","","","","","","","","","",""
"pit-comprehension","5","17747","0.0-2.0-2.0-0.0","battery-v0.2","","""event"",""trial"",""time""
""fullscreenenter"",""1"",""2983""
","
","
","""event"",""trial"",""time""
""fullscreenenter"",""1"",""2983""
","
","","","3379.2999999970198","[""tiger""]","0","16","15548","6239","","","","","","","","","","","","","","","","","","",""
"pit-instructions","6","18617","0.0-2.0-2.0-1.0","battery-v0.2","","""event"",""trial"",""time""
""fullscreenenter"",""1"",""2983""
","
","
","""event"",""trial"",""time""
""fullscreenenter"",""1"",""2983""
","
","","[{""page_index"":0,""viewing_time"":868.7999999970198}]","868.9000000059605","","","","","","","","","","","","","","","","","","","","","","","",""
"pit-instructions","7","124360","0.0-2.0-3.0","battery-v0.2","","""event"",""trial"",""time""
""fullscreenenter"",""1"",""2983""
","
","
","""event"",""trial"",""time""
""fullscreenenter"",""1"",""2983""
","
","","[{""page_index"":0,""viewing_time"":13936.10000000894},{""page_index"":1,""viewing_time"":7097.399999991059},{""page_index"":2,""viewing_time"":8004.100000008941},{""page_index"":3,""viewing_time"":5999.899999991059},{""page_index"":4,""viewing_time"":6236.29999999702},{""page_index"":5,""viewing_time"":5425.800000011921},{""page_index"":6,""viewing_time"":7301.399999991059},{""page_index"":7,""viewing_time"":6391},{""page_index"":8,""viewing_time"":6367.79999999702},{""page_index"":9,""viewing_time"":11695.70000000298},{""page_index"":10,""viewing_time"":7312.5},{""page_index"":11,""viewing_time"":7007.5},{""page_index"":12,""viewing_time"":7000.5},{""page_index"":13,""viewing_time"":5965.29999999702}]","105741.5","","","","","","","","","","","","","","","","","","","","","","","",""
"pit-trial","8","127833","0.0-2.0-4.0-0.0","battery-v0.2","","""event"",""trial"",""time""
""fullscreenenter"",""1"",""2983""
","
","
","""event"",""trial"",""time""
""fullscreenenter"",""1"",""2983""
","
","","","609.5","","","16","15548","6239","&#9784;","elianto","#FFFFF080"," "," ","1","&#10004","[1463.2000000029802]","1","0","0","","","","","","","",""
"pit-trial","9","131507","0.0-2.0-4.1-0.1","battery-v0.2","","""event"",""trial"",""time""
""fullscreenenter"",""1"",""2983""
","
","
","""event"",""trial"",""time""
""fullscreenenter"",""1"",""2983""
","
","","","819.0999999940395","","","16","15548","6239","&#9784;","elianto","#FFFFF080"," "," ","1","&#10004","[1671]","1","0","0","","","","","","","",""
"pit-trial","10","135061","0.0-2.0-4.2-0.2","battery-v0.2","","""event"",""trial"",""time""
""fullscreenenter"",""1"",""2983""
","
","
","""event"",""trial"",""time""
""fullscreenenter"",""1"",""2983""
","
","","","685.2000000029802","","","16","15548","6239","&#9784;","elianto","#FFFFF080"," "," ","1","&#10004","[1540.5999999940395]","1","0","0","","","","","","","",""
"pit-trial","11","138696","0.0-2.0-4.3-0.3","battery-v0.2","","""event"",""trial"",""time""
""fullscreenenter"",""1"",""2983""
","
","
","""event"",""trial"",""time""
""fullscreenenter"",""1"",""2983""
","
","","","773.6000000089407","","","16","15548","6239","&#9784;","elianto","#FFFFF080"," "," ","1","&#10004","[1626.699999988079]","1","0","0","","","","","","","",""
"pit-trial","12","142320","0.0-2.0-4.4-0.4","battery-v0.2","","""event"",""trial"",""time""
""fullscreenenter"",""1"",""2983""
","
","
","""event"",""trial"",""time""
""fullscreenenter"",""1"",""2983""
","
","","","764.6000000089407","","","16","15548","6239","&#9784;","elianto","#FFFFF080"," "," ","1","&#10004","[1615.5999999940395]","1","0","0","","","","","","","",""
"pit-instructions","13","165080","0.0-2.0-5.0","battery-v0.2","","""event"",""trial"",""time""
""fullscreenenter"",""1"",""2983""
","
","
","""event"",""trial"",""time""
""fullscreenenter"",""1"",""2983""
","
","","[{""page_index"":0,""viewing_time"":5475},{""page_index"":1,""viewing_time"":6149.79999999702},{""page_index"":2,""viewing_time"":5569.70000000298},{""page_index"":3,""viewing_time"":5563.0999999940395}]","22757.79999999702","","","","","","","","","","","","","","","","","","","","","","","",""
"pit-trial","14","169955","0.0-2.0-6.0-0.0","battery-v0.2","","""event"",""trial"",""time""
""fullscreenenter"",""1"",""2983""
","
","
","""event"",""trial"",""time""
""fullscreenenter"",""1"",""2983""
","
","","","-1","","","16","15548","6239","&#9854;","elianto","#FFFFF080","-1","-1","1","&#10004","[]","0","0","1","","","","","","","",""
"pit-trial","15","174824","0.0-2.0-6.1-0.1","battery-v0.2","","""event"",""trial"",""time""
""fullscreenenter"",""1"",""2983""
","
","
","""event"",""trial"",""time""
""fullscreenenter"",""1"",""2983""
","
","","","-1","","","16","15548","6239","&#9854;","elianto","#FFFFF080","-1","-1","1","&#10004","[]","0","0","1","","","","","","","",""
"pit-trial","16","179694","0.0-2.0-6.2-0.2","battery-v0.2","","""event"",""trial"",""time""
""fullscreenenter"",""1"",""2983""
","
","
","""event"",""trial"",""time""
""fullscreenenter"",""1"",""2983""
","
","","","-1","","","16","15548","6239","&#9854;","elianto","#FFFFF080","-1","-1","1","&#10004","[]","0","0","1","","","","","","","",""
"pit-trial","17","184555","0.0-2.0-6.3-0.3","battery-v0.2","","""event"",""trial"",""time""
""fullscreenenter"",""1"",""2983""
","
","
","""event"",""trial"",""time""
""fullscreenenter"",""1"",""2983""
","
","","","-1","","","16","15548","6239","&#9854;","elianto","#FFFFF080","-1","-1","1","&#10004","[]","0","0","1","","","","","","","",""
"pit-trial","18","189437","0.0-2.0-6.4-0.4","battery-v0.2","","""event"",""trial"",""time""
""fullscreenenter"",""1"",""2983""
","
","
","""event"",""trial"",""time""
""fullscreenenter"",""1"",""2983""
","
","","","-1","","","16","15548","6239","&#9854;","elianto","#FFFFF080","-1","-1","1","&#10004","[]","0","0","1","","","","","","","",""
"pit-instructions","19","314639","0.0-2.0-7.0","battery-v0.2","","""event"",""trial"",""time""
""fullscreenenter"",""1"",""2983""
","
","
","""event"",""trial"",""time""
""fullscreenenter"",""1"",""2983""
","
","","[{""page_index"":0,""viewing_time"":6259.20000000298},{""page_index"":1,""viewing_time"":9022},{""page_index"":2,""viewing_time"":6093.20000000298},{""page_index"":3,""viewing_time"":6500.0999999940395},{""page_index"":4,""viewing_time"":5540.5},{""page_index"":5,""viewing_time"":5209.100000008941},{""page_index"":6,""viewing_time"":5366.29999999702},{""page_index"":7,""viewing_time"":7859},{""page_index"":8,""viewing_time"":8195.29999999702},{""page_index"":9,""viewing_time"":6129.29999999702},{""page_index"":10,""viewing_time"":7004.600000008941},{""page_index"":11,""viewing_time"":6215.70000000298},{""page_index"":12,""viewing_time"":9517.59999999404},{""page_index"":13,""viewing_time"":7633.20000000298},{""page_index"":14,""viewing_time"":7603.29999999702},{""page_index"":15,""viewing_time"":7143.20000000298},{""page_index"":16,""viewing_time"":6857},{""page_index"":17,""viewing_time"":7051.399999991059}]","125200.10000000894","","","","","","","","","","","","","","","","","","","","","","","",""
"pit-trial","20","318949","0.0-2.0-8.0-0.0","battery-v0.2","","""event"",""trial"",""time""
""fullscreenenter"",""1"",""2983""
","
","
","""event"",""trial"",""time""
""fullscreenenter"",""1"",""2983""
","
","","","1455.7000000029802","","","16","15548","6239","&#9776;","elianto","#3366ff99"," "," ","1","+10","[2307.5]","1","0","1","","","","","","","",""
"pit-trial","21","322421","0.0-2.0-8.0-1.0","battery-v0.2","","""event"",""trial"",""time""
""fullscreenenter"",""1"",""2983""
","
","
","""event"",""trial"",""time""
""fullscreenenter"",""1"",""2983""
","
","","","608.6999999880791","","","16","15548","6239","&#9776;","elianto","#3366ff99"," "," ","1","+10","[1461.7000000029802]","1","0","1","","","","","","","",""
"pit-trial","22","325770","0.0-2.0-8.0-2.0","battery-v0.2","","""event"",""trial"",""time""
""fullscreenenter"",""1"",""2983""
","
","
","""event"",""trial"",""time""
""fullscreenenter"",""1"",""2983""
","
","","","490.40000000596046","","","16","15548","6239","&#9776;","elianto","#3366ff99"," "," ","1","+10","[1340.9000000059605]","1","0","1","","","","","","","",""
"pit-trial","23","329171","0.0-2.0-8.0-3.0","battery-v0.2","","""event"",""trial"",""time""
""fullscreenenter"",""1"",""2983""
","
","
","""event"",""trial"",""time""
""fullscreenenter"",""1"",""2983""
","
","","","532.0999999940395","","","16","15548","6239","&#9776;","elianto","#3366ff99"," "," ","1","0","[1392.2000000029802]","1","0","1","","","","","","","",""
"pit-trial","24","332617","0.0-2.0-8.0-4.0","battery-v0.2","","""event"",""trial"",""time""
""fullscreenenter"",""1"",""2983""
","
","
","""event"",""trial"",""time""
""fullscreenenter"",""1"",""2983""
","
","","","572.6000000089407","","","16","15548","6239","&#9776;","elianto","#3366ff99"," "," ","1","+10","[1431.1000000089407]","1","0","1","","","","","","","",""
"pit-trial","25","335980","0.0-2.0-8.1-0.1","battery-v0.2","","""event"",""trial"",""time""
""fullscreenenter"",""1"",""2983""
","
","
","""event"",""trial"",""time""
""fullscreenenter"",""1"",""2983""
","
","","","489.5","","","16","15548","6239","&#9776;","elianto","#3366ff99"," "," ","1","+10","[1353.199999988079]","1","0","1","","","","","","","",""
"pit-trial","26","340294","0.0-2.0-8.1-1.1","battery-v0.2","","""event"",""trial"",""time""
""fullscreenenter"",""1"",""2983""
","
","
","""event"",""trial"",""time""
""fullscreenenter"",""1"",""2983""
","
","","","1451.2000000029802","","","16","15548","6239","&#9776;","elianto","#3366ff99"," "," ","1","+10","[2302.4000000059605]","1","0","1","","","","","","","",""
"pit-trial","27","344354","0.0-2.0-8.1-2.1","battery-v0.2","","""event"",""trial"",""time""
""fullscreenenter"",""1"",""2983""
","
","
","""event"",""trial"",""time""
""fullscreenenter"",""1"",""2983""
","
","","","1200.3999999910593","","","16","15548","6239","&#9776;","elianto","#3366ff99"," "," ","1","+10","[2052.8999999910593]","1","0","1","","","","","","","",""
"pit-trial","28","347884","0.0-2.0-8.1-3.1","battery-v0.2","","""event"",""trial"",""time""
""fullscreenenter"",""1"",""2983""
","
","
","""event"",""trial"",""time""
""fullscreenenter"",""1"",""2983""
","
","","","677.8999999910593","","","16","15548","6239","&#9776;","elianto","#3366ff99"," "," ","1","0","[1528.199999988079]","1","0","1","","","","","","","",""
"pit-trial","29","351260","0.0-2.0-8.1-4.1","battery-v0.2","","""event"",""trial"",""time""
""fullscreenenter"",""1"",""2983""
","
","
","""event"",""trial"",""time""
""fullscreenenter"",""1"",""2983""
","
","","","523.2000000029802","","","16","15548","6239","&#9776;","elianto","#3366ff99"," "," ","1","+10","[1373.7000000029802]","1","0","1","","","","","","","",""
"pit-trial","30","355100","0.0-2.0-8.2-0.2","battery-v0.2","","""event"",""trial"",""time""
""fullscreenenter"",""1"",""2983""
","
","
","""event"",""trial"",""time""
""fullscreenenter"",""1"",""2983""
","
","","","988.8999999910593","","","16","15548","6239","&#9776;","elianto","#3366ff99"," "," ","1","+10","[1839.199999988079]","1","0","1","","","","","","","",""
"pit-trial","31","358693","0.0-2.0-8.2-1.2","battery-v0.2","","""event"",""trial"",""time""
""fullscreenenter"",""1"",""2983""
","
","
","""event"",""trial"",""time""
""fullscreenenter"",""1"",""2983""
","
","","","739","","","16","15548","6239","&#9776;","elianto","#3366ff99"," "," ","1","+10","[1590.2000000029802,2238,2862.2000000029802,3318.2999999970198]","4","0","1","","","","","","","",""
"pit-trial","32","362317","0.0-2.0-8.2-2.2","battery-v0.2","","""event"",""trial"",""time""
""fullscreenenter"",""1"",""2983""
","
","
","""event"",""trial"",""time""
""fullscreenenter"",""1"",""2983""
","
","","","770.1000000089407","","","16","15548","6239","&#9776;","elianto","#3366ff99"," "," ","1","+10","[1621.1000000089407]","1","0","1","","","","","","","",""
"pit-trial","33","366069","0.0-2.0-8.2-3.2","battery-v0.2","","""event"",""trial"",""time""
""fullscreenenter"",""1"",""2983""
","
","
","""event"",""trial"",""time""
""fullscreenenter"",""1"",""2983""
","
","","","899.9000000059605","","","16","15548","6239","&#9776;","elianto","#3366ff99"," "," ","1","0","[1750.1000000089407]","1","0","1","","","","","","","",""
"pit-trial","34","369668","0.0-2.0-8.2-4.2","battery-v0.2","","""event"",""trial"",""time""
""fullscreenenter"",""1"",""2983""
","
","
","""event"",""trial"",""time""
""fullscreenenter"",""1"",""2983""
","
","","","747.1000000089407","","","16","15548","6239","&#9776;","elianto","#3366ff99"," "," ","1","+10","[1597.2999999970198]","1","0","1","","","","","","","",""
"call-function","35","369669","0.0-2.0-9.0","battery-v0.2","","""event"",""trial"",""time""
""fullscreenenter"",""1"",""2983""
","
","
","""event"",""trial"",""time""
""fullscreenenter"",""1"",""2983""
","
","","","","","","","","","","","","","","","","","","","","","","","","","","",""
"pit-instructions","36","408078","0.0-2.0-10.0","battery-v0.2","","""event"",""trial"",""time""
""fullscreenenter"",""1"",""2983""
","
","
","""event"",""trial"",""time""
""fullscreenenter"",""1"",""2983""
","
","","[{""page_index"":0,""viewing_time"":5601.0999999940395},{""page_index"":1,""viewing_time"":6904.800000011921},{""page_index"":2,""viewing_time"":9171},{""page_index"":3,""viewing_time"":8967.5},{""page_index"":4,""viewing_time"":7764.5}]","38409.09999999404","","","","","","","","","","","","","","","","","","","","","","","",""
"pit-trial","37","412946","0.0-2.0-11.0-0.0","battery-v0.2","","""event"",""trial"",""time""
""fullscreenenter"",""1"",""2983""
","
","
","""event"",""trial"",""time""
""fullscreenenter"",""1"",""2983""
","
","","","-1","","","16","15548","6239","&#9761;","elianto","#3366ff99","-1","-1","1","+10","[]","0","0","2","","","","","","","",""
"pit-trial","38","417811","0.0-2.0-11.0-1.0","battery-v0.2","","""event"",""trial"",""time""
""fullscreenenter"",""1"",""2983""
","
","
","""event"",""trial"",""time""
""fullscreenenter"",""1"",""2983""
","
","","","-1","","","16","15548","6239","&#9761;","elianto","#3366ff99","-1","-1","1","+10","[]","0","0","2","","","","","","","",""
"pit-trial","39","422683","0.0-2.0-11.0-2.0","battery-v0.2","","""event"",""trial"",""time""
""fullscreenenter"",""1"",""2983""
","
","
","""event"",""trial"",""time""
""fullscreenenter"",""1"",""2983""
","
","","","-1","","","16","15548","6239","&#9761;","elianto","#3366ff99","-1","-1","1","+10","[]","0","0","2","","","","","","","",""
"pit-trial","40","427550","0.0-2.0-11.0-3.0","battery-v0.2","","""event"",""trial"",""time""
""fullscreenenter"",""1"",""2983""
","
","
","""event"",""trial"",""time""
""fullscreenenter"",""1"",""2983""
","
","","","-1","","","16","15548","6239","&#9761;","elianto","#3366ff99","-1","-1","1","0","[]","0","0","2","","","","","","","",""
"pit-trial","41","432419","0.0-2.0-11.0-4.0","battery-v0.2","","""event"",""trial"",""time""
""fullscreenenter"",""1"",""2983""
","
","
","""event"",""trial"",""time""
""fullscreenenter"",""1"",""2983""
","
","","","-1","","","16","15548","6239","&#9761;","elianto","#3366ff99","-1","-1","1","+10","[]","0","0","2","","","","","","","",""
"pit-trial","42","437289","0.0-2.0-11.1-0.1","battery-v0.2","","""event"",""trial"",""time""
""fullscreenenter"",""1"",""2983""
","
","
","""event"",""trial"",""time""
""fullscreenenter"",""1"",""2983""
","
","","","-1","","","16","15548","6239","&#9761;","elianto","#3366ff99","-1","-1","1","+10","[]","0","0","2","","","","","","","",""
"pit-trial","43","442142","0.0-2.0-11.1-1.1","battery-v0.2","","""event"",""trial"",""time""
""fullscreenenter"",""1"",""2983""
","
","
","""event"",""trial"",""time""
""fullscreenenter"",""1"",""2983""
","
","","","-1","","","16","15548","6239","&#9761;","elianto","#3366ff99","-1","-1","1","+10","[]","0","0","2","","","","","","","",""
"pit-trial","44","446995","0.0-2.0-11.1-2.1","battery-v0.2","","""event"",""trial"",""time""
""fullscreenenter"",""1"",""2983""
","
","
","""event"",""trial"",""time""
""fullscreenenter"",""1"",""2983""
","
","","","-1","","","16","15548","6239","&#9761;","elianto","#3366ff99","-1","-1","1","+10","[]","0","0","2","","","","","","","",""
"pit-trial","45","451847","0.0-2.0-11.1-3.1","battery-v0.2","","""event"",""trial"",""time""
""fullscreenenter"",""1"",""2983""
","
","
","""event"",""trial"",""time""
""fullscreenenter"",""1"",""2983""
","
","","","-1","","","16","15548","6239","&#9761;","elianto","#3366ff99","-1","-1","1","0","[]","0","0","2","","","","","","","",""
"pit-trial","46","456704","0.0-2.0-11.1-4.1","battery-v0.2","","""event"",""trial"",""time""
""fullscreenenter"",""1"",""2983""
","
","
","""event"",""trial"",""time""
""fullscreenenter"",""1"",""2983""
","
","","","-1","","","16","15548","6239","&#9761;","elianto","#3366ff99","-1","-1","1","+10","[]","0","0","2","","","","","","","",""
"pit-trial","47","461558","0.0-2.0-11.2-0.2","battery-v0.2","","""event"",""trial"",""time""
""fullscreenenter"",""1"",""2983""
","
","
","""event"",""trial"",""time""
""fullscreenenter"",""1"",""2983""
","
","","","-1","","","16","15548","6239","&#9761;","elianto","#3366ff99","-1","-1","1","+10","[]","0","0","2","","","","","","","",""
"pit-trial","48","466410","0.0-2.0-11.2-1.2","battery-v0.2","","""event"",""trial"",""time""
""fullscreenenter"",""1"",""2983""
","
","
","""event"",""trial"",""time""
""fullscreenenter"",""1"",""2983""
","
","","","-1","","","16","15548","6239","&#9761;","elianto","#3366ff99","-1","-1","1","+10","[]","0","0","2","","","","","","","",""
"pit-trial","49","471263","0.0-2.0-11.2-2.2","battery-v0.2","","""event"",""trial"",""time""
""fullscreenenter"",""1"",""2983""
","
","
","""event"",""trial"",""time""
""fullscreenenter"",""1"",""2983""
","
","","","-1","","","16","15548","6239","&#9761;","elianto","#3366ff99","-1","-1","1","+10","[]","0","0","2","","","","","","","",""
"pit-trial","50","476117","0.0-2.0-11.2-3.2","battery-v0.2","","""event"",""trial"",""time""
""fullscreenenter"",""1"",""2983""
","
","
","""event"",""trial"",""time""
""fullscreenenter"",""1"",""2983""
","
","","","-1","","","16","15548","6239","&#9761;","elianto","#3366ff99","-1","-1","1","0","[]","0","0","2","","","","","","","",""
"pit-trial","51","480971","0.0-2.0-11.2-4.2","battery-v0.2","","""event"",""trial"",""time""
""fullscreenenter"",""1"",""2983""
","
","
","""event"",""trial"",""time""
""fullscreenenter"",""1"",""2983""
","
","","","-1","","","16","15548","6239","&#9761;","elianto","#3366ff99","-1","-1","1","+10","[]","0","0","2","","","","","","","",""
"pit-trial","52","485824","0.0-2.0-11.3-0.3","battery-v0.2","","""event"",""trial"",""time""
""fullscreenenter"",""1"",""2983""
","
","
","""event"",""trial"",""time""
""fullscreenenter"",""1"",""2983""
","
","","","-1","","","16","15548","6239","&#9761;","elianto","#3366ff99","-1","-1","1","+10","[]","0","0","2","","","","","","","",""
"pit-trial","53","490677","0.0-2.0-11.3-1.3","battery-v0.2","","""event"",""trial"",""time""
""fullscreenenter"",""1"",""2983""
","
","
","""event"",""trial"",""time""
""fullscreenenter"",""1"",""2983""
","
","","","-1","","","16","15548","6239","&#9761;","elianto","#3366ff99","-1","-1","1","+10","[]","0","0","2","","","","","","","",""
"pit-trial","54","495530","0.0-2.0-11.3-2.3","battery-v0.2","","""event"",""trial"",""time""
""fullscreenenter"",""1"",""2983""
","
","
","""event"",""trial"",""time""
""fullscreenenter"",""1"",""2983""
","
","","","-1","","","16","15548","6239","&#9761;","elianto","#3366ff99","-1","-1","1","+10","[]","0","0","2","","","","","","","",""
"pit-trial","55","500383","0.0-2.0-11.3-3.3","battery-v0.2","","""event"",""trial"",""time""
""fullscreenenter"",""1"",""2983""
","
","
","""event"",""trial"",""time""
""fullscreenenter"",""1"",""2983""
","
","","","-1","","","16","15548","6239","&#9761;","elianto","#3366ff99","-1","-1","1","0","[]","0","0","2","","","","","","","",""
"pit-trial","56","505236","0.0-2.0-11.3-4.3","battery-v0.2","","""event"",""trial"",""time""
""fullscreenenter"",""1"",""2983""
","
","
","""event"",""trial"",""time""
""fullscreenenter"",""1"",""2983""
","
","","","-1","","","16","15548","6239","&#9761;","elianto","#3366ff99","-1","-1","1","+10","[]","0","0","2","","","","","","","",""
"call-function","57","505237","0.0-2.0-12.0","battery-v0.2","","""event"",""trial"",""time""
""fullscreenenter"",""1"",""2983""
","
","
","""event"",""trial"",""time""
""fullscreenenter"",""1"",""2983""
","
","","","","","","","","","","","","","","","","","","","","","","","","","","",""
"pit-instructions","58","548708","0.0-2.0-13.0","battery-v0.2","","""event"",""trial"",""time""
""fullscreenenter"",""1"",""2983""
","
","
","""event"",""trial"",""time""
""fullscreenenter"",""1"",""2983""
","
","","[{""page_index"":0,""viewing_time"":5537.70000000298},{""page_index"":1,""viewing_time"":6880.0999999940395},{""page_index"":2,""viewing_time"":3216.4000000059605},{""page_index"":3,""viewing_time"":23025.5},{""page_index"":4,""viewing_time"":4810.5}]","43470.5","","","","","","","","","","","","","","","","","","","","","","","",""
"pit-trial","59","552619","0.0-2.0-14.0-0.0","battery-v0.2","","""event"",""trial"",""time""
""fullscreenenter"",""1"",""2983""
","
","
","""event"",""trial"",""time""
""fullscreenenter"",""1"",""2983""
","
","","","1048.7999999970198","","","16","15548","6239","&#9826;","elianto","#f73b6a7A","-1"," ","0","-10","[1905.9000000059605]","1","0","3","","","","","","","",""
"pit-trial","60","557491","0.0-2.0-14.0-1.0","battery-v0.2","","""event"",""trial"",""time""
""fullscreenenter"",""1"",""2983""
","
","
","""event"",""trial"",""time""
""fullscreenenter"",""1"",""2983""
","
","","","-1","","","16","15548","6239","&#9826;","elianto","#f73b6a7A","-1","-1","1","0","[]","0","0","3","","","","","","","",""
"pit-trial","61","562366","0.0-2.0-14.0-2.0","battery-v0.2","","""event"",""trial"",""time""
""fullscreenenter"",""1"",""2983""
","
","
","""event"",""trial"",""time""
""fullscreenenter"",""1"",""2983""
","
","","","-1","","","16","15548","6239","&#9826;","elianto","#f73b6a7A","-1","-1","1","0","[]","0","0","3","","","","","","","",""
"pit-trial","62","567244","0.0-2.0-14.0-3.0","battery-v0.2","","""event"",""trial"",""time""
""fullscreenenter"",""1"",""2983""
","
","
","""event"",""trial"",""time""
""fullscreenenter"",""1"",""2983""
","
","","","-1","","","16","15548","6239","&#9826;","elianto","#f73b6a7A","-1","-1","1","-10","[]","0","0","3","","","","","","","",""
"pit-trial","63","572119","0.0-2.0-14.0-4.0","battery-v0.2","","""event"",""trial"",""time""
""fullscreenenter"",""1"",""2983""
","
","
","""event"",""trial"",""time""
""fullscreenenter"",""1"",""2983""
","
","","","-1","","","16","15548","6239","&#9826;","elianto","#f73b6a7A","-1","-1","1","0","[]","0","0","3","","","","","","","",""
"pit-trial","64","576985","0.0-2.0-14.1-0.1","battery-v0.2","","""event"",""trial"",""time""
""fullscreenenter"",""1"",""2983""
","
","
","""event"",""trial"",""time""
""fullscreenenter"",""1"",""2983""
","
","","","-1","","","16","15548","6239","&#9826;","elianto","#f73b6a7A","-1","-1","1","0","[]","0","0","3","","","","","","","",""
"pit-trial","65","581840","0.0-2.0-14.1-1.1","battery-v0.2","","""event"",""trial"",""time""
""fullscreenenter"",""1"",""2983""
","
","
","""event"",""trial"",""time""
""fullscreenenter"",""1"",""2983""
","
","","","-1","","","16","15548","6239","&#9826;","elianto","#f73b6a7A","-1","-1","1","0","[]","0","0","3","","","","","","","",""
"pit-trial","66","586693","0.0-2.0-14.1-2.1","battery-v0.2","","""event"",""trial"",""time""
""fullscreenenter"",""1"",""2983""
","
","
","""event"",""trial"",""time""
""fullscreenenter"",""1"",""2983""
","
","","","-1","","","16","15548","6239","&#9826;","elianto","#f73b6a7A","-1","-1","1","0","[]","0","0","3","","","","","","","",""
"pit-trial","67","591546","0.0-2.0-14.1-3.1","battery-v0.2","","""event"",""trial"",""time""
""fullscreenenter"",""1"",""2983""
","
","
","""event"",""trial"",""time""
""fullscreenenter"",""1"",""2983""
","
","","","-1","","","16","15548","6239","&#9826;","elianto","#f73b6a7A","-1","-1","1","-10","[]","0","0","3","","","","","","","",""
"pit-trial","68","596400","0.0-2.0-14.1-4.1","battery-v0.2","","""event"",""trial"",""time""
""fullscreenenter"",""1"",""2983""
","
","
","""event"",""trial"",""time""
""fullscreenenter"",""1"",""2983""
","
","","","-1","","","16","15548","6239","&#9826;","elianto","#f73b6a7A","-1","-1","1","0","[]","0","0","3","","","","","","","",""
"pit-trial","69","601254","0.0-2.0-14.2-0.2","battery-v0.2","","""event"",""trial"",""time""
""fullscreenenter"",""1"",""2983""
","
","
","""event"",""trial"",""time""
""fullscreenenter"",""1"",""2983""
","
","","","-1","","","16","15548","6239","&#9826;","elianto","#f73b6a7A","-1","-1","1","0","[]","0","0","3","","","","","","","",""
"pit-trial","70","606106","0.0-2.0-14.2-1.2","battery-v0.2","","""event"",""trial"",""time""
""fullscreenenter"",""1"",""2983""
","
","
","""event"",""trial"",""time""
""fullscreenenter"",""1"",""2983""
","
","","","-1","","","16","15548","6239","&#9826;","elianto","#f73b6a7A","-1","-1","1","0","[]","0","0","3","","","","","","","",""
"pit-trial","71","610959","0.0-2.0-14.2-2.2","battery-v0.2","","""event"",""trial"",""time""
""fullscreenenter"",""1"",""2983""
","
","
","""event"",""trial"",""time""
""fullscreenenter"",""1"",""2983""
","
","","","-1","","","16","15548","6239","&#9826;","elianto","#f73b6a7A","-1","-1","1","0","[]","0","0","3","","","","","","","",""
"pit-trial","72","615812","0.0-2.0-14.2-3.2","battery-v0.2","","""event"",""trial"",""time""
""fullscreenenter"",""1"",""2983""
","
","
","""event"",""trial"",""time""
""fullscreenenter"",""1"",""2983""
","
","","","-1","","","16","15548","6239","&#9826;","elianto","#f73b6a7A","-1","-1","1","-10","[]","0","0","3","","","","","","","",""
"pit-trial","73","620664","0.0-2.0-14.2-4.2","battery-v0.2","","""event"",""trial"",""time""
""fullscreenenter"",""1"",""2983""
","
","
","""event"",""trial"",""time""
""fullscreenenter"",""1"",""2983""
","
","","","-1","","","16","15548","6239","&#9826;","elianto","#f73b6a7A","-1","-1","1","0","[]","0","0","3","","","","","","","",""
"pit-trial","74","625517","0.0-2.0-14.3-0.3","battery-v0.2","","""event"",""trial"",""time""
""fullscreenenter"",""1"",""2983""
","
","
","""event"",""trial"",""time""
""fullscreenenter"",""1"",""2983""
","
","","","-1","","","16","15548","6239","&#9826;","elianto","#f73b6a7A","-1","-1","1","0","[]","0","0","3","","","","","","","",""
"pit-trial","75","630369","0.0-2.0-14.3-1.3","battery-v0.2","","""event"",""trial"",""time""
""fullscreenenter"",""1"",""2983""
","
","
","""event"",""trial"",""time""
""fullscreenenter"",""1"",""2983""
","
","","","-1","","","16","15548","6239","&#9826;","elianto","#f73b6a7A","-1","-1","1","0","[]","0","0","3","","","","","","","",""
"pit-trial","76","635237","0.0-2.0-14.3-2.3","battery-v0.2","","""event"",""trial"",""time""
""fullscreenenter"",""1"",""2983""
","
","
","""event"",""trial"",""time""
""fullscreenenter"",""1"",""2983""
","
","","","-1","","","16","15548","6239","&#9826;","elianto","#f73b6a7A","-1","-1","1","0","[]","0","0","3","","","","","","","",""
"pit-trial","77","640090","0.0-2.0-14.3-3.3","battery-v0.2","","""event"",""trial"",""time""
""fullscreenenter"",""1"",""2983""
","
","
","""event"",""trial"",""time""
""fullscreenenter"",""1"",""2983""
","
","","","-1","","","16","15548","6239","&#9826;","elianto","#f73b6a7A","-1","-1","1","-10","[]","0","0","3","","","","","","","",""
"pit-trial","78","644943","0.0-2.0-14.3-4.3","battery-v0.2","","""event"",""trial"",""time""
""fullscreenenter"",""1"",""2983""
","
","
","""event"",""trial"",""time""
""fullscreenenter"",""1"",""2983""
","
","","","-1","","","16","15548","6239","&#9826;","elianto","#f73b6a7A","-1","-1","1","0","[]","0","0","3","","","","","","","",""
"call-function","79","644944","0.0-2.0-15.0","battery-v0.2","","""event"",""trial"",""time""
""fullscreenenter"",""1"",""2983""
","
","
","""event"",""trial"",""time""
""fullscreenenter"",""1"",""2983""
","
","","","","","","","","","","","","","","","","","","","","","","","","","","",""
"pit-instructions","80","677389","0.0-2.0-16.0","battery-v0.2","","""event"",""trial"",""time""
""fullscreenenter"",""1"",""2983""
","
","
","""event"",""trial"",""time""
""fullscreenenter"",""1"",""2983""
","
","","[{""page_index"":0,""viewing_time"":7816.100000008941},{""page_index"":1,""viewing_time"":14018.29999999702},{""page_index"":2,""viewing_time"":5369},{""page_index"":3,""viewing_time"":5240.70000000298}]","32444.40000000596","","","","","","","","","","","","","","","","","","","","","","","",""
"pit-trial","81","680953","0.0-2.0-17.0-0.0","battery-v0.2","","""event"",""trial"",""time""
""fullscreenenter"",""1"",""2983""
","
","
","""event"",""trial"",""time""
""fullscreenenter"",""1"",""2983""
","
","","","695.7000000029802","","","16","15548","6239","&#9789;","elianto","#f73b6a7A"," "," ","1","0","[1554.5999999940395]","1","0","4","","","","","","","",""
"pit-trial","82","685816","0.0-2.0-17.0-1.0","battery-v0.2","","""event"",""trial"",""time""
""fullscreenenter"",""1"",""2983""
","
","
","""event"",""trial"",""time""
""fullscreenenter"",""1"",""2983""
","
","","","-1","","","16","15548","6239","&#9789;","elianto","#f73b6a7A"," ","-1","0","-10","[]","0","0","4","","","","","","","",""
"pit-trial","83","689336","0.0-2.0-17.0-2.0","battery-v0.2","","""event"",""trial"",""time""
""fullscreenenter"",""1"",""2983""
","
","
","""event"",""trial"",""time""
""fullscreenenter"",""1"",""2983""
","
","","","652.8000000119209","","","16","15548","6239","&#9789;","elianto","#f73b6a7A"," "," ","1","0","[1503]","1","0","4","","","","","","","",""
"pit-trial","84","692712","0.0-2.0-17.0-3.0","battery-v0.2","","""event"",""trial"",""time""
""fullscreenenter"",""1"",""2983""
","
","
","""event"",""trial"",""time""
""fullscreenenter"",""1"",""2983""
","
","","","513.4000000059605","","","16","15548","6239","&#9789;","elianto","#f73b6a7A"," "," ","1","-10","[1374.800000011921]","1","0","4","","","","","","","",""
"pit-trial","85","696215","0.0-2.0-17.0-4.0","battery-v0.2","","""event"",""trial"",""time""
""fullscreenenter"",""1"",""2983""
","
","
","""event"",""trial"",""time""
""fullscreenenter"",""1"",""2983""
","
","","","641.8999999910593","","","16","15548","6239","&#9789;","elianto","#f73b6a7A"," "," ","1","0","[1494.2000000029802,2159.2000000029802]","2","0","4","","","","","","","",""
"pit-trial","86","701077","0.0-2.0-17.1-0.1","battery-v0.2","","""event"",""trial"",""time""
""fullscreenenter"",""1"",""2983""
","
","
","""event"",""trial"",""time""
""fullscreenenter"",""1"",""2983""
","
","","","-1","","","16","15548","6239","&#9789;","elianto","#f73b6a7A"," ","-1","0","-10","[]","0","0","4","","","","","","","",""
"pit-trial","87","705955","0.0-2.0-17.1-1.1","battery-v0.2","","""event"",""trial"",""time""
""fullscreenenter"",""1"",""2983""
","
","
","""event"",""trial"",""time""
""fullscreenenter"",""1"",""2983""
","
","","","-1","","","16","15548","6239","&#9789;","elianto","#f73b6a7A"," ","-1","0","-10","[]","0","0","4","","","","","","","",""
"pit-trial","88","709329","0.0-2.0-17.1-2.1","battery-v0.2","","""event"",""trial"",""time""
""fullscreenenter"",""1"",""2983""
","
","
","""event"",""trial"",""time""
""fullscreenenter"",""1"",""2983""
","
","","","514.6999999880791","","","16","15548","6239","&#9789;","elianto","#f73b6a7A"," "," ","1","0","[1372.5]","1","0","4","","","","","","","",""
"pit-trial","89","712649","0.0-2.0-17.1-3.1","battery-v0.2","","""event"",""trial"",""time""
""fullscreenenter"",""1"",""2983""
","
","
","""event"",""trial"",""time""
""fullscreenenter"",""1"",""2983""
","
","","","467.69999998807907","","","16","15548","6239","&#9789;","elianto","#f73b6a7A"," "," ","1","-10","[1318.0999999940395]","1","0","4","","","","","","","",""
"pit-trial","90","716017","0.0-2.0-17.1-4.1","battery-v0.2","","""event"",""trial"",""time""
""fullscreenenter"",""1"",""2983""
","
","
","""event"",""trial"",""time""
""fullscreenenter"",""1"",""2983""
","
","","","515.7999999970198","","","16","15548","6239","&#9789;","elianto","#f73b6a7A"," "," ","1","0","[1365.7999999970198,3230.4000000059605]","2","0","4","","","","","","","",""
"pit-trial","91","720869","0.0-2.0-17.2-0.2","battery-v0.2","","""event"",""trial"",""time""
""fullscreenenter"",""1"",""2983""
","
","
","""event"",""trial"",""time""
""fullscreenenter"",""1"",""2983""
","
","","","-1","","","16","15548","6239","&#9789;","elianto","#f73b6a7A"," ","-1","0","-10","[]","0","0","4","","","","","","","",""
"pit-trial","92","724137","0.0-2.0-17.2-1.2","battery-v0.2","","""event"",""trial"",""time""
""fullscreenenter"",""1"",""2983""
","
","
","""event"",""trial"",""time""
""fullscreenenter"",""1"",""2983""
","
","","","414.90000000596046","","","16","15548","6239","&#9789;","elianto","#f73b6a7A"," "," ","1","0","[1265.4000000059605]","1","0","4","","","","","","","",""
"pit-trial","93","727993","0.0-2.0-17.2-2.2","battery-v0.2","","""event"",""trial"",""time""
""fullscreenenter"",""1"",""2983""
","
","
","""event"",""trial"",""time""
""fullscreenenter"",""1"",""2983""
","
","","","1003.7999999970198","","","16","15548","6239","&#9789;","elianto","#f73b6a7A"," "," ","1","0","[1854.5]","1","0","4","","","","","","","",""
"pit-trial","94","731649","0.0-2.0-17.2-3.2","battery-v0.2","","""event"",""trial"",""time""
""fullscreenenter"",""1"",""2983""
","
","
","""event"",""trial"",""time""
""fullscreenenter"",""1"",""2983""
","
","","","803.5999999940395","","","16","15548","6239","&#9789;","elianto","#f73b6a7A"," "," ","1","-10","[1653.9000000059605]","1","0","4","","","","","","","",""
"pit-trial","95","735257","0.0-2.0-17.2-4.2","battery-v0.2","","""event"",""trial"",""time""
""fullscreenenter"",""1"",""2983""
","
","
","""event"",""trial"",""time""
""fullscreenenter"",""1"",""2983""
","
","","","756.0999999940395","","","16","15548","6239","&#9789;","elianto","#f73b6a7A"," "," ","1","0","[1606.4000000059605]","1","0","4","","","","","","","",""
"pit-trial","96","738568","0.0-2.0-17.3-0.3","battery-v0.2","","""event"",""trial"",""time""
""fullscreenenter"",""1"",""2983""
","
","
","""event"",""trial"",""time""
""fullscreenenter"",""1"",""2983""
","
","","","458.69999998807907","","","16","15548","6239","&#9789;","elianto","#f73b6a7A"," "," ","1","0","[1309.2999999970198]","1","0","4","","","","","","","",""
"pit-trial","97","742083","0.0-2.0-17.3-1.3","battery-v0.2","","""event"",""trial"",""time""
""fullscreenenter"",""1"",""2983""
","
","
","""event"",""trial"",""time""
""fullscreenenter"",""1"",""2983""
","
","","","661.2000000029802","","","16","15548","6239","&#9789;","elianto","#f73b6a7A"," "," ","1","0","[1511.2999999970198]","1","0","4","","","","","","","",""
"pit-trial","98","745370","0.0-2.0-17.3-2.3","battery-v0.2","","""event"",""trial"",""time""
""fullscreenenter"",""1"",""2983""
","
","
","""event"",""trial"",""time""
""fullscreenenter"",""1"",""2983""
","
","","","434.80000001192093","","","16","15548","6239","&#9789;","elianto","#f73b6a7A"," "," ","1","0","[1284.8999999910593]","1","0","4","","","","","","","",""
"pit-trial","99","748538","0.0-2.0-17.3-3.3","battery-v0.2","","""event"",""trial"",""time""
""fullscreenenter"",""1"",""2983""
","
","
","""event"",""trial"",""time""
""fullscreenenter"",""1"",""2983""
","
","","","315","","","16","15548","6239","&#9789;","elianto","#f73b6a7A"," "," ","1","-10","[1165.800000011921]","1","0","4","","","","","","","",""
"pit-trial","100","751937","0.0-2.0-17.3-4.3","battery-v0.2","","""event"",""trial"",""time""
""fullscreenenter"",""1"",""2983""
","
","
","""event"",""trial"",""time""
""fullscreenenter"",""1"",""2983""
","
","","","547.5","","","16","15548","6239","&#9789;","elianto","#f73b6a7A"," "," ","1","0","[1398.4000000059605]","1","0","4","","","","","","","",""
"call-function","101","751939","0.0-2.0-18.0","battery-v0.2","","""event"",""trial"",""time""
""fullscreenenter"",""1"",""2983""
","
","
","""event"",""trial"",""time""
""fullscreenenter"",""1"",""2983""
","
","","","","","","","","","","","","","","","","","","","","","","","","","","",""
"pit-instructions","102","823352","0.0-2.0-19.0","battery-v0.2","","""event"",""trial"",""time""
""fullscreenenter"",""1"",""2983""
","
","
","""event"",""trial"",""time""
""fullscreenenter"",""1"",""2983""
","
","","[{""page_index"":0,""viewing_time"":6229.4000000059605},{""page_index"":1,""viewing_time"":4861.29999999702},{""page_index"":2,""viewing_time"":15695},{""page_index"":3,""viewing_time"":6739.9000000059605},{""page_index"":4,""viewing_time"":8703.29999999702},{""page_index"":5,""viewing_time"":9198.29999999702},{""page_index"":6,""viewing_time"":7575.79999999702},{""page_index"":7,""viewing_time"":7789.9000000059605},{""page_index"":8,""viewing_time"":4620.29999999702}]","71413.40000000596","","","","","","","","","","","","","","","","","","","","","","","",""
"pit-comprehension","103","827559","0.0-2.0-20.0-0.0","battery-v0.2","","""event"",""trial"",""time""
""fullscreenenter"",""1"",""2983""
","
","
","""event"",""trial"",""time""
""fullscreenenter"",""1"",""2983""
","
","","","4205.79999999702","[""SPACE""]","0","16","15548","6239","","","","","","","","","","","","","","","","","","",""
"pit-instructions","104","859572","0.0-2.0-20.0-1.0","battery-v0.2","","""event"",""trial"",""time""
""fullscreenenter"",""1"",""2983""
","
","
","""event"",""trial"",""time""
""fullscreenenter"",""1"",""2983""
","
","","[{""page_index"":0,""viewing_time"":31993.89999999106}]","31994.09999999404","","","","","","","","","","","","","","","","","","","","","","","",""
"pit-comprehension","105","867175","0.0-2.0-21.0-0.0","battery-v0.2","","""event"",""trial"",""time""
""fullscreenenter"",""1"",""2983""
","
","
","""event"",""trial"",""time""
""fullscreenenter"",""1"",""2983""
","
","","","7600.79999999702","[""10""]","0","16","15548","6239","","","","","","","","","","","","","","","","","","",""
"pit-instructions","106","869408","0.0-2.0-21.0-1.0","battery-v0.2","","""event"",""trial"",""time""
""fullscreenenter"",""1"",""2983""
","
","
","""event"",""trial"",""time""
""fullscreenenter"",""1"",""2983""
","
","","[{""page_index"":0,""viewing_time"":2213.2000000029802}]","2213.4000000059605","","","","","","","","","","","","","","","","","","","","","","","",""
"pit-comprehension","107","876433","0.0-2.0-22.0-0.0","battery-v0.2","","""event"",""trial"",""time""
""fullscreenenter"",""1"",""2983""
","
","
","""event"",""trial"",""time""
""fullscreenenter"",""1"",""2983""
","
","","","7023.20000000298","[""0""]","0","16","15548","6239","","","","","","","","","","","","","","","","","","",""
"pit-instructions","108","879220","0.0-2.0-22.0-1.0","battery-v0.2","","""event"",""trial"",""time""
""fullscreenenter"",""1"",""2983""
","
","
","""event"",""trial"",""time""
""fullscreenenter"",""1"",""2983""
","
","","[{""page_index"":0,""viewing_time"":2767.5999999940395}]","2767.7999999970198","","","","","","","","","","","","","","","","","","","","","","","",""
"pit-comprehension","109","887574","0.0-2.0-23.0-0.0","battery-v0.2","","""event"",""trial"",""time""
""fullscreenenter"",""1"",""2983""
","
","
","""event"",""trial"",""time""
""fullscreenenter"",""1"",""2983""
","
","","","8351.79999999702","[""True""]","0","16","15548","6239","","","","","","","","","","","","","","","","","","",""
"pit-instructions","110","893600","0.0-2.0-23.0-1.0","battery-v0.2","","""event"",""trial"",""time""
""fullscreenenter"",""1"",""2983""
","
","
","""event"",""trial"",""time""
""fullscreenenter"",""1"",""2983""
","
","","[{""page_index"":0,""viewing_time"":6005.800000011921}]","6006","","","","","","","","","","","","","","","","","","","","","","","",""
"pit-comprehension","111","901234","0.0-2.0-24.0-0.0","battery-v0.2","","""event"",""trial"",""time""
""fullscreenenter"",""1"",""2983""
","
","
","""event"",""trial"",""time""
""fullscreenenter"",""1"",""2983""
","
","","","7632.0999999940395","[""True""]","0","16","15548","6239","","","","","","","","","","","","","","","","","","",""
"pit-instructions","112","904238","0.0-2.0-24.0-1.0","battery-v0.2","","""event"",""trial"",""time""
""fullscreenenter"",""1"",""2983""
","
","
","""event"",""trial"",""time""
""fullscreenenter"",""1"",""2983""
","
","","[{""page_index"":0,""viewing_time"":2983.5}]","2983.5999999940395","","","","","","","","","","","","","","","","","","","","","","","",""
"pit-comprehension","113","910664","0.0-2.0-25.0-0.0","battery-v0.2","","""event"",""trial"",""time""
""fullscreenenter"",""1"",""2983""
","
","
","""event"",""trial"",""time""
""fullscreenenter"",""1"",""2983""
","
","","","6424.399999991059","[""True""]","0","16","15548","6239","","","","","","","","","","","","","","","","","","",""
"pit-instructions","114","915705","0.0-2.0-25.0-1.0","battery-v0.2","","""event"",""trial"",""time""
""fullscreenenter"",""1"",""2983""
","
","
","""event"",""trial"",""time""
""fullscreenenter"",""1"",""2983""
","
","","[{""page_index"":0,""viewing_time"":5019.79999999702}]","5020","","","","","","","","","","","","","","","","","","","","","","","",""
"pit-comprehension","115","920847","0.0-2.0-26.0-0.0","battery-v0.2","","""event"",""trial"",""time""
""fullscreenenter"",""1"",""2983""
","
","
","""event"",""trial"",""time""
""fullscreenenter"",""1"",""2983""
","
","","","5139.600000008941","[""False""]","0","16","15548","6239","","","","","","","","","","","","","","","","","","",""
"pit-instructions","116","926977","0.0-2.0-26.0-1.0","battery-v0.2","","""event"",""trial"",""time""
""fullscreenenter"",""1"",""2983""
","
","
","""event"",""trial"",""time""
""fullscreenenter"",""1"",""2983""
","
","","[{""page_index"":0,""viewing_time"":6109.399999991059}]","6109.5999999940395","","","","","","","","","","","","","","","","","","","","","","","",""
"pit-instructions","117","943138","0.0-3.0","battery-v0.2","","""event"",""trial"",""time""
""fullscreenenter"",""1"",""2983""
","
","
","""event"",""trial"",""time""
""fullscreenenter"",""1"",""2983""
","
","","[{""page_index"":0,""viewing_time"":3501.8999999910593},{""page_index"":1,""viewing_time"":5912.600000008941},{""page_index"":2,""viewing_time"":6745.5}]","16160.199999988079","","","","","","","","","","","","","","","","","","","","","","","",""
"pit-trial","118","947308","0.0-4.0","battery-v0.2","","""event"",""trial"",""time""
""fullscreenenter"",""1"",""2983""
","
","
","""event"",""trial"",""time""
""fullscreenenter"",""1"",""2983""
","
","","","1315.4000000059605","","","16","15548","6239","&#9730;","elianto","#3366ff99"," "," ","1","0","[2167.3999999910593]","1","1","","","15548","1","1","1","win","go","1"
"pit-trial","119","951182","0.0-5.0","battery-v0.2","","""event"",""trial"",""time""
""fullscreenenter"",""1"",""2983""
","
","
","""event"",""trial"",""time""
""fullscreenenter"",""1"",""2983""
","
","","","1015.7000000029802","","","16","15548","6239","&#9728;","elianto","#f73b6a7A","-1"," ","0","-10","[1870]","1","1","","","15548","2","0","4","lose","no-go","0"
"pit-trial","120","956052","0.0-6.0","battery-v0.2","","""event"",""trial"",""time""
""fullscreenenter"",""1"",""2983""
","
","
","""event"",""trial"",""time""
""fullscreenenter"",""1"",""2983""
","
","","","-1","","","16","15548","6239","&#9752;","elianto","#f73b6a7A"," ","-1","0","-10","[]","0","1","","","15548","3","3","3","lose","go","0"
"pit-trial","121","960124","0.0-7.0","battery-v0.2","","""event"",""trial"",""time""
""fullscreenenter"",""1"",""2983""
","
","
","""event"",""trial"",""time""
""fullscreenenter"",""1"",""2983""
","
","","","1206.9000000059605","","","16","15548","6239","&#9733;","elianto","#3366ff99","-1"," ","0","0","[2061.9000000059605]","1","1","","","15548","4","2","2","win","no-go","0"
"pit-trial","122","963790","0.0-8.0","battery-v0.2","","""event"",""trial"",""time""
""fullscreenenter"",""1"",""2983""
","
","
","""event"",""trial"",""time""
""fullscreenenter"",""1"",""2983""
","
","","","797.2000000029802","","","16","15548","6239","&#9730;","elianto","#3366ff99"," "," ","1","+10","[1655.2000000029802]","1","1","","","15548","5","1","1","win","go","0"
"pit-trial","123","968653","0.0-9.0","battery-v0.2","","""event"",""trial"",""time""
""fullscreenenter"",""1"",""2983""
","
","
","""event"",""trial"",""time""
""fullscreenenter"",""1"",""2983""
","
","","","-1","","","16","15548","6239","&#9733;","elianto","#3366ff99","-1","-1","1","+10","[]","0","1","","","15548","6","2","2","win","no-go","0"
"pit-trial","124","972069","0.0-10.0","battery-v0.2","","""event"",""trial"",""time""
""fullscreenenter"",""1"",""2983""
","
","
","""event"",""trial"",""time""
""fullscreenenter"",""1"",""2983""
","
","","","552.4000000059605","","","16","15548","6239","&#9728;","elianto","#f73b6a7A","-1"," ","0","-10","[1406]","1","1","","","15548","7","0","4","lose","no-go","0"
"pit-trial","125","975581","0.0-11.0","battery-v0.2","","""event"",""trial"",""time""
""fullscreenenter"",""1"",""2983""
","
","
","""event"",""trial"",""time""
""fullscreenenter"",""1"",""2983""
","
","","","655.9000000059605","","","16","15548","6239","&#9752;","elianto","#f73b6a7A"," "," ","1","0","[1510.1000000089407]","1","1","","","15548","8","3","3","lose","go","0"
"pit-trial","126","980434","0.0-12.0","battery-v0.2","","""event"",""trial"",""time""
""fullscreenenter"",""1"",""2983""
","
","
","""event"",""trial"",""time""
""fullscreenenter"",""1"",""2983""
","
","","","-1","","","16","15548","6239","&#9728;","elianto","#f73b6a7A","-1","-1","1","-10","[]","0","1","","","15548","9","0","4","lose","no-go","1"
"pit-trial","127","984117","0.0-13.0","battery-v0.2","","""event"",""trial"",""time""
""fullscreenenter"",""1"",""2983""
","
","
","""event"",""trial"",""time""
""fullscreenenter"",""1"",""2983""
","
","","","830.5","","","16","15548","6239","&#9730;","elianto","#3366ff99"," "," ","1","+10","[1681]","1","1","","","15548","10","1","1","win","go","0"
"pit-trial","128","988971","0.0-14.0","battery-v0.2","","""event"",""trial"",""time""
""fullscreenenter"",""1"",""2983""
","
","
","""event"",""trial"",""time""
""fullscreenenter"",""1"",""2983""
","
","","","-1","","","16","15548","6239","&#9752;","elianto","#f73b6a7A"," ","-1","0","0","[]","0","1","","","15548","11","3","3","lose","go","1"
"pit-trial","129","993823","0.0-15.0","battery-v0.2","","""event"",""trial"",""time""
""fullscreenenter"",""1"",""2983""
","
","
","""event"",""trial"",""time""
""fullscreenenter"",""1"",""2983""
","
","","","-1","","","16","15548","6239","&#9733;","elianto","#3366ff99","-1","-1","1","+10","[]","0","1","","","15548","12","2","2","win","no-go","0"
"pit-trial","130","998686","0.0-16.0","battery-v0.2","","""event"",""trial"",""time""
""fullscreenenter"",""1"",""2983""
","
","
","""event"",""trial"",""time""
""fullscreenenter"",""1"",""2983""
","
","","","-1","","","16","15548","6239","&#9733;","elianto","#3366ff99","-1","-1","1","+10","[]","0","1","","","15548","13","2","2","win","no-go","0"
"pit-trial","131","1003539","0.0-17.0","battery-v0.2","","""event"",""trial"",""time""
""fullscreenenter"",""1"",""2983""
","
","
","""event"",""trial"",""time""
""fullscreenenter"",""1"",""2983""
","
","","","-1","","","16","15548","6239","&#9728;","elianto","#f73b6a7A","-1","-1","1","-10","[]","0","1","","","15548","14","0","4","lose","no-go","1"
"pit-trial","132","1008393","0.0-18.0","battery-v0.2","","""event"",""trial"",""time""
""fullscreenenter"",""1"",""2983""
","
","
","""event"",""trial"",""time""
""fullscreenenter"",""1"",""2983""
","
","","","-1","","","16","15548","6239","&#9730;","elianto","#3366ff99"," ","-1","0","0","[]","0","1","","","15548","15","1","1","win","go","0"
"pit-trial","133","1013246","0.0-19.0","battery-v0.2","","""event"",""trial"",""time""
""fullscreenenter"",""1"",""2983""
","
","
","""event"",""trial"",""time""
""fullscreenenter"",""1"",""2983""
","
","","","-1","","","16","15548","6239","&#9752;","elianto","#f73b6a7A"," ","-1","0","-10","[]","0","1","","","15548","16","3","3","lose","go","0"
"pit-trial","134","1018099","0.0-20.0","battery-v0.2","","""event"",""trial"",""time""
""fullscreenenter"",""1"",""2983""
","
","
","""event"",""trial"",""time""
""fullscreenenter"",""1"",""2983""
","
","","","-1","","","16","15548","6239","&#9728;","elianto","#f73b6a7A","-1","-1","1","0","[]","0","1","","","15548","17","0","4","lose","no-go","0"
"pit-trial","135","1021671","0.0-21.0","battery-v0.2","","""event"",""trial"",""time""
""fullscreenenter"",""1"",""2983""
","
","
","""event"",""trial"",""time""
""fullscreenenter"",""1"",""2983""
","
","","","719.2999999970198","","","16","15548","6239","&#9752;","elianto","#f73b6a7A"," "," ","1","0","[1569.5]","1","1","","","15548","18","3","3","lose","go","0"
"pit-trial","136","1026524","0.0-22.0","battery-v0.2","","""event"",""trial"",""time""
""fullscreenenter"",""1"",""2983""
","
","
","""event"",""trial"",""time""
""fullscreenenter"",""1"",""2983""
","
","","","-1","","","16","15548","6239","&#9733;","elianto","#3366ff99","-1","-1","1","+10","[]","0","1","","","15548","19","2","2","win","no-go","0"
"pit-trial","137","1029903","0.0-23.0","battery-v0.2","","""event"",""trial"",""time""
""fullscreenenter"",""1"",""2983""
","
","
","""event"",""trial"",""time""
""fullscreenenter"",""1"",""2983""
","
","","","524.5999999940395","","","16","15548","6239","&#9730;","elianto","#3366ff99"," "," ","1","+10","[1375.6000000089407]","1","1","","","15548","20","1","1","win","go","0"
"pit-instructions","138","1140818","0.0-24.0","battery-v0.2","","""event"",""trial"",""time""
""fullscreenenter"",""1"",""2983""
","
","
","""event"",""trial"",""time""
""fullscreenenter"",""1"",""2983""
","
","","[{""page_index"":0,""viewing_time"":103987.29999999702},{""page_index"":1,""viewing_time"":6927.5999999940395}]","110915","","","","","","","","","","","","","","","","","","","","","","","",""
"pit-trial","139","1144537","0.0-25.0","battery-v0.2","","""event"",""trial"",""time""
""fullscreenenter"",""1"",""2983""
","
","
","""event"",""trial"",""time""
""fullscreenenter"",""1"",""2983""
","
","","","845.2000000029802","","","16","15548","6239","b","elianto","#f73b6a7A","-1"," ","0","-10","[1707.2000000029802]","1","2","","","15548","21","3","4","lose","no-go","0"
"pit-trial","140","1148218","0.0-26.0","battery-v0.2","","""event"",""trial"",""time""
""fullscreenenter"",""1"",""2983""
","
","
","""event"",""trial"",""time""
""fullscreenenter"",""1"",""2983""
","
","","","817.3000000119209","","","16","15548","6239","t","elianto","#f73b6a7A"," "," ","1","-10","[1676.800000011921]","1","2","","","15548","22","2","3","lose","go","1"
"pit-trial","141","1152144","0.0-27.0","battery-v0.2","","""event"",""trial"",""time""
""fullscreenenter"",""1"",""2983""
","
","
","""event"",""trial"",""time""
""fullscreenenter"",""1"",""2983""
","
","","","1059.5999999940395","","","16","15548","6239","n","elianto","#f73b6a7A"," "," ","1","0","[1915.800000011921]","1","2","","","15548","23","0","3","lose","go","0"
"pit-trial","142","1155753","0.0-28.0","battery-v0.2","","""event"",""trial"",""time""
""fullscreenenter"",""1"",""2983""
","
","
","""event"",""trial"",""time""
""fullscreenenter"",""1"",""2983""
","
","","","746.2000000029802","","","16","15548","6239","f","elianto","#3366ff99","-1"," ","0","0","[1597.7999999970198]","1","2","","","15548","24","1","2","win","no-go","0"
"pit-trial","143","1160619","0.0-29.0","battery-v0.2","","""event"",""trial"",""time""
""fullscreenenter"",""1"",""2983""
","
","
","""event"",""trial"",""time""
""fullscreenenter"",""1"",""2983""
","
","","","-1","","","16","15548","6239","t","elianto","#f73b6a7A"," ","-1","0","-10","[]","0","2","","","15548","25","2","3","lose","go","0"
"pit-trial","144","1164932","0.0-30.0","battery-v0.2","","""event"",""trial"",""time""
""fullscreenenter"",""1"",""2983""
","
","
","""event"",""trial"",""time""
""fullscreenenter"",""1"",""2983""
","
","","","1448.4000000059605","","","16","15548","6239","n","elianto","#f73b6a7A"," "," ","1","0","[2307.0999999940395]","1","2","","","15548","26","0","3","lose","go","0"
"pit-trial","145","1169793","0.0-31.0","battery-v0.2","","""event"",""trial"",""time""
""fullscreenenter"",""1"",""2983""
","
","
","""event"",""trial"",""time""
""fullscreenenter"",""1"",""2983""
","
","","","-1","","","16","15548","6239","b","elianto","#f73b6a7A","-1","-1","1","0","[]","0","2","","","15548","27","3","4","lose","no-go","0"
"pit-trial","146","1173400","0.0-32.0","battery-v0.2","","""event"",""trial"",""time""
""fullscreenenter"",""1"",""2983""
","
","
","""event"",""trial"",""time""
""fullscreenenter"",""1"",""2983""
","
","","","749","","","16","15548","6239","f","elianto","#3366ff99","-1"," ","0","0","[1604.8999999910593]","1","2","","","15548","28","1","2","win","no-go","0"
"pit-trial","147","1177096","0.0-33.0","battery-v0.2","","""event"",""trial"",""time""
""fullscreenenter"",""1"",""2983""
","
","
","""event"",""trial"",""time""
""fullscreenenter"",""1"",""2983""
","
","","","841.2000000029802","","","16","15548","6239","n","elianto","#f73b6a7A"," "," ","1","0","[1693.1000000089407]","1","2","","","15548","29","0","3","lose","go","0"
"pit-trial","148","1181948","0.0-34.0","battery-v0.2","","""event"",""trial"",""time""
""fullscreenenter"",""1"",""2983""
","
","
","""event"",""trial"",""time""
""fullscreenenter"",""1"",""2983""
","
","","","-1","","","16","15548","6239","b","elianto","#f73b6a7A","-1","-1","1","0","[]","0","2","","","15548","30","3","4","lose","no-go","0"
"pit-trial","149","1186801","0.0-35.0","battery-v0.2","","""event"",""trial"",""time""
""fullscreenenter"",""1"",""2983""
","
","
","""event"",""trial"",""time""
""fullscreenenter"",""1"",""2983""
","
","","","-1","","","16","15548","6239","f","elianto","#3366ff99","-1","-1","1","+10","[]","0","2","","","15548","31","1","2","win","no-go","0"
"pit-trial","150","1191653","0.0-36.0","battery-v0.2","","""event"",""trial"",""time""
""fullscreenenter"",""1"",""2983""
","
","
","""event"",""trial"",""time""
""fullscreenenter"",""1"",""2983""
","
","","","-1","","","16","15548","6239","t","elianto","#f73b6a7A"," ","-1","0","-10","[]","0","2","","","15548","32","2","3","lose","go","0"
"pit-trial","151","1195337","0.0-37.0","battery-v0.2","","""event"",""trial"",""time""
""fullscreenenter"",""1"",""2983""
","
","
","""event"",""trial"",""time""
""fullscreenenter"",""1"",""2983""
","
","","","830.0999999940395","","","16","15548","6239","t","elianto","#f73b6a7A"," "," ","1","0","[1681]","1","2","","","15548","33","2","3","lose","go","0"
"pit-trial","152","1198944","0.0-38.0","battery-v0.2","","""event"",""trial"",""time""
""fullscreenenter"",""1"",""2983""
","
","
","""event"",""trial"",""time""
""fullscreenenter"",""1"",""2983""
","
","","","754.7000000029802","","","16","15548","6239","n","elianto","#f73b6a7A"," "," ","1","0","[1605]","1","2","","","15548","34","0","3","lose","go","0"
"pit-trial","153","1203797","0.0-39.0","battery-v0.2","","""event"",""trial"",""time""
""fullscreenenter"",""1"",""2983""
","
","
","""event"",""trial"",""time""
""fullscreenenter"",""1"",""2983""
","
","","","-1","","","16","15548","6239","b","elianto","#f73b6a7A","-1","-1","1","0","[]","0","2","","","15548","35","3","4","lose","no-go","0"
"pit-trial","154","1208650","0.0-40.0","battery-v0.2","","""event"",""trial"",""time""
""fullscreenenter"",""1"",""2983""
","
","
","""event"",""trial"",""time""
""fullscreenenter"",""1"",""2983""
","
","","","-1","","","16","15548","6239","f","elianto","#3366ff99","-1","-1","1","+10","[]","0","2","","","15548","36","1","2","win","no-go","0"
"pit-trial","155","1212288","0.0-41.0","battery-v0.2","","""event"",""trial"",""time""
""fullscreenenter"",""1"",""2983""
","
","
","""event"",""trial"",""time""
""fullscreenenter"",""1"",""2983""
","
","","","787","","","16","15548","6239","t","elianto","#f73b6a7A"," "," ","1","0","[1637.1000000089407]","1","2","","","15548","37","2","3","lose","go","0"
"pit-trial","156","1216448","0.0-42.0","battery-v0.2","","""event"",""trial"",""time""
""fullscreenenter"",""1"",""2983""
","
","
","""event"",""trial"",""time""
""fullscreenenter"",""1"",""2983""
","
","","","1307.5","","","16","15548","6239","f","elianto","#3366ff99","-1"," ","0","0","[2158.1000000089407]","1","2","","","15548","38","1","2","win","no-go","0"
"pit-trial","157","1221301","0.0-43.0","battery-v0.2","","""event"",""trial"",""time""
""fullscreenenter"",""1"",""2983""
","
","
","""event"",""trial"",""time""
""fullscreenenter"",""1"",""2983""
","
","","","-1","","","16","15548","6239","b","elianto","#f73b6a7A","-1","-1","1","0","[]","0","2","","","15548","39","3","4","lose","no-go","0"
"pit-trial","158","1224994","0.0-44.0","battery-v0.2","","""event"",""trial"",""time""
""fullscreenenter"",""1"",""2983""
","
","
","""event"",""trial"",""time""
""fullscreenenter"",""1"",""2983""
","
","","","838.5","","","16","15548","6239","n","elianto","#f73b6a7A"," "," ","1","-10","[1689.2999999970198]","1","2","","","15548","40","0","3","lose","go","1"
"pit-trial","159","1229846","0.0-45.0","battery-v0.2","","""event"",""trial"",""time""
""fullscreenenter"",""1"",""2983""
","
","
","""event"",""trial"",""time""
""fullscreenenter"",""1"",""2983""
","
","","","-1","","","16","15548","6239","f","elianto","#3366ff99","-1","-1","1","+10","[]","0","2","","","15548","41","1","2","win","no-go","0"
"pit-trial","160","1233601","0.0-46.0","battery-v0.2","","""event"",""trial"",""time""
""fullscreenenter"",""1"",""2983""
","
","
","""event"",""trial"",""time""
""fullscreenenter"",""1"",""2983""
","
","","","901.9000000059605","","","16","15548","6239","n","elianto","#f73b6a7A"," "," ","1","0","[1751.7999999970198]","1","2","","","15548","42","0","3","lose","go","0"
"pit-trial","161","1238417","0.0-47.0","battery-v0.2","","""event"",""trial"",""time""
""fullscreenenter"",""1"",""2983""
","
","
","""event"",""trial"",""time""
""fullscreenenter"",""1"",""2983""
","
","","","1963.5","","","16","15548","6239","t","elianto","#f73b6a7A"," "," ","1","-10","[2814.4000000059605]","1","2","","","15548","43","2","3","lose","go","1"
"pit-trial","162","1243271","0.0-48.0","battery-v0.2","","""event"",""trial"",""time""
""fullscreenenter"",""1"",""2983""
","
","
","""event"",""trial"",""time""
""fullscreenenter"",""1"",""2983""
","
","","","-1","","","16","15548","6239","b","elianto","#f73b6a7A","-1","-1","1","-10","[]","0","2","","","15548","44","3","4","lose","no-go","1"
"pit-trial","163","1246745","0.0-49.0","battery-v0.2","","""event"",""trial"",""time""
""fullscreenenter"",""1"",""2983""
","
","
","""event"",""trial"",""time""
""fullscreenenter"",""1"",""2983""
","
","","","621.3000000119209","","","16","15548","6239","n","elianto","#f73b6a7A"," "," ","1","0","[1471.7000000029802]","1","2","","","15548","45","0","3","lose","go","0"
"pit-trial","164","1250905","0.0-50.0","battery-v0.2","","""event"",""trial"",""time""
""fullscreenenter"",""1"",""2983""
","
","
","""event"",""trial"",""time""
""fullscreenenter"",""1"",""2983""
","
","","","1307.5","","","16","15548","6239","f","elianto","#3366ff99","-1"," ","0","0","[2158.199999988079]","1","2","","","15548","46","1","2","win","no-go","0"
"pit-trial","165","1255758","0.0-51.0","battery-v0.2","","""event"",""trial"",""time""
""fullscreenenter"",""1"",""2983""
","
","
","""event"",""trial"",""time""
""fullscreenenter"",""1"",""2983""
","
","","","-1","","","16","15548","6239","b","elianto","#f73b6a7A","-1","-1","1","-10","[]","0","2","","","15548","47","3","4","lose","no-go","1"
"pit-trial","166","1259409","0.0-52.0","battery-v0.2","","""event"",""trial"",""time""
""fullscreenenter"",""1"",""2983""
","
","
","""event"",""trial"",""time""
""fullscreenenter"",""1"",""2983""
","
","","","798.2999999970198","","","16","15548","6239","t","elianto","#f73b6a7A"," "," ","1","0","[1649]","1","2","","","15548","48","2","3","lose","go","0"
"pit-trial","167","1264262","0.0-53.0","battery-v0.2","","""event"",""trial"",""time""
""fullscreenenter"",""1"",""2983""
","
","
","""event"",""trial"",""time""
""fullscreenenter"",""1"",""2983""
","
","","","-1","","","16","15548","6239","b","elianto","#f73b6a7A","-1","-1","1","0","[]","0","2","","","15548","49","3","4","lose","no-go","0"
"pit-trial","168","1269115","0.0-54.0","battery-v0.2","","""event"",""trial"",""time""
""fullscreenenter"",""1"",""2983""
","
","
","""event"",""trial"",""time""
""fullscreenenter"",""1"",""2983""
","
","","","-1","","","16","15548","6239","f","elianto","#3366ff99","-1","-1","1","+10","[]","0","2","","","15548","50","1","2","win","no-go","0"
"pit-trial","169","1272778","0.0-55.0","battery-v0.2","","""event"",""trial"",""time""
""fullscreenenter"",""1"",""2983""
","
","
","""event"",""trial"",""time""
""fullscreenenter"",""1"",""2983""
","
","","","810","","","16","15548","6239","n","elianto","#f73b6a7A"," "," ","1","-10","[1660.7000000029802]","1","2","","","15548","51","0","3","lose","go","1"
"pit-trial","170","1276450","0.0-56.0","battery-v0.2","","""event"",""trial"",""time""
""fullscreenenter"",""1"",""2983""
","
","
","""event"",""trial"",""time""
""fullscreenenter"",""1"",""2983""
","
","","","818.2999999970198","","","16","15548","6239","t","elianto","#f73b6a7A"," "," ","1","0","[1669.2999999970198]","1","2","","","15548","52","2","3","lose","go","0"
"pit-trial","171","1280162","0.0-57.0","battery-v0.2","","""event"",""trial"",""time""
""fullscreenenter"",""1"",""2983""
","
","
","""event"",""trial"",""time""
""fullscreenenter"",""1"",""2983""
","
","","","859","","","16","15548","6239","n","elianto","#f73b6a7A"," "," ","1","-10","[1709]","1","2","","","15548","53","0","3","lose","go","1"
"pit-trial","172","1285015","0.0-58.0","battery-v0.2","","""event"",""trial"",""time""
""fullscreenenter"",""1"",""2983""
","
","
","""event"",""trial"",""time""
""fullscreenenter"",""1"",""2983""
","
","","","-1","","","16","15548","6239","b","elianto","#f73b6a7A","-1","-1","1","0","[]","0","2","","","15548","54","3","4","lose","no-go","0"
"pit-trial","173","1288698","0.0-59.0","battery-v0.2","","""event"",""trial"",""time""
""fullscreenenter"",""1"",""2983""
","
","
","""event"",""trial"",""time""
""fullscreenenter"",""1"",""2983""
","
","","","830.1999999880791","","","16","15548","6239","t","elianto","#f73b6a7A"," "," ","1","0","[1680.699999988079]","1","2","","","15548","55","2","3","lose","go","0"
"pit-trial","174","1293551","0.0-60.0","battery-v0.2","","""event"",""trial"",""time""
""fullscreenenter"",""1"",""2983""
","
","
","""event"",""trial"",""time""
""fullscreenenter"",""1"",""2983""
","
","","","-1","","","16","15548","6239","f","elianto","#3366ff99","-1","-1","1","+10","[]","0","2","","","15548","56","1","2","win","no-go","0"
"pit-trial","175","1297218","0.0-61.0","battery-v0.2","","""event"",""trial"",""time""
""fullscreenenter"",""1"",""2983""
","
","
","""event"",""trial"",""time""
""fullscreenenter"",""1"",""2983""
","
","","","813.7999999970198","","","16","15548","6239","t","elianto","#f73b6a7A"," "," ","1","-10","[1664.7000000029802]","1","2","","","15548","57","2","3","lose","go","1"
"pit-trial","176","1301307","0.0-62.0","battery-v0.2","","""event"",""trial"",""time""
""fullscreenenter"",""1"",""2983""
","
","
","""event"",""trial"",""time""
""fullscreenenter"",""1"",""2983""
","
","","","1235.7000000029802","","","16","15548","6239","c","elianto","#3366ff99"," "," ","1","+10","[2085.7000000029802]","1","2","","","15548","58","4","1","win","go","0"
"pit-trial","177","1306161","0.0-63.0","battery-v0.2","","""event"",""trial"",""time""
""fullscreenenter"",""1"",""2983""
","
","
","""event"",""trial"",""time""
""fullscreenenter"",""1"",""2983""
","
","","","-1","","","16","15548","6239","b","elianto","#f73b6a7A","-1","-1","1","0","[]","0","2","","","15548","59","3","4","lose","no-go","0"
"pit-trial","178","1310634","0.0-64.0","battery-v0.2","","""event"",""trial"",""time""
""fullscreenenter"",""1"",""2983""
","
","
","""event"",""trial"",""time""
""fullscreenenter"",""1"",""2983""
","
","","","1619.9000000059605","","","16","15548","6239","n","elianto","#f73b6a7A"," "," ","1","0","[2471]","1","2","","","15548","60","0","3","lose","go","0"
"pit-trial","179","1314323","0.0-65.0","battery-v0.2","","""event"",""trial"",""time""
""fullscreenenter"",""1"",""2983""
","
","
","""event"",""trial"",""time""
""fullscreenenter"",""1"",""2983""
","
","","","835","","","16","15548","6239","c","elianto","#3366ff99"," "," ","1","+10","[1686.0999999940395]","1","2","","","15548","61","4","1","win","go","0"
"pit-trial","180","1318586","0.0-66.0","battery-v0.2","","""event"",""trial"",""time""
""fullscreenenter"",""1"",""2983""
","
","
","""event"",""trial"",""time""
""fullscreenenter"",""1"",""2983""
","
","","","1408.4000000059605","","","16","15548","6239","t","elianto","#f73b6a7A"," "," ","1","0","[2260]","1","2","","","15548","62","2","3","lose","go","0"
"pit-trial","181","1322891","0.0-67.0","battery-v0.2","","""event"",""trial"",""time""
""fullscreenenter"",""1"",""2983""
","
","
","""event"",""trial"",""time""
""fullscreenenter"",""1"",""2983""
","
","","","1451.7000000029802","","","16","15548","6239","f","elianto","#3366ff99","-1"," ","0","0","[2302.5]","1","2","","","15548","63","1","2","win","no-go","0"
"pit-trial","182","1327745","0.0-68.0","battery-v0.2","","""event"",""trial"",""time""
""fullscreenenter"",""1"",""2983""
","
","
","""event"",""trial"",""time""
""fullscreenenter"",""1"",""2983""
","
","","","-1","","","16","15548","6239","b","elianto","#f73b6a7A","-1","-1","1","0","[]","0","2","","","15548","64","3","4","lose","no-go","0"
"pit-trial","183","1331978","0.0-69.0","battery-v0.2","","""event"",""trial"",""time""
""fullscreenenter"",""1"",""2983""
","
","
","""event"",""trial"",""time""
""fullscreenenter"",""1"",""2983""
","
","","","1381.0999999940395","","","16","15548","6239","z","elianto","#3366ff99","-1"," ","0","0","[2231.5]","1","2","","","15548","65","5","2","win","no-go","0"
"pit-trial","184","1336831","0.0-70.0","battery-v0.2","","""event"",""trial"",""time""
""fullscreenenter"",""1"",""2983""
","
","
","""event"",""trial"",""time""
""fullscreenenter"",""1"",""2983""
","
","","","-1","","","16","15548","6239","b","elianto","#f73b6a7A","-1","-1","1","0","[]","0","2","","","15548","66","3","4","lose","no-go","0"
"pit-trial","185","1341685","0.0-71.0","battery-v0.2","","""event"",""trial"",""time""
""fullscreenenter"",""1"",""2983""
","
","
","""event"",""trial"",""time""
""fullscreenenter"",""1"",""2983""
","
","","","-1","","","16","15548","6239","c","elianto","#3366ff99"," ","-1","0","0","[3209.2000000029802]","1","2","","","15548","67","4","1","win","go","0"
"pit-trial","186","1346537","0.0-72.0","battery-v0.2","","""event"",""trial"",""time""
""fullscreenenter"",""1"",""2983""
","
","
","""event"",""trial"",""time""
""fullscreenenter"",""1"",""2983""
","
","","","-1","","","16","15548","6239","f","elianto","#3366ff99","-1","-1","1","+10","[]","0","2","","","15548","68","1","2","win","no-go","0"
"pit-trial","187","1351401","0.0-73.0","battery-v0.2","","""event"",""trial"",""time""
""fullscreenenter"",""1"",""2983""
","
","
","""event"",""trial"",""time""
""fullscreenenter"",""1"",""2983""
","
","","","-1","","","16","15548","6239","f","elianto","#3366ff99","-1","-1","1","+10","[]","0","2","","","15548","69","1","2","win","no-go","0"
"pit-trial","188","1356254","0.0-74.0","battery-v0.2","","""event"",""trial"",""time""
""fullscreenenter"",""1"",""2983""
","
","
","""event"",""trial"",""time""
""fullscreenenter"",""1"",""2983""
","
","","","-1","","","16","15548","6239","z","elianto","#3366ff99","-1","-1","1","0","[]","0","2","","","15548","70","5","2","win","no-go","1"
"pit-trial","189","1360522","0.0-75.0","battery-v0.2","","""event"",""trial"",""time""
""fullscreenenter"",""1"",""2983""
","
","
","""event"",""trial"",""time""
""fullscreenenter"",""1"",""2983""
","
","","","1416","","","16","15548","6239","t","elianto","#f73b6a7A"," "," ","1","0","[2266.5]","1","2","","","15548","71","2","3","lose","go","0"
"pit-trial","190","1364979","0.0-76.0","battery-v0.2","","""event"",""trial"",""time""
""fullscreenenter"",""1"",""2983""
","
","
","""event"",""trial"",""time""
""fullscreenenter"",""1"",""2983""
","
","","","1604.699999988079","","","16","15548","6239","c","elianto","#3366ff99"," "," ","1","+10","[2454.9000000059605]","1","2","","","15548","72","4","1","win","go","0"
"pit-trial","191","1369833","0.0-77.0","battery-v0.2","","""event"",""trial"",""time""
""fullscreenenter"",""1"",""2983""
","
","
","""event"",""trial"",""time""
""fullscreenenter"",""1"",""2983""
","
","","","-1","","","16","15548","6239","b","elianto","#f73b6a7A","-1","-1","1","-10","[]","0","2","","","15548","73","3","4","lose","no-go","1"
"pit-trial","192","1374347","0.0-78.0","battery-v0.2","","""event"",""trial"",""time""
""fullscreenenter"",""1"",""2983""
","
","
","""event"",""trial"",""time""
""fullscreenenter"",""1"",""2983""
","
","","","1661.9000000059605","","","16","15548","6239","c","elianto","#3366ff99"," "," ","1","+10","[2512]","1","2","","","15548","74","4","1","win","go","0"
"pit-trial","193","1378267","0.0-79.0","battery-v0.2","","""event"",""trial"",""time""
""fullscreenenter"",""1"",""2983""
","
","
","""event"",""trial"",""time""
""fullscreenenter"",""1"",""2983""
","
","","","1068.0999999940395","","","16","15548","6239","z","elianto","#3366ff99","-1"," ","0","0","[1918.2000000029802]","1","2","","","15548","75","5","2","win","no-go","0"
"pit-trial","194","1383119","0.0-80.0","battery-v0.2","","""event"",""trial"",""time""
""fullscreenenter"",""1"",""2983""
","
","
","""event"",""trial"",""time""
""fullscreenenter"",""1"",""2983""
","
","","","-1","","","16","15548","6239","f","elianto","#3366ff99","-1","-1","1","+10","[]","0","2","","","15548","76","1","2","win","no-go","0"
"pit-trial","195","1386923","0.0-81.0","battery-v0.2","","""event"",""trial"",""time""
""fullscreenenter"",""1"",""2983""
","
","
","""event"",""trial"",""time""
""fullscreenenter"",""1"",""2983""
","
","","","951.2999999970198","","","16","15548","6239","c","elianto","#3366ff99"," "," ","1","+10","[1801.7999999970198]","1","2","","","15548","77","4","1","win","go","0"
"pit-trial","196","1390667","0.0-82.0","battery-v0.2","","""event"",""trial"",""time""
""fullscreenenter"",""1"",""2983""
","
","
","""event"",""trial"",""time""
""fullscreenenter"",""1"",""2983""
","
","","","891.5","","","16","15548","6239","c","elianto","#3366ff99"," "," ","1","+10","[1741.7000000029802]","1","2","","","15548","78","4","1","win","go","0"
"pit-trial","197","1395519","0.0-83.0","battery-v0.2","","""event"",""trial"",""time""
""fullscreenenter"",""1"",""2983""
","
","
","""event"",""trial"",""time""
""fullscreenenter"",""1"",""2983""
","
","","","-1","","","16","15548","6239","b","elianto","#f73b6a7A","-1","-1","1","0","[]","0","2","","","15548","79","3","4","lose","no-go","0"
"pit-trial","198","1400372","0.0-84.0","battery-v0.2","","""event"",""trial"",""time""
""fullscreenenter"",""1"",""2983""
","
","
","""event"",""trial"",""time""
""fullscreenenter"",""1"",""2983""
","
","","","-1","","","16","15548","6239","z","elianto","#3366ff99","-1","-1","1","+10","[]","0","2","","","15548","80","5","2","win","no-go","0"
"pit-trial","199","1404123","0.0-85.0","battery-v0.2","","""event"",""trial"",""time""
""fullscreenenter"",""1"",""2983""
","
","
","""event"",""trial"",""time""
""fullscreenenter"",""1"",""2983""
","
","","","898.9000000059605","","","16","15548","6239","z","elianto","#3366ff99","-1"," ","0","+10","[1749.7000000029802]","1","2","","","15548","81","5","2","win","no-go","1"
"pit-trial","200","1408979","0.0-86.0","battery-v0.2","","""event"",""trial"",""time""
""fullscreenenter"",""1"",""2983""
","
","
","""event"",""trial"",""time""
""fullscreenenter"",""1"",""2983""
","
","","","-1","","","16","15548","6239","b","elianto","#f73b6a7A","-1","-1","1","0","[]","0","2","","","15548","82","3","4","lose","no-go","0"
"pit-trial","201","1412939","0.0-87.0","battery-v0.2","","""event"",""trial"",""time""
""fullscreenenter"",""1"",""2983""
","
","
","""event"",""trial"",""time""
""fullscreenenter"",""1"",""2983""
","
","","","1107.2999999970198","","","16","15548","6239","y","elianto","#f73b6a7A","-1"," ","0","0","[1958.0999999940395]","1","2","","","15548","83","7","4","lose","no-go","1"
"pit-trial","202","1416731","0.0-88.0","battery-v0.2","","""event"",""trial"",""time""
""fullscreenenter"",""1"",""2983""
","
","
","""event"",""trial"",""time""
""fullscreenenter"",""1"",""2983""
","
","","","939.5","","","16","15548","6239","c","elianto","#3366ff99"," "," ","1","0","[1790.3999999910593]","1","2","","","15548","84","4","1","win","go","1"
"pit-trial","203","1420452","0.0-89.0","battery-v0.2","","""event"",""trial"",""time""
""fullscreenenter"",""1"",""2983""
","
","
","""event"",""trial"",""time""
""fullscreenenter"",""1"",""2983""
","
","","","868.3999999910593","","","16","15548","6239","c","elianto","#3366ff99"," "," ","1","+10","[1718.2000000029802]","1","2","","","15548","85","4","1","win","go","0"
"pit-trial","204","1424260","0.0-90.0","battery-v0.2","","""event"",""trial"",""time""
""fullscreenenter"",""1"",""2983""
","
","
","""event"",""trial"",""time""
""fullscreenenter"",""1"",""2983""
","
","","","954.5","","","16","15548","6239","y","elianto","#f73b6a7A","-1"," ","0","-10","[1806]","1","2","","","15548","86","7","4","lose","no-go","0"
"pit-trial","205","1429113","0.0-91.0","battery-v0.2","","""event"",""trial"",""time""
""fullscreenenter"",""1"",""2983""
","
","
","""event"",""trial"",""time""
""fullscreenenter"",""1"",""2983""
","
","","","-1","","","16","15548","6239","z","elianto","#3366ff99","-1","-1","1","+10","[]","0","2","","","15548","87","5","2","win","no-go","0"
"pit-trial","206","1432964","0.0-92.0","battery-v0.2","","""event"",""trial"",""time""
""fullscreenenter"",""1"",""2983""
","
","
","""event"",""trial"",""time""
""fullscreenenter"",""1"",""2983""
","
","","","998.7000000029802","","","16","15548","6239","h","elianto","#f73b6a7A"," "," ","1","0","[1849.300000011921]","1","2","","","15548","88","6","3","lose","go","0"
"pit-trial","207","1437817","0.0-93.0","battery-v0.2","","""event"",""trial"",""time""
""fullscreenenter"",""1"",""2983""
","
","
","""event"",""trial"",""time""
""fullscreenenter"",""1"",""2983""
","
","","","-1","","","16","15548","6239","z","elianto","#3366ff99","-1","-1","1","+10","[]","0","2","","","15548","89","5","2","win","no-go","0"
"pit-trial","208","1441540","0.0-94.0","battery-v0.2","","""event"",""trial"",""time""
""fullscreenenter"",""1"",""2983""
","
","
","""event"",""trial"",""time""
""fullscreenenter"",""1"",""2983""
","
","","","869.9000000059605","","","16","15548","6239","h","elianto","#f73b6a7A"," "," ","1","-10","[1720.1000000089407]","1","2","","","15548","90","6","3","lose","go","1"
"pit-trial","209","1445907","0.0-95.0","battery-v0.2","","""event"",""trial"",""time""
""fullscreenenter"",""1"",""2983""
","
","
","""event"",""trial"",""time""
""fullscreenenter"",""1"",""2983""
","
","","","1515.1000000089407","","","16","15548","6239","y","elianto","#f73b6a7A","-1"," ","0","-10","[2365.800000011921]","1","2","","","15548","91","7","4","lose","no-go","0"
"pit-trial","210","1449564","0.0-96.0","battery-v0.2","","""event"",""trial"",""time""
""fullscreenenter"",""1"",""2983""
","
","
","""event"",""trial"",""time""
""fullscreenenter"",""1"",""2983""
","
","","","804.1000000089407","","","16","15548","6239","c","elianto","#3366ff99"," "," ","1","+10","[1654]","1","2","","","15548","92","4","1","win","go","0"
"pit-trial","211","1453451","0.0-97.0","battery-v0.2","","""event"",""trial"",""time""
""fullscreenenter"",""1"",""2983""
","
","
","""event"",""trial"",""time""
""fullscreenenter"",""1"",""2983""
","
","","","1034.0999999940395","","","16","15548","6239","r","elianto","#3366ff99"," "," ","1","+10","[1885]","1","2","","","15548","93","8","1","win","go","0"
"pit-trial","212","1458304","0.0-98.0","battery-v0.2","","""event"",""trial"",""time""
""fullscreenenter"",""1"",""2983""
","
","
","""event"",""trial"",""time""
""fullscreenenter"",""1"",""2983""
","
","","","-1","","","16","15548","6239","z","elianto","#3366ff99","-1","-1","1","+10","[]","0","2","","","15548","94","5","2","win","no-go","0"
"pit-trial","213","1462492","0.0-99.0","battery-v0.2","","""event"",""trial"",""time""
""fullscreenenter"",""1"",""2983""
","
","
","""event"",""trial"",""time""
""fullscreenenter"",""1"",""2983""
","
","","","1335","","","16","15548","6239","y","elianto","#f73b6a7A","-1"," ","0","-10","[2185.2999999970198]","1","2","","","15548","95","7","4","lose","no-go","0"
"pit-trial","214","1466291","0.0-100.0","battery-v0.2","","""event"",""trial"",""time""
""fullscreenenter"",""1"",""2983""
","
","
","""event"",""trial"",""time""
""fullscreenenter"",""1"",""2983""
","
","","","947.5","","","16","15548","6239","h","elianto","#f73b6a7A"," "," ","1","0","[1797.6000000089407]","1","2","","","15548","96","6","3","lose","go","0"
"pit-trial","215","1469995","0.0-101.0","battery-v0.2","","""event"",""trial"",""time""
""fullscreenenter"",""1"",""2983""
","
","
","""event"",""trial"",""time""
""fullscreenenter"",""1"",""2983""
","
","","","850.5999999940395","","","16","15548","6239","h","elianto","#f73b6a7A"," "," ","1","0","[1701.5]","1","2","","","15548","97","6","3","lose","go","0"
"pit-trial","216","1474764","0.0-102.0","battery-v0.2","","""event"",""trial"",""time""
""fullscreenenter"",""1"",""2983""
","
","
","""event"",""trial"",""time""
""fullscreenenter"",""1"",""2983""
","
","","","1916.3999999910593","","","16","15548","6239","r","elianto","#3366ff99"," "," ","1","+10","[2766.7999999970198]","1","2","","","15548","98","8","1","win","go","0"
"pit-trial","217","1479627","0.0-103.0","battery-v0.2","","""event"",""trial"",""time""
""fullscreenenter"",""1"",""2983""
","
","
","""event"",""trial"",""time""
""fullscreenenter"",""1"",""2983""
","
","","","-1","","","16","15548","6239","z","elianto","#3366ff99","-1","-1","1","+10","[]","0","2","","","15548","99","5","2","win","no-go","0"
"pit-trial","218","1484480","0.0-104.0","battery-v0.2","","""event"",""trial"",""time""
""fullscreenenter"",""1"",""2983""
","
","
","""event"",""trial"",""time""
""fullscreenenter"",""1"",""2983""
","
","","","-1","","","16","15548","6239","y","elianto","#f73b6a7A","-1","-1","1","0","[]","0","2","","","15548","100","7","4","lose","no-go","0"
"pit-trial","219","1489333","0.0-105.0","battery-v0.2","","""event"",""trial"",""time""
""fullscreenenter"",""1"",""2983""
","
","
","""event"",""trial"",""time""
""fullscreenenter"",""1"",""2983""
","
","","","-1","","","16","15548","6239","z","elianto","#3366ff99","-1","-1","1","+10","[]","0","2","","","15548","101","5","2","win","no-go","0"
"pit-trial","220","1494186","0.0-106.0","battery-v0.2","","""event"",""trial"",""time""
""fullscreenenter"",""1"",""2983""
","
","
","""event"",""trial"",""time""
""fullscreenenter"",""1"",""2983""
","
","","","-1","","","16","15548","6239","y","elianto","#f73b6a7A","-1","-1","1","0","[]","0","2","","","15548","102","7","4","lose","no-go","0"
"pit-trial","221","1498044","0.0-107.0","battery-v0.2","","""event"",""trial"",""time""
""fullscreenenter"",""1"",""2983""
","
","
","""event"",""trial"",""time""
""fullscreenenter"",""1"",""2983""
","
","","","1005.0999999940395","","","16","15548","6239","m","elianto","#3366ff99"," "," ","1","+10","[1855.9000000059605]","1","2","","","15548","103","9","1","win","go","0"
"pit-trial","222","1502565","0.0-108.0","battery-v0.2","","""event"",""trial"",""time""
""fullscreenenter"",""1"",""2983""
","
","
","""event"",""trial"",""time""
""fullscreenenter"",""1"",""2983""
","
","","","1668.5","","","16","15548","6239","r","elianto","#3366ff99"," "," ","1","+10","[2518.5]","1","2","","","15548","104","8","1","win","go","0"
"pit-trial","223","1506268","0.0-109.0","battery-v0.2","","""event"",""trial"",""time""
""fullscreenenter"",""1"",""2983""
","
","
","""event"",""trial"",""time""
""fullscreenenter"",""1"",""2983""
","
","","","850.4000000059605","","","16","15548","6239","m","elianto","#3366ff99"," "," ","1","+10","[1701.0999999940395]","1","2","","","15548","105","9","1","win","go","0"
"pit-trial","224","1509780","0.0-110.0","battery-v0.2","","""event"",""trial"",""time""
""fullscreenenter"",""1"",""2983""
","
","
","""event"",""trial"",""time""
""fullscreenenter"",""1"",""2983""
","
","","","659.6000000089407","","","16","15548","6239","r","elianto","#3366ff99"," "," ","1","+10","[1509.7999999970198]","1","2","","","15548","106","8","1","win","go","0"
"pit-trial","225","1513669","0.0-111.0","battery-v0.2","","""event"",""trial"",""time""
""fullscreenenter"",""1"",""2983""
","
","
","""event"",""trial"",""time""
""fullscreenenter"",""1"",""2983""
","
","","","1035.7999999970198","","","16","15548","6239","c","elianto","#3366ff99"," "," ","1","+10","[1886.5]","1","2","","","15548","107","4","1","win","go","0"
"pit-trial","226","1518521","0.0-112.0","battery-v0.2","","""event"",""trial"",""time""
""fullscreenenter"",""1"",""2983""
","
","
","""event"",""trial"",""time""
""fullscreenenter"",""1"",""2983""
","
","","","-1","","","16","15548","6239","h","elianto","#f73b6a7A"," ","-1","0","-10","[3013.5]","1","2","","","15548","108","6","3","lose","go","0"
"pit-trial","227","1522197","0.0-113.0","battery-v0.2","","""event"",""trial"",""time""
""fullscreenenter"",""1"",""2983""
","
","
","""event"",""trial"",""time""
""fullscreenenter"",""1"",""2983""
","
","","","822.6999999880791","","","16","15548","6239","h","elianto","#f73b6a7A"," "," ","1","-10","[1673.699999988079]","1","2","","","15548","109","6","3","lose","go","1"
"pit-trial","228","1525804","0.0-114.0","battery-v0.2","","""event"",""trial"",""time""
""fullscreenenter"",""1"",""2983""
","
","
","""event"",""trial"",""time""
""fullscreenenter"",""1"",""2983""
","
","","","755.2999999970198","","","16","15548","6239","m","elianto","#3366ff99"," "," ","1","+10","[1605.4000000059605]","1","2","","","15548","110","9","1","win","go","0"
"pit-trial","229","1529421","0.0-115.0","battery-v0.2","","""event"",""trial"",""time""
""fullscreenenter"",""1"",""2983""
","
","
","""event"",""trial"",""time""
""fullscreenenter"",""1"",""2983""
","
","","","763.6999999880791","","","16","15548","6239","r","elianto","#3366ff99"," "," ","1","0","[1614.2999999970198]","1","2","","","15548","111","8","1","win","go","1"
"pit-trial","230","1534273","0.0-116.0","battery-v0.2","","""event"",""trial"",""time""
""fullscreenenter"",""1"",""2983""
","
","
","""event"",""trial"",""time""
""fullscreenenter"",""1"",""2983""
","
","","","-1","","","16","15548","6239","z","elianto","#3366ff99","-1","-1","1","+10","[]","0","2","","","15548","112","5","2","win","no-go","0"
"pit-trial","231","1537973","0.0-117.0","battery-v0.2","","""event"",""trial"",""time""
""fullscreenenter"",""1"",""2983""
","
","
","""event"",""trial"",""time""
""fullscreenenter"",""1"",""2983""
","
","","","848","","","16","15548","6239","m","elianto","#3366ff99"," "," ","1","+10","[1698.1000000089407]","1","2","","","15548","113","9","1","win","go","0"
"pit-trial","232","1541973","0.0-118.0","battery-v0.2","","""event"",""trial"",""time""
""fullscreenenter"",""1"",""2983""
","
","
","""event"",""trial"",""time""
""fullscreenenter"",""1"",""2983""
","
","","","1146.800000011921","","","16","15548","6239","r","elianto","#3366ff99"," "," ","1","0","[1997.800000011921]","1","2","","","15548","114","8","1","win","go","1"
"pit-trial","233","1546826","0.0-119.0","battery-v0.2","","""event"",""trial"",""time""
""fullscreenenter"",""1"",""2983""
","
","
","""event"",""trial"",""time""
""fullscreenenter"",""1"",""2983""
","
","","","-1","","","16","15548","6239","h","elianto","#f73b6a7A"," ","-1","0","-10","[]","0","2","","","15548","115","6","3","lose","go","0"
"pit-trial","234","1550581","0.0-120.0","battery-v0.2","","""event"",""trial"",""time""
""fullscreenenter"",""1"",""2983""
","
","
","""event"",""trial"",""time""
""fullscreenenter"",""1"",""2983""
","
","","","903.2999999970198","","","16","15548","6239","z","elianto","#3366ff99","-1"," ","0","0","[1753.5]","1","2","","","15548","116","5","2","win","no-go","0"
"pit-trial","235","1554357","0.0-121.0","battery-v0.2","","""event"",""trial"",""time""
""fullscreenenter"",""1"",""2983""
","
","
","""event"",""trial"",""time""
""fullscreenenter"",""1"",""2983""
","
","","","922.7000000029802","","","16","15548","6239","r","elianto","#3366ff99"," "," ","1","+10","[1773.7999999970198]","1","2","","","15548","117","8","1","win","go","0"
"pit-trial","236","1557925","0.0-122.0","battery-v0.2","","""event"",""trial"",""time""
""fullscreenenter"",""1"",""2983""
","
","
","""event"",""trial"",""time""
""fullscreenenter"",""1"",""2983""
","
","","","715.2999999970198","","","16","15548","6239","m","elianto","#3366ff99"," "," ","1","+10","[1565.8999999910593]","1","2","","","15548","118","9","1","win","go","0"
"pit-trial","237","1562779","0.0-123.0","battery-v0.2","","""event"",""trial"",""time""
""fullscreenenter"",""1"",""2983""
","
","
","""event"",""trial"",""time""
""fullscreenenter"",""1"",""2983""
","
","","","-1","","","16","15548","6239","z","elianto","#3366ff99","-1","-1","1","+10","[]","0","2","","","15548","119","5","2","win","no-go","0"
"pit-trial","238","1567070","0.0-124.0","battery-v0.2","","""event"",""trial"",""time""
""fullscreenenter"",""1"",""2983""
","
","
","""event"",""trial"",""time""
""fullscreenenter"",""1"",""2983""
","
","","","1438.5999999940395","","","16","15548","6239","h","elianto","#f73b6a7A"," "," ","1","0","[2288.800000011921]","1","2","","","15548","120","6","3","lose","go","0"
"pit-trial","239","1570724","0.0-125.0","battery-v0.2","","""event"",""trial"",""time""
""fullscreenenter"",""1"",""2983""
","
","
","""event"",""trial"",""time""
""fullscreenenter"",""1"",""2983""
","
","","","802.8999999910593","","","16","15548","6239","h","elianto","#f73b6a7A"," "," ","1","0","[1653]","1","2","","","15548","121","6","3","lose","go","0"
"pit-trial","240","1574518","0.0-126.0","battery-v0.2","","""event"",""trial"",""time""
""fullscreenenter"",""1"",""2983""
","
","
","""event"",""trial"",""time""
""fullscreenenter"",""1"",""2983""
","
","","","940.7999999970198","","","16","15548","6239","r","elianto","#3366ff99"," "," ","1","+10","[1791.5999999940395]","1","2","","","15548","122","8","1","win","go","0"
"pit-trial","241","1579371","0.0-127.0","battery-v0.2","","""event"",""trial"",""time""
""fullscreenenter"",""1"",""2983""
","
","
","""event"",""trial"",""time""
""fullscreenenter"",""1"",""2983""
","
","","","-1","","","16","15548","6239","y","elianto","#f73b6a7A","-1","-1","1","-10","[]","0","2","","","15548","123","7","4","lose","no-go","1"
"pit-trial","242","1583046","0.0-128.0","battery-v0.2","","""event"",""trial"",""time""
""fullscreenenter"",""1"",""2983""
","
","
","""event"",""trial"",""time""
""fullscreenenter"",""1"",""2983""
","
","","","822.1000000089407","","","16","15548","6239","m","elianto","#3366ff99"," "," ","1","+10","[1672.9000000059605]","1","2","","","15548","124","9","1","win","go","0"
"pit-trial","243","1587237","0.0-129.0","battery-v0.2","","""event"",""trial"",""time""
""fullscreenenter"",""1"",""2983""
","
","
","""event"",""trial"",""time""
""fullscreenenter"",""1"",""2983""
","
","","","1338.7999999970198","","","16","15548","6239","m","elianto","#3366ff99"," "," ","1","+10","[2189.7999999970198]","1","2","","","15548","125","9","1","win","go","0"
"pit-trial","244","1592086","0.0-130.0","battery-v0.2","","""event"",""trial"",""time""
""fullscreenenter"",""1"",""2983""
","
","
","""event"",""trial"",""time""
""fullscreenenter"",""1"",""2983""
","
","","","1996.4000000059605","","","16","15548","6239","h","elianto","#f73b6a7A"," "," ","1","0","[2846.9000000059605]","1","2","","","15548","126","6","3","lose","go","0"
"pit-trial","245","1596938","0.0-131.0","battery-v0.2","","""event"",""trial"",""time""
""fullscreenenter"",""1"",""2983""
","
","
","""event"",""trial"",""time""
""fullscreenenter"",""1"",""2983""
","
","","","-1","","","16","15548","6239","y","elianto","#f73b6a7A","-1","-1","1","0","[]","0","2","","","15548","127","7","4","lose","no-go","0"
"pit-trial","246","1600822","0.0-132.0","battery-v0.2","","""event"",""trial"",""time""
""fullscreenenter"",""1"",""2983""
","
","
","""event"",""trial"",""time""
""fullscreenenter"",""1"",""2983""
","
","","","1030.8999999910593","","","16","15548","6239","r","elianto","#3366ff99"," "," ","1","+10","[1882]","1","2","","","15548","128","8","1","win","go","0"
"pit-trial","247","1605675","0.0-133.0","battery-v0.2","","""event"",""trial"",""time""
""fullscreenenter"",""1"",""2983""
","
","
","""event"",""trial"",""time""
""fullscreenenter"",""1"",""2983""
","
","","","-1","","","16","15548","6239","y","elianto","#f73b6a7A","-1","-1","1","-10","[]","0","2","","","15548","129","7","4","lose","no-go","1"
"pit-trial","248","1610318","0.0-134.0","battery-v0.2","","""event"",""trial"",""time""
""fullscreenenter"",""1"",""2983""
","
","
","""event"",""trial"",""time""
""fullscreenenter"",""1"",""2983""
","
","","","1790","","","16","15548","6239","h","elianto","#f73b6a7A"," "," ","1","0","[2640.7000000029802]","1","2","","","15548","130","6","3","lose","go","0"
"pit-trial","249","1613982","0.0-135.0","battery-v0.2","","""event"",""trial"",""time""
""fullscreenenter"",""1"",""2983""
","
","
","""event"",""trial"",""time""
""fullscreenenter"",""1"",""2983""
","
","","","810.2000000029802","","","16","15548","6239","r","elianto","#3366ff99"," "," ","1","+10","[1661.8999999910593]","1","2","","","15548","131","8","1","win","go","0"
"pit-trial","250","1617710","0.0-136.0","battery-v0.2","","""event"",""trial"",""time""
""fullscreenenter"",""1"",""2983""
","
","
","""event"",""trial"",""time""
""fullscreenenter"",""1"",""2983""
","
","","","875.0999999940395","","","16","15548","6239","m","elianto","#3366ff99"," "," ","1","0","[1725.2999999970198]","1","2","","","15548","132","9","1","win","go","1"
"pit-trial","251","1622564","0.0-137.0","battery-v0.2","","""event"",""trial"",""time""
""fullscreenenter"",""1"",""2983""
","
","
","""event"",""trial"",""time""
""fullscreenenter"",""1"",""2983""
","
","","","-1","","","16","15548","6239","y","elianto","#f73b6a7A","-1","-1","1","0","[]","0","2","","","15548","133","7","4","lose","no-go","0"
"pit-trial","252","1626357","0.0-138.0","battery-v0.2","","""event"",""trial"",""time""
""fullscreenenter"",""1"",""2983""
","
","
","""event"",""trial"",""time""
""fullscreenenter"",""1"",""2983""
","
","","","940.8999999910593","","","16","15548","6239","h","elianto","#f73b6a7A"," "," ","1","0","[1791.7000000029802]","1","2","","","15548","134","6","3","lose","go","0"
"pit-trial","253","1629974","0.0-139.0","battery-v0.2","","""event"",""trial"",""time""
""fullscreenenter"",""1"",""2983""
","
","
","""event"",""trial"",""time""
""fullscreenenter"",""1"",""2983""
","
","","","763.7999999970198","","","16","15548","6239","r","elianto","#3366ff99"," "," ","1","+10","[1614.6000000089407]","1","2","","","15548","135","8","1","win","go","0"
"pit-trial","254","1633502","0.0-140.0","battery-v0.2","","""event"",""trial"",""time""
""fullscreenenter"",""1"",""2983""
","
","
","""event"",""trial"",""time""
""fullscreenenter"",""1"",""2983""
","
","","","675.3999999910593","","","16","15548","6239","m","elianto","#3366ff99"," "," ","1","+10","[1526.3999999910593]","1","2","","","15548","136","9","1","win","go","0"
"pit-trial","255","1638355","0.0-141.0","battery-v0.2","","""event"",""trial"",""time""
""fullscreenenter"",""1"",""2983""
","
","
","""event"",""trial"",""time""
""fullscreenenter"",""1"",""2983""
","
","","","-1","","","16","15548","6239","y","elianto","#f73b6a7A","-1","-1","1","0","[]","0","2","","","15548","137","7","4","lose","no-go","0"
"pit-trial","256","1643207","0.0-142.0","battery-v0.2","","""event"",""trial"",""time""
""fullscreenenter"",""1"",""2983""
","
","
","""event"",""trial"",""time""
""fullscreenenter"",""1"",""2983""
","
","","","-1","","","16","15548","6239","r","elianto","#3366ff99"," ","-1","0","0","[]","0","2","","","15548","138","8","1","win","go","0"
"pit-trial","257","1648060","0.0-143.0","battery-v0.2","","""event"",""trial"",""time""
""fullscreenenter"",""1"",""2983""
","
","
","""event"",""trial"",""time""
""fullscreenenter"",""1"",""2983""
","
","","","-1","","","16","15548","6239","m","elianto","#3366ff99"," ","-1","0","0","[]","0","2","","","15548","139","9","1","win","go","0"
"pit-trial","258","1652914","0.0-144.0","battery-v0.2","","""event"",""trial"",""time""
""fullscreenenter"",""1"",""2983""
","
","
","""event"",""trial"",""time""
""fullscreenenter"",""1"",""2983""
","
","","","-1","","","16","15548","6239","h","elianto","#f73b6a7A"," ","-1","0","-10","[]","0","2","","","15548","140","6","3","lose","go","0"
"pit-instructions","259","1946451","0.0-145.0","battery-v0.2","","""event"",""trial"",""time""
""fullscreenenter"",""1"",""2983""
","
","
","""event"",""trial"",""time""
""fullscreenenter"",""1"",""2983""
","
","","[{""page_index"":0,""viewing_time"":284988},{""page_index"":1,""viewing_time"":8547.70000000298}]","293535.799999997","","","","","","","","","","","","","","","","","","","","","","","",""
"pit-trial","260","1950856","0.0-146.0","battery-v0.2","","""event"",""trial"",""time""
""fullscreenenter"",""1"",""2983""
","
","
","""event"",""trial"",""time""
""fullscreenenter"",""1"",""2983""
","
","","","1546.2999999970198","","","16","15548","6239","j","elianto","#f73b6a7A","-1"," ","0","-10","[2396.6000000089407]","1","3","","","15548","141","0","4","lose","no-go","0"
"pit-trial","261","1954647","0.0-147.0","battery-v0.2","","""event"",""trial"",""time""
""fullscreenenter"",""1"",""2983""
","
","
","""event"",""trial"",""time""
""fullscreenenter"",""1"",""2983""
","
","","","916.8999999910593","","","16","15548","6239","e","elianto","#f73b6a7A","-1"," ","0","0","[1776.7000000029802]","1","3","","","15548","142","2","4","lose","no-go","1"
"pit-trial","262","1958401","0.0-148.0","battery-v0.2","","""event"",""trial"",""time""
""fullscreenenter"",""1"",""2983""
","
","
","""event"",""trial"",""time""
""fullscreenenter"",""1"",""2983""
","
","","","893.5","","","16","15548","6239","d","elianto","#3366ff99"," "," ","1","+10","[1746]","1","3","","","15548","143","1","1","win","go","0"
"pit-trial","263","1962049","0.0-149.0","battery-v0.2","","""event"",""trial"",""time""
""fullscreenenter"",""1"",""2983""
","
","
","""event"",""trial"",""time""
""fullscreenenter"",""1"",""2983""
","
","","","785.7000000029802","","","16","15548","6239","w","elianto","#f73b6a7A"," "," ","1","0","[1639.5]","1","3","","","15548","144","3","3","lose","go","0"
"pit-trial","264","1965714","0.0-150.0","battery-v0.2","","""event"",""trial"",""time""
""fullscreenenter"",""1"",""2983""
","
","
","""event"",""trial"",""time""
""fullscreenenter"",""1"",""2983""
","
","","","812.5","","","16","15548","6239","w","elianto","#f73b6a7A"," "," ","1","0","[1663.4000000059605]","1","3","","","15548","145","3","3","lose","go","0"
"pit-trial","265","1969566","0.0-151.0","battery-v0.2","","""event"",""trial"",""time""
""fullscreenenter"",""1"",""2983""
","
","
","""event"",""trial"",""time""
""fullscreenenter"",""1"",""2983""
","
","","","986.4000000059605","","","16","15548","6239","e","elianto","#f73b6a7A","-1"," ","0","0","[1838.5999999940395]","1","3","","","15548","146","2","4","lose","no-go","1"
"pit-trial","266","1973538","0.0-152.0","battery-v0.2","","""event"",""trial"",""time""
""fullscreenenter"",""1"",""2983""
","
","
","""event"",""trial"",""time""
""fullscreenenter"",""1"",""2983""
","
","","","1104.2999999970198","","","16","15548","6239","d","elianto","#3366ff99"," "," ","1","0","[1955]","1","3","","","15548","147","1","1","win","go","1"
