"trial_type","trial_index","time_elapsed","internal_node_id","task_version","subject_id","interactions","blur_events","focus_events","fullscreenenter_events","fullscreenexit_events","success","view_history","rt","responses","num_errors","age","subject","participantId","rune","rune_set","hex","correct","choice","accuracy","outcome","keys","total_keys","block","practice","value","sub","trial","stimulus","robot","valence","action","sham"
"pavlovia","0","7","0.0-0.0","battery-v0.2","","""event"",""trial"",""time""
""fullscreenenter"",""1"",""3052""
","
","
","""event"",""trial"",""time""
""fullscreenenter"",""1"",""3052""
","
","","","","","","","","","","","","","","","","","","","","","","","","","","",""
"fullscreen","1","4053","0.0-1.0","battery-v0.2","","""event"",""trial"",""time""
""fullscreenenter"",""1"",""3052""
","
","
","""event"",""trial"",""time""
""fullscreenenter"",""1"",""3052""
","
","true","","","","","","","","","","","","","","","","","","","","","","","","","",""
"pit-instructions","2","9207","0.0-2.0-0.0","battery-v0.2","","""event"",""trial"",""time""
""fullscreenenter"",""1"",""3052""
","
","
","""event"",""trial"",""time""
""fullscreenenter"",""1"",""3052""
","
","","[{""page_index"":0,""viewing_time"":5151.300000011921}]","5151.800000011921","","","","","","","","","","","","","","","","","","","","","","","",""
"pit-comprehension","3","13379","0.0-2.0-1.0-0.0","battery-v0.2","","""event"",""trial"",""time""
""fullscreenenter"",""1"",""3052""
","
","
","""event"",""trial"",""time""
""fullscreenenter"",""1"",""3052""
","
","","","4169.699999988079","[""shark""]","0","11","3497","2855","","","","","","","","","","","","","","","","","","",""
"pit-instructions","4","15129","0.0-2.0-1.0-1.0","battery-v0.2","","""event"",""trial"",""time""
""fullscreenenter"",""1"",""3052""
","
","
","""event"",""trial"",""time""
""fullscreenenter"",""1"",""3052""
","
","","[{""page_index"":0,""viewing_time"":1739.0999999642372}]","1739.300000011921","","","","","","","","","","","","","","","","","","","","","","","",""
"pit-comprehension","5","18897","0.0-2.0-2.0-0.0","battery-v0.2","","""event"",""trial"",""time""
""fullscreenenter"",""1"",""3052""
","
","
","""event"",""trial"",""time""
""fullscreenenter"",""1"",""3052""
","
","","","3766.199999988079","[""tiger""]","0","11","3497","2855","","","","","","","","","","","","","","","","","","",""
"pit-instructions","6","23231","0.0-2.0-2.0-1.0","battery-v0.2","","""event"",""trial"",""time""
""fullscreenenter"",""1"",""3052""
","
","
","""event"",""trial"",""time""
""fullscreenenter"",""1"",""3052""
","
","","[{""page_index"":0,""viewing_time"":4331.900000035763}]","4332.100000023842","","","","","","","","","","","","","","","","","","","","","","","",""
"pit-instructions","7","141725","0.0-2.0-3.0","battery-v0.2","","""event"",""trial"",""time""
""fullscreenenter"",""1"",""3052""
","
","
","""event"",""trial"",""time""
""fullscreenenter"",""1"",""3052""
","
","","[{""page_index"":0,""viewing_time"":17194.30000001192},{""page_index"":1,""viewing_time"":6779.900000035763},{""page_index"":2,""viewing_time"":10540.099999964237},{""page_index"":3,""viewing_time"":8476},{""page_index"":4,""viewing_time"":8710},{""page_index"":5,""viewing_time"":6203.699999988079},{""page_index"":6,""viewing_time"":5983.800000011921},{""page_index"":7,""viewing_time"":6890.100000023842},{""page_index"":8,""viewing_time"":6569.800000011921},{""page_index"":9,""viewing_time"":12510.199999988079},{""page_index"":10,""viewing_time"":9062.099999964237},{""page_index"":11,""viewing_time"":7695.600000023842},{""page_index"":12,""viewing_time"":6650},{""page_index"":13,""viewing_time"":5226.100000023842}]","118492","","","","","","","","","","","","","","","","","","","","","","","",""
"pit-trial","8","145404","0.0-2.0-4.0-0.0","battery-v0.2","","""event"",""trial"",""time""
""fullscreenenter"",""1"",""3052""
","
","
","""event"",""trial"",""time""
""fullscreenenter"",""1"",""3052""
","
","","","815.1000000238419","","","11","3497","2855","&#9784;","elianto","#FFFFF080"," "," ","1","&#10004","[1665.6000000238419]","1","0","0","","","","","","","",""
"pit-trial","9","148922","0.0-2.0-4.1-0.1","battery-v0.2","","""event"",""trial"",""time""
""fullscreenenter"",""1"",""3052""
","
","
","""event"",""trial"",""time""
""fullscreenenter"",""1"",""3052""
","
","","","640.8000000119209","","","11","3497","2855","&#9784;","elianto","#FFFFF080"," "," ","1","&#10004","[1497]","1","0","0","","","","","","","",""
"pit-trial","10","152370","0.0-2.0-4.2-0.2","battery-v0.2","","""event"",""trial"",""time""
""fullscreenenter"",""1"",""3052""
","
","
","""event"",""trial"",""time""
""fullscreenenter"",""1"",""3052""
","
","","","576.8000000119209","","","11","3497","2855","&#9784;","elianto","#FFFFF080"," "," ","1","&#10004","[1435.3999999761581]","1","0","0","","","","","","","",""
"pit-trial","11","155927","0.0-2.0-4.3-0.3","battery-v0.2","","""event"",""trial"",""time""
""fullscreenenter"",""1"",""3052""
","
","
","""event"",""trial"",""time""
""fullscreenenter"",""1"",""3052""
","
","","","681.5","","","11","3497","2855","&#9784;","elianto","#FFFFF080"," "," ","1","&#10004","[1539.4000000357628]","1","0","0","","","","","","","",""
"pit-trial","12","159385","0.0-2.0-4.4-0.4","battery-v0.2","","""event"",""trial"",""time""
""fullscreenenter"",""1"",""3052""
","
","
","""event"",""trial"",""time""
""fullscreenenter"",""1"",""3052""
","
","","","592.6999999880791","","","11","3497","2855","&#9784;","elianto","#FFFFF080"," "," ","1","&#10004","[1445.8999999761581]","1","0","0","","","","","","","",""
"pit-instructions","13","182894","0.0-2.0-5.0","battery-v0.2","","""event"",""trial"",""time""
""fullscreenenter"",""1"",""3052""
","
","
","""event"",""trial"",""time""
""fullscreenenter"",""1"",""3052""
","
","","[{""page_index"":0,""viewing_time"":4813.900000035763},{""page_index"":1,""viewing_time"":7397.899999976158},{""page_index"":2,""viewing_time"":5422.300000011921},{""page_index"":3,""viewing_time"":5873.699999988079}]","23508.100000023842","","","","","","","","","","","","","","","","","","","","","","","",""
"pit-trial","14","187770","0.0-2.0-6.0-0.0","battery-v0.2","","""event"",""trial"",""time""
""fullscreenenter"",""1"",""3052""
","
","
","""event"",""trial"",""time""
""fullscreenenter"",""1"",""3052""
","
","","","-1","","","11","3497","2855","&#9854;","elianto","#FFFFF080","-1","-1","1","&#10004","[]","0","0","1","","","","","","","",""
"pit-trial","15","192637","0.0-2.0-6.1-0.1","battery-v0.2","","""event"",""trial"",""time""
""fullscreenenter"",""1"",""3052""
","
","
","""event"",""trial"",""time""
""fullscreenenter"",""1"",""3052""
","
","","","-1","","","11","3497","2855","&#9854;","elianto","#FFFFF080","-1","-1","1","&#10004","[]","0","0","1","","","","","","","",""
"pit-trial","16","197514","0.0-2.0-6.2-0.2","battery-v0.2","","""event"",""trial"",""time""
""fullscreenenter"",""1"",""3052""
","
","
","""event"",""trial"",""time""
""fullscreenenter"",""1"",""3052""
","
","","","-1","","","11","3497","2855","&#9854;","elianto","#FFFFF080","-1","-1","1","&#10004","[]","0","0","1","","","","","","","",""
"pit-trial","17","202381","0.0-2.0-6.3-0.3","battery-v0.2","","""event"",""trial"",""time""
""fullscreenenter"",""1"",""3052""
","
","
","""event"",""trial"",""time""
""fullscreenenter"",""1"",""3052""
","
","","","-1","","","11","3497","2855","&#9854;","elianto","#FFFFF080","-1","-1","1","&#10004","[]","0","0","1","","","","","","","",""
"pit-trial","18","207253","0.0-2.0-6.4-0.4","battery-v0.2","","""event"",""trial"",""time""
""fullscreenenter"",""1"",""3052""
","
","
","""event"",""trial"",""time""
""fullscreenenter"",""1"",""3052""
","
","","","-1","","","11","3497","2855","&#9854;","elianto","#FFFFF080","-1","-1","1","&#10004","[]","0","0","1","","","","","","","",""
"pit-instructions","19","333590","0.0-2.0-7.0","battery-v0.2","","""event"",""trial"",""time""
""fullscreenenter"",""1"",""3052""
","
","
","""event"",""trial"",""time""
""fullscreenenter"",""1"",""3052""
","
","","[{""page_index"":0,""viewing_time"":5907.5},{""page_index"":1,""viewing_time"":7147.899999976158},{""page_index"":2,""viewing_time"":7815.899999976158},{""page_index"":3,""viewing_time"":8270.200000047684},{""page_index"":4,""viewing_time"":5809.899999976158},{""page_index"":5,""viewing_time"":6103.899999976158},{""page_index"":6,""viewing_time"":5208},{""page_index"":7,""viewing_time"":7648.100000023842},{""page_index"":8,""viewing_time"":7103.899999976158},{""page_index"":9,""viewing_time"":6352},{""page_index"":10,""viewing_time"":6912.5},{""page_index"":11,""viewing_time"":5679.400000035763},{""page_index"":12,""viewing_time"":7840.099999964237},{""page_index"":13,""viewing_time"":7951.900000035763},{""page_index"":14,""viewing_time"":7472},{""page_index"":15,""viewing_time"":7552.099999964237},{""page_index"":16,""viewing_time"":7488},{""page_index"":17,""viewing_time"":8071.900000035763}]","126335.5","","","","","","","","","","","","","","","","","","","","","","","",""
"pit-trial","20","338464","0.0-2.0-8.0-0.0","battery-v0.2","","""event"",""trial"",""time""
""fullscreenenter"",""1"",""3052""
","
","
","""event"",""trial"",""time""
""fullscreenenter"",""1"",""3052""
","
","","","-1","","","11","3497","2855","&#9776;","elianto","#3366ff99"," ","-1","0","0","[]","0","0","1","","","","","","","",""
"pit-trial","21","343339","0.0-2.0-8.0-1.0","battery-v0.2","","""event"",""trial"",""time""
""fullscreenenter"",""1"",""3052""
","
","
","""event"",""trial"",""time""
""fullscreenenter"",""1"",""3052""
","
","","","-1","","","11","3497","2855","&#9776;","elianto","#3366ff99"," ","-1","0","0","[]","0","0","1","","","","","","","",""
"pit-trial","22","346477","0.0-2.0-8.0-2.0","battery-v0.2","","""event"",""trial"",""time""
""fullscreenenter"",""1"",""3052""
","
","
","""event"",""trial"",""time""
""fullscreenenter"",""1"",""3052""
","
","","","277.60000002384186","","","11","3497","2855","&#9776;","elianto","#3366ff99"," "," ","1","+10","[1129.3999999761581]","1","0","1","","","","","","","",""
"pit-trial","23","349430","0.0-2.0-8.0-3.0","battery-v0.2","","""event"",""trial"",""time""
""fullscreenenter"",""1"",""3052""
","
","
","""event"",""trial"",""time""
""fullscreenenter"",""1"",""3052""
","
","","","92.90000003576279","","","11","3497","2855","&#9776;","elianto","#3366ff99"," "," ","1","0","[328.19999998807907,648.1000000238419,944.1000000238419,1168.199999988079,1712.199999988079,2104.100000023842,2408.100000023842,2712.100000023842,2952.199999988079]","9","0","1","","","","","","","",""
"pit-trial","24","352364","0.0-2.0-8.0-4.0","battery-v0.2","","""event"",""trial"",""time""
""fullscreenenter"",""1"",""3052""
","
","
","""event"",""trial"",""time""
""fullscreenenter"",""1"",""3052""
","
","","","76","","","11","3497","2855","&#9776;","elianto","#3366ff99"," "," ","1","+10","[247.0999999642372,511,687.3999999761581,927,1087,1703,1975,2183,2399,2631,2831]","11","0","1","","","","","","","",""
"pit-trial","25","355255","0.0-2.0-8.1-0.1","battery-v0.2","","""event"",""trial"",""time""
""fullscreenenter"",""1"",""3052""
","
","
","""event"",""trial"",""time""
""fullscreenenter"",""1"",""3052""
","
","","","20.30000001192093","","","11","3497","2855","&#9776;","elianto","#3366ff99"," "," ","1","+10","[96,288.0999999642372,496,672.3999999761581,872.3999999761581,1080,1304,1480,1752,1888,2144]","11","0","1","","","","","","","",""
"pit-trial","26","359245","0.0-2.0-8.1-1.1","battery-v0.2","","""event"",""trial"",""time""
""fullscreenenter"",""1"",""3052""
","
","
","""event"",""trial"",""time""
""fullscreenenter"",""1"",""3052""
","
","","","1123.1000000238419","","","11","3497","2855","&#9776;","elianto","#3366ff99"," "," ","1","+10","[1973.9000000357628,3245.900000035763]","2","0","1","","","","","","","",""
"pit-trial","27","362600","0.0-2.0-8.1-2.1","battery-v0.2","","""event"",""trial"",""time""
""fullscreenenter"",""1"",""3052""
","
","
","""event"",""trial"",""time""
""fullscreenenter"",""1"",""3052""
","
","","","481.10000002384186","","","11","3497","2855","&#9776;","elianto","#3366ff99"," "," ","1","+10","[1336.1000000238419]","1","0","1","","","","","","","",""
"pit-trial","28","365869","0.0-2.0-8.1-3.1","battery-v0.2","","""event"",""trial"",""time""
""fullscreenenter"",""1"",""3052""
","
","
","""event"",""trial"",""time""
""fullscreenenter"",""1"",""3052""
","
","","","400.30000001192093","","","11","3497","2855","&#9776;","elianto","#3366ff99"," "," ","1","0","[1259.300000011921]","1","0","1","","","","","","","",""
"pit-trial","29","369005","0.0-2.0-8.1-4.1","battery-v0.2","","""event"",""trial"",""time""
""fullscreenenter"",""1"",""3052""
","
","
","""event"",""trial"",""time""
""fullscreenenter"",""1"",""3052""
","
","","","273.2999999523163","","","11","3497","2855","&#9776;","elianto","#3366ff99"," "," ","1","+10","[1128.3999999761581]","1","0","1","","","","","","","",""
"pit-trial","30","372462","0.0-2.0-8.2-0.2","battery-v0.2","","""event"",""trial"",""time""
""fullscreenenter"",""1"",""3052""
","
","
","""event"",""trial"",""time""
""fullscreenenter"",""1"",""3052""
","
","","","592.1999999880791","","","11","3497","2855","&#9776;","elianto","#3366ff99"," "," ","1","+10","[1447.9000000357628]","1","0","1","","","","","","","",""
"pit-trial","31","376038","0.0-2.0-8.2-1.2","battery-v0.2","","""event"",""trial"",""time""
""fullscreenenter"",""1"",""3052""
","
","
","""event"",""trial"",""time""
""fullscreenenter"",""1"",""3052""
","
","","","712.6999999880791","","","11","3497","2855","&#9776;","elianto","#3366ff99"," "," ","1","+10","[1567.199999988079]","1","0","1","","","","","","","",""
"pit-trial","32","379541","0.0-2.0-8.2-2.2","battery-v0.2","","""event"",""trial"",""time""
""fullscreenenter"",""1"",""3052""
","
","
","""event"",""trial"",""time""
""fullscreenenter"",""1"",""3052""
","
","","","642.1999999880791","","","11","3497","2855","&#9776;","elianto","#3366ff99"," "," ","1","+10","[1495.300000011921]","1","0","1","","","","","","","",""
"pit-trial","33","382901","0.0-2.0-8.2-3.2","battery-v0.2","","""event"",""trial"",""time""
""fullscreenenter"",""1"",""3052""
","
","
","""event"",""trial"",""time""
""fullscreenenter"",""1"",""3052""
","
","","","499","","","11","3497","2855","&#9776;","elianto","#3366ff99"," "," ","1","0","[1352.5999999642372]","1","0","1","","","","","","","",""
"pit-trial","34","386294","0.0-2.0-8.2-4.2","battery-v0.2","","""event"",""trial"",""time""
""fullscreenenter"",""1"",""3052""
","
","
","""event"",""trial"",""time""
""fullscreenenter"",""1"",""3052""
","
","","","529.5","","","11","3497","2855","&#9776;","elianto","#3366ff99"," "," ","1","+10","[1383.5]","1","0","1","","","","","","","",""
"call-function","35","386294","0.0-2.0-9.0","battery-v0.2","","""event"",""trial"",""time""
""fullscreenenter"",""1"",""3052""
","
","
","""event"",""trial"",""time""
""fullscreenenter"",""1"",""3052""
","
","","","","","","","","","","","","","","","","","","","","","","","","","","",""
"pit-instructions","36","430054","0.0-2.0-10.0","battery-v0.2","","""event"",""trial"",""time""
""fullscreenenter"",""1"",""3052""
","
","
","""event"",""trial"",""time""
""fullscreenenter"",""1"",""3052""
","
","","[{""page_index"":0,""viewing_time"":10426.899999976158},{""page_index"":1,""viewing_time"":7107.900000035763},{""page_index"":2,""viewing_time"":9184},{""page_index"":3,""viewing_time"":8608},{""page_index"":4,""viewing_time"":8431.899999976158}]","43759","","","","","","","","","","","","","","","","","","","","","","","",""
"pit-trial","37","434917","0.0-2.0-11.0-0.0","battery-v0.2","","""event"",""trial"",""time""
""fullscreenenter"",""1"",""3052""
","
","
","""event"",""trial"",""time""
""fullscreenenter"",""1"",""3052""
","
","","","-1","","","11","3497","2855","&#9761;","elianto","#3366ff99","-1","-1","1","+10","[]","0","0","2","","","","","","","",""
"pit-trial","38","439791","0.0-2.0-11.0-1.0","battery-v0.2","","""event"",""trial"",""time""
""fullscreenenter"",""1"",""3052""
","
","
","""event"",""trial"",""time""
""fullscreenenter"",""1"",""3052""
","
","","","-1","","","11","3497","2855","&#9761;","elianto","#3366ff99","-1","-1","1","+10","[]","0","0","2","","","","","","","",""
"pit-trial","39","444662","0.0-2.0-11.0-2.0","battery-v0.2","","""event"",""trial"",""time""
""fullscreenenter"",""1"",""3052""
","
","
","""event"",""trial"",""time""
""fullscreenenter"",""1"",""3052""
","
","","","-1","","","11","3497","2855","&#9761;","elianto","#3366ff99","-1","-1","1","+10","[]","0","0","2","","","","","","","",""
"pit-trial","40","449533","0.0-2.0-11.0-3.0","battery-v0.2","","""event"",""trial"",""time""
""fullscreenenter"",""1"",""3052""
","
","
","""event"",""trial"",""time""
""fullscreenenter"",""1"",""3052""
","
","","","-1","","","11","3497","2855","&#9761;","elianto","#3366ff99","-1","-1","1","0","[]","0","0","2","","","","","","","",""
"pit-trial","41","454406","0.0-2.0-11.0-4.0","battery-v0.2","","""event"",""trial"",""time""
""fullscreenenter"",""1"",""3052""
","
","
","""event"",""trial"",""time""
""fullscreenenter"",""1"",""3052""
","
","","","-1","","","11","3497","2855","&#9761;","elianto","#3366ff99","-1","-1","1","+10","[]","0","0","2","","","","","","","",""
"pit-trial","42","459269","0.0-2.0-11.1-0.1","battery-v0.2","","""event"",""trial"",""time""
""fullscreenenter"",""1"",""3052""
","
","
","""event"",""trial"",""time""
""fullscreenenter"",""1"",""3052""
","
","","","-1","","","11","3497","2855","&#9761;","elianto","#3366ff99","-1","-1","1","+10","[]","0","0","2","","","","","","","",""
"pit-trial","43","464134","0.0-2.0-11.1-1.1","battery-v0.2","","""event"",""trial"",""time""
""fullscreenenter"",""1"",""3052""
","
","
","""event"",""trial"",""time""
""fullscreenenter"",""1"",""3052""
","
","","","-1","","","11","3497","2855","&#9761;","elianto","#3366ff99","-1","-1","1","+10","[]","0","0","2","","","","","","","",""
"pit-trial","44","468997","0.0-2.0-11.1-2.1","battery-v0.2","","""event"",""trial"",""time""
""fullscreenenter"",""1"",""3052""
","
","
","""event"",""trial"",""time""
""fullscreenenter"",""1"",""3052""
","
","","","-1","","","11","3497","2855","&#9761;","elianto","#3366ff99","-1","-1","1","+10","[]","0","0","2","","","","","","","",""
"pit-trial","45","473862","0.0-2.0-11.1-3.1","battery-v0.2","","""event"",""trial"",""time""
""fullscreenenter"",""1"",""3052""
","
","
","""event"",""trial"",""time""
""fullscreenenter"",""1"",""3052""
","
","","","-1","","","11","3497","2855","&#9761;","elianto","#3366ff99","-1","-1","1","0","[]","0","0","2","","","","","","","",""
"pit-trial","46","478725","0.0-2.0-11.1-4.1","battery-v0.2","","""event"",""trial"",""time""
""fullscreenenter"",""1"",""3052""
","
","
","""event"",""trial"",""time""
""fullscreenenter"",""1"",""3052""
","
","","","-1","","","11","3497","2855","&#9761;","elianto","#3366ff99","-1","-1","1","+10","[]","0","0","2","","","","","","","",""
"pit-trial","47","483589","0.0-2.0-11.2-0.2","battery-v0.2","","""event"",""trial"",""time""
""fullscreenenter"",""1"",""3052""
","
","
","""event"",""trial"",""time""
""fullscreenenter"",""1"",""3052""
","
","","","-1","","","11","3497","2855","&#9761;","elianto","#3366ff99","-1","-1","1","+10","[]","0","0","2","","","","","","","",""
"pit-trial","48","488453","0.0-2.0-11.2-1.2","battery-v0.2","","""event"",""trial"",""time""
""fullscreenenter"",""1"",""3052""
","
","
","""event"",""trial"",""time""
""fullscreenenter"",""1"",""3052""
","
","","","-1","","","11","3497","2855","&#9761;","elianto","#3366ff99","-1","-1","1","+10","[]","0","0","2","","","","","","","",""
"pit-trial","49","493317","0.0-2.0-11.2-2.2","battery-v0.2","","""event"",""trial"",""time""
""fullscreenenter"",""1"",""3052""
","
","
","""event"",""trial"",""time""
""fullscreenenter"",""1"",""3052""
","
","","","-1","","","11","3497","2855","&#9761;","elianto","#3366ff99","-1","-1","1","+10","[]","0","0","2","","","","","","","",""
"pit-trial","50","498181","0.0-2.0-11.2-3.2","battery-v0.2","","""event"",""trial"",""time""
""fullscreenenter"",""1"",""3052""
","
","
","""event"",""trial"",""time""
""fullscreenenter"",""1"",""3052""
","
","","","-1","","","11","3497","2855","&#9761;","elianto","#3366ff99","-1","-1","1","0","[]","0","0","2","","","","","","","",""
"pit-trial","51","503052","0.0-2.0-11.2-4.2","battery-v0.2","","""event"",""trial"",""time""
""fullscreenenter"",""1"",""3052""
","
","
","""event"",""trial"",""time""
""fullscreenenter"",""1"",""3052""
","
","","","-1","","","11","3497","2855","&#9761;","elianto","#3366ff99","-1","-1","1","+10","[]","0","0","2","","","","","","","",""
"pit-trial","52","507916","0.0-2.0-11.3-0.3","battery-v0.2","","""event"",""trial"",""time""
""fullscreenenter"",""1"",""3052""
","
","
","""event"",""trial"",""time""
""fullscreenenter"",""1"",""3052""
","
","","","-1","","","11","3497","2855","&#9761;","elianto","#3366ff99","-1","-1","1","+10","[]","0","0","2","","","","","","","",""
"pit-trial","53","512781","0.0-2.0-11.3-1.3","battery-v0.2","","""event"",""trial"",""time""
""fullscreenenter"",""1"",""3052""
","
","
","""event"",""trial"",""time""
""fullscreenenter"",""1"",""3052""
","
","","","-1","","","11","3497","2855","&#9761;","elianto","#3366ff99","-1","-1","1","+10","[]","0","0","2","","","","","","","",""
"pit-trial","54","517646","0.0-2.0-11.3-2.3","battery-v0.2","","""event"",""trial"",""time""
""fullscreenenter"",""1"",""3052""
","
","
","""event"",""trial"",""time""
""fullscreenenter"",""1"",""3052""
","
","","","-1","","","11","3497","2855","&#9761;","elianto","#3366ff99","-1","-1","1","+10","[]","0","0","2","","","","","","","",""
"pit-trial","55","522508","0.0-2.0-11.3-3.3","battery-v0.2","","""event"",""trial"",""time""
""fullscreenenter"",""1"",""3052""
","
","
","""event"",""trial"",""time""
""fullscreenenter"",""1"",""3052""
","
","","","-1","","","11","3497","2855","&#9761;","elianto","#3366ff99","-1","-1","1","0","[]","0","0","2","","","","","","","",""
"pit-trial","56","527372","0.0-2.0-11.3-4.3","battery-v0.2","","""event"",""trial"",""time""
""fullscreenenter"",""1"",""3052""
","
","
","""event"",""trial"",""time""
""fullscreenenter"",""1"",""3052""
","
","","","-1","","","11","3497","2855","&#9761;","elianto","#3366ff99","-1","-1","1","+10","[]","0","0","2","","","","","","","",""
"call-function","57","527373","0.0-2.0-12.0","battery-v0.2","","""event"",""trial"",""time""
""fullscreenenter"",""1"",""3052""
","
","
","""event"",""trial"",""time""
""fullscreenenter"",""1"",""3052""
","
","","","","","","","","","","","","","","","","","","","","","","","","","","",""
"pit-instructions","58","564230","0.0-2.0-13.0","battery-v0.2","","""event"",""trial"",""time""
""fullscreenenter"",""1"",""3052""
","
","
","""event"",""trial"",""time""
""fullscreenenter"",""1"",""3052""
","
","","[{""page_index"":0,""viewing_time"":6489.800000011921},{""page_index"":1,""viewing_time"":7525.900000035763},{""page_index"":2,""viewing_time"":4048},{""page_index"":3,""viewing_time"":13208},{""page_index"":4,""viewing_time"":5584}]","36856","","","","","","","","","","","","","","","","","","","","","","","",""
"pit-trial","59","567563","0.0-2.0-14.0-0.0","battery-v0.2","","""event"",""trial"",""time""
""fullscreenenter"",""1"",""3052""
","
","
","""event"",""trial"",""time""
""fullscreenenter"",""1"",""3052""
","
","","","460.9000000357628","","","11","3497","2855","&#9826;","elianto","#f73b6a7A","-1"," ","0","-10","[1311.1000000238419]","1","0","3","","","","","","","",""
"pit-trial","60","572446","0.0-2.0-14.0-1.0","battery-v0.2","","""event"",""trial"",""time""
""fullscreenenter"",""1"",""3052""
","
","
","""event"",""trial"",""time""
""fullscreenenter"",""1"",""3052""
","
","","","-1","","","11","3497","2855","&#9826;","elianto","#f73b6a7A","-1","-1","1","0","[]","0","0","3","","","","","","","",""
"pit-trial","61","577330","0.0-2.0-14.0-2.0","battery-v0.2","","""event"",""trial"",""time""
""fullscreenenter"",""1"",""3052""
","
","
","""event"",""trial"",""time""
""fullscreenenter"",""1"",""3052""
","
","","","-1","","","11","3497","2855","&#9826;","elianto","#f73b6a7A","-1","-1","1","0","[]","0","0","3","","","","","","","",""
"pit-trial","62","582216","0.0-2.0-14.0-3.0","battery-v0.2","","""event"",""trial"",""time""
""fullscreenenter"",""1"",""3052""
","
","
","""event"",""trial"",""time""
""fullscreenenter"",""1"",""3052""
","
","","","-1","","","11","3497","2855","&#9826;","elianto","#f73b6a7A","-1","-1","1","-10","[]","0","0","3","","","","","","","",""
"pit-trial","63","587096","0.0-2.0-14.0-4.0","battery-v0.2","","""event"",""trial"",""time""
""fullscreenenter"",""1"",""3052""
","
","
","""event"",""trial"",""time""
""fullscreenenter"",""1"",""3052""
","
","","","-1","","","11","3497","2855","&#9826;","elianto","#f73b6a7A","-1","-1","1","0","[]","0","0","3","","","","","","","",""
"pit-trial","64","591971","0.0-2.0-14.1-0.1","battery-v0.2","","""event"",""trial"",""time""
""fullscreenenter"",""1"",""3052""
","
","
","""event"",""trial"",""time""
""fullscreenenter"",""1"",""3052""
","
","","","-1","","","11","3497","2855","&#9826;","elianto","#f73b6a7A","-1","-1","1","0","[]","0","0","3","","","","","","","",""
"pit-trial","65","596837","0.0-2.0-14.1-1.1","battery-v0.2","","""event"",""trial"",""time""
""fullscreenenter"",""1"",""3052""
","
","
","""event"",""trial"",""time""
""fullscreenenter"",""1"",""3052""
","
","","","-1","","","11","3497","2855","&#9826;","elianto","#f73b6a7A","-1","-1","1","0","[]","0","0","3","","","","","","","",""
"pit-trial","66","601701","0.0-2.0-14.1-2.1","battery-v0.2","","""event"",""trial"",""time""
""fullscreenenter"",""1"",""3052""
","
","
","""event"",""trial"",""time""
""fullscreenenter"",""1"",""3052""
","
","","","-1","","","11","3497","2855","&#9826;","elianto","#f73b6a7A","-1","-1","1","0","[]","0","0","3","","","","","","","",""
"pit-trial","67","606565","0.0-2.0-14.1-3.1","battery-v0.2","","""event"",""trial"",""time""
""fullscreenenter"",""1"",""3052""
","
","
","""event"",""trial"",""time""
""fullscreenenter"",""1"",""3052""
","
","","","-1","","","11","3497","2855","&#9826;","elianto","#f73b6a7A","-1","-1","1","-10","[]","0","0","3","","","","","","","",""
"pit-trial","68","611429","0.0-2.0-14.1-4.1","battery-v0.2","","""event"",""trial"",""time""
""fullscreenenter"",""1"",""3052""
","
","
","""event"",""trial"",""time""
""fullscreenenter"",""1"",""3052""
","
","","","-1","","","11","3497","2855","&#9826;","elianto","#f73b6a7A","-1","-1","1","0","[]","0","0","3","","","","","","","",""
"pit-trial","69","616292","0.0-2.0-14.2-0.2","battery-v0.2","","""event"",""trial"",""time""
""fullscreenenter"",""1"",""3052""
","
","
","""event"",""trial"",""time""
""fullscreenenter"",""1"",""3052""
","
","","","-1","","","11","3497","2855","&#9826;","elianto","#f73b6a7A","-1","-1","1","0","[]","0","0","3","","","","","","","",""
"pit-trial","70","621156","0.0-2.0-14.2-1.2","battery-v0.2","","""event"",""trial"",""time""
""fullscreenenter"",""1"",""3052""
","
","
","""event"",""trial"",""time""
""fullscreenenter"",""1"",""3052""
","
","","","-1","","","11","3497","2855","&#9826;","elianto","#f73b6a7A","-1","-1","1","0","[]","0","0","3","","","","","","","",""
"pit-trial","71","626021","0.0-2.0-14.2-2.2","battery-v0.2","","""event"",""trial"",""time""
""fullscreenenter"",""1"",""3052""
","
","
","""event"",""trial"",""time""
""fullscreenenter"",""1"",""3052""
","
","","","-1","","","11","3497","2855","&#9826;","elianto","#f73b6a7A","-1","-1","1","0","[]","0","0","3","","","","","","","",""
"pit-trial","72","630884","0.0-2.0-14.2-3.2","battery-v0.2","","""event"",""trial"",""time""
""fullscreenenter"",""1"",""3052""
","
","
","""event"",""trial"",""time""
""fullscreenenter"",""1"",""3052""
","
","","","-1","","","11","3497","2855","&#9826;","elianto","#f73b6a7A","-1","-1","1","-10","[]","0","0","3","","","","","","","",""
"pit-trial","73","635749","0.0-2.0-14.2-4.2","battery-v0.2","","""event"",""trial"",""time""
""fullscreenenter"",""1"",""3052""
","
","
","""event"",""trial"",""time""
""fullscreenenter"",""1"",""3052""
","
","","","-1","","","11","3497","2855","&#9826;","elianto","#f73b6a7A","-1","-1","1","0","[]","0","0","3","","","","","","","",""
"pit-trial","74","640612","0.0-2.0-14.3-0.3","battery-v0.2","","""event"",""trial"",""time""
""fullscreenenter"",""1"",""3052""
","
","
","""event"",""trial"",""time""
""fullscreenenter"",""1"",""3052""
","
","","","-1","","","11","3497","2855","&#9826;","elianto","#f73b6a7A","-1","-1","1","0","[]","0","0","3","","","","","","","",""
"pit-trial","75","645476","0.0-2.0-14.3-1.3","battery-v0.2","","""event"",""trial"",""time""
""fullscreenenter"",""1"",""3052""
","
","
","""event"",""trial"",""time""
""fullscreenenter"",""1"",""3052""
","
","","","-1","","","11","3497","2855","&#9826;","elianto","#f73b6a7A","-1","-1","1","0","[]","0","0","3","","","","","","","",""
"pit-trial","76","650333","0.0-2.0-14.3-2.3","battery-v0.2","","""event"",""trial"",""time""
""fullscreenenter"",""1"",""3052""
","
","
","""event"",""trial"",""time""
""fullscreenenter"",""1"",""3052""
","
","","","-1","","","11","3497","2855","&#9826;","elianto","#f73b6a7A","-1","-1","1","0","[]","0","0","3","","","","","","","",""
"pit-trial","77","655199","0.0-2.0-14.3-3.3","battery-v0.2","","""event"",""trial"",""time""
""fullscreenenter"",""1"",""3052""
","
","
","""event"",""trial"",""time""
""fullscreenenter"",""1"",""3052""
","
","","","-1","","","11","3497","2855","&#9826;","elianto","#f73b6a7A","-1","-1","1","-10","[]","0","0","3","","","","","","","",""
"pit-trial","78","660061","0.0-2.0-14.3-4.3","battery-v0.2","","""event"",""trial"",""time""
""fullscreenenter"",""1"",""3052""
","
","
","""event"",""trial"",""time""
""fullscreenenter"",""1"",""3052""
","
","","","-1","","","11","3497","2855","&#9826;","elianto","#f73b6a7A","-1","-1","1","0","[]","0","0","3","","","","","","","",""
"call-function","79","660062","0.0-2.0-15.0","battery-v0.2","","""event"",""trial"",""time""
""fullscreenenter"",""1"",""3052""
","
","
","""event"",""trial"",""time""
""fullscreenenter"",""1"",""3052""
","
","","","","","","","","","","","","","","","","","","","","","","","","","","",""
"pit-instructions","80","704117","0.0-2.0-16.0","battery-v0.2","","""event"",""trial"",""time""
""fullscreenenter"",""1"",""3052""
","
","
","""event"",""trial"",""time""
""fullscreenenter"",""1"",""3052""
","
","","[{""page_index"":0,""viewing_time"":10681.200000047684},{""page_index"":1,""viewing_time"":22053.899999976158},{""page_index"":2,""viewing_time"":6432},{""page_index"":3,""viewing_time"":4888.100000023842}]","44055.40000003576","","","","","","","","","","","","","","","","","","","","","","","",""
"pit-trial","81","707432","0.0-2.0-17.0-0.0","battery-v0.2","","""event"",""trial"",""time""
""fullscreenenter"",""1"",""3052""
","
","
","""event"",""trial"",""time""
""fullscreenenter"",""1"",""3052""
","
","","","452.5","","","11","3497","2855","&#9789;","elianto","#f73b6a7A"," "," ","1","0","[1303.1000000238419]","1","0","4","","","","","","","",""
"pit-trial","82","710354","0.0-2.0-17.0-1.0","battery-v0.2","","""event"",""trial"",""time""
""fullscreenenter"",""1"",""3052""
","
","
","""event"",""trial"",""time""
""fullscreenenter"",""1"",""3052""
","
","","","49.89999997615814","","","11","3497","2855","&#9789;","elianto","#f73b6a7A"," "," ","1","0","[900,2107.800000011921,2380,2732]","4","0","4","","","","","","","",""
"pit-trial","83","713602","0.0-2.0-17.0-2.0","battery-v0.2","","""event"",""trial"",""time""
""fullscreenenter"",""1"",""3052""
","
","
","""event"",""trial"",""time""
""fullscreenenter"",""1"",""3052""
","
","","","381","","","11","3497","2855","&#9789;","elianto","#f73b6a7A"," "," ","1","0","[266.5,746.5,1234.699999988079,1690.6000000238419,2186.399999976158,2610.800000011921,3010.800000011921]","7","0","4","","","","","","","",""
"pit-trial","84","716631","0.0-2.0-17.0-3.0","battery-v0.2","","""event"",""trial"",""time""
""fullscreenenter"",""1"",""3052""
","
","
","""event"",""trial"",""time""
""fullscreenenter"",""1"",""3052""
","
","","","160.5","","","11","3497","2855","&#9789;","elianto","#f73b6a7A"," "," ","1","-10","[161.79999995231628,609.5,1017.5,1409.5,1849.7999999523163,2393.699999988079,2777.599999964237]","7","0","4","","","","","","","",""
"pit-trial","85","719793","0.0-2.0-17.0-4.0","battery-v0.2","","""event"",""trial"",""time""
""fullscreenenter"",""1"",""3052""
","
","
","""event"",""trial"",""time""
""fullscreenenter"",""1"",""3052""
","
","","","290.5","","","11","3497","2855","&#9789;","elianto","#f73b6a7A"," "," ","1","0","[213.19999998807907,765.1000000238419,1141.1000000238419,1605.5,1989.199999988079,2349.300000011921,2933.199999988079]","7","0","4","","","","","","","",""
"pit-trial","86","722750","0.0-2.0-17.1-0.1","battery-v0.2","","""event"",""trial"",""time""
""fullscreenenter"",""1"",""3052""
","
","
","""event"",""trial"",""time""
""fullscreenenter"",""1"",""3052""
","
","","","90.60000002384186","","","11","3497","2855","&#9789;","elianto","#f73b6a7A"," "," ","1","0","[179.19999998807907,563.1999999880791,947.8000000119209,1459.3999999761581,1819.3999999761581,2427.899999976158,2812.100000023842]","7","0","4","","","","","","","",""
"pit-trial","87","725746","0.0-2.0-17.1-1.1","battery-v0.2","","""event"",""trial"",""time""
""fullscreenenter"",""1"",""3052""
","
","
","""event"",""trial"",""time""
""fullscreenenter"",""1"",""3052""
","
","","","121.19999998807907","","","11","3497","2855","&#9789;","elianto","#f73b6a7A"," "," ","1","0","[494.89999997615814,974.8999999761581,1487.0999999642372,2014.800000011921,2486.699999988079]","5","0","4","","","","","","","",""
"pit-trial","88","728849","0.0-2.0-17.1-2.1","battery-v0.2","","""event"",""trial"",""time""
""fullscreenenter"",""1"",""3052""
","
","
","""event"",""trial"",""time""
""fullscreenenter"",""1"",""3052""
","
","","","232.89999997615814","","","11","3497","2855","&#9789;","elianto","#f73b6a7A"," "," ","1","0","[35.19999998807907,563.1999999880791,1091.3999999761581,1635.1000000238419,2107.100000023842,2659.399999976158]","6","0","4","","","","","","","",""
"pit-trial","89","731850","0.0-2.0-17.1-3.1","battery-v0.2","","""event"",""trial"",""time""
""fullscreenenter"",""1"",""3052""
","
","
","""event"",""trial"",""time""
""fullscreenenter"",""1"",""3052""
","
","","","129","","","11","3497","2855","&#9789;","elianto","#f73b6a7A"," "," ","1","-10","[34.59999996423721,498.5,986.3999999761581,1434.699999988079,1842.699999988079,2370.5,2858.5]","7","0","4","","","","","","","",""
"pit-trial","90","735013","0.0-2.0-17.1-4.1","battery-v0.2","","""event"",""trial"",""time""
""fullscreenenter"",""1"",""3052""
","
","
","""event"",""trial"",""time""
""fullscreenenter"",""1"",""3052""
","
","","","296.9000000357628","","","11","3497","2855","&#9789;","elianto","#f73b6a7A"," "," ","1","0","[323.80000001192093,779,1155.1000000238419,1627.300000011921,2147.199999988079,2851]","6","0","4","","","","","","","",""
"pit-trial","91","738085","0.0-2.0-17.2-0.2","battery-v0.2","","""event"",""trial"",""time""
""fullscreenenter"",""1"",""3052""
","
","
","""event"",""trial"",""time""
""fullscreenenter"",""1"",""3052""
","
","","","202.70000004768372","","","11","3497","2855","&#9789;","elianto","#f73b6a7A"," "," ","1","0","[462.80000001192093,798.8000000119209,1054.699999988079,1254.699999988079,1598.8999999761581,1838.8999999761581,2070.800000011921,2246.699999988079,2422.800000011921,2598.899999976158,2830.899999976158]","11","0","4","","","","","","","",""
"pit-trial","92","741333","0.0-2.0-17.2-1.2","battery-v0.2","","""event"",""trial"",""time""
""fullscreenenter"",""1"",""3052""
","
","
","""event"",""trial"",""time""
""fullscreenenter"",""1"",""3052""
","
","","","389.2000000476837","","","11","3497","2855","&#9789;","elianto","#f73b6a7A"," "," ","1","0","[39.60000002384186,407.60000002384186,839.5,1239.6000000238419,1559.6000000238419,1967.699999988079,2303.600000023842]","7","0","4","","","","","","","",""
"pit-trial","93","744573","0.0-2.0-17.2-2.2","battery-v0.2","","""event"",""trial"",""time""
""fullscreenenter"",""1"",""3052""
","
","
","""event"",""trial"",""time""
""fullscreenenter"",""1"",""3052""
","
","","","376.5","","","11","3497","2855","&#9789;","elianto","#f73b6a7A"," "," ","1","0","[32.10000002384186,392.10000002384186,768,1232.199999988079,1824.1000000238419,2240,2632,2992]","8","0","4","","","","","","","",""
"pit-trial","94","747656","0.0-2.0-17.2-3.2","battery-v0.2","","""event"",""trial"",""time""
""fullscreenenter"",""1"",""3052""
","
","
","""event"",""trial"",""time""
""fullscreenenter"",""1"",""3052""
","
","","","219.39999997615814","","","11","3497","2855","&#9789;","elianto","#f73b6a7A"," "," ","1","-10","[47.700000047683716,375.7000000476837,759.6000000238419,1071.800000011921,1375.9000000357628,1695.800000011921,2407.800000011921,2711.600000023842,3007.600000023842]","9","0","4","","","","","","","",""
"pit-trial","95","750574","0.0-2.0-17.2-4.2","battery-v0.2","","""event"",""trial"",""time""
""fullscreenenter"",""1"",""3052""
","
","
","""event"",""trial"",""time""
""fullscreenenter"",""1"",""3052""
","
","","","55.89999997615814","","","11","3497","2855","&#9789;","elianto","#f73b6a7A"," "," ","1","0","[461.2000000476837,909.1000000238419,1405.2000000476837,2037.1000000238419,2357.300000011921,2645.100000023842]","6","0","4","","","","","","","",""
"pit-trial","96","753797","0.0-2.0-17.3-0.3","battery-v0.2","","""event"",""trial"",""time""
""fullscreenenter"",""1"",""3052""
","
","
","""event"",""trial"",""time""
""fullscreenenter"",""1"",""3052""
","
","","","361.0999999642372","","","11","3497","2855","&#9789;","elianto","#f73b6a7A"," "," ","1","0","[30.5,550.5,1214.699999988079,1678.5,2679.399999976158]","5","0","4","","","","","","","",""
"pit-trial","97","756965","0.0-2.0-17.3-1.3","battery-v0.2","","""event"",""trial"",""time""
""fullscreenenter"",""1"",""3052""
","
","
","""event"",""trial"",""time""
""fullscreenenter"",""1"",""3052""
","
","","","305.4000000357628","","","11","3497","2855","&#9789;","elianto","#f73b6a7A"," "," ","1","0","[191.69999998807907,439.5999999642372,775.8000000119209,1159.800000011921,1447.699999988079,1671.699999988079,1911.699999988079,2127.800000011921,2391.699999988079,3119.800000011921]","10","0","4","","","","","","","",""
"pit-trial","98","759933","0.0-2.0-17.3-2.3","battery-v0.2","","""event"",""trial"",""time""
""fullscreenenter"",""1"",""3052""
","
","
","""event"",""trial"",""time""
""fullscreenenter"",""1"",""3052""
","
","","","104.69999998807907","","","11","3497","2855","&#9789;","elianto","#f73b6a7A"," "," ","1","0","[207.39999997615814,479.60000002384186,640.8000000119209,959.3999999761581,1271.5,1583.5,2319.600000023842]","7","0","4","","","","","","","",""
"pit-trial","99","763134","0.0-2.0-17.3-3.3","battery-v0.2","","""event"",""trial"",""time""
""fullscreenenter"",""1"",""3052""
","
","
","""event"",""trial"",""time""
""fullscreenenter"",""1"",""3052""
","
","","","336.2000000476837","","","11","3497","2855","&#9789;","elianto","#f73b6a7A"," "," ","1","-10","[799.5,1191.4000000357628]","2","0","4","","","","","","","",""
"pit-trial","100","766589","0.0-2.0-17.3-4.3","battery-v0.2","","""event"",""trial"",""time""
""fullscreenenter"",""1"",""3052""
","
","
","""event"",""trial"",""time""
""fullscreenenter"",""1"",""3052""
","
","","","593.3000000119209","","","11","3497","2855","&#9789;","elianto","#f73b6a7A"," "," ","1","0","[678.5,1447.300000011921]","2","0","4","","","","","","","",""
"call-function","101","766590","0.0-2.0-18.0","battery-v0.2","","""event"",""trial"",""time""
""fullscreenenter"",""1"",""3052""
","
","
","""event"",""trial"",""time""
""fullscreenenter"",""1"",""3052""
","
","","","","","","","","","","","","","","","","","","","","","","","","","","",""
"pit-instructions","102","821158","0.0-2.0-19.0","battery-v0.2","","""event"",""trial"",""time""
""fullscreenenter"",""1"",""3052""
","
","
","""event"",""trial"",""time""
""fullscreenenter"",""1"",""3052""
","
","","[{""page_index"":0,""viewing_time"":6929.800000011921},{""page_index"":1,""viewing_time"":4310.399999976158},{""page_index"":2,""viewing_time"":8055.200000047684},{""page_index"":3,""viewing_time"":4896},{""page_index"":4,""viewing_time"":6215.899999976158},{""page_index"":5,""viewing_time"":8408},{""page_index"":6,""viewing_time"":5584},{""page_index"":7,""viewing_time"":6263.899999976158},{""page_index"":8,""viewing_time"":3904.300000011921}]","54567.69999998808","","","","","","","","","","","","","","","","","","","","","","","",""
"pit-comprehension","103","828758","0.0-2.0-20.0-0.0","battery-v0.2","","""event"",""trial"",""time""
""fullscreenenter"",""1"",""3052""
","
","
","""event"",""trial"",""time""
""fullscreenenter"",""1"",""3052""
","
","","","7598.399999976158","[""SPACE""]","0","11","3497","2855","","","","","","","","","","","","","","","","","","",""
"pit-instructions","104","831336","0.0-2.0-20.0-1.0","battery-v0.2","","""event"",""trial"",""time""
""fullscreenenter"",""1"",""3052""
","
","
","""event"",""trial"",""time""
""fullscreenenter"",""1"",""3052""
","
","","[{""page_index"":0,""viewing_time"":2542.600000023842}]","2542.800000011921","","","","","","","","","","","","","","","","","","","","","","","",""
"pit-comprehension","105","839672","0.0-2.0-21.0-0.0","battery-v0.2","","""event"",""trial"",""time""
""fullscreenenter"",""1"",""3052""
","
","
","""event"",""trial"",""time""
""fullscreenenter"",""1"",""3052""
","
","","","8334.099999964237","[""10""]","0","11","3497","2855","","","","","","","","","","","","","","","","","","",""
"pit-instructions","106","841508","0.0-2.0-21.0-1.0","battery-v0.2","","""event"",""trial"",""time""
""fullscreenenter"",""1"",""3052""
","
","
","""event"",""trial"",""time""
""fullscreenenter"",""1"",""3052""
","
","","[{""page_index"":0,""viewing_time"":1805.6000000238419}]","1805.9000000357628","","","","","","","","","","","","","","","","","","","","","","","",""
"pit-comprehension","107","847538","0.0-2.0-22.0-0.0","battery-v0.2","","""event"",""trial"",""time""
""fullscreenenter"",""1"",""3052""
","
","
","""event"",""trial"",""time""
""fullscreenenter"",""1"",""3052""
","
","","","6028.699999988079","[""-10""]","1","11","3497","2855","","","","","","","","","","","","","","","","","","",""
"pit-instructions","108","854680","0.0-2.0-22.0-1.0","battery-v0.2","","""event"",""trial"",""time""
""fullscreenenter"",""1"",""3052""
","
","
","""event"",""trial"",""time""
""fullscreenenter"",""1"",""3052""
","
","","[{""page_index"":0,""viewing_time"":7110.399999976158}]","7110.599999964237","","","","","","","","","","","","","","","","","","","","","","","",""
"pit-instructions","109","856398","0.0-2.0-22.0-2.0-0.0","battery-v0.2","","""event"",""trial"",""time""
""fullscreenenter"",""1"",""3052""
","
","
","""event"",""trial"",""time""
""fullscreenenter"",""1"",""3052""
","
","","[{""page_index"":0,""viewing_time"":1716.800000011921}]","1717","","","","","","","","","","","","","","","","","","","","","","","",""
"pit-comprehension","110","863812","0.0-2.0-22.1-0.1","battery-v0.2","","""event"",""trial"",""time""
""fullscreenenter"",""1"",""3052""
","
","
","""event"",""trial"",""time""
""fullscreenenter"",""1"",""3052""
","
","","","7412.599999964237","[""0""]","0","11","3497","2855","","","","","","","","","","","","","","","","","","",""
"pit-instructions","111","866492","0.0-2.0-22.1-1.1","battery-v0.2","","""event"",""trial"",""time""
""fullscreenenter"",""1"",""3052""
","
","
","""event"",""trial"",""time""
""fullscreenenter"",""1"",""3052""
","
","","[{""page_index"":0,""viewing_time"":2647.300000011921}]","2647.5","","","","","","","","","","","","","","","","","","","","","","","",""
"pit-comprehension","112","877194","0.0-2.0-23.0-0.0","battery-v0.2","","""event"",""trial"",""time""
""fullscreenenter"",""1"",""3052""
","
","
","""event"",""trial"",""time""
""fullscreenenter"",""1"",""3052""
","
","","","10700.800000011921","[""True""]","0","11","3497","2855","","","","","","","","","","","","","","","","","","",""
"pit-instructions","113","878898","0.0-2.0-23.0-1.0","battery-v0.2","","""event"",""trial"",""time""
""fullscreenenter"",""1"",""3052""
","
","
","""event"",""trial"",""time""
""fullscreenenter"",""1"",""3052""
","
","","[{""page_index"":0,""viewing_time"":1672.1000000238419}]","1672.300000011921","","","","","","","","","","","","","","","","","","","","","","","",""
"pit-comprehension","114","886399","0.0-2.0-24.0-0.0","battery-v0.2","","""event"",""trial"",""time""
""fullscreenenter"",""1"",""3052""
","
","
","""event"",""trial"",""time""
""fullscreenenter"",""1"",""3052""
","
","","","7498.899999976158","[""True""]","0","11","3497","2855","","","","","","","","","","","","","","","","","","",""
"pit-instructions","115","893734","0.0-2.0-24.0-1.0","battery-v0.2","","""event"",""trial"",""time""
""fullscreenenter"",""1"",""3052""
","
","
","""event"",""trial"",""time""
""fullscreenenter"",""1"",""3052""
","
","","[{""page_index"":0,""viewing_time"":7303.800000011921}]","7304","","","","","","","","","","","","","","","","","","","","","","","",""
"pit-comprehension","116","900570","0.0-2.0-25.0-0.0","battery-v0.2","","""event"",""trial"",""time""
""fullscreenenter"",""1"",""3052""
","
","
","""event"",""trial"",""time""
""fullscreenenter"",""1"",""3052""
","
","","","6834.199999988079","[""True""]","0","11","3497","2855","","","","","","","","","","","","","","","","","","",""
"pit-instructions","117","904412","0.0-2.0-25.0-1.0","battery-v0.2","","""event"",""trial"",""time""
""fullscreenenter"",""1"",""3052""
","
","
","""event"",""trial"",""time""
""fullscreenenter"",""1"",""3052""
","
","","[{""page_index"":0,""viewing_time"":3808.900000035763}]","3809.100000023842","","","","","","","","","","","","","","","","","","","","","","","",""
"pit-comprehension","118","911772","0.0-2.0-26.0-0.0","battery-v0.2","","""event"",""trial"",""time""
""fullscreenenter"",""1"",""3052""
","
","
","""event"",""trial"",""time""
""fullscreenenter"",""1"",""3052""
","
","","","7358.699999988079","[""False""]","0","11","3497","2855","","","","","","","","","","","","","","","","","","",""
"pit-instructions","119","915640","0.0-2.0-26.0-1.0","battery-v0.2","","""event"",""trial"",""time""
""fullscreenenter"",""1"",""3052""
","
","
","""event"",""trial"",""time""
""fullscreenenter"",""1"",""3052""
","
","","[{""page_index"":0,""viewing_time"":3833.400000035763}]","3833.600000023842","","","","","","","","","","","","","","","","","","","","","","","",""
"pit-instructions","120","942030","0.0-3.0","battery-v0.2","","""event"",""trial"",""time""
""fullscreenenter"",""1"",""3052""
","
","
","""event"",""trial"",""time""
""fullscreenenter"",""1"",""3052""
","
","","[{""page_index"":0,""viewing_time"":9494.700000047684},{""page_index"":1,""viewing_time"":7789.899999976158},{""page_index"":2,""viewing_time"":9103.899999976158}]","26388.80000001192","","","","","","","","","","","","","","","","","","","","","","","",""
"pit-trial","121","945973","0.0-4.0","battery-v0.2","","""event"",""trial"",""time""
""fullscreenenter"",""1"",""3052""
","
","
","""event"",""trial"",""time""
""fullscreenenter"",""1"",""3052""
","
","","","1080.6000000238419","","","11","3497","2855","&#9733;","elianto","#3366ff99","-1"," ","0","+10","[1933.8999999761581]","1","1","","","3497","1","2","2","win","no-go","1"
"pit-trial","122","949840","0.0-5.0","battery-v0.2","","""event"",""trial"",""time""
""fullscreenenter"",""1"",""3052""
","
","
","""event"",""trial"",""time""
""fullscreenenter"",""1"",""3052""
","
","","","1001.8000000119209","","","11","3497","2855","&#9728;","elianto","#f73b6a7A","-1"," ","0","-10","[1856.199999988079]","1","1","","","3497","2","0","4","lose","no-go","0"
"pit-trial","123","953681","0.0-6.0","battery-v0.2","","""event"",""trial"",""time""
""fullscreenenter"",""1"",""3052""
","
","
","""event"",""trial"",""time""
""fullscreenenter"",""1"",""3052""
","
","","","968","","","11","3497","2855","&#9752;","elianto","#f73b6a7A"," "," ","1","0","[1820.199999988079]","1","1","","","3497","3","3","3","lose","go","0"
"pit-trial","124","957562","0.0-7.0","battery-v0.2","","""event"",""trial"",""time""
""fullscreenenter"",""1"",""3052""
","
","
","""event"",""trial"",""time""
""fullscreenenter"",""1"",""3052""
","
","","","1016.5","","","11","3497","2855","&#9730;","elianto","#3366ff99"," "," ","1","+10","[1868.3999999761581]","1","1","","","3497","4","1","1","win","go","0"
"pit-trial","125","961212","0.0-8.0","battery-v0.2","","""event"",""trial"",""time""
""fullscreenenter"",""1"",""3052""
","
","
","""event"",""trial"",""time""
""fullscreenenter"",""1"",""3052""
","
","","","769.3000000119209","","","11","3497","2855","&#9733;","elianto","#3366ff99","-1"," ","0","0","[1626.699999988079]","1","1","","","3497","5","2","2","win","no-go","0"
"pit-trial","126","965110","0.0-9.0","battery-v0.2","","""event"",""trial"",""time""
""fullscreenenter"",""1"",""3052""
","
","
","""event"",""trial"",""time""
""fullscreenenter"",""1"",""3052""
","
","","","1032.9000000357628","","","11","3497","2855","&#9752;","elianto","#f73b6a7A"," "," ","1","-10","[1888.5]","1","1","","","3497","6","3","3","lose","go","1"
"pit-trial","127","968781","0.0-10.0","battery-v0.2","","""event"",""trial"",""time""
""fullscreenenter"",""1"",""3052""
","
","
","""event"",""trial"",""time""
""fullscreenenter"",""1"",""3052""
","
","","","810.0999999642372","","","11","3497","2855","&#9730;","elianto","#3366ff99"," "," ","1","+10","[1662.7999999523163]","1","1","","","3497","7","1","1","win","go","0"
"pit-trial","128","972869","0.0-11.0","battery-v0.2","","""event"",""trial"",""time""
""fullscreenenter"",""1"",""3052""
","
","
","""event"",""trial"",""time""
""fullscreenenter"",""1"",""3052""
","
","","","1228.1000000238419","","","11","3497","2855","&#9728;","elianto","#f73b6a7A","-1"," ","0","-10","[2079.5]","1","1","","","3497","8","0","4","lose","no-go","0"
"pit-trial","129","976565","0.0-12.0","battery-v0.2","","""event"",""trial"",""time""
""fullscreenenter"",""1"",""3052""
","
","
","""event"",""trial"",""time""
""fullscreenenter"",""1"",""3052""
","
","","","836.6999999880791","","","11","3497","2855","&#9752;","elianto","#f73b6a7A"," "," ","1","0","[1687.699999988079]","1","1","","","3497","9","3","3","lose","go","0"
"pit-trial","130","981430","0.0-13.0","battery-v0.2","","""event"",""trial"",""time""
""fullscreenenter"",""1"",""3052""
","
","
","""event"",""trial"",""time""
""fullscreenenter"",""1"",""3052""
","
","","","-1","","","11","3497","2855","&#9728;","elianto","#f73b6a7A","-1","-1","1","0","[]","0","1","","","3497","10","0","4","lose","no-go","0"
"pit-trial","131","984958","0.0-14.0","battery-v0.2","","""event"",""trial"",""time""
""fullscreenenter"",""1"",""3052""
","
","
","""event"",""trial"",""time""
""fullscreenenter"",""1"",""3052""
","
","","","667.9000000357628","","","11","3497","2855","&#9730;","elianto","#3366ff99"," "," ","1","+10","[1518.300000011921]","1","1","","","3497","11","1","1","win","go","0"
"pit-trial","132","989822","0.0-15.0","battery-v0.2","","""event"",""trial"",""time""
""fullscreenenter"",""1"",""3052""
","
","
","""event"",""trial"",""time""
""fullscreenenter"",""1"",""3052""
","
","","","-1","","","11","3497","2855","&#9733;","elianto","#3366ff99","-1","-1","1","0","[]","0","1","","","3497","12","2","2","win","no-go","1"
"pit-trial","133","994685","0.0-16.0","battery-v0.2","","""event"",""trial"",""time""
""fullscreenenter"",""1"",""3052""
","
","
","""event"",""trial"",""time""
""fullscreenenter"",""1"",""3052""
","
","","","-1","","","11","3497","2855","&#9752;","elianto","#f73b6a7A"," ","-1","0","-10","[]","0","1","","","3497","13","3","3","lose","go","0"
"pit-trial","134","998125","0.0-17.0","battery-v0.2","","""event"",""trial"",""time""
""fullscreenenter"",""1"",""3052""
","
","
","""event"",""trial"",""time""
""fullscreenenter"",""1"",""3052""
","
","","","578","","","11","3497","2855","&#9730;","elianto","#3366ff99"," "," ","1","+10","[1431.2999999523163]","1","1","","","3497","14","1","1","win","go","0"
"pit-trial","135","1002998","0.0-18.0","battery-v0.2","","""event"",""trial"",""time""
""fullscreenenter"",""1"",""3052""
","
","
","""event"",""trial"",""time""
""fullscreenenter"",""1"",""3052""
","
","","","-1","","","11","3497","2855","&#9733;","elianto","#3366ff99","-1","-1","1","+10","[]","0","1","","","3497","15","2","2","win","no-go","0"
"pit-trial","136","1007861","0.0-19.0","battery-v0.2","","""event"",""trial"",""time""
""fullscreenenter"",""1"",""3052""
","
","
","""event"",""trial"",""time""
""fullscreenenter"",""1"",""3052""
","
","","","-1","","","11","3497","2855","&#9728;","elianto","#f73b6a7A","-1","-1","1","0","[]","0","1","","","3497","16","0","4","lose","no-go","0"
"pit-trial","137","1012726","0.0-20.0","battery-v0.2","","""event"",""trial"",""time""
""fullscreenenter"",""1"",""3052""
","
","
","""event"",""trial"",""time""
""fullscreenenter"",""1"",""3052""
","
","","","-1","","","11","3497","2855","&#9733;","elianto","#3366ff99","-1","-1","1","+10","[]","0","1","","","3497","17","2","2","win","no-go","0"
"pit-trial","138","1016358","0.0-21.0","battery-v0.2","","""event"",""trial"",""time""
""fullscreenenter"",""1"",""3052""
","
","
","""event"",""trial"",""time""
""fullscreenenter"",""1"",""3052""
","
","","","769.5999999642372","","","11","3497","2855","&#9730;","elianto","#3366ff99"," "," ","1","0","[1621.300000011921]","1","1","","","3497","18","1","1","win","go","1"
"pit-trial","139","1021222","0.0-22.0","battery-v0.2","","""event"",""trial"",""time""
""fullscreenenter"",""1"",""3052""
","
","
","""event"",""trial"",""time""
""fullscreenenter"",""1"",""3052""
","
","","","-1","","","11","3497","2855","&#9752;","elianto","#f73b6a7A"," ","-1","0","-10","[]","0","1","","","3497","19","3","3","lose","go","0"
"pit-trial","140","1026085","0.0-23.0","battery-v0.2","","""event"",""trial"",""time""
""fullscreenenter"",""1"",""3052""
","
","
","""event"",""trial"",""time""
""fullscreenenter"",""1"",""3052""
","
","","","-1","","","11","3497","2855","&#9728;","elianto","#f73b6a7A","-1","-1","1","-10","[]","0","1","","","3497","20","0","4","lose","no-go","1"
"pit-instructions","141","1039631","0.0-24.0","battery-v0.2","","""event"",""trial"",""time""
""fullscreenenter"",""1"",""3052""
","
","
","""event"",""trial"",""time""
""fullscreenenter"",""1"",""3052""
","
","","[{""page_index"":0,""viewing_time"":6152.699999988079},{""page_index"":1,""viewing_time"":7390.600000023842}]","13543.800000011921","","","","","","","","","","","","","","","","","","","","","","","",""
"pit-trial","142","1043390","0.0-25.0","battery-v0.2","","""event"",""trial"",""time""
""fullscreenenter"",""1"",""3052""
","
","
","""event"",""trial"",""time""
""fullscreenenter"",""1"",""3052""
","
","","","894.3000000119209","","","11","3497","2855","b","elianto","#f73b6a7A","-1"," ","0","0","[1747.300000011921]","1","2","","","3497","21","3","4","lose","no-go","1"
"pit-trial","143","1047219","0.0-26.0","battery-v0.2","","""event"",""trial"",""time""
""fullscreenenter"",""1"",""3052""
","
","
","""event"",""trial"",""time""
""fullscreenenter"",""1"",""3052""
","
","","","954.9000000357628","","","11","3497","2855","n","elianto","#f73b6a7A"," "," ","1","0","[1805.1000000238419]","1","2","","","3497","22","0","3","lose","go","0"
"pit-trial","144","1051097","0.0-27.0","battery-v0.2","","""event"",""trial"",""time""
""fullscreenenter"",""1"",""3052""
","
","
","""event"",""trial"",""time""
""fullscreenenter"",""1"",""3052""
","
","","","1001.8000000119209","","","11","3497","2855","f","elianto","#3366ff99","-1"," ","0","0","[1857.3999999761581]","1","2","","","3497","23","1","2","win","no-go","0"
"pit-trial","145","1054594","0.0-28.0","battery-v0.2","","""event"",""trial"",""time""
""fullscreenenter"",""1"",""3052""
","
","
","""event"",""trial"",""time""
""fullscreenenter"",""1"",""3052""
","
","","","629.5","","","11","3497","2855","t","elianto","#f73b6a7A"," "," ","1","-10","[1482.5999999642372]","1","2","","","3497","24","2","3","lose","go","1"
"pit-trial","146","1059479","0.0-29.0","battery-v0.2","","""event"",""trial"",""time""
""fullscreenenter"",""1"",""3052""
","
","
","""event"",""trial"",""time""
""fullscreenenter"",""1"",""3052""
","
","","","-1","","","11","3497","2855","t","elianto","#f73b6a7A"," ","-1","0","-10","[]","0","2","","","3497","25","2","3","lose","go","0"
"pit-trial","147","1063191","0.0-30.0","battery-v0.2","","""event"",""trial"",""time""
""fullscreenenter"",""1"",""3052""
","
","
","""event"",""trial"",""time""
""fullscreenenter"",""1"",""3052""
","
","","","850.3000000119209","","","11","3497","2855","f","elianto","#3366ff99","-1"," ","0","0","[1700.8999999761581]","1","2","","","3497","26","1","2","win","no-go","0"
"pit-trial","148","1068064","0.0-31.0","battery-v0.2","","""event"",""trial"",""time""
""fullscreenenter"",""1"",""3052""
","
","
","""event"",""trial"",""time""
""fullscreenenter"",""1"",""3052""
","
","","","-1","","","11","3497","2855","b","elianto","#f73b6a7A","-1","-1","1","0","[]","0","2","","","3497","27","3","4","lose","no-go","0"
"pit-trial","149","1072933","0.0-32.0","battery-v0.2","","""event"",""trial"",""time""
""fullscreenenter"",""1"",""3052""
","
","
","""event"",""trial"",""time""
""fullscreenenter"",""1"",""3052""
","
","","","-1","","","11","3497","2855","n","elianto","#f73b6a7A"," ","-1","0","-10","[]","0","2","","","3497","28","0","3","lose","go","0"
"pit-trial","150","1077797","0.0-33.0","battery-v0.2","","""event"",""trial"",""time""
""fullscreenenter"",""1"",""3052""
","
","
","""event"",""trial"",""time""
""fullscreenenter"",""1"",""3052""
","
","","","-1","","","11","3497","2855","b","elianto","#f73b6a7A","-1","-1","1","0","[]","0","2","","","3497","29","3","4","lose","no-go","0"
"pit-trial","151","1081749","0.0-34.0","battery-v0.2","","""event"",""trial"",""time""
""fullscreenenter"",""1"",""3052""
","
","
","""event"",""trial"",""time""
""fullscreenenter"",""1"",""3052""
","
","","","1089.300000011921","","","11","3497","2855","f","elianto","#3366ff99","-1"," ","0","0","[1942.300000011921]","1","2","","","3497","30","1","2","win","no-go","0"
"pit-trial","152","1086010","0.0-35.0","battery-v0.2","","""event"",""trial"",""time""
""fullscreenenter"",""1"",""3052""
","
","
","""event"",""trial"",""time""
""fullscreenenter"",""1"",""3052""
","
","","","1393.5","","","11","3497","2855","n","elianto","#f73b6a7A"," "," ","1","0","[2246.600000023842]","1","2","","","3497","31","0","3","lose","go","0"
"pit-trial","153","1089837","0.0-36.0","battery-v0.2","","""event"",""trial"",""time""
""fullscreenenter"",""1"",""3052""
","
","
","""event"",""trial"",""time""
""fullscreenenter"",""1"",""3052""
","
","","","962","","","11","3497","2855","t","elianto","#f73b6a7A"," "," ","1","0","[1816.6000000238419]","1","2","","","3497","32","2","3","lose","go","0"
"pit-trial","154","1094700","0.0-37.0","battery-v0.2","","""event"",""trial"",""time""
""fullscreenenter"",""1"",""3052""
","
","
","""event"",""trial"",""time""
""fullscreenenter"",""1"",""3052""
","
","","","-1","","","11","3497","2855","f","elianto","#3366ff99","-1","-1","1","+10","[]","0","2","","","3497","33","1","2","win","no-go","0"
"pit-trial","155","1099566","0.0-38.0","battery-v0.2","","""event"",""trial"",""time""
""fullscreenenter"",""1"",""3052""
","
","
","""event"",""trial"",""time""
""fullscreenenter"",""1"",""3052""
","
","","","-1","","","11","3497","2855","b","elianto","#f73b6a7A","-1","-1","1","0","[]","0","2","","","3497","34","3","4","lose","no-go","0"
"pit-trial","156","1103190","0.0-39.0","battery-v0.2","","""event"",""trial"",""time""
""fullscreenenter"",""1"",""3052""
","
","
","""event"",""trial"",""time""
""fullscreenenter"",""1"",""3052""
","
","","","760.8999999761581","","","11","3497","2855","n","elianto","#f73b6a7A"," "," ","1","0","[1613.0999999642372]","1","2","","","3497","35","0","3","lose","go","0"
"pit-trial","157","1108053","0.0-40.0","battery-v0.2","","""event"",""trial"",""time""
""fullscreenenter"",""1"",""3052""
","
","
","""event"",""trial"",""time""
""fullscreenenter"",""1"",""3052""
","
","","","-1","","","11","3497","2855","t","elianto","#f73b6a7A"," ","-1","0","-10","[]","0","2","","","3497","36","2","3","lose","go","0"
"pit-trial","158","1112921","0.0-41.0","battery-v0.2","","""event"",""trial"",""time""
""fullscreenenter"",""1"",""3052""
","
","
","""event"",""trial"",""time""
""fullscreenenter"",""1"",""3052""
","
","","","-1","","","11","3497","2855","f","elianto","#3366ff99","-1","-1","1","0","[]","0","2","","","3497","37","1","2","win","no-go","1"
"pit-trial","159","1117789","0.0-42.0","battery-v0.2","","""event"",""trial"",""time""
""fullscreenenter"",""1"",""3052""
","
","
","""event"",""trial"",""time""
""fullscreenenter"",""1"",""3052""
","
","","","-1","","","11","3497","2855","t","elianto","#f73b6a7A"," ","-1","0","-10","[]","0","2","","","3497","38","2","3","lose","go","0"
"pit-trial","160","1122653","0.0-43.0","battery-v0.2","","""event"",""trial"",""time""
""fullscreenenter"",""1"",""3052""
","
","
","""event"",""trial"",""time""
""fullscreenenter"",""1"",""3052""
","
","","","-1","","","11","3497","2855","b","elianto","#f73b6a7A","-1","-1","1","0","[]","0","2","","","3497","39","3","4","lose","no-go","0"
"pit-trial","161","1126268","0.0-44.0","battery-v0.2","","""event"",""trial"",""time""
""fullscreenenter"",""1"",""3052""
","
","
","""event"",""trial"",""time""
""fullscreenenter"",""1"",""3052""
","
","","","757.2000000476837","","","11","3497","2855","n","elianto","#f73b6a7A"," "," ","1","0","[1607.1000000238419]","1","2","","","3497","40","0","3","lose","go","0"
"pit-trial","162","1131139","0.0-45.0","battery-v0.2","","""event"",""trial"",""time""
""fullscreenenter"",""1"",""3052""
","
","
","""event"",""trial"",""time""
""fullscreenenter"",""1"",""3052""
","
","","","-1","","","11","3497","2855","f","elianto","#3366ff99","-1","-1","1","+10","[]","0","2","","","3497","41","1","2","win","no-go","0"
"pit-trial","163","1135102","0.0-46.0","battery-v0.2","","""event"",""trial"",""time""
""fullscreenenter"",""1"",""3052""
","
","
","""event"",""trial"",""time""
""fullscreenenter"",""1"",""3052""
","
","","","1097.5999999642372","","","11","3497","2855","n","elianto","#f73b6a7A"," "," ","1","-10","[1952.800000011921]","1","2","","","3497","42","0","3","lose","go","1"
"pit-trial","164","1139053","0.0-47.0","battery-v0.2","","""event"",""trial"",""time""
""fullscreenenter"",""1"",""3052""
","
","
","""event"",""trial"",""time""
""fullscreenenter"",""1"",""3052""
","
","","","1092.6000000238419","","","11","3497","2855","b","elianto","#f73b6a7A","-1"," ","0","-10","[1943.6000000238419]","1","2","","","3497","43","3","4","lose","no-go","0"
"pit-trial","165","1143916","0.0-48.0","battery-v0.2","","""event"",""trial"",""time""
""fullscreenenter"",""1"",""3052""
","
","
","""event"",""trial"",""time""
""fullscreenenter"",""1"",""3052""
","
","","","-1","","","11","3497","2855","t","elianto","#f73b6a7A"," ","-1","0","-10","[]","0","2","","","3497","44","2","3","lose","go","0"
"pit-trial","166","1148780","0.0-49.0","battery-v0.2","","""event"",""trial"",""time""
""fullscreenenter"",""1"",""3052""
","
","
","""event"",""trial"",""time""
""fullscreenenter"",""1"",""3052""
","
","","","-1","","","11","3497","2855","f","elianto","#3366ff99","-1","-1","1","+10","[]","0","2","","","3497","45","1","2","win","no-go","0"
"pit-trial","167","1153645","0.0-50.0","battery-v0.2","","""event"",""trial"",""time""
""fullscreenenter"",""1"",""3052""
","
","
","""event"",""trial"",""time""
""fullscreenenter"",""1"",""3052""
","
","","","-1","","","11","3497","2855","b","elianto","#f73b6a7A","-1","-1","1","0","[]","0","2","","","3497","46","3","4","lose","no-go","0"
"pit-trial","168","1157077","0.0-51.0","battery-v0.2","","""event"",""trial"",""time""
""fullscreenenter"",""1"",""3052""
","
","
","""event"",""trial"",""time""
""fullscreenenter"",""1"",""3052""
","
","","","569.2999999523163","","","11","3497","2855","n","elianto","#f73b6a7A"," "," ","1","0","[1423.8999999761581]","1","2","","","3497","47","0","3","lose","go","0"
"pit-trial","169","1160444","0.0-52.0","battery-v0.2","","""event"",""trial"",""time""
""fullscreenenter"",""1"",""3052""
","
","
","""event"",""trial"",""time""
""fullscreenenter"",""1"",""3052""
","
","","","504.10000002384186","","","11","3497","2855","t","elianto","#f73b6a7A"," "," ","1","-10","[1357.1000000238419]","1","2","","","3497","48","2","3","lose","go","1"
"pit-trial","170","1165309","0.0-53.0","battery-v0.2","","""event"",""trial"",""time""
""fullscreenenter"",""1"",""3052""
","
","
","""event"",""trial"",""time""
""fullscreenenter"",""1"",""3052""
","
","","","-1","","","11","3497","2855","f","elianto","#3366ff99","-1","-1","1","0","[]","0","2","","","3497","49","1","2","win","no-go","1"
"pit-trial","171","1170172","0.0-54.0","battery-v0.2","","""event"",""trial"",""time""
""fullscreenenter"",""1"",""3052""
","
","
","""event"",""trial"",""time""
""fullscreenenter"",""1"",""3052""
","
","","","-1","","","11","3497","2855","t","elianto","#f73b6a7A"," ","-1","0","-10","[]","0","2","","","3497","50","2","3","lose","go","0"
"pit-trial","172","1173637","0.0-55.0","battery-v0.2","","""event"",""trial"",""time""
""fullscreenenter"",""1"",""3052""
","
","
","""event"",""trial"",""time""
""fullscreenenter"",""1"",""3052""
","
","","","600.9000000357628","","","11","3497","2855","n","elianto","#f73b6a7A"," "," ","1","0","[1455.1000000238419]","1","2","","","3497","51","0","3","lose","go","0"
"pit-trial","173","1178509","0.0-56.0","battery-v0.2","","""event"",""trial"",""time""
""fullscreenenter"",""1"",""3052""
","
","
","""event"",""trial"",""time""
""fullscreenenter"",""1"",""3052""
","
","","","-1","","","11","3497","2855","b","elianto","#f73b6a7A","-1","-1","1","0","[]","0","2","","","3497","52","3","4","lose","no-go","0"
"pit-trial","174","1183373","0.0-57.0","battery-v0.2","","""event"",""trial"",""time""
""fullscreenenter"",""1"",""3052""
","
","
","""event"",""trial"",""time""
""fullscreenenter"",""1"",""3052""
","
","","","-1","","","11","3497","2855","f","elianto","#3366ff99","-1","-1","1","+10","[]","0","2","","","3497","53","1","2","win","no-go","0"
"pit-trial","175","1188236","0.0-58.0","battery-v0.2","","""event"",""trial"",""time""
""fullscreenenter"",""1"",""3052""
","
","
","""event"",""trial"",""time""
""fullscreenenter"",""1"",""3052""
","
","","","-1","","","11","3497","2855","b","elianto","#f73b6a7A","-1","-1","1","0","[]","0","2","","","3497","54","3","4","lose","no-go","0"
"pit-trial","176","1191701","0.0-59.0","battery-v0.2","","""event"",""trial"",""time""
""fullscreenenter"",""1"",""3052""
","
","
","""event"",""trial"",""time""
""fullscreenenter"",""1"",""3052""
","
","","","600.4000000357628","","","11","3497","2855","t","elianto","#f73b6a7A"," "," ","1","0","[1454.5]","1","2","","","3497","55","2","3","lose","go","0"
"pit-trial","177","1195810","0.0-60.0","battery-v0.2","","""event"",""trial"",""time""
""fullscreenenter"",""1"",""3052""
","
","
","""event"",""trial"",""time""
""fullscreenenter"",""1"",""3052""
","
","","","1232.8999999761581","","","11","3497","2855","n","elianto","#f73b6a7A"," "," ","1","0","[2087.399999976158]","1","2","","","3497","56","0","3","lose","go","0"
"pit-trial","178","1199406","0.0-61.0","battery-v0.2","","""event"",""trial"",""time""
""fullscreenenter"",""1"",""3052""
","
","
","""event"",""trial"",""time""
""fullscreenenter"",""1"",""3052""
","
","","","736.1000000238419","","","11","3497","2855","n","elianto","#f73b6a7A"," "," ","1","0","[1587]","1","2","","","3497","57","0","3","lose","go","0"
"pit-trial","179","1204269","0.0-62.0","battery-v0.2","","""event"",""trial"",""time""
""fullscreenenter"",""1"",""3052""
","
","
","""event"",""trial"",""time""
""fullscreenenter"",""1"",""3052""
","
","","","-1","","","11","3497","2855","c","elianto","#3366ff99"," ","-1","0","0","[]","0","2","","","3497","58","4","1","win","go","0"
"pit-trial","180","1209133","0.0-63.0","battery-v0.2","","""event"",""trial"",""time""
""fullscreenenter"",""1"",""3052""
","
","
","""event"",""trial"",""time""
""fullscreenenter"",""1"",""3052""
","
","","","-1","","","11","3497","2855","b","elianto","#f73b6a7A","-1","-1","1","0","[]","0","2","","","3497","59","3","4","lose","no-go","0"
"pit-trial","181","1214009","0.0-64.0","battery-v0.2","","""event"",""trial"",""time""
""fullscreenenter"",""1"",""3052""
","
","
","""event"",""trial"",""time""
""fullscreenenter"",""1"",""3052""
","
","","","-1","","","11","3497","2855","t","elianto","#f73b6a7A"," ","-1","0","-10","[]","0","2","","","3497","60","2","3","lose","go","0"
"pit-trial","182","1218878","0.0-65.0","battery-v0.2","","""event"",""trial"",""time""
""fullscreenenter"",""1"",""3052""
","
","
","""event"",""trial"",""time""
""fullscreenenter"",""1"",""3052""
","
","","","-1","","","11","3497","2855","b","elianto","#f73b6a7A","-1","-1","1","0","[]","0","2","","","3497","61","3","4","lose","no-go","0"
"pit-trial","183","1222606","0.0-66.0","battery-v0.2","","""event"",""trial"",""time""
""fullscreenenter"",""1"",""3052""
","
","
","""event"",""trial"",""time""
""fullscreenenter"",""1"",""3052""
","
","","","865.6999999880791","","","11","3497","2855","t","elianto","#f73b6a7A"," "," ","1","-10","[1718.699999988079]","1","2","","","3497","62","2","3","lose","go","1"
"pit-trial","184","1226037","0.0-67.0","battery-v0.2","","""event"",""trial"",""time""
""fullscreenenter"",""1"",""3052""
","
","
","""event"",""trial"",""time""
""fullscreenenter"",""1"",""3052""
","
","","","568.5","","","11","3497","2855","c","elianto","#3366ff99"," "," ","1","0","[1421.699999988079]","1","2","","","3497","63","4","1","win","go","1"
"pit-trial","185","1230037","0.0-68.0","battery-v0.2","","""event"",""trial"",""time""
""fullscreenenter"",""1"",""3052""
","
","
","""event"",""trial"",""time""
""fullscreenenter"",""1"",""3052""
","
","","","1138.7999999523163","","","11","3497","2855","f","elianto","#3366ff99","-1"," ","0","0","[1990]","1","2","","","3497","64","1","2","win","no-go","0"
"pit-trial","186","1234902","0.0-69.0","battery-v0.2","","""event"",""trial"",""time""
""fullscreenenter"",""1"",""3052""
","
","
","""event"",""trial"",""time""
""fullscreenenter"",""1"",""3052""
","
","","","-1","","","11","3497","2855","b","elianto","#f73b6a7A","-1","-1","1","0","[]","0","2","","","3497","65","3","4","lose","no-go","0"
"pit-trial","187","1238646","0.0-70.0","battery-v0.2","","""event"",""trial"",""time""
""fullscreenenter"",""1"",""3052""
","
","
","""event"",""trial"",""time""
""fullscreenenter"",""1"",""3052""
","
","","","881.9000000357628","","","11","3497","2855","f","elianto","#3366ff99","-1"," ","0","+10","[1735.699999988079]","1","2","","","3497","66","1","2","win","no-go","1"
"pit-trial","188","1242173","0.0-71.0","battery-v0.2","","""event"",""trial"",""time""
""fullscreenenter"",""1"",""3052""
","
","
","""event"",""trial"",""time""
""fullscreenenter"",""1"",""3052""
","
","","","665.8000000119209","","","11","3497","2855","z","elianto","#3366ff99","-1"," ","0","0","[1519.3999999761581]","1","2","","","3497","67","5","2","win","no-go","0"
"pit-trial","189","1245561","0.0-72.0","battery-v0.2","","""event"",""trial"",""time""
""fullscreenenter"",""1"",""3052""
","
","
","""event"",""trial"",""time""
""fullscreenenter"",""1"",""3052""
","
","","","515.5","","","11","3497","2855","c","elianto","#3366ff99"," "," ","1","+10","[1367.800000011921]","1","2","","","3497","68","4","1","win","go","0"
"pit-trial","190","1248975","0.0-73.0","battery-v0.2","","""event"",""trial"",""time""
""fullscreenenter"",""1"",""3052""
","
","
","""event"",""trial"",""time""
""fullscreenenter"",""1"",""3052""
","
","","","553.4000000357628","","","11","3497","2855","c","elianto","#3366ff99"," "," ","1","+10","[1403.6000000238419]","1","2","","","3497","69","4","1","win","go","0"
"pit-trial","191","1252757","0.0-74.0","battery-v0.2","","""event"",""trial"",""time""
""fullscreenenter"",""1"",""3052""
","
","
","""event"",""trial"",""time""
""fullscreenenter"",""1"",""3052""
","
","","","921.3000000119209","","","11","3497","2855","z","elianto","#3366ff99","-1"," ","0","+10","[1773.5]","1","2","","","3497","70","5","2","win","no-go","1"
"pit-trial","192","1256814","0.0-75.0","battery-v0.2","","""event"",""trial"",""time""
""fullscreenenter"",""1"",""3052""
","
","
","""event"",""trial"",""time""
""fullscreenenter"",""1"",""3052""
","
","","","1193.6000000238419","","","11","3497","2855","t","elianto","#f73b6a7A"," "," ","1","-10","[2046.7000000476837]","1","2","","","3497","71","2","3","lose","go","1"
"pit-trial","193","1260502","0.0-76.0","battery-v0.2","","""event"",""trial"",""time""
""fullscreenenter"",""1"",""3052""
","
","
","""event"",""trial"",""time""
""fullscreenenter"",""1"",""3052""
","
","","","825.5","","","11","3497","2855","f","elianto","#3366ff99","-1"," ","0","0","[1680.300000011921]","1","2","","","3497","72","1","2","win","no-go","0"
"pit-trial","194","1265366","0.0-77.0","battery-v0.2","","""event"",""trial"",""time""
""fullscreenenter"",""1"",""3052""
","
","
","""event"",""trial"",""time""
""fullscreenenter"",""1"",""3052""
","
","","","-1","","","11","3497","2855","b","elianto","#f73b6a7A","-1","-1","1","0","[]","0","2","","","3497","73","3","4","lose","no-go","0"
"pit-trial","195","1269533","0.0-78.0","battery-v0.2","","""event"",""trial"",""time""
""fullscreenenter"",""1"",""3052""
","
","
","""event"",""trial"",""time""
""fullscreenenter"",""1"",""3052""
","
","","","1297.800000011921","","","11","3497","2855","c","elianto","#3366ff99"," "," ","1","+10","[2150.2000000476837]","1","2","","","3497","74","4","1","win","go","0"
"pit-trial","196","1273261","0.0-79.0","battery-v0.2","","""event"",""trial"",""time""
""fullscreenenter"",""1"",""3052""
","
","
","""event"",""trial"",""time""
""fullscreenenter"",""1"",""3052""
","
","","","868.9000000357628","","","11","3497","2855","f","elianto","#3366ff99","-1"," ","0","0","[1719.199999988079]","1","2","","","3497","75","1","2","win","no-go","0"
"pit-trial","197","1276926","0.0-80.0","battery-v0.2","","""event"",""trial"",""time""
""fullscreenenter"",""1"",""3052""
","
","
","""event"",""trial"",""time""
""fullscreenenter"",""1"",""3052""
","
","","","800.3000000119209","","","11","3497","2855","z","elianto","#3366ff99","-1"," ","0","0","[1655.0999999642372]","1","2","","","3497","76","5","2","win","no-go","0"
"pit-trial","198","1280821","0.0-81.0","battery-v0.2","","""event"",""trial"",""time""
""fullscreenenter"",""1"",""3052""
","
","
","""event"",""trial"",""time""
""fullscreenenter"",""1"",""3052""
","
","","","1035.300000011921","","","11","3497","2855","c","elianto","#3366ff99"," "," ","1","+10","[1886.1000000238419]","1","2","","","3497","77","4","1","win","go","0"
"pit-trial","199","1285686","0.0-82.0","battery-v0.2","","""event"",""trial"",""time""
""fullscreenenter"",""1"",""3052""
","
","
","""event"",""trial"",""time""
""fullscreenenter"",""1"",""3052""
","
","","","-1","","","11","3497","2855","z","elianto","#3366ff99","-1","-1","1","+10","[]","0","2","","","3497","78","5","2","win","no-go","0"
"pit-trial","200","1288842","0.0-83.0","battery-v0.2","","""event"",""trial"",""time""
""fullscreenenter"",""1"",""3052""
","
","
","""event"",""trial"",""time""
""fullscreenenter"",""1"",""3052""
","
","","","281.5","","","11","3497","2855","c","elianto","#3366ff99"," "," ","1","+10","[1134.199999988079]","1","2","","","3497","79","4","1","win","go","0"
"pit-trial","201","1292542","0.0-84.0","battery-v0.2","","""event"",""trial"",""time""
""fullscreenenter"",""1"",""3052""
","
","
","""event"",""trial"",""time""
""fullscreenenter"",""1"",""3052""
","
","","","832.3999999761581","","","11","3497","2855","b","elianto","#f73b6a7A","-1"," ","0","-10","[1689.199999988079]","1","2","","","3497","80","3","4","lose","no-go","0"
"pit-trial","202","1296229","0.0-85.0","battery-v0.2","","""event"",""trial"",""time""
""fullscreenenter"",""1"",""3052""
","
","
","""event"",""trial"",""time""
""fullscreenenter"",""1"",""3052""
","
","","","826.5999999642372","","","11","3497","2855","y","elianto","#f73b6a7A","-1"," ","0","0","[1677.699999988079]","1","2","","","3497","81","7","4","lose","no-go","1"
"pit-trial","203","1301093","0.0-86.0","battery-v0.2","","""event"",""trial"",""time""
""fullscreenenter"",""1"",""3052""
","
","
","""event"",""trial"",""time""
""fullscreenenter"",""1"",""3052""
","
","","","-1","","","11","3497","2855","b","elianto","#f73b6a7A","-1","-1","1","0","[]","0","2","","","3497","82","3","4","lose","no-go","0"
"pit-trial","204","1304734","0.0-87.0","battery-v0.2","","""event"",""trial"",""time""
""fullscreenenter"",""1"",""3052""
","
","
","""event"",""trial"",""time""
""fullscreenenter"",""1"",""3052""
","
","","","776.8000000119209","","","11","3497","2855","c","elianto","#3366ff99"," "," ","1","+10","[1630.4000000357628]","1","2","","","3497","83","4","1","win","go","0"
"pit-trial","205","1308573","0.0-88.0","battery-v0.2","","""event"",""trial"",""time""
""fullscreenenter"",""1"",""3052""
","
","
","""event"",""trial"",""time""
""fullscreenenter"",""1"",""3052""
","
","","","980","","","11","3497","2855","z","elianto","#3366ff99","-1"," ","0","+10","[1830.0999999642372]","1","2","","","3497","84","5","2","win","no-go","1"
"pit-trial","206","1313437","0.0-89.0","battery-v0.2","","""event"",""trial"",""time""
""fullscreenenter"",""1"",""3052""
","
","
","""event"",""trial"",""time""
""fullscreenenter"",""1"",""3052""
","
","","","-1","","","11","3497","2855","y","elianto","#f73b6a7A","-1","-1","1","0","[]","0","2","","","3497","85","7","4","lose","no-go","0"
"pit-trial","207","1317502","0.0-90.0","battery-v0.2","","""event"",""trial"",""time""
""fullscreenenter"",""1"",""3052""
","
","
","""event"",""trial"",""time""
""fullscreenenter"",""1"",""3052""
","
","","","1200","","","11","3497","2855","c","elianto","#3366ff99"," "," ","1","+10","[2055.199999988079]","1","2","","","3497","86","4","1","win","go","0"
"pit-trial","208","1321572","0.0-91.0","battery-v0.2","","""event"",""trial"",""time""
""fullscreenenter"",""1"",""3052""
","
","
","""event"",""trial"",""time""
""fullscreenenter"",""1"",""3052""
","
","","","1192.800000011921","","","11","3497","2855","h","elianto","#f73b6a7A"," "," ","1","0","[2045.3999999761581]","1","2","","","3497","87","6","3","lose","go","0"
"pit-trial","209","1325174","0.0-92.0","battery-v0.2","","""event"",""trial"",""time""
""fullscreenenter"",""1"",""3052""
","
","
","""event"",""trial"",""time""
""fullscreenenter"",""1"",""3052""
","
","","","737.5999999642372","","","11","3497","2855","z","elianto","#3366ff99","-1"," ","0","0","[1591.9000000357628]","1","2","","","3497","88","5","2","win","no-go","0"
"pit-trial","210","1328783","0.0-93.0","battery-v0.2","","""event"",""trial"",""time""
""fullscreenenter"",""1"",""3052""
","
","
","""event"",""trial"",""time""
""fullscreenenter"",""1"",""3052""
","
","","","737.1999999880791","","","11","3497","2855","c","elianto","#3366ff99"," "," ","1","+10","[1590.300000011921]","1","2","","","3497","89","4","1","win","go","0"
"pit-trial","211","1333646","0.0-94.0","battery-v0.2","","""event"",""trial"",""time""
""fullscreenenter"",""1"",""3052""
","
","
","""event"",""trial"",""time""
""fullscreenenter"",""1"",""3052""
","
","","","-1","","","11","3497","2855","y","elianto","#f73b6a7A","-1","-1","1","-10","[]","0","2","","","3497","90","7","4","lose","no-go","1"
"pit-trial","212","1337325","0.0-95.0","battery-v0.2","","""event"",""trial"",""time""
""fullscreenenter"",""1"",""3052""
","
","
","""event"",""trial"",""time""
""fullscreenenter"",""1"",""3052""
","
","","","816.4000000357628","","","11","3497","2855","z","elianto","#3366ff99","-1"," ","0","0","[1669.6000000238419]","1","2","","","3497","91","5","2","win","no-go","0"
"pit-trial","213","1341068","0.0-96.0","battery-v0.2","","""event"",""trial"",""time""
""fullscreenenter"",""1"",""3052""
","
","
","""event"",""trial"",""time""
""fullscreenenter"",""1"",""3052""
","
","","","882","","","11","3497","2855","h","elianto","#f73b6a7A"," "," ","1","0","[1736.2000000476837]","1","2","","","3497","92","6","3","lose","go","0"
"pit-trial","214","1345005","0.0-97.0","battery-v0.2","","""event"",""trial"",""time""
""fullscreenenter"",""1"",""3052""
","
","
","""event"",""trial"",""time""
""fullscreenenter"",""1"",""3052""
","
","","","1075.1000000238419","","","11","3497","2855","y","elianto","#f73b6a7A","-1"," ","0","-10","[1927.699999988079]","1","2","","","3497","93","7","4","lose","no-go","0"
"pit-trial","215","1348941","0.0-98.0","battery-v0.2","","""event"",""trial"",""time""
""fullscreenenter"",""1"",""3052""
","
","
","""event"",""trial"",""time""
""fullscreenenter"",""1"",""3052""
","
","","","1075.0999999642372","","","11","3497","2855","z","elianto","#3366ff99","-1"," ","0","0","[1926.199999988079]","1","2","","","3497","94","5","2","win","no-go","0"
"pit-trial","216","1352923","0.0-99.0","battery-v0.2","","""event"",""trial"",""time""
""fullscreenenter"",""1"",""3052""
","
","
","""event"",""trial"",""time""
""fullscreenenter"",""1"",""3052""
","
","","","1114.4000000357628","","","11","3497","2855","h","elianto","#f73b6a7A"," "," ","1","0","[1967]","1","2","","","3497","95","6","3","lose","go","0"
"pit-trial","217","1356502","0.0-100.0","battery-v0.2","","""event"",""trial"",""time""
""fullscreenenter"",""1"",""3052""
","
","
","""event"",""trial"",""time""
""fullscreenenter"",""1"",""3052""
","
","","","712.8999999761581","","","11","3497","2855","r","elianto","#3366ff99"," "," ","1","+10","[1568.6000000238419]","1","2","","","3497","96","8","1","win","go","0"
"pit-trial","218","1360293","0.0-101.0","battery-v0.2","","""event"",""trial"",""time""
""fullscreenenter"",""1"",""3052""
","
","
","""event"",""trial"",""time""
""fullscreenenter"",""1"",""3052""
","
","","","929","","","11","3497","2855","r","elianto","#3366ff99"," "," ","1","+10","[1781.5999999642372]","1","2","","","3497","97","8","1","win","go","0"
"pit-trial","219","1363941","0.0-102.0","battery-v0.2","","""event"",""trial"",""time""
""fullscreenenter"",""1"",""3052""
","
","
","""event"",""trial"",""time""
""fullscreenenter"",""1"",""3052""
","
","","","784.1000000238419","","","11","3497","2855","h","elianto","#f73b6a7A"," "," ","1","0","[1638.1000000238419]","1","2","","","3497","98","6","3","lose","go","0"
"pit-trial","220","1367660","0.0-103.0","battery-v0.2","","""event"",""trial"",""time""
""fullscreenenter"",""1"",""3052""
","
","
","""event"",""trial"",""time""
""fullscreenenter"",""1"",""3052""
","
","","","858.9000000357628","","","11","3497","2855","z","elianto","#3366ff99","-1"," ","0","0","[1710.199999988079]","1","2","","","3497","99","5","2","win","no-go","0"
"pit-trial","221","1372524","0.0-104.0","battery-v0.2","","""event"",""trial"",""time""
""fullscreenenter"",""1"",""3052""
","
","
","""event"",""trial"",""time""
""fullscreenenter"",""1"",""3052""
","
","","","-1","","","11","3497","2855","y","elianto","#f73b6a7A","-1","-1","1","-10","[]","0","2","","","3497","100","7","4","lose","no-go","1"
"pit-trial","222","1376278","0.0-105.0","battery-v0.2","","""event"",""trial"",""time""
""fullscreenenter"",""1"",""3052""
","
","
","""event"",""trial"",""time""
""fullscreenenter"",""1"",""3052""
","
","","","889","","","11","3497","2855","y","elianto","#f73b6a7A","-1"," ","0","-10","[1745]","1","2","","","3497","101","7","4","lose","no-go","0"
"pit-trial","223","1379975","0.0-106.0","battery-v0.2","","""event"",""trial"",""time""
""fullscreenenter"",""1"",""3052""
","
","
","""event"",""trial"",""time""
""fullscreenenter"",""1"",""3052""
","
","","","832.1999999880791","","","11","3497","2855","m","elianto","#3366ff99"," "," ","1","+10","[1685.7999999523163]","1","2","","","3497","102","9","1","win","go","0"
"pit-trial","224","1384838","0.0-107.0","battery-v0.2","","""event"",""trial"",""time""
""fullscreenenter"",""1"",""3052""
","
","
","""event"",""trial"",""time""
""fullscreenenter"",""1"",""3052""
","
","","","-1","","","11","3497","2855","z","elianto","#3366ff99","-1","-1","1","+10","[]","0","2","","","3497","103","5","2","win","no-go","0"
"pit-trial","225","1389701","0.0-108.0","battery-v0.2","","""event"",""trial"",""time""
""fullscreenenter"",""1"",""3052""
","
","
","""event"",""trial"",""time""
""fullscreenenter"",""1"",""3052""
","
","","","-1","","","11","3497","2855","r","elianto","#3366ff99"," ","-1","0","0","[]","0","2","","","3497","104","8","1","win","go","0"
"pit-trial","226","1394309","0.0-109.0","battery-v0.2","","""event"",""trial"",""time""
""fullscreenenter"",""1"",""3052""
","
","
","""event"",""trial"",""time""
""fullscreenenter"",""1"",""3052""
","
","","","1747.800000011921","","","11","3497","2855","r","elianto","#3366ff99"," "," ","1","+10","[2598.699999988079]","1","2","","","3497","105","8","1","win","go","0"
"pit-trial","227","1398061","0.0-110.0","battery-v0.2","","""event"",""trial"",""time""
""fullscreenenter"",""1"",""3052""
","
","
","""event"",""trial"",""time""
""fullscreenenter"",""1"",""3052""
","
","","","893.8000000119209","","","11","3497","2855","m","elianto","#3366ff99"," "," ","1","+10","[1743.8999999761581]","1","2","","","3497","106","9","1","win","go","0"
"pit-trial","228","1402158","0.0-111.0","battery-v0.2","","""event"",""trial"",""time""
""fullscreenenter"",""1"",""3052""
","
","
","""event"",""trial"",""time""
""fullscreenenter"",""1"",""3052""
","
","","","1235.1000000238419","","","11","3497","2855","h","elianto","#f73b6a7A"," "," ","1","-10","[2085.800000011921]","1","2","","","3497","107","6","3","lose","go","1"
"pit-trial","229","1406884","0.0-112.0","battery-v0.2","","""event"",""trial"",""time""
""fullscreenenter"",""1"",""3052""
","
","
","""event"",""trial"",""time""
""fullscreenenter"",""1"",""3052""
","
","","","1864.3999999761581","","","11","3497","2855","c","elianto","#3366ff99"," "," ","1","+10","[2716.800000011921]","1","2","","","3497","108","4","1","win","go","0"
"pit-trial","230","1410590","0.0-113.0","battery-v0.2","","""event"",""trial"",""time""
""fullscreenenter"",""1"",""3052""
","
","
","""event"",""trial"",""time""
""fullscreenenter"",""1"",""3052""
","
","","","843.4000000357628","","","11","3497","2855","r","elianto","#3366ff99"," "," ","1","+10","[1696]","1","2","","","3497","109","8","1","win","go","0"
"pit-trial","231","1414068","0.0-114.0","battery-v0.2","","""event"",""trial"",""time""
""fullscreenenter"",""1"",""3052""
","
","
","""event"",""trial"",""time""
""fullscreenenter"",""1"",""3052""
","
","","","617.5","","","11","3497","2855","z","elianto","#3366ff99","-1"," ","0","0","[1468.3999999761581]","1","2","","","3497","110","5","2","win","no-go","0"
"pit-trial","232","1417588","0.0-115.0","battery-v0.2","","""event"",""trial"",""time""
""fullscreenenter"",""1"",""3052""
","
","
","""event"",""trial"",""time""
""fullscreenenter"",""1"",""3052""
","
","","","657.0999999642372","","","11","3497","2855","m","elianto","#3366ff99"," "," ","1","+10","[1512.5]","1","2","","","3497","111","9","1","win","go","0"
"pit-trial","233","1422453","0.0-116.0","battery-v0.2","","""event"",""trial"",""time""
""fullscreenenter"",""1"",""3052""
","
","
","""event"",""trial"",""time""
""fullscreenenter"",""1"",""3052""
","
","","","-1","","","11","3497","2855","h","elianto","#f73b6a7A"," ","-1","0","-10","[]","0","2","","","3497","112","6","3","lose","go","0"
"pit-trial","234","1426057","0.0-117.0","battery-v0.2","","""event"",""trial"",""time""
""fullscreenenter"",""1"",""3052""
","
","
","""event"",""trial"",""time""
""fullscreenenter"",""1"",""3052""
","
","","","740.6000000238419","","","11","3497","2855","m","elianto","#3366ff99"," "," ","1","+10","[1592]","1","2","","","3497","113","9","1","win","go","0"
"pit-trial","235","1430925","0.0-118.0","battery-v0.2","","""event"",""trial"",""time""
""fullscreenenter"",""1"",""3052""
","
","
","""event"",""trial"",""time""
""fullscreenenter"",""1"",""3052""
","
","","","-1","","","11","3497","2855","z","elianto","#3366ff99","-1","-1","1","0","[]","0","2","","","3497","114","5","2","win","no-go","1"
"pit-trial","236","1434836","0.0-119.0","battery-v0.2","","""event"",""trial"",""time""
""fullscreenenter"",""1"",""3052""
","
","
","""event"",""trial"",""time""
""fullscreenenter"",""1"",""3052""
","
","","","1050.699999988079","","","11","3497","2855","r","elianto","#3366ff99"," "," ","1","+10","[1901.5]","1","2","","","3497","115","8","1","win","go","0"
"pit-trial","237","1438709","0.0-120.0","battery-v0.2","","""event"",""trial"",""time""
""fullscreenenter"",""1"",""3052""
","
","
","""event"",""trial"",""time""
""fullscreenenter"",""1"",""3052""
","
","","","1009.6999999880791","","","11","3497","2855","h","elianto","#f73b6a7A"," "," ","1","0","[1864.199999988079]","1","2","","","3497","116","6","3","lose","go","0"
"pit-trial","238","1442639","0.0-121.0","battery-v0.2","","""event"",""trial"",""time""
""fullscreenenter"",""1"",""3052""
","
","
","""event"",""trial"",""time""
""fullscreenenter"",""1"",""3052""
","
","","","1056.6000000238419","","","11","3497","2855","h","elianto","#f73b6a7A"," "," ","1","-10","[1910.1000000238419]","1","2","","","3497","117","6","3","lose","go","1"
"pit-trial","239","1446276","0.0-122.0","battery-v0.2","","""event"",""trial"",""time""
""fullscreenenter"",""1"",""3052""
","
","
","""event"",""trial"",""time""
""fullscreenenter"",""1"",""3052""
","
","","","776.5","","","11","3497","2855","m","elianto","#3366ff99"," "," ","1","+10","[1627.5999999642372]","1","2","","","3497","118","9","1","win","go","0"
"pit-trial","240","1449996","0.0-123.0","battery-v0.2","","""event"",""trial"",""time""
""fullscreenenter"",""1"",""3052""
","
","
","""event"",""trial"",""time""
""fullscreenenter"",""1"",""3052""
","
","","","862.2000000476837","","","11","3497","2855","r","elianto","#3366ff99"," "," ","1","+10","[1712.699999988079]","1","2","","","3497","119","8","1","win","go","0"
"pit-trial","241","1454525","0.0-124.0","battery-v0.2","","""event"",""trial"",""time""
""fullscreenenter"",""1"",""3052""
","
","
","""event"",""trial"",""time""
""fullscreenenter"",""1"",""3052""
","
","","","1667.5","","","11","3497","2855","z","elianto","#3366ff99","-1"," ","0","0","[2517.7000000476837]","1","2","","","3497","120","5","2","win","no-go","0"
"pit-trial","242","1458036","0.0-125.0","battery-v0.2","","""event"",""trial"",""time""
""fullscreenenter"",""1"",""3052""
","
","
","""event"",""trial"",""time""
""fullscreenenter"",""1"",""3052""
","
","","","648.6000000238419","","","11","3497","2855","h","elianto","#f73b6a7A"," "," ","1","0","[1503.9000000357628]","1","2","","","3497","121","6","3","lose","go","0"
"pit-trial","243","1462421","0.0-126.0","battery-v0.2","","""event"",""trial"",""time""
""fullscreenenter"",""1"",""3052""
","
","
","""event"",""trial"",""time""
""fullscreenenter"",""1"",""3052""
","
","","","1525","","","11","3497","2855","y","elianto","#f73b6a7A","-1"," ","0","-10","[2376.100000023842]","1","2","","","3497","122","7","4","lose","no-go","0"
"pit-trial","244","1465902","0.0-127.0","battery-v0.2","","""event"",""trial"",""time""
""fullscreenenter"",""1"",""3052""
","
","
","""event"",""trial"",""time""
""fullscreenenter"",""1"",""3052""
","
","","","617.0999999642372","","","11","3497","2855","r","elianto","#3366ff99"," "," ","1","+10","[1469.699999988079]","1","2","","","3497","123","8","1","win","go","0"
"pit-trial","245","1469620","0.0-128.0","battery-v0.2","","""event"",""trial"",""time""
""fullscreenenter"",""1"",""3052""
","
","
","""event"",""trial"",""time""
""fullscreenenter"",""1"",""3052""
","
","","","857.9000000357628","","","11","3497","2855","m","elianto","#3366ff99"," "," ","1","+10","[1711.1000000238419]","1","2","","","3497","124","9","1","win","go","0"
"pit-trial","246","1473109","0.0-129.0","battery-v0.2","","""event"",""trial"",""time""
""fullscreenenter"",""1"",""3052""
","
","
","""event"",""trial"",""time""
""fullscreenenter"",""1"",""3052""
","
","","","624.5","","","11","3497","2855","m","elianto","#3366ff99"," "," ","1","0","[1478.5]","1","2","","","3497","125","9","1","win","go","1"
"pit-trial","247","1477046","0.0-130.0","battery-v0.2","","""event"",""trial"",""time""
""fullscreenenter"",""1"",""3052""
","
","
","""event"",""trial"",""time""
""fullscreenenter"",""1"",""3052""
","
","","","1073.1000000238419","","","11","3497","2855","h","elianto","#f73b6a7A"," "," ","1","0","[1927.4000000357628]","1","2","","","3497","126","6","3","lose","go","0"
"pit-trial","248","1481045","0.0-131.0","battery-v0.2","","""event"",""trial"",""time""
""fullscreenenter"",""1"",""3052""
","
","
","""event"",""trial"",""time""
""fullscreenenter"",""1"",""3052""
","
","","","1138","","","11","3497","2855","y","elianto","#f73b6a7A","-1"," ","0","-10","[1989.5]","1","2","","","3497","127","7","4","lose","no-go","0"
"pit-trial","249","1484566","0.0-132.0","battery-v0.2","","""event"",""trial"",""time""
""fullscreenenter"",""1"",""3052""
","
","
","""event"",""trial"",""time""
""fullscreenenter"",""1"",""3052""
","
","","","656","","","11","3497","2855","r","elianto","#3366ff99"," "," ","1","0","[1509]","1","2","","","3497","128","8","1","win","go","1"
"pit-trial","250","1488084","0.0-133.0","battery-v0.2","","""event"",""trial"",""time""
""fullscreenenter"",""1"",""3052""
","
","
","""event"",""trial"",""time""
""fullscreenenter"",""1"",""3052""
","
","","","659.1000000238419","","","11","3497","2855","h","elianto","#f73b6a7A"," "," ","1","0","[1509.6000000238419]","1","2","","","3497","129","6","3","lose","go","0"
"pit-trial","251","1491476","0.0-134.0","battery-v0.2","","""event"",""trial"",""time""
""fullscreenenter"",""1"",""3052""
","
","
","""event"",""trial"",""time""
""fullscreenenter"",""1"",""3052""
","
","","","532.5999999642372","","","11","3497","2855","m","elianto","#3366ff99"," "," ","1","+10","[1382.8999999761581]","1","2","","","3497","130","9","1","win","go","0"
"pit-trial","252","1495333","0.0-135.0","battery-v0.2","","""event"",""trial"",""time""
""fullscreenenter"",""1"",""3052""
","
","
","""event"",""trial"",""time""
""fullscreenenter"",""1"",""3052""
","
","","","993.6000000238419","","","11","3497","2855","r","elianto","#3366ff99"," "," ","1","+10","[1848.7000000476837]","1","2","","","3497","131","8","1","win","go","0"
"pit-trial","253","1500198","0.0-136.0","battery-v0.2","","""event"",""trial"",""time""
""fullscreenenter"",""1"",""3052""
","
","
","""event"",""trial"",""time""
""fullscreenenter"",""1"",""3052""
","
","","","-1","","","11","3497","2855","y","elianto","#f73b6a7A","-1","-1","1","-10","[]","0","2","","","3497","132","7","4","lose","no-go","1"
"pit-trial","254","1503661","0.0-137.0","battery-v0.2","","""event"",""trial"",""time""
""fullscreenenter"",""1"",""3052""
","
","
","""event"",""trial"",""time""
""fullscreenenter"",""1"",""3052""
","
","","","602.1999999880791","","","11","3497","2855","r","elianto","#3366ff99"," "," ","1","+10","[1453.300000011921]","1","2","","","3497","133","8","1","win","go","0"
"pit-trial","255","1507060","0.0-138.0","battery-v0.2","","""event"",""trial"",""time""
""fullscreenenter"",""1"",""3052""
","
","
","""event"",""trial"",""time""
""fullscreenenter"",""1"",""3052""
","
","","","537.5","","","11","3497","2855","m","elianto","#3366ff99"," "," ","1","+10","[1390.7000000476837]","1","2","","","3497","134","9","1","win","go","0"
"pit-trial","256","1510422","0.0-139.0","battery-v0.2","","""event"",""trial"",""time""
""fullscreenenter"",""1"",""3052""
","
","
","""event"",""trial"",""time""
""fullscreenenter"",""1"",""3052""
","
","","","498.0999999642372","","","11","3497","2855","h","elianto","#f73b6a7A"," "," ","1","0","[1352]","1","2","","","3497","135","6","3","lose","go","0"
"pit-trial","257","1515284","0.0-140.0","battery-v0.2","","""event"",""trial"",""time""
""fullscreenenter"",""1"",""3052""
","
","
","""event"",""trial"",""time""
""fullscreenenter"",""1"",""3052""
","
","","","-1","","","11","3497","2855","y","elianto","#f73b6a7A","-1","-1","1","-10","[]","0","2","","","3497","136","7","4","lose","no-go","1"
"pit-trial","258","1518462","0.0-141.0","battery-v0.2","","""event"",""trial"",""time""
""fullscreenenter"",""1"",""3052""
","
","
","""event"",""trial"",""time""
""fullscreenenter"",""1"",""3052""
","
","","","313.39999997615814","","","11","3497","2855","r","elianto","#3366ff99"," "," ","1","+10","[263,550.6000000238419,767,1167.1000000238419]","4","2","","","3497","137","8","1","win","go","0"
"pit-trial","259","1521725","0.0-142.0","battery-v0.2","","""event"",""trial"",""time""
""fullscreenenter"",""1"",""3052""
","
","
","""event"",""trial"",""time""
""fullscreenenter"",""1"",""3052""
","
","","","401.5999999642372","","","11","3497","2855","y","elianto","#f73b6a7A","-1"," ","0","0","[1253,1997.4000000357628]","2","2","","","3497","138","7","4","lose","no-go","1"
"pit-trial","260","1524790","0.0-143.0","battery-v0.2","","""event"",""trial"",""time""
""fullscreenenter"",""1"",""3052""
","
","
","""event"",""trial"",""time""
""fullscreenenter"",""1"",""3052""
","
","","","200.80000001192093","","","11","3497","2855","h","elianto","#f73b6a7A"," "," ","1","0","[1054.4000000357628,1766.4000000357628]","2","2","","","3497","139","6","3","lose","go","0"
"pit-trial","261","1527845","0.0-144.0","battery-v0.2","","""event"",""trial"",""time""
""fullscreenenter"",""1"",""3052""
","
","
","""event"",""trial"",""time""
""fullscreenenter"",""1"",""3052""
","
","","","193","","","11","3497","2855","m","elianto","#3366ff99"," "," ","1","+10","[1044.699999988079]","1","2","","","3497","140","9","1","win","go","0"
"pit-instructions","262","1560081","0.0-145.0","battery-v0.2","","""event"",""trial"",""time""
""fullscreenenter"",""1"",""3052""
