"trial_type","trial_index","time_elapsed","internal_node_id","task_version","subject_id","interactions","blur_events","focus_events","fullscreenenter_events","fullscreenexit_events","success","view_history","rt","responses","num_errors","age","subject","participantId","rune","rune_set","hex","correct","choice","accuracy","outcome","keys","total_keys","block","practice","value","sub","trial","stimulus","robot","valence","action","sham"
"pavlovia","0","10","0.0-0.0","battery-v0.2","","""event"",""trial"",""time""
""fullscreenenter"",""1"",""2398""
","
","
","""event"",""trial"",""time""
""fullscreenenter"",""1"",""2398""
","
","","","","","","","","","","","","","","","","","","","","","","","","","","",""
"fullscreen","1","3396","0.0-1.0","battery-v0.2","","""event"",""trial"",""time""
""fullscreenenter"",""1"",""2398""
","
","
","""event"",""trial"",""time""
""fullscreenenter"",""1"",""2398""
","
","true","","","","","","","","","","","","","","","","","","","","","","","","","",""
"pit-instructions","2","7486","0.0-2.0-0.0","battery-v0.2","","""event"",""trial"",""time""
""fullscreenenter"",""1"",""2398""
","
","
","""event"",""trial"",""time""
""fullscreenenter"",""1"",""2398""
","
","","[{""page_index"":0,""viewing_time"":4087.5999999046326}]","4087.7999999523163","","","","","","","","","","","","","","","","","","","","","","","",""
"pit-comprehension","3","10045","0.0-2.0-1.0-0.0","battery-v0.2","","""event"",""trial"",""time""
""fullscreenenter"",""1"",""2398""
","
","
","""event"",""trial"",""time""
""fullscreenenter"",""1"",""2398""
","
","","","2557.2000000476837","[""shark""]","0","22","12450","5579","","","","","","","","","","","","","","","","","","",""
"pit-instructions","4","14105","0.0-2.0-1.0-1.0","battery-v0.2","","""event"",""trial"",""time""
""fullscreenenter"",""1"",""2398""
","
","
","""event"",""trial"",""time""
""fullscreenenter"",""1"",""2398""
","
","","[{""page_index"":0,""viewing_time"":4050.2999999523163}]","4050.600000143051","","","","","","","","","","","","","","","","","","","","","","","",""
"pit-comprehension","5","17489","0.0-2.0-2.0-0.0","battery-v0.2","","""event"",""trial"",""time""
""fullscreenenter"",""1"",""2398""
","
","
","""event"",""trial"",""time""
""fullscreenenter"",""1"",""2398""
","
","","","3381.4000000953674","[""tiger""]","0","22","12450","5579","","","","","","","","","","","","","","","","","","",""
"pit-instructions","6","21654","0.0-2.0-2.0-1.0","battery-v0.2","","""event"",""trial"",""time""
""fullscreenenter"",""1"",""2398""
","
","
","""event"",""trial"",""time""
""fullscreenenter"",""1"",""2398""
","
","","[{""page_index"":0,""viewing_time"":4163}]","4163.299999952316","","","","","","","","","","","","","","","","","","","","","","","",""
"pit-instructions","7","126292","0.0-2.0-3.0","battery-v0.2","","""event"",""trial"",""time""
""fullscreenenter"",""1"",""2398""
","
","
","""event"",""trial"",""time""
""fullscreenenter"",""1"",""2398""
","
","","[{""page_index"":0,""viewing_time"":11072.299999952316},{""page_index"":1,""viewing_time"":9806.700000047684},{""page_index"":2,""viewing_time"":6159.099999904633},{""page_index"":3,""viewing_time"":5257},{""page_index"":4,""viewing_time"":6230.400000095367},{""page_index"":5,""viewing_time"":5955.599999904633},{""page_index"":6,""viewing_time"":7585.5},{""page_index"":7,""viewing_time"":6970.400000095367},{""page_index"":8,""viewing_time"":6689.700000047684},{""page_index"":9,""viewing_time"":9838.599999904633},{""page_index"":10,""viewing_time"":7098.099999904633},{""page_index"":11,""viewing_time"":9458.300000190735},{""page_index"":12,""viewing_time"":8067.699999809265},{""page_index"":13,""viewing_time"":4446.800000190735}]","104636.5","","","","","","","","","","","","","","","","","","","","","","","",""
"pit-trial","8","129667","0.0-2.0-4.0-0.0","battery-v0.2","","""event"",""trial"",""time""
""fullscreenenter"",""1"",""2398""
","
","
","""event"",""trial"",""time""
""fullscreenenter"",""1"",""2398""
","
","","","517","","","22","12450","5579","&#9784;","elianto","#FFFFF080"," "," ","1","&#10004","[1370.2999999523163]","1","0","0","","","","","","","",""
"pit-trial","9","133017","0.0-2.0-4.1-0.1","battery-v0.2","","""event"",""trial"",""time""
""fullscreenenter"",""1"",""2398""
","
","
","""event"",""trial"",""time""
""fullscreenenter"",""1"",""2398""
","
","","","488.60000014305115","","","22","12450","5579","&#9784;","elianto","#FFFFF080"," "," ","1","&#10004","[1344.1000001430511]","1","0","0","","","","","","","",""
"pit-trial","10","136373","0.0-2.0-4.2-0.2","battery-v0.2","","""event"",""trial"",""time""
""fullscreenenter"",""1"",""2398""
","
","
","""event"",""trial"",""time""
""fullscreenenter"",""1"",""2398""
","
","","","484.2000000476837","","","22","12450","5579","&#9784;","elianto","#FFFFF080"," "," ","1","&#10004","[1342.2999999523163]","1","0","0","","","","","","","",""
"pit-trial","11","139603","0.0-2.0-4.3-0.3","battery-v0.2","","""event"",""trial"",""time""
""fullscreenenter"",""1"",""2398""
","
","
","""event"",""trial"",""time""
""fullscreenenter"",""1"",""2398""
","
","","","360.59999990463257","","","22","12450","5579","&#9784;","elianto","#FFFFF080"," "," ","1","&#10004","[1217.2000000476837]","1","0","0","","","","","","","",""
"pit-trial","12","142879","0.0-2.0-4.4-0.4","battery-v0.2","","""event"",""trial"",""time""
""fullscreenenter"",""1"",""2398""
","
","
","""event"",""trial"",""time""
""fullscreenenter"",""1"",""2398""
","
","","","418.39999985694885","","","22","12450","5579","&#9784;","elianto","#FFFFF080"," "," ","1","&#10004","[1272.4000000953674]","1","0","0","","","","","","","",""
"pit-instructions","13","167171","0.0-2.0-5.0","battery-v0.2","","""event"",""trial"",""time""
""fullscreenenter"",""1"",""2398""
","
","
","""event"",""trial"",""time""
""fullscreenenter"",""1"",""2398""
","
","","[{""page_index"":0,""viewing_time"":8242.100000143051},{""page_index"":1,""viewing_time"":5880.700000047684},{""page_index"":2,""viewing_time"":5020.599999904633},{""page_index"":3,""viewing_time"":5147.5}]","24291.300000190735","","","","","","","","","","","","","","","","","","","","","","","",""
"pit-trial","14","172034","0.0-2.0-6.0-0.0","battery-v0.2","","""event"",""trial"",""time""
""fullscreenenter"",""1"",""2398""
","
","
","""event"",""trial"",""time""
""fullscreenenter"",""1"",""2398""
","
","","","-1","","","22","12450","5579","&#9854;","elianto","#FFFFF080","-1","-1","1","&#10004","[]","0","0","1","","","","","","","",""
"pit-trial","15","176902","0.0-2.0-6.1-0.1","battery-v0.2","","""event"",""trial"",""time""
""fullscreenenter"",""1"",""2398""
","
","
","""event"",""trial"",""time""
""fullscreenenter"",""1"",""2398""
","
","","","-1","","","22","12450","5579","&#9854;","elianto","#FFFFF080","-1","-1","1","&#10004","[]","0","0","1","","","","","","","",""
"pit-trial","16","181767","0.0-2.0-6.2-0.2","battery-v0.2","","""event"",""trial"",""time""
""fullscreenenter"",""1"",""2398""
","
","
","""event"",""trial"",""time""
""fullscreenenter"",""1"",""2398""
","
","","","-1","","","22","12450","5579","&#9854;","elianto","#FFFFF080","-1","-1","1","&#10004","[]","0","0","1","","","","","","","",""
"pit-trial","17","186639","0.0-2.0-6.3-0.3","battery-v0.2","","""event"",""trial"",""time""
""fullscreenenter"",""1"",""2398""
","
","
","""event"",""trial"",""time""
""fullscreenenter"",""1"",""2398""
","
","","","-1","","","22","12450","5579","&#9854;","elianto","#FFFFF080","-1","-1","1","&#10004","[]","0","0","1","","","","","","","",""
"pit-trial","18","191501","0.0-2.0-6.4-0.4","battery-v0.2","","""event"",""trial"",""time""
""fullscreenenter"",""1"",""2398""
","
","
","""event"",""trial"",""time""
""fullscreenenter"",""1"",""2398""
","
","","","-1","","","22","12450","5579","&#9854;","elianto","#FFFFF080","-1","-1","1","&#10004","[]","0","0","1","","","","","","","",""
"pit-instructions","19","310987","0.0-2.0-7.0","battery-v0.2","","""event"",""trial"",""time""
""fullscreenenter"",""1"",""2398""
","
","
","""event"",""trial"",""time""
""fullscreenenter"",""1"",""2398""
","
","","[{""page_index"":0,""viewing_time"":5719.299999952316},{""page_index"":1,""viewing_time"":7036.5},{""page_index"":2,""viewing_time"":6281.5},{""page_index"":3,""viewing_time"":6344.799999952316},{""page_index"":4,""viewing_time"":5679.800000190735},{""page_index"":5,""viewing_time"":5338.599999904633},{""page_index"":6,""viewing_time"":5114.099999904633},{""page_index"":7,""viewing_time"":7727.300000190735},{""page_index"":8,""viewing_time"":6891.299999952316},{""page_index"":9,""viewing_time"":5155},{""page_index"":10,""viewing_time"":6065.099999904633},{""page_index"":11,""viewing_time"":6296.400000095367},{""page_index"":12,""viewing_time"":8415.099999904633},{""page_index"":13,""viewing_time"":7919.900000095367},{""page_index"":14,""viewing_time"":7421.5},{""page_index"":15,""viewing_time"":7044.399999856949},{""page_index"":16,""viewing_time"":7560.800000190735},{""page_index"":17,""viewing_time"":7472.199999809265}]","119483.90000009537","","","","","","","","","","","","","","","","","","","","","","","",""
"pit-trial","20","314512","0.0-2.0-8.0-0.0","battery-v0.2","","""event"",""trial"",""time""
""fullscreenenter"",""1"",""2398""
","
","
","""event"",""trial"",""time""
""fullscreenenter"",""1"",""2398""
","
","","","657.5999999046326","","","22","12450","5579","&#9776;","elianto","#3366ff99"," "," ","1","+10","[1510.2999999523163]","1","0","1","","","","","","","",""
"pit-trial","21","318011","0.0-2.0-8.0-1.0","battery-v0.2","","""event"",""trial"",""time""
""fullscreenenter"",""1"",""2398""
","
","
","""event"",""trial"",""time""
""fullscreenenter"",""1"",""2398""
","
","","","636.3999998569489","","","22","12450","5579","&#9776;","elianto","#3366ff99"," "," ","1","+10","[1487.2999999523163]","1","0","1","","","","","","","",""
"pit-trial","22","321382","0.0-2.0-8.0-2.0","battery-v0.2","","""event"",""trial"",""time""
""fullscreenenter"",""1"",""2398""
","
","
","""event"",""trial"",""time""
""fullscreenenter"",""1"",""2398""
","
","","","501.7000000476837","","","22","12450","5579","&#9776;","elianto","#3366ff99"," "," ","1","+10","[1355.5]","1","0","1","","","","","","","",""
"pit-trial","23","324751","0.0-2.0-8.0-3.0","battery-v0.2","","""event"",""trial"",""time""
""fullscreenenter"",""1"",""2398""
","
","
","""event"",""trial"",""time""
""fullscreenenter"",""1"",""2398""
","
","","","515.4000000953674","","","22","12450","5579","&#9776;","elianto","#3366ff99"," "," ","1","0","[1365.8999998569489]","1","0","1","","","","","","","",""
"pit-trial","24","328048","0.0-2.0-8.0-4.0","battery-v0.2","","""event"",""trial"",""time""
""fullscreenenter"",""1"",""2398""
","
","
","""event"",""trial"",""time""
""fullscreenenter"",""1"",""2398""
","
","","","426.7999999523163","","","22","12450","5579","&#9776;","elianto","#3366ff99"," "," ","1","+10","[1287.2999999523163]","1","0","1","","","","","","","",""
"pit-trial","25","331297","0.0-2.0-8.1-0.1","battery-v0.2","","""event"",""trial"",""time""
""fullscreenenter"",""1"",""2398""
","
","
","""event"",""trial"",""time""
""fullscreenenter"",""1"",""2398""
","
","","","390.90000009536743","","","22","12450","5579","&#9776;","elianto","#3366ff99"," "," ","1","+10","[1241.4000000953674]","1","0","1","","","","","","","",""
"pit-trial","26","334318","0.0-2.0-8.1-1.1","battery-v0.2","","""event"",""trial"",""time""
""fullscreenenter"",""1"",""2398""
","
","
","""event"",""trial"",""time""
""fullscreenenter"",""1"",""2398""
","
","","","166.10000014305115","","","22","12450","5579","&#9776;","elianto","#3366ff99"," "," ","1","+10","[1017.7999999523163]","1","0","1","","","","","","","",""
"pit-trial","27","337581","0.0-2.0-8.1-2.1","battery-v0.2","","""event"",""trial"",""time""
""fullscreenenter"",""1"",""2398""
","
","
","""event"",""trial"",""time""
""fullscreenenter"",""1"",""2398""
","
","","","395","","","22","12450","5579","&#9776;","elianto","#3366ff99"," "," ","1","+10","[1253.7000000476837]","1","0","1","","","","","","","",""
"pit-trial","28","340808","0.0-2.0-8.1-3.1","battery-v0.2","","""event"",""trial"",""time""
""fullscreenenter"",""1"",""2398""
","
","
","""event"",""trial"",""time""
""fullscreenenter"",""1"",""2398""
","
","","","370.2000000476837","","","22","12450","5579","&#9776;","elianto","#3366ff99"," "," ","1","0","[1220.7999999523163]","1","0","1","","","","","","","",""
"pit-trial","29","343825","0.0-2.0-8.1-4.1","battery-v0.2","","""event"",""trial"",""time""
""fullscreenenter"",""1"",""2398""
","
","
","""event"",""trial"",""time""
""fullscreenenter"",""1"",""2398""
","
","","","161.60000014305115","","","22","12450","5579","&#9776;","elianto","#3366ff99"," "," ","1","+10","[1014.9000000953674]","1","0","1","","","","","","","",""
"pit-trial","30","346867","0.0-2.0-8.2-0.2","battery-v0.2","","""event"",""trial"",""time""
""fullscreenenter"",""1"",""2398""
","
","
","""event"",""trial"",""time""
""fullscreenenter"",""1"",""2398""
","
","","","187.29999995231628","","","22","12450","5579","&#9776;","elianto","#3366ff99"," "," ","1","+10","[1039.4000000953674]","1","0","1","","","","","","","",""
"pit-trial","31","349970","0.0-2.0-8.2-1.2","battery-v0.2","","""event"",""trial"",""time""
""fullscreenenter"",""1"",""2398""
","
","
","""event"",""trial"",""time""
""fullscreenenter"",""1"",""2398""
","
","","","247.70000004768372","","","22","12450","5579","&#9776;","elianto","#3366ff99"," "," ","1","+10","[1098]","1","0","1","","","","","","","",""
"pit-trial","32","352858","0.0-2.0-8.2-2.2","battery-v0.2","","""event"",""trial"",""time""
""fullscreenenter"",""1"",""2398""
","
","
","""event"",""trial"",""time""
""fullscreenenter"",""1"",""2398""
","
","","","34","","","22","12450","5579","&#9776;","elianto","#3366ff99"," "," ","1","+10","[885.9000000953674]","1","0","1","","","","","","","",""
"pit-trial","33","355999","0.0-2.0-8.2-3.2","battery-v0.2","","""event"",""trial"",""time""
""fullscreenenter"",""1"",""2398""
","
","
","""event"",""trial"",""time""
""fullscreenenter"",""1"",""2398""
","
","","","283.59999990463257","","","22","12450","5579","&#9776;","elianto","#3366ff99"," "," ","1","0","[1136.9000000953674]","1","0","1","","","","","","","",""
"pit-trial","34","359184","0.0-2.0-8.2-4.2","battery-v0.2","","""event"",""trial"",""time""
""fullscreenenter"",""1"",""2398""
","
","
","""event"",""trial"",""time""
""fullscreenenter"",""1"",""2398""
","
","","","328","","","22","12450","5579","&#9776;","elianto","#3366ff99"," "," ","1","+10","[1178.1999998092651]","1","0","1","","","","","","","",""
"call-function","35","359185","0.0-2.0-9.0","battery-v0.2","","""event"",""trial"",""time""
""fullscreenenter"",""1"",""2398""
","
","
","""event"",""trial"",""time""
""fullscreenenter"",""1"",""2398""
","
","","","","","","","","","","","","","","","","","","","","","","","","","","",""
"pit-instructions","36","400567","0.0-2.0-10.0","battery-v0.2","","""event"",""trial"",""time""
""fullscreenenter"",""1"",""2398""
","
","
","""event"",""trial"",""time""
""fullscreenenter"",""1"",""2398""
","
","","[{""page_index"":0,""viewing_time"":6912.899999856949},{""page_index"":1,""viewing_time"":7507.200000047684},{""page_index"":2,""viewing_time"":9838.799999952316},{""page_index"":3,""viewing_time"":10117.400000095367},{""page_index"":4,""viewing_time"":7005.700000047684}]","41382.299999952316","","","","","","","","","","","","","","","","","","","","","","","",""
"pit-trial","37","403723","0.0-2.0-11.0-0.0","battery-v0.2","","""event"",""trial"",""time""
""fullscreenenter"",""1"",""2398""
","
","
","""event"",""trial"",""time""
""fullscreenenter"",""1"",""2398""
","
","","","294.7000000476837","","","22","12450","5579","&#9761;","elianto","#3366ff99","-1"," ","0","0","[1145]","1","0","2","","","","","","","",""
"pit-trial","38","408585","0.0-2.0-11.0-1.0","battery-v0.2","","""event"",""trial"",""time""
""fullscreenenter"",""1"",""2398""
","
","
","""event"",""trial"",""time""
""fullscreenenter"",""1"",""2398""
","
","","","-1","","","22","12450","5579","&#9761;","elianto","#3366ff99","-1","-1","1","+10","[]","0","0","2","","","","","","","",""
"pit-trial","39","413463","0.0-2.0-11.0-2.0","battery-v0.2","","""event"",""trial"",""time""
""fullscreenenter"",""1"",""2398""
","
","
","""event"",""trial"",""time""
""fullscreenenter"",""1"",""2398""
","
","","","-1","","","22","12450","5579","&#9761;","elianto","#3366ff99","-1","-1","1","+10","[]","0","0","2","","","","","","","",""
"pit-trial","40","418331","0.0-2.0-11.0-3.0","battery-v0.2","","""event"",""trial"",""time""
""fullscreenenter"",""1"",""2398""
","
","
","""event"",""trial"",""time""
""fullscreenenter"",""1"",""2398""
","
","","","-1","","","22","12450","5579","&#9761;","elianto","#3366ff99","-1","-1","1","0","[]","0","0","2","","","","","","","",""
"pit-trial","41","423193","0.0-2.0-11.0-4.0","battery-v0.2","","""event"",""trial"",""time""
""fullscreenenter"",""1"",""2398""
","
","
","""event"",""trial"",""time""
""fullscreenenter"",""1"",""2398""
","
","","","-1","","","22","12450","5579","&#9761;","elianto","#3366ff99","-1","-1","1","+10","[]","0","0","2","","","","","","","",""
"pit-trial","42","428063","0.0-2.0-11.1-0.1","battery-v0.2","","""event"",""trial"",""time""
""fullscreenenter"",""1"",""2398""
","
","
","""event"",""trial"",""time""
""fullscreenenter"",""1"",""2398""
","
","","","-1","","","22","12450","5579","&#9761;","elianto","#3366ff99","-1","-1","1","+10","[]","0","0","2","","","","","","","",""
"pit-trial","43","432551","0.0-2.0-11.1-1.1","battery-v0.2","","""event"",""trial"",""time""
""fullscreenenter"",""1"",""2398""
","
","
","""event"",""trial"",""time""
""fullscreenenter"",""1"",""2398""
","
","","","1626.7999999523163","","","22","12450","5579","&#9761;","elianto","#3366ff99","-1"," ","0","0","[2478.0999999046326]","1","0","2","","","","","","","",""
"pit-trial","44","437407","0.0-2.0-11.1-2.1","battery-v0.2","","""event"",""trial"",""time""
""fullscreenenter"",""1"",""2398""
","
","
","""event"",""trial"",""time""
""fullscreenenter"",""1"",""2398""
","
","","","-1","","","22","12450","5579","&#9761;","elianto","#3366ff99","-1","-1","1","+10","[]","0","0","2","","","","","","","",""
"pit-trial","45","442264","0.0-2.0-11.1-3.1","battery-v0.2","","""event"",""trial"",""time""
""fullscreenenter"",""1"",""2398""
","
","
","""event"",""trial"",""time""
""fullscreenenter"",""1"",""2398""
","
","","","-1","","","22","12450","5579","&#9761;","elianto","#3366ff99","-1","-1","1","0","[]","0","0","2","","","","","","","",""
"pit-trial","46","447129","0.0-2.0-11.1-4.1","battery-v0.2","","""event"",""trial"",""time""
""fullscreenenter"",""1"",""2398""
","
","
","""event"",""trial"",""time""
""fullscreenenter"",""1"",""2398""
","
","","","-1","","","22","12450","5579","&#9761;","elianto","#3366ff99","-1","-1","1","+10","[]","0","0","2","","","","","","","",""
"pit-trial","47","451992","0.0-2.0-11.2-0.2","battery-v0.2","","""event"",""trial"",""time""
""fullscreenenter"",""1"",""2398""
","
","
","""event"",""trial"",""time""
""fullscreenenter"",""1"",""2398""
","
","","","-1","","","22","12450","5579","&#9761;","elianto","#3366ff99","-1","-1","1","+10","[]","0","0","2","","","","","","","",""
"pit-trial","48","456849","0.0-2.0-11.2-1.2","battery-v0.2","","""event"",""trial"",""time""
""fullscreenenter"",""1"",""2398""
","
","
","""event"",""trial"",""time""
""fullscreenenter"",""1"",""2398""
","
","","","-1","","","22","12450","5579","&#9761;","elianto","#3366ff99","-1","-1","1","+10","[]","0","0","2","","","","","","","",""
"pit-trial","49","461705","0.0-2.0-11.2-2.2","battery-v0.2","","""event"",""trial"",""time""
""fullscreenenter"",""1"",""2398""
","
","
","""event"",""trial"",""time""
""fullscreenenter"",""1"",""2398""
","
","","","-1","","","22","12450","5579","&#9761;","elianto","#3366ff99","-1","-1","1","+10","[]","0","0","2","","","","","","","",""
"pit-trial","50","466561","0.0-2.0-11.2-3.2","battery-v0.2","","""event"",""trial"",""time""
""fullscreenenter"",""1"",""2398""
","
","
","""event"",""trial"",""time""
""fullscreenenter"",""1"",""2398""
","
","","","-1","","","22","12450","5579","&#9761;","elianto","#3366ff99","-1","-1","1","0","[]","0","0","2","","","","","","","",""
"pit-trial","51","471418","0.0-2.0-11.2-4.2","battery-v0.2","","""event"",""trial"",""time""
""fullscreenenter"",""1"",""2398""
","
","
","""event"",""trial"",""time""
""fullscreenenter"",""1"",""2398""
","
","","","-1","","","22","12450","5579","&#9761;","elianto","#3366ff99","-1","-1","1","+10","[]","0","0","2","","","","","","","",""
"pit-trial","52","476272","0.0-2.0-11.3-0.3","battery-v0.2","","""event"",""trial"",""time""
""fullscreenenter"",""1"",""2398""
","
","
","""event"",""trial"",""time""
""fullscreenenter"",""1"",""2398""
","
","","","-1","","","22","12450","5579","&#9761;","elianto","#3366ff99","-1","-1","1","+10","[]","0","0","2","","","","","","","",""
"pit-trial","53","481129","0.0-2.0-11.3-1.3","battery-v0.2","","""event"",""trial"",""time""
""fullscreenenter"",""1"",""2398""
","
","
","""event"",""trial"",""time""
""fullscreenenter"",""1"",""2398""
","
","","","-1","","","22","12450","5579","&#9761;","elianto","#3366ff99","-1","-1","1","+10","[]","0","0","2","","","","","","","",""
"pit-trial","54","485987","0.0-2.0-11.3-2.3","battery-v0.2","","""event"",""trial"",""time""
""fullscreenenter"",""1"",""2398""
","
","
","""event"",""trial"",""time""
""fullscreenenter"",""1"",""2398""
","
","","","-1","","","22","12450","5579","&#9761;","elianto","#3366ff99","-1","-1","1","+10","[]","0","0","2","","","","","","","",""
"pit-trial","55","490844","0.0-2.0-11.3-3.3","battery-v0.2","","""event"",""trial"",""time""
""fullscreenenter"",""1"",""2398""
","
","
","""event"",""trial"",""time""
""fullscreenenter"",""1"",""2398""
","
","","","-1","","","22","12450","5579","&#9761;","elianto","#3366ff99","-1","-1","1","0","[]","0","0","2","","","","","","","",""
"pit-trial","56","495699","0.0-2.0-11.3-4.3","battery-v0.2","","""event"",""trial"",""time""
""fullscreenenter"",""1"",""2398""
","
","
","""event"",""trial"",""time""
""fullscreenenter"",""1"",""2398""
","
","","","-1","","","22","12450","5579","&#9761;","elianto","#3366ff99","-1","-1","1","+10","[]","0","0","2","","","","","","","",""
"call-function","57","495700","0.0-2.0-12.0","battery-v0.2","","""event"",""trial"",""time""
""fullscreenenter"",""1"",""2398""
","
","
","""event"",""trial"",""time""
""fullscreenenter"",""1"",""2398""
","
","","","","","","","","","","","","","","","","","","","","","","","","","","",""
"pit-instructions","58","533947","0.0-2.0-13.0","battery-v0.2","","""event"",""trial"",""time""
""fullscreenenter"",""1"",""2398""
","
","
","""event"",""trial"",""time""
""fullscreenenter"",""1"",""2398""
","
","","[{""page_index"":0,""viewing_time"":7337.200000047684},{""page_index"":1,""viewing_time"":7673},{""page_index"":2,""viewing_time"":5490.700000047684},{""page_index"":3,""viewing_time"":12917.399999856949},{""page_index"":4,""viewing_time"":4828.799999952316}]","38247.5","","","","","","","","","","","","","","","","","","","","","","","",""
"pit-trial","59","537192","0.0-2.0-14.0-0.0","battery-v0.2","","""event"",""trial"",""time""
""fullscreenenter"",""1"",""2398""
","
","
","""event"",""trial"",""time""
""fullscreenenter"",""1"",""2398""
","
","","","386.90000009536743","","","22","12450","5579","&#9826;","elianto","#f73b6a7A","-1"," ","0","-10","[1237.9000000953674]","1","0","3","","","","","","","",""
"pit-trial","60","542062","0.0-2.0-14.0-1.0","battery-v0.2","","""event"",""trial"",""time""
""fullscreenenter"",""1"",""2398""
","
","
","""event"",""trial"",""time""
""fullscreenenter"",""1"",""2398""
","
","","","-1","","","22","12450","5579","&#9826;","elianto","#f73b6a7A","-1","-1","1","0","[]","0","0","3","","","","","","","",""
"pit-trial","61","546928","0.0-2.0-14.0-2.0","battery-v0.2","","""event"",""trial"",""time""
""fullscreenenter"",""1"",""2398""
","
","
","""event"",""trial"",""time""
""fullscreenenter"",""1"",""2398""
","
","","","-1","","","22","12450","5579","&#9826;","elianto","#f73b6a7A","-1","-1","1","0","[]","0","0","3","","","","","","","",""
"pit-trial","62","551794","0.0-2.0-14.0-3.0","battery-v0.2","","""event"",""trial"",""time""
""fullscreenenter"",""1"",""2398""
","
","
","""event"",""trial"",""time""
""fullscreenenter"",""1"",""2398""
","
","","","-1","","","22","12450","5579","&#9826;","elianto","#f73b6a7A","-1","-1","1","-10","[]","0","0","3","","","","","","","",""
"pit-trial","63","556658","0.0-2.0-14.0-4.0","battery-v0.2","","""event"",""trial"",""time""
""fullscreenenter"",""1"",""2398""
","
","
","""event"",""trial"",""time""
""fullscreenenter"",""1"",""2398""
","
","","","-1","","","22","12450","5579","&#9826;","elianto","#f73b6a7A","-1","-1","1","0","[]","0","0","3","","","","","","","",""
"pit-trial","64","561522","0.0-2.0-14.1-0.1","battery-v0.2","","""event"",""trial"",""time""
""fullscreenenter"",""1"",""2398""
","
","
","""event"",""trial"",""time""
""fullscreenenter"",""1"",""2398""
","
","","","-1","","","22","12450","5579","&#9826;","elianto","#f73b6a7A","-1","-1","1","0","[]","0","0","3","","","","","","","",""
"pit-trial","65","566380","0.0-2.0-14.1-1.1","battery-v0.2","","""event"",""trial"",""time""
""fullscreenenter"",""1"",""2398""
","
","
","""event"",""trial"",""time""
""fullscreenenter"",""1"",""2398""
","
","","","-1","","","22","12450","5579","&#9826;","elianto","#f73b6a7A","-1","-1","1","0","[]","0","0","3","","","","","","","",""
"pit-trial","66","571235","0.0-2.0-14.1-2.1","battery-v0.2","","""event"",""trial"",""time""
""fullscreenenter"",""1"",""2398""
","
","
","""event"",""trial"",""time""
""fullscreenenter"",""1"",""2398""
","
","","","-1","","","22","12450","5579","&#9826;","elianto","#f73b6a7A","-1","-1","1","0","[]","0","0","3","","","","","","","",""
"pit-trial","67","574832","0.0-2.0-14.1-3.1","battery-v0.2","","""event"",""trial"",""time""
""fullscreenenter"",""1"",""2398""
","
","
","""event"",""trial"",""time""
""fullscreenenter"",""1"",""2398""
","
","","","740.8999998569489","","","22","12450","5579","&#9826;","elianto","#f73b6a7A","-1"," ","0","0","[1595.0999999046326]","1","0","3","","","","","","","",""
"pit-trial","68","579690","0.0-2.0-14.1-4.1","battery-v0.2","","""event"",""trial"",""time""
""fullscreenenter"",""1"",""2398""
","
","
","""event"",""trial"",""time""
""fullscreenenter"",""1"",""2398""
","
","","","-1","","","22","12450","5579","&#9826;","elianto","#f73b6a7A","-1","-1","1","0","[]","0","0","3","","","","","","","",""
"pit-trial","69","584548","0.0-2.0-14.2-0.2","battery-v0.2","","""event"",""trial"",""time""
""fullscreenenter"",""1"",""2398""
","
","
","""event"",""trial"",""time""
""fullscreenenter"",""1"",""2398""
","
","","","-1","","","22","12450","5579","&#9826;","elianto","#f73b6a7A","-1","-1","1","0","[]","0","0","3","","","","","","","",""
"pit-trial","70","589404","0.0-2.0-14.2-1.2","battery-v0.2","","""event"",""trial"",""time""
""fullscreenenter"",""1"",""2398""
","
","
","""event"",""trial"",""time""
""fullscreenenter"",""1"",""2398""
","
","","","-1","","","22","12450","5579","&#9826;","elianto","#f73b6a7A","-1","-1","1","0","[]","0","0","3","","","","","","","",""
"pit-trial","71","594258","0.0-2.0-14.2-2.2","battery-v0.2","","""event"",""trial"",""time""
""fullscreenenter"",""1"",""2398""
","
","
","""event"",""trial"",""time""
""fullscreenenter"",""1"",""2398""
","
","","","-1","","","22","12450","5579","&#9826;","elianto","#f73b6a7A","-1","-1","1","0","[]","0","0","3","","","","","","","",""
"pit-trial","72","599121","0.0-2.0-14.2-3.2","battery-v0.2","","""event"",""trial"",""time""
""fullscreenenter"",""1"",""2398""
","
","
","""event"",""trial"",""time""
""fullscreenenter"",""1"",""2398""
","
","","","-1","","","22","12450","5579","&#9826;","elianto","#f73b6a7A","-1","-1","1","-10","[]","0","0","3","","","","","","","",""
"pit-trial","73","603978","0.0-2.0-14.2-4.2","battery-v0.2","","""event"",""trial"",""time""
""fullscreenenter"",""1"",""2398""
","
","
","""event"",""trial"",""time""
""fullscreenenter"",""1"",""2398""
","
","","","-1","","","22","12450","5579","&#9826;","elianto","#f73b6a7A","-1","-1","1","0","[]","0","0","3","","","","","","","",""
"pit-trial","74","608834","0.0-2.0-14.3-0.3","battery-v0.2","","""event"",""trial"",""time""
""fullscreenenter"",""1"",""2398""
","
","
","""event"",""trial"",""time""
""fullscreenenter"",""1"",""2398""
","
","","","-1","","","22","12450","5579","&#9826;","elianto","#f73b6a7A","-1","-1","1","0","[]","0","0","3","","","","","","","",""
"pit-trial","75","613705","0.0-2.0-14.3-1.3","battery-v0.2","","""event"",""trial"",""time""
""fullscreenenter"",""1"",""2398""
","
","
","""event"",""trial"",""time""
""fullscreenenter"",""1"",""2398""
","
","","","-1","","","22","12450","5579","&#9826;","elianto","#f73b6a7A","-1","-1","1","0","[]","0","0","3","","","","","","","",""
"pit-trial","76","618561","0.0-2.0-14.3-2.3","battery-v0.2","","""event"",""trial"",""time""
""fullscreenenter"",""1"",""2398""
","
","
","""event"",""trial"",""time""
""fullscreenenter"",""1"",""2398""
","
","","","-1","","","22","12450","5579","&#9826;","elianto","#f73b6a7A","-1","-1","1","0","[]","0","0","3","","","","","","","",""
"pit-trial","77","623415","0.0-2.0-14.3-3.3","battery-v0.2","","""event"",""trial"",""time""
""fullscreenenter"",""1"",""2398""
","
","
","""event"",""trial"",""time""
""fullscreenenter"",""1"",""2398""
","
","","","-1","","","22","12450","5579","&#9826;","elianto","#f73b6a7A","-1","-1","1","-10","[]","0","0","3","","","","","","","",""
"pit-trial","78","628271","0.0-2.0-14.3-4.3","battery-v0.2","","""event"",""trial"",""time""
""fullscreenenter"",""1"",""2398""
","
","
","""event"",""trial"",""time""
""fullscreenenter"",""1"",""2398""
","
","","","-1","","","22","12450","5579","&#9826;","elianto","#f73b6a7A","-1","-1","1","0","[]","0","0","3","","","","","","","",""
"call-function","79","628272","0.0-2.0-15.0","battery-v0.2","","""event"",""trial"",""time""
""fullscreenenter"",""1"",""2398""
","
","
","""event"",""trial"",""time""
""fullscreenenter"",""1"",""2398""
","
","","","","","","","","","","","","","","","","","","","","","","","","","","",""
"pit-instructions","80","658261","0.0-2.0-16.0","battery-v0.2","","""event"",""trial"",""time""
""fullscreenenter"",""1"",""2398""
","
","
","""event"",""trial"",""time""
""fullscreenenter"",""1"",""2398""
","
","","[{""page_index"":0,""viewing_time"":6873.400000095367},{""page_index"":1,""viewing_time"":9170.599999904633},{""page_index"":2,""viewing_time"":6760.599999904633},{""page_index"":3,""viewing_time"":7182.300000190735}]","29987.200000047684","","","","","","","","","","","","","","","","","","","","","","","",""
"pit-trial","81","661563","0.0-2.0-17.0-0.0","battery-v0.2","","""event"",""trial"",""time""
""fullscreenenter"",""1"",""2398""
","
","
","""event"",""trial"",""time""
""fullscreenenter"",""1"",""2398""
","
","","","447.59999990463257","","","22","12450","5579","&#9789;","elianto","#f73b6a7A"," "," ","1","0","[1299.0999999046326]","1","0","4","","","","","","","",""
"pit-trial","82","664888","0.0-2.0-17.0-1.0","battery-v0.2","","""event"",""trial"",""time""
""fullscreenenter"",""1"",""2398""
","
","
","""event"",""trial"",""time""
""fullscreenenter"",""1"",""2398""
","
","","","460.30000019073486","","","22","12450","5579","&#9789;","elianto","#f73b6a7A"," "," ","1","0","[1311.5]","1","0","4","","","","","","","",""
"pit-trial","83","668181","0.0-2.0-17.0-2.0","battery-v0.2","","""event"",""trial"",""time""
""fullscreenenter"",""1"",""2398""
","
","
","""event"",""trial"",""time""
""fullscreenenter"",""1"",""2398""
","
","","","436.30000019073486","","","22","12450","5579","&#9789;","elianto","#f73b6a7A"," "," ","1","0","[1288.7000000476837]","1","0","4","","","","","","","",""
"pit-trial","84","671568","0.0-2.0-17.0-3.0","battery-v0.2","","""event"",""trial"",""time""
""fullscreenenter"",""1"",""2398""
","
","
","""event"",""trial"",""time""
""fullscreenenter"",""1"",""2398""
","
","","","521.4000000953674","","","22","12450","5579","&#9789;","elianto","#f73b6a7A"," "," ","1","-10","[1372.6000001430511]","1","0","4","","","","","","","",""
"pit-trial","85","674583","0.0-2.0-17.0-4.0","battery-v0.2","","""event"",""trial"",""time""
""fullscreenenter"",""1"",""2398""
","
","
","""event"",""trial"",""time""
""fullscreenenter"",""1"",""2398""
","
","","","146.29999995231628","","","22","12450","5579","&#9789;","elianto","#f73b6a7A"," "," ","1","0","[1004.5999999046326,1546.2999999523163]","2","0","4","","","","","","","",""
"pit-trial","86","677843","0.0-2.0-17.1-0.1","battery-v0.2","","""event"",""trial"",""time""
""fullscreenenter"",""1"",""2398""
","
","
","""event"",""trial"",""time""
""fullscreenenter"",""1"",""2398""
","
","","","405.09999990463257","","","22","12450","5579","&#9789;","elianto","#f73b6a7A"," "," ","1","0","[1256.5]","1","0","4","","","","","","","",""
"pit-trial","87","680975","0.0-2.0-17.1-1.1","battery-v0.2","","""event"",""trial"",""time""
""fullscreenenter"",""1"",""2398""
","
","
","""event"",""trial"",""time""
""fullscreenenter"",""1"",""2398""
","
","","","270.69999980926514","","","22","12450","5579","&#9789;","elianto","#f73b6a7A"," "," ","1","0","[1122.8999998569489]","1","0","4","","","","","","","",""
"pit-trial","88","684222","0.0-2.0-17.1-2.1","battery-v0.2","","""event"",""trial"",""time""
""fullscreenenter"",""1"",""2398""
","
","
","""event"",""trial"",""time""
""fullscreenenter"",""1"",""2398""
","
","","","384.40000009536743","","","22","12450","5579","&#9789;","elianto","#f73b6a7A"," "," ","1","0","[1238.7999999523163]","1","0","4","","","","","","","",""
"pit-trial","89","687388","0.0-2.0-17.1-3.1","battery-v0.2","","""event"",""trial"",""time""
""fullscreenenter"",""1"",""2398""
","
","
","""event"",""trial"",""time""
""fullscreenenter"",""1"",""2398""
","
","","","308.59999990463257","","","22","12450","5579","&#9789;","elianto","#f73b6a7A"," "," ","1","-10","[1162.2999999523163]","1","0","4","","","","","","","",""
"pit-trial","90","690653","0.0-2.0-17.1-4.1","battery-v0.2","","""event"",""trial"",""time""
""fullscreenenter"",""1"",""2398""
","
","
","""event"",""trial"",""time""
""fullscreenenter"",""1"",""2398""
","
","","","407.40000009536743","","","22","12450","5579","&#9789;","elianto","#f73b6a7A"," "," ","1","0","[1260.3000001907349]","1","0","4","","","","","","","",""
"pit-trial","91","693992","0.0-2.0-17.2-0.2","battery-v0.2","","""event"",""trial"",""time""
""fullscreenenter"",""1"",""2398""
","
","
","""event"",""trial"",""time""
""fullscreenenter"",""1"",""2398""
","
","","","482.5","","","22","12450","5579","&#9789;","elianto","#f73b6a7A"," "," ","1","0","[1335.5999999046326]","1","0","4","","","","","","","",""
"pit-trial","92","697128","0.0-2.0-17.2-1.2","battery-v0.2","","""event"",""trial"",""time""
""fullscreenenter"",""1"",""2398""
","
","
","""event"",""trial"",""time""
""fullscreenenter"",""1"",""2398""
","
","","","268.5","","","22","12450","5579","&#9789;","elianto","#f73b6a7A"," "," ","1","0","[1118.6999998092651]","1","0","4","","","","","","","",""
"pit-trial","93","701988","0.0-2.0-17.2-2.2","battery-v0.2","","""event"",""trial"",""time""
""fullscreenenter"",""1"",""2398""
","
","
","""event"",""trial"",""time""
""fullscreenenter"",""1"",""2398""
","
","","","-1","","","22","12450","5579","&#9789;","elianto","#f73b6a7A"," ","-1","0","-10","[]","0","0","4","","","","","","","",""
"pit-trial","94","705066","0.0-2.0-17.2-3.2","battery-v0.2","","""event"",""trial"",""time""
""fullscreenenter"",""1"",""2398""
","
","
","""event"",""trial"",""time""
""fullscreenenter"",""1"",""2398""
","
","","","226.20000004768372","","","22","12450","5579","&#9789;","elianto","#f73b6a7A"," "," ","1","-10","[1076.4000000953674]","1","0","4","","","","","","","",""
"pit-trial","95","708296","0.0-2.0-17.2-4.2","battery-v0.2","","""event"",""trial"",""time""
""fullscreenenter"",""1"",""2398""
","
","
","""event"",""trial"",""time""
""fullscreenenter"",""1"",""2398""
","
","","","371.2999999523163","","","22","12450","5579","&#9789;","elianto","#f73b6a7A"," "," ","1","0","[1223.7999999523163]","1","0","4","","","","","","","",""
"pit-trial","96","711587","0.0-2.0-17.3-0.3","battery-v0.2","","""event"",""trial"",""time""
""fullscreenenter"",""1"",""2398""
","
","
","""event"",""trial"",""time""
""fullscreenenter"",""1"",""2398""
","
","","","429.7000000476837","","","22","12450","5579","&#9789;","elianto","#f73b6a7A"," "," ","1","0","[1281.8000001907349]","1","0","4","","","","","","","",""
"pit-trial","97","714628","0.0-2.0-17.3-1.3","battery-v0.2","","""event"",""trial"",""time""
""fullscreenenter"",""1"",""2398""
","
","
","""event"",""trial"",""time""
""fullscreenenter"",""1"",""2398""
","
","","","185.5","","","22","12450","5579","&#9789;","elianto","#f73b6a7A"," "," ","1","0","[1039.0999999046326]","1","0","4","","","","","","","",""
"pit-trial","98","717728","0.0-2.0-17.3-2.3","battery-v0.2","","""event"",""trial"",""time""
""fullscreenenter"",""1"",""2398""
","
","
","""event"",""trial"",""time""
""fullscreenenter"",""1"",""2398""
","
","","","245.10000014305115","","","22","12450","5579","&#9789;","elianto","#f73b6a7A"," "," ","1","0","[1096.3999998569489]","1","0","4","","","","","","","",""
"pit-trial","99","720880","0.0-2.0-17.3-3.3","battery-v0.2","","""event"",""trial"",""time""
""fullscreenenter"",""1"",""2398""
","
","
","""event"",""trial"",""time""
""fullscreenenter"",""1"",""2398""
","
","","","295.59999990463257","","","22","12450","5579","&#9789;","elianto","#f73b6a7A"," "," ","1","-10","[1149.0999999046326]","1","0","4","","","","","","","",""
"pit-trial","100","724044","0.0-2.0-17.3-4.3","battery-v0.2","","""event"",""trial"",""time""
""fullscreenenter"",""1"",""2398""
","
","
","""event"",""trial"",""time""
""fullscreenenter"",""1"",""2398""
","
","","","310.2000000476837","","","22","12450","5579","&#9789;","elianto","#f73b6a7A"," "," ","1","0","[1161.1000001430511]","1","0","4","","","","","","","",""
"call-function","101","724044","0.0-2.0-18.0","battery-v0.2","","""event"",""trial"",""time""
""fullscreenenter"",""1"",""2398""
","
","
","""event"",""trial"",""time""
""fullscreenenter"",""1"",""2398""
","
","","","","","","","","","","","","","","","","","","","","","","","","","","",""
"pit-instructions","102","805340","0.0-2.0-19.0","battery-v0.2","","""event"",""trial"",""time""
""fullscreenenter"",""1"",""2398""
","
","
","""event"",""trial"",""time""
""fullscreenenter"",""1"",""2398""
","
","","[{""page_index"":0,""viewing_time"":7635.299999952316},{""page_index"":1,""viewing_time"":7238.099999904633},{""page_index"":2,""viewing_time"":15994.900000095367},{""page_index"":3,""viewing_time"":10639.700000047684},{""page_index"":4,""viewing_time"":9363.799999952316},{""page_index"":5,""viewing_time"":8247.5},{""page_index"":6,""viewing_time"":9883.5},{""page_index"":7,""viewing_time"":7595.700000047684},{""page_index"":8,""viewing_time"":4698.899999856949}]","81297.70000004768","","","","","","","","","","","","","","","","","","","","","","","",""
"pit-comprehension","103","810427","0.0-2.0-20.0-0.0","battery-v0.2","","""event"",""trial"",""time""
""fullscreenenter"",""1"",""2398""
","
","
","""event"",""trial"",""time""
""fullscreenenter"",""1"",""2398""
","
","","","5084.099999904633","[""SPACE""]","0","22","12450","5579","","","","","","","","","","","","","","","","","","",""
"pit-instructions","104","813904","0.0-2.0-20.0-1.0","battery-v0.2","","""event"",""trial"",""time""
""fullscreenenter"",""1"",""2398""
","
","
","""event"",""trial"",""time""
""fullscreenenter"",""1"",""2398""
","
","","[{""page_index"":0,""viewing_time"":3451.4000000953674}]","3451.7000000476837","","","","","","","","","","","","","","","","","","","","","","","",""
"pit-comprehension","105","822100","0.0-2.0-21.0-0.0","battery-v0.2","","""event"",""trial"",""time""
""fullscreenenter"",""1"",""2398""
","
","
","""event"",""trial"",""time""
""fullscreenenter"",""1"",""2398""
","
","","","8193.600000143051","[""10""]","0","22","12450","5579","","","","","","","","","","","","","","","","","","",""
"pit-instructions","106","828257","0.0-2.0-21.0-1.0","battery-v0.2","","""event"",""trial"",""time""
""fullscreenenter"",""1"",""2398""
","
","
","""event"",""trial"",""time""
""fullscreenenter"",""1"",""2398""
","
","","[{""page_index"":0,""viewing_time"":6125.700000047684}]","6125.900000095367","","","","","","","","","","","","","","","","","","","","","","","",""
"pit-comprehension","107","835514","0.0-2.0-22.0-0.0","battery-v0.2","","""event"",""trial"",""time""
""fullscreenenter"",""1"",""2398""
","
","
","""event"",""trial"",""time""
""fullscreenenter"",""1"",""2398""
","
","","","7254.599999904633","[""0""]","0","22","12450","5579","","","","","","","","","","","","","","","","","","",""
"pit-instructions","108","838881","0.0-2.0-22.0-1.0","battery-v0.2","","""event"",""trial"",""time""
""fullscreenenter"",""1"",""2398""
","
","
","""event"",""trial"",""time""
""fullscreenenter"",""1"",""2398""
","
","","[{""page_index"":0,""viewing_time"":3342.0999999046326}]","3342.399999856949","","","","","","","","","","","","","","","","","","","","","","","",""
"pit-comprehension","109","848681","0.0-2.0-23.0-0.0","battery-v0.2","","""event"",""trial"",""time""
""fullscreenenter"",""1"",""2398""
","
","
","""event"",""trial"",""time""
""fullscreenenter"",""1"",""2398""
","
","","","9797.200000047684","[""True""]","0","22","12450","5579","","","","","","","","","","","","","","","","","","",""
"pit-instructions","110","852605","0.0-2.0-23.0-1.0","battery-v0.2","","""event"",""trial"",""time""
""fullscreenenter"",""1"",""2398""
","
","
","""event"",""trial"",""time""
""fullscreenenter"",""1"",""2398""
","
","","[{""page_index"":0,""viewing_time"":3897.7999999523163}]","3898.0999999046326","","","","","","","","","","","","","","","","","","","","","","","",""
"pit-comprehension","111","860664","0.0-2.0-24.0-0.0","battery-v0.2","","""event"",""trial"",""time""
""fullscreenenter"",""1"",""2398""
","
","
","""event"",""trial"",""time""
""fullscreenenter"",""1"",""2398""
","
","","","8055.700000047684","[""True""]","0","22","12450","5579","","","","","","","","","","","","","","","","","","",""
"pit-instructions","112","864358","0.0-2.0-24.0-1.0","battery-v0.2","","""event"",""trial"",""time""
""fullscreenenter"",""1"",""2398""
","
","
","""event"",""trial"",""time""
""fullscreenenter"",""1"",""2398""
","
","","[{""page_index"":0,""viewing_time"":3670.5}]","3670.7999999523163","","","","","","","","","","","","","","","","","","","","","","","",""
"pit-comprehension","113","871141","0.0-2.0-25.0-0.0","battery-v0.2","","""event"",""trial"",""time""
""fullscreenenter"",""1"",""2398""
","
","
","""event"",""trial"",""time""
""fullscreenenter"",""1"",""2398""
","
","","","6780.900000095367","[""True""]","0","22","12450","5579","","","","","","","","","","","","","","","","","","",""
"pit-instructions","114","873317","0.0-2.0-25.0-1.0","battery-v0.2","","""event"",""trial"",""time""
""fullscreenenter"",""1"",""2398""
","
","
","""event"",""trial"",""time""
""fullscreenenter"",""1"",""2398""
","
","","[{""page_index"":0,""viewing_time"":2147.4000000953674}]","2147.7000000476837","","","","","","","","","","","","","","","","","","","","","","","",""
"pit-comprehension","115","878373","0.0-2.0-26.0-0.0","battery-v0.2","","""event"",""trial"",""time""
""fullscreenenter"",""1"",""2398""
","
","
","""event"",""trial"",""time""
""fullscreenenter"",""1"",""2398""
","
","","","5053.200000047684","[""False""]","0","22","12450","5579","","","","","","","","","","","","","","","","","","",""
"pit-instructions","116","880506","0.0-2.0-26.0-1.0","battery-v0.2","","""event"",""trial"",""time""
""fullscreenenter"",""1"",""2398""
","
","
","""event"",""trial"",""time""
""fullscreenenter"",""1"",""2398""
","
","","[{""page_index"":0,""viewing_time"":2108.399999856949}]","2108.699999809265","","","","","","","","","","","","","","","","","","","","","","","",""
"pit-instructions","117","896857","0.0-3.0","battery-v0.2","","""event"",""trial"",""time""
""fullscreenenter"",""1"",""2398""
","
","
","""event"",""trial"",""time""
""fullscreenenter"",""1"",""2398""
","
","","[{""page_index"":0,""viewing_time"":4057.5},{""page_index"":1,""viewing_time"":6257.600000143051},{""page_index"":2,""viewing_time"":6034.199999809265}]","16349.700000047684","","","","","","","","","","","","","","","","","","","","","","","",""
"pit-trial","118","900732","0.0-4.0","battery-v0.2","","""event"",""trial"",""time""
""fullscreenenter"",""1"",""2398""
","
","
","""event"",""trial"",""time""
""fullscreenenter"",""1"",""2398""
","
","","","1001.7999999523163","","","22","12450","5579","&#9728;","elianto","#f73b6a7A","-1"," ","0","-10","[1856.5]","1","1","","","12450","1","0","4","lose","no-go","0"
"pit-trial","119","904260","0.0-5.0","battery-v0.2","","""event"",""trial"",""time""
""fullscreenenter"",""1"",""2398""
","
","
","""event"",""trial"",""time""
""fullscreenenter"",""1"",""2398""
","
","","","665.2000000476837","","","22","12450","5579","&#9730;","elianto","#3366ff99"," "," ","1","+10","[1524.5]","1","1","","","12450","2","1","1","win","go","0"
"pit-trial","120","908254","0.0-6.0","battery-v0.2","","""event"",""trial"",""time""
""fullscreenenter"",""1"",""2398""
","
","
","""event"",""trial"",""time""
""fullscreenenter"",""1"",""2398""
","
","","","1139.3999998569489","","","22","12450","5579","&#9752;","elianto","#f73b6a7A"," "," ","1","0","[1989.7999999523163]","1","1","","","12450","3","3","3","lose","go","0"
"pit-trial","121","912078","0.0-7.0","battery-v0.2","","""event"",""trial"",""time""
""fullscreenenter"",""1"",""2398""
","
","
","""event"",""trial"",""time""
""fullscreenenter"",""1"",""2398""
","
","","","962.5999999046326","","","22","12450","5579","&#9733;","elianto","#3366ff99","-1"," ","0","0","[1819.5999999046326]","1","1","","","12450","4","2","2","win","no-go","0"
"pit-trial","122","916946","0.0-8.0","battery-v0.2","","""event"",""trial"",""time""
""fullscreenenter"",""1"",""2398""
","
","
","""event"",""trial"",""time""
""fullscreenenter"",""1"",""2398""
","
","","","-1","","","22","12450","5579","&#9733;","elianto","#3366ff99","-1","-1","1","+10","[]","0","1","","","12450","5","2","2","win","no-go","0"
"pit-trial","123","920804","0.0-9.0","battery-v0.2","","""event"",""trial"",""time""
""fullscreenenter"",""1"",""2398""
","
","
","""event"",""trial"",""time""
""fullscreenenter"",""1"",""2398""
","
","","","996.7000000476837","","","22","12450","5579","&#9728;","elianto","#f73b6a7A","-1"," ","0","-10","[1847.4000000953674]","1","1","","","12450","6","0","4","lose","no-go","0"
"pit-trial","124","924381","0.0-10.0","battery-v0.2","","""event"",""trial"",""time""
""fullscreenenter"",""1"",""2398""
","
","
","""event"",""trial"",""time""
""fullscreenenter"",""1"",""2398""
","
","","","711.0999999046326","","","22","12450","5579","&#9730;","elianto","#3366ff99"," "," ","1","+10","[1565.2999999523163]","1","1","","","12450","7","1","1","win","go","0"
"pit-trial","125","928145","0.0-11.0","battery-v0.2","","""event"",""trial"",""time""
""fullscreenenter"",""1"",""2398""
","
","
","""event"",""trial"",""time""
""fullscreenenter"",""1"",""2398""
","
","","","898.0999999046326","","","22","12450","5579","&#9752;","elianto","#f73b6a7A"," "," ","1","0","[1748.2999999523163]","1","1","","","12450","8","3","3","lose","go","0"
"pit-trial","126","933003","0.0-12.0","battery-v0.2","","""event"",""trial"",""time""
""fullscreenenter"",""1"",""2398""
","
","
","""event"",""trial"",""time""
""fullscreenenter"",""1"",""2398""
","
","","","-1","","","22","12450","5579","&#9733;","elianto","#3366ff99","-1","-1","1","+10","[]","0","1","","","12450","9","2","2","win","no-go","0"
"pit-trial","127","937026","0.0-13.0","battery-v0.2","","""event"",""trial"",""time""
""fullscreenenter"",""1"",""2398""
","
","
","""event"",""trial"",""time""
""fullscreenenter"",""1"",""2398""
","
","","","1163.7000000476837","","","22","12450","5579","&#9752;","elianto","#f73b6a7A"," "," ","1","-10","[2017.7000000476837]","1","1","","","12450","10","3","3","lose","go","1"
"pit-trial","128","941885","0.0-14.0","battery-v0.2","","""event"",""trial"",""time""
""fullscreenenter"",""1"",""2398""
","
","
","""event"",""trial"",""time""
""fullscreenenter"",""1"",""2398""
","
","","","-1","","","22","12450","5579","&#9728;","elianto","#f73b6a7A","-1","-1","1","0","[]","0","1","","","12450","11","0","4","lose","no-go","0"
"pit-trial","129","945410","0.0-15.0","battery-v0.2","","""event"",""trial"",""time""
""fullscreenenter"",""1"",""2398""
","
","
","""event"",""trial"",""time""
""fullscreenenter"",""1"",""2398""
","
","","","664.2999999523163","","","22","12450","5579","&#9730;","elianto","#3366ff99"," "," ","1","+10","[1514.4000000953674]","1","1","","","12450","12","1","1","win","go","0"
"pit-trial","130","949312","0.0-16.0","battery-v0.2","","""event"",""trial"",""time""
""fullscreenenter"",""1"",""2398""
","
","
","""event"",""trial"",""time""
""fullscreenenter"",""1"",""2398""
","
","","","1046.7000000476837","","","22","12450","5579","&#9752;","elianto","#f73b6a7A"," "," ","1","0","[1897.7000000476837]","1","1","","","12450","13","3","3","lose","go","0"
"pit-trial","131","954182","0.0-17.0","battery-v0.2","","""event"",""trial"",""time""
""fullscreenenter"",""1"",""2398""
","
","
","""event"",""trial"",""time""
""fullscreenenter"",""1"",""2398""
","
","","","-1","","","22","12450","5579","&#9733;","elianto","#3366ff99","-1","-1","1","0","[]","0","1","","","12450","14","2","2","win","no-go","1"
"pit-trial","132","957813","0.0-18.0","battery-v0.2","","""event"",""trial"",""time""
""fullscreenenter"",""1"",""2398""
","
","
","""event"",""trial"",""time""
""fullscreenenter"",""1"",""2398""
","
","","","774.4000000953674","","","22","12450","5579","&#9730;","elianto","#3366ff99"," "," ","1","+10","[1624.7999999523163]","1","1","","","12450","15","1","1","win","go","0"
"pit-trial","133","962677","0.0-19.0","battery-v0.2","","""event"",""trial"",""time""
""fullscreenenter"",""1"",""2398""
","
","
","""event"",""trial"",""time""
""fullscreenenter"",""1"",""2398""
","
","","","-1","","","22","12450","5579","&#9728;","elianto","#f73b6a7A","-1","-1","1","0","[]","0","1","","","12450","16","0","4","lose","no-go","0"
"pit-trial","134","967537","0.0-20.0","battery-v0.2","","""event"",""trial"",""time""
""fullscreenenter"",""1"",""2398""
","
","
","""event"",""trial"",""time""
""fullscreenenter"",""1"",""2398""
","
","","","-1","","","22","12450","5579","&#9733;","elianto","#3366ff99","-1","-1","1","0","[]","0","1","","","12450","17","2","2","win","no-go","1"
"pit-trial","135","971485","0.0-21.0","battery-v0.2","","""event"",""trial"",""time""
""fullscreenenter"",""1"",""2398""
","
","
","""event"",""trial"",""time""
""fullscreenenter"",""1"",""2398""
","
","","","1081","","","22","12450","5579","&#9752;","elianto","#f73b6a7A"," "," ","1","0","[1933]","1","1","","","12450","18","3","3","lose","go","0"
"pit-trial","136","974944","0.0-22.0","battery-v0.2","","""event"",""trial"",""time""
""fullscreenenter"",""1"",""2398""
","
","
","""event"",""trial"",""time""
""fullscreenenter"",""1"",""2398""
","
","","","605.1000001430511","","","22","12450","5579","&#9730;","elianto","#3366ff99"," "," ","1","0","[1456.8000001907349]","1","1","","","12450","19","1","1","win","go","1"
"pit-trial","137","979802","0.0-23.0","battery-v0.2","","""event"",""trial"",""time""
""fullscreenenter"",""1"",""2398""
","
","
","""event"",""trial"",""time""
""fullscreenenter"",""1"",""2398""
","
","","","-1","","","22","12450","5579","&#9728;","elianto","#f73b6a7A","-1","-1","1","0","[]","0","1","","","12450","20","0","4","lose","no-go","0"
"pit-instructions","138","992383","0.0-24.0","battery-v0.2","","""event"",""trial"",""time""
""fullscreenenter"",""1"",""2398""
","
","
","""event"",""trial"",""time""
""fullscreenenter"",""1"",""2398""
","
","","[{""page_index"":0,""viewing_time"":6397.599999904633},{""page_index"":1,""viewing_time"":6181.700000047684}]","12579.700000047684","","","","","","","","","","","","","","","","","","","","","","","",""
"pit-trial","139","996377","0.0-25.0","battery-v0.2","","""event"",""trial"",""time""
""fullscreenenter"",""1"",""2398""
","
","
","""event"",""trial"",""time""
""fullscreenenter"",""1"",""2398""
","
","","","1127.2000000476837","","","22","12450","5579","l","elianto","#3366ff99","-1"," ","0","0","[1988.7999999523163]","1","2","","","12450","21","1","2","win","no-go","0"
"pit-trial","140","1000273","0.0-26.0","battery-v0.2","","""event"",""trial"",""time""
""fullscreenenter"",""1"",""2398""
","
","
","""event"",""trial"",""time""
""fullscreenenter"",""1"",""2398""
","
","","","1037","","","22","12450","5579","u","elianto","#f73b6a7A"," "," ","1","0","[1887.5999999046326]","1","2","","","12450","22","0","3","lose","go","0"
"pit-trial","141","1004442","0.0-27.0","battery-v0.2","","""event"",""trial"",""time""
""fullscreenenter"",""1"",""2398""
","
","
","""event"",""trial"",""time""
""fullscreenenter"",""1"",""2398""
","
","","","1311.5","","","22","12450","5579","g","elianto","#f73b6a7A","-1"," ","0","-10","[2164.2000000476837]","1","2","","","12450","23","3","4","lose","no-go","0"
"pit-trial","142","1008444","0.0-28.0","battery-v0.2","","""event"",""trial"",""time""
""fullscreenenter"",""1"",""2398""
","
","
","""event"",""trial"",""time""
""fullscreenenter"",""1"",""2398""
","
","","","1148.5","","","22","12450","5579","a","elianto","#f73b6a7A"," "," ","1","0","[1999.9000000953674]","1","2","","","12450","24","2","3","lose","go","0"
"pit-trial","143","1013310","0.0-29.0","battery-v0.2","","""event"",""trial"",""time""
""fullscreenenter"",""1"",""2398""
","
","
","""event"",""trial"",""time""
""fullscreenenter"",""1"",""2398""
","
","","","-1","","","22","12450","5579","g","elianto","#f73b6a7A","-1","-1","1","0","[]","0","2","","","12450","25","3","4","lose","no-go","0"
"pit-trial","144","1017362","0.0-30.0","battery-v0.2","","""event"",""trial"",""time""
""fullscreenenter"",""1"",""2398""
","
","
","""event"",""trial"",""time""
""fullscreenenter"",""1"",""2398""
","
","","","1185.4000000953674","","","22","12450","5579","a","elianto","#f73b6a7A"," "," ","1","0","[2045.9000000953674]","1","2","","","12450","26","2","3","lose","go","0"
"pit-trial","145","1022223","0.0-31.0","battery-v0.2","","""event"",""trial"",""time""
""fullscreenenter"",""1"",""2398""
","
","
","""event"",""trial"",""time""
""fullscreenenter"",""1"",""2398""
","
","","","-1","","","22","12450","5579","l","elianto","#3366ff99","-1","-1","1","+10","[]","0","2","","","12450","27","1","2","win","no-go","0"
"pit-trial","146","1026060","0.0-32.0","battery-v0.2","","""event"",""trial"",""time""
""fullscreenenter"",""1"",""2398""
","
","
","""event"",""trial"",""time""
""fullscreenenter"",""1"",""2398""
","
","","","981.2999999523163","","","22","12450","5579","u","elianto","#f73b6a7A"," "," ","1","0","[1834.5999999046326]","1","2","","","12450","28","0","3","lose","go","0"
"pit-trial","147","1029912","0.0-33.0","battery-v0.2","","""event"",""trial"",""time""
""fullscreenenter"",""1"",""2398""
","
","
","""event"",""trial"",""time""
""fullscreenenter"",""1"",""2398""
","
","","","995.9000000953674","","","22","12450","5579","u","elianto","#f73b6a7A"," "," ","1","0","[1847.3000001907349]","1","2","","","12450","29","0","3","lose","go","0"
"pit-trial","148","1034768","0.0-34.0","battery-v0.2","","""event"",""trial"",""time""
""fullscreenenter"",""1"",""2398""
","
","
","""event"",""trial"",""time""
""fullscreenenter"",""1"",""2398""
","
","","","-1","","","22","12450","5579","l","elianto","#3366ff99","-1","-1","1","+10","[]","0","2","","","12450","30","1","2","win","no-go","0"
"pit-trial","149","1038172","0.0-35.0","battery-v0.2","","""event"",""trial"",""time""
""fullscreenenter"",""1"",""2398""
","
","
","""event"",""trial"",""time""
""fullscreenenter"",""1"",""2398""
","
","","","548.5","","","22","12450","5579","a","elianto","#f73b6a7A"," "," ","1","-10","[1402.0999999046326]","1","2","","","12450","31","2","3","lose","go","1"
"pit-trial","150","1043027","0.0-36.0","battery-v0.2","","""event"",""trial"",""time""
""fullscreenenter"",""1"",""2398""
","
","
","""event"",""trial"",""time""
""fullscreenenter"",""1"",""2398""
","
","","","-1","","","22","12450","5579","g","elianto","#f73b6a7A","-1","-1","1","0","[]","0","2","","","12450","32","3","4","lose","no-go","0"
"pit-trial","151","1047887","0.0-37.0","battery-v0.2","","""event"",""trial"",""time""
""fullscreenenter"",""1"",""2398""
","
","
","""event"",""trial"",""time""
""fullscreenenter"",""1"",""2398""
","
","","","-1","","","22","12450","5579","g","elianto","#f73b6a7A","-1","-1","1","0","[]","0","2","","","12450","33","3","4","lose","no-go","0"
"pit-trial","152","1052745","0.0-38.0","battery-v0.2","","""event"",""trial"",""time""
""fullscreenenter"",""1"",""2398""
","
","
","""event"",""trial"",""time""
""fullscreenenter"",""1"",""2398""
","
","","","-1","","","22","12450","5579","l","elianto","#3366ff99","-1","-1","1","+10","[]","0","2","","","12450","34","1","2","win","no-go","0"
"pit-trial","153","1056565","0.0-39.0","battery-v0.2","","""event"",""trial"",""time""
""fullscreenenter"",""1"",""2398""
","
","
","""event"",""trial"",""time""
""fullscreenenter"",""1"",""2398""
","
","","","966.4000000953674","","","22","12450","5579","a","elianto","#f73b6a7A"," "," ","1","0","[1817.2000000476837]","1","2","","","12450","35","2","3","lose","go","0"
"pit-trial","154","1060671","0.0-40.0","battery-v0.2","","""event"",""trial"",""time""
""fullscreenenter"",""1"",""2398""
","
","
","""event"",""trial"",""time""
""fullscreenenter"",""1"",""2398""
","
","","","1250.5","","","22","12450","5579","u","elianto","#f73b6a7A"," "," ","1","0","[2104.199999809265]","1","2","","","12450","36","0","3","lose","go","0"
"pit-trial","155","1065540","0.0-41.0","battery-v0.2","","""event"",""trial"",""time""
""fullscreenenter"",""1"",""2398""
","
","
","""event"",""trial"",""time""
""fullscreenenter"",""1"",""2398""
","
","","","-1","","","22","12450","5579","l","elianto","#3366ff99","-1","-1","1","+10","[]","0","2","","","12450","37","1","2","win","no-go","0"
"pit-trial","156","1069365","0.0-42.0","battery-v0.2","","""event"",""trial"",""time""
""fullscreenenter"",""1"",""2398""
","
","
","""event"",""trial"",""time""
""fullscreenenter"",""1"",""2398""
","
","","","970.1999998092651","","","22","12450","5579","u","elianto","#f73b6a7A"," "," ","1","0","[1823.5]","1","2","","","12450","38","0","3","lose","go","0"
"pit-trial","157","1072997","0.0-43.0","battery-v0.2","","""event"",""trial"",""time""
""fullscreenenter"",""1"",""2398""
","
","
","""event"",""trial"",""time""
""fullscreenenter"",""1"",""2398""
","
","","","773.7000000476837","","","22","12450","5579","a","elianto","#f73b6a7A"," "," ","1","0","[1626.9000000953674]","1","2","","","12450","39","2","3","lose","go","0"
"pit-trial","158","1077854","0.0-44.0","battery-v0.2","","""event"",""trial"",""time""
""fullscreenenter"",""1"",""2398""
","
","
","""event"",""trial"",""time""
""fullscreenenter"",""1"",""2398""
","
","","","-1","","","22","12450","5579","g","elianto","#f73b6a7A","-1","-1","1","0","[]","0","2","","","12450","40","3","4","lose","no-go","0"
"pit-trial","159","1082711","0.0-45.0","battery-v0.2","","""event"",""trial"",""time""
""fullscreenenter"",""1"",""2398""
","
","
","""event"",""trial"",""time""
""fullscreenenter"",""1"",""2398""
","
","","","-1","","","22","12450","5579","g","elianto","#f73b6a7A","-1","-1","1","0","[]","0","2","","","12450","41","3","4","lose","no-go","0"
"pit-trial","160","1087572","0.0-46.0","battery-v0.2","","""event"",""trial"",""time""
""fullscreenenter"",""1"",""2398""
","
","
","""event"",""trial"",""time""
""fullscreenenter"",""1"",""2398""
","
","","","-1","","","22","12450","5579","l","elianto","#3366ff99","-1","-1","1","0","[]","0","2","","","12450","42","1","2","win","no-go","1"
"pit-trial","161","1091184","0.0-47.0","battery-v0.2","","""event"",""trial"",""time""
""fullscreenenter"",""1"",""2398""
","
","
","""event"",""trial"",""time""
""fullscreenenter"",""1"",""2398""
","
","","","756.3999998569489","","","22","12450","5579","a","elianto","#f73b6a7A"," "," ","1","0","[1608.9000000953674]","1","2","","","12450","43","2","3","lose","go","0"
"pit-trial","162","1094786","0.0-48.0","battery-v0.2","","""event"",""trial"",""time""
""fullscreenenter"",""1"",""2398""
","
","
","""event"",""trial"",""time""
""fullscreenenter"",""1"",""2398""
","
","","","741","","","22","12450","5579","u","elianto","#f73b6a7A"," "," ","1","0","[1593.9000000953674]","1","2","","","12450","44","0","3","lose","go","0"
"pit-trial","163","1099644","0.0-49.0","battery-v0.2","","""event"",""trial"",""time""
""fullscreenenter"",""1"",""2398""
","
","
","""event"",""trial"",""time""
""fullscreenenter"",""1"",""2398""
","
","","","-1","","","22","12450","5579","l","elianto","#3366ff99","-1","-1","1","+10","[]","0","2","","","12450","45","1","2","win","no-go","0"
"pit-trial","164","1103296","0.0-50.0","battery-v0.2","","""event"",""trial"",""time""
""fullscreenenter"",""1"",""2398""
","
","
","""event"",""trial"",""time""
""fullscreenenter"",""1"",""2398""
","
","","","796.2000000476837","","","22","12450","5579","a","elianto","#f73b6a7A"," "," ","1","0","[1646.9000000953674]","1","2","","","12450","46","2","3","lose","go","0"
"pit-trial","165","1107195","0.0-51.0","battery-v0.2","","""event"",""trial"",""time""
""fullscreenenter"",""1"",""2398""
","
","
","""event"",""trial"",""time""
""fullscreenenter"",""1"",""2398""
","
","","","1032.7000000476837","","","22","12450","5579","u","elianto","#f73b6a7A"," "," ","1","0","[1885]","1","2","","","12450","47","0","3","lose","go","0"
"pit-trial","166","1112067","0.0-52.0","battery-v0.2","","""event"",""trial"",""time""
""fullscreenenter"",""1"",""2398""
","
","
","""event"",""trial"",""time""
""fullscreenenter"",""1"",""2398""
","
","","","-1","","","22","12450","5579","g","elianto","#f73b6a7A","-1","-1","1","-10","[]","0","2","","","12450","48","3","4","lose","no-go","1"
"pit-trial","167","1115568","0.0-53.0","battery-v0.2","","""event"",""trial"",""time""
""fullscreenenter"",""1"",""2398""
","
","
","""event"",""trial"",""time""
""fullscreenenter"",""1"",""2398""
","
","","","647.1000001430511","","","22","12450","5579","a","elianto","#f73b6a7A"," "," ","1","0","[1497.0999999046326]","1","2","","","12450","49","2","3","lose","go","0"
"pit-trial","168","1119020","0.0-54.0","battery-v0.2","","""event"",""trial"",""time""
""fullscreenenter"",""1"",""2398""
","
","
","""event"",""trial"",""time""
""fullscreenenter"",""1"",""2398""
","
","","","599.2000000476837","","","22","12450","5579","u","elianto","#f73b6a7A"," "," ","1","0","[1451.0999999046326]","1","2","","","12450","50","0","3","lose","go","0"
"pit-trial","169","1123877","0.0-55.0","battery-v0.2","","""event"",""trial"",""time""
""fullscreenenter"",""1"",""2398""
","
","
","""event"",""trial"",""time""
""fullscreenenter"",""1"",""2398""
","
","","","-1","","","22","12450","5579","g","elianto","#f73b6a7A","-1","-1","1","-10","[]","0","2","","","12450","51","3","4","lose","no-go","1"
"pit-trial","170","1128749","0.0-56.0","battery-v0.2","","""event"",""trial"",""time""
""fullscreenenter"",""1"",""2398""
","
","
","""event"",""trial"",""time""
""fullscreenenter"",""1"",""2398""
","
","","","-1","","","22","12450","5579","l","elianto","#3366ff99","-1","-1","1","0","[]","0","2","","","12450","52","1","2","win","no-go","1"
"pit-trial","171","1132197","0.0-57.0","battery-v0.2","","""event"",""trial"",""time""
""fullscreenenter"",""1"",""2398""
","
","
","""event"",""trial"",""time""
""fullscreenenter"",""1"",""2398""
","
","","","592","","","22","12450","5579","l","elianto","#3366ff99","-1"," ","0","0","[1445.2999999523163]","1","2","","","12450","53","1","2","win","no-go","0"
"pit-trial","172","1135879","0.0-58.0","battery-v0.2","","""event"",""trial"",""time""
""fullscreenenter"",""1"",""2398""
","
","
","""event"",""trial"",""time""
""fullscreenenter"",""1"",""2398""
","
","","","828.9000000953674","","","22","12450","5579","u","elianto","#f73b6a7A"," "," ","1","0","[1679.2999999523163]","1","2","","","12450","54","0","3","lose","go","0"
"pit-trial","173","1139476","0.0-59.0","battery-v0.2","","""event"",""trial"",""time""
""fullscreenenter"",""1"",""2398""
","
","
","""event"",""trial"",""time""
""fullscreenenter"",""1"",""2398""
","
","","","740.7999999523163","","","22","12450","5579","g","elianto","#f73b6a7A","-1"," ","0","0","[1591.3999998569489]","1","2","","","12450","55","3","4","lose","no-go","1"
"pit-trial","174","1143246","0.0-60.0","battery-v0.2","","""event"",""trial"",""time""
""fullscreenenter"",""1"",""2398""
","
","
","""event"",""trial"",""time""
""fullscreenenter"",""1"",""2398""
","
","","","915.5999999046326","","","22","12450","5579","a","elianto","#f73b6a7A"," "," ","1","0","[1765.7999999523163]","1","2","","","12450","56","2","3","lose","go","0"
"pit-trial","175","1147108","0.0-61.0","battery-v0.2","","""event"",""trial"",""time""
""fullscreenenter"",""1"",""2398""
","
","
","""event"",""trial"",""time""
""fullscreenenter"",""1"",""2398""
","
","","","1009.7000000476837","","","22","12450","5579","p","elianto","#3366ff99"," "," ","1","+10","[1859.9000000953674]","1","2","","","12450","57","4","1","win","go","0"
"pit-trial","176","1150871","0.0-62.0","battery-v0.2","","""event"",""trial"",""time""
""fullscreenenter"",""1"",""2398""
","
","
","""event"",""trial"",""time""
""fullscreenenter"",""1"",""2398""
","
","","","907.0999999046326","","","22","12450","5579","u","elianto","#f73b6a7A"," "," ","1","0","[1758.7999999523163]","1","2","","","12450","58","0","3","lose","go","0"
"pit-trial","177","1155039","0.0-63.0","battery-v0.2","","""event"",""trial"",""time""
""fullscreenenter"",""1"",""2398""
","
","
","""event"",""trial"",""time""
""fullscreenenter"",""1"",""2398""
","
","","","1310.7999999523163","","","22","12450","5579","g","elianto","#f73b6a7A","-1"," ","0","-10","[2163.9000000953674]","1","2","","","12450","59","3","4","lose","no-go","0"
"pit-trial","178","1159008","0.0-64.0","battery-v0.2","","""event"",""trial"",""time""
""fullscreenenter"",""1"",""2398""
","
","
","""event"",""trial"",""time""
""fullscreenenter"",""1"",""2398""
","
","","","1112.1999998092651","","","22","12450","5579","a","elianto","#f73b6a7A"," "," ","1","0","[1965.2999999523163]","1","2","","","12450","60","2","3","lose","go","0"
"pit-trial","179","1162691","0.0-65.0","battery-v0.2","","""event"",""trial"",""time""
""fullscreenenter"",""1"",""2398""
","
","
","""event"",""trial"",""time""
""fullscreenenter"",""1"",""2398""
","
","","","819.2999999523163","","","22","12450","5579","a","elianto","#f73b6a7A"," "," ","1","0","[1669.7999999523163]","1","2","","","12450","61","2","3","lose","go","0"
"pit-trial","180","1166239","0.0-66.0","battery-v0.2","","""event"",""trial"",""time""
""fullscreenenter"",""1"",""2398""
","
","
","""event"",""trial"",""time""
""fullscreenenter"",""1"",""2398""
","
","","","692.4000000953674","","","22","12450","5579","p","elianto","#3366ff99"," "," ","1","0","[1544.5]","1","2","","","12450","62","4","1","win","go","1"
"pit-trial","181","1170008","0.0-67.0","battery-v0.2","","""event"",""trial"",""time""
""fullscreenenter"",""1"",""2398""
","
","
","""event"",""trial"",""time""
""fullscreenenter"",""1"",""2398""
","
","","","916.2000000476837","","","22","12450","5579","g","elianto","#f73b6a7A","-1"," ","0","0","[1767]","1","2","","","12450","63","3","4","lose","no-go","1"
"pit-trial","182","1173664","0.0-68.0","battery-v0.2","","""event"",""trial"",""time""
""fullscreenenter"",""1"",""2398""
","
","
","""event"",""trial"",""time""
""fullscreenenter"",""1"",""2398""
","
","","","802.2000000476837","","","22","12450","5579","l","elianto","#3366ff99","-1"," ","0","0","[1653]","1","2","","","12450","64","1","2","win","no-go","0"
"pit-trial","183","1177673","0.0-69.0","battery-v0.2","","""event"",""trial"",""time""
""fullscreenenter"",""1"",""2398""
","
","
","""event"",""trial"",""time""
""fullscreenenter"",""1"",""2398""
","
","","","1155.2999999523163","","","22","12450","5579","s","elianto","#3366ff99","-1"," ","0","0","[2007.5]","1","2","","","12450","65","5","2","win","no-go","0"
"pit-trial","184","1182531","0.0-70.0","battery-v0.2","","""event"",""trial"",""time""
""fullscreenenter"",""1"",""2398""
","
","
","""event"",""trial"",""time""
""fullscreenenter"",""1"",""2398""
","
","","","-1","","","22","12450","5579","g","elianto","#f73b6a7A","-1","-1","1","0","[]","0","2","","","12450","66","3","4","lose","no-go","0"
"pit-trial","185","1187390","0.0-71.0","battery-v0.2","","""event"",""trial"",""time""
""fullscreenenter"",""1"",""2398""
","
","
","""event"",""trial"",""time""
""fullscreenenter"",""1"",""2398""
","
","","","-1","","","22","12450","5579","l","elianto","#3366ff99","-1","-1","1","+10","[]","0","2","","","12450","67","1","2","win","no-go","0"
"pit-trial","186","1191296","0.0-72.0","battery-v0.2","","""event"",""trial"",""time""
""fullscreenenter"",""1"",""2398""
","
","
","""event"",""trial"",""time""
""fullscreenenter"",""1"",""2398""
","
","","","1053.0999999046326","","","22","12450","5579","p","elianto","#3366ff99"," "," ","1","0","[1903.9000000953674]","1","2","","","12450","68","4","1","win","go","1"
"pit-trial","187","1196154","0.0-73.0","battery-v0.2","","""event"",""trial"",""time""
""fullscreenenter"",""1"",""2398""
","
","
","""event"",""trial"",""time""
""fullscreenenter"",""1"",""2398""
","
","","","-1","","","22","12450","5579","l","elianto","#3366ff99","-1","-1","1","0","[]","0","2","","","12450","69","1","2","win","no-go","1"
"pit-trial","188","1200030","0.0-74.0","battery-v0.2","","""event"",""trial"",""time""
""fullscreenenter"",""1"",""2398""
","
","
","""event"",""trial"",""time""
""fullscreenenter"",""1"",""2398""
","
","","","1020.9000000953674","","","22","12450","5579","p","elianto","#3366ff99"," "," ","1","0","[1872.2999999523163]","1","2","","","12450","70","4","1","win","go","1"
"pit-trial","189","1203905","0.0-75.0","battery-v0.2","","""event"",""trial"",""time""
""fullscreenenter"",""1"",""2398""
","
","
","""event"",""trial"",""time""
""fullscreenenter"",""1"",""2398""
","
","","","1021.2000000476837","","","22","12450","5579","a","elianto","#f73b6a7A"," "," ","1","0","[1873.7999999523163]","1","2","","","12450","71","2","3","lose","go","0"
"pit-trial","190","1208763","0.0-76.0","battery-v0.2","","""event"",""trial"",""time""
""fullscreenenter"",""1"",""2398""
","
","
","""event"",""trial"",""time""
""fullscreenenter"",""1"",""2398""
","
","","","-1","","","22","12450","5579","s","elianto","#3366ff99","-1","-1","1","+10","[]","0","2","","","12450","72","5","2","win","no-go","0"
"pit-trial","191","1213617","0.0-77.0","battery-v0.2","","""event"",""trial"",""time""
""fullscreenenter"",""1"",""2398""
","
","
","""event"",""trial"",""time""
""fullscreenenter"",""1"",""2398""
","
","","","-1","","","22","12450","5579","l","elianto","#3366ff99","-1","-1","1","+10","[]","0","2","","","12450","73","1","2","win","no-go","0"
"pit-trial","192","1218483","0.0-78.0","battery-v0.2","","""event"",""trial"",""time""
""fullscreenenter"",""1"",""2398""
","
","
","""event"",""trial"",""time""
""fullscreenenter"",""1"",""2398""
","
","","","-1","","","22","12450","5579","p","elianto","#3366ff99"," ","-1","0","0","[]","0","2","","","12450","74","4","1","win","go","0"
"pit-trial","193","1222252","0.0-79.0","battery-v0.2","","""event"",""trial"",""time""
""fullscreenenter"",""1"",""2398""
","
","
","""event"",""trial"",""time""
""fullscreenenter"",""1"",""2398""
","
","","","914.9000000953674","","","22","12450","5579","g","elianto","#f73b6a7A","-1"," ","0","0","[1765.4000000953674]","1","2","","","12450","75","3","4","lose","no-go","1"
"pit-trial","194","1227107","0.0-80.0","battery-v0.2","","""event"",""trial"",""time""
""fullscreenenter"",""1"",""2398""
","
","
","""event"",""trial"",""time""
""fullscreenenter"",""1"",""2398""
","
","","","-1","","","22","12450","5579","s","elianto","#3366ff99","-1","-1","1","0","[2874.899999856949]","1","2","","","12450","76","5","2","win","no-go","1"
"pit-trial","195","1231964","0.0-81.0","battery-v0.2","","""event"",""trial"",""time""
""fullscreenenter"",""1"",""2398""
","
","
","""event"",""trial"",""time""
""fullscreenenter"",""1"",""2398""
","
","","","-1","","","22","12450","5579","g","elianto","#f73b6a7A","-1","-1","1","0","[]","0","2","","","12450","77","3","4","lose","no-go","0"
"pit-trial","196","1236140","0.0-82.0","battery-v0.2","","""event"",""trial"",""time""
""fullscreenenter"",""1"",""2398""
","
","
","""event"",""trial"",""time""
""fullscreenenter"",""1"",""2398""
","
","","","1318.5999999046326","","","22","12450","5579","p","elianto","#3366ff99"," "," ","1","+10","[2172.5999999046326]","1","2","","","12450","78","4","1","win","go","0"
"pit-trial","197","1239930","0.0-83.0","battery-v0.2","","""event"",""trial"",""time""
""fullscreenenter"",""1"",""2398""
","
","
","""event"",""trial"",""time""
""fullscreenenter"",""1"",""2398""
","
","","","934.7999999523163","","","22","12450","5579","p","elianto","#3366ff99"," "," ","1","+10","[1786]","1","2","","","12450","79","4","1","win","go","0"
"pit-trial","198","1244787","0.0-84.0","battery-v0.2","","""event"",""trial"",""time""
""fullscreenenter"",""1"",""2398""
","
","
","""event"",""trial"",""time""
""fullscreenenter"",""1"",""2398""
","
","","","-1","","","22","12450","5579","s","elianto","#3366ff99","-1","-1","1","0","[]","0","2","","","12450","80","5","2","win","no-go","1"
"pit-trial","199","1248722","0.0-85.0","battery-v0.2","","""event"",""trial"",""time""
""fullscreenenter"",""1"",""2398""
","
","
","""event"",""trial"",""time""
""fullscreenenter"",""1"",""2398""
","
","","","1078.1000001430511","","","22","12450","5579","s","elianto","#3366ff99","-1"," ","0","0","[1931]","1","2","","","12450","81","5","2","win","no-go","0"
"pit-trial","200","1253005","0.0-86.0","battery-v0.2","","""event"",""trial"",""time""
""fullscreenenter"",""1"",""2398""
","
","
","""event"",""trial"",""time""
""fullscreenenter"",""1"",""2398""
","
","","","1421.2000000476837","","","22","12450","5579","e","elianto","#f73b6a7A","-1"," ","0","0","[2271.2999999523163]","1","2","","","12450","82","7","4","lose","no-go","1"
"pit-trial","201","1256845","0.0-87.0","battery-v0.2","","""event"",""trial"",""time""
""fullscreenenter"",""1"",""2398""
","
","
","""event"",""trial"",""time""
""fullscreenenter"",""1"",""2398""
","
","","","986.3999998569489","","","22","12450","5579","p","elianto","#3366ff99"," "," ","1","+10","[1836.7000000476837]","1","2","","","12450","83","4","1","win","go","0"
"pit-trial","202","1261701","0.0-88.0","battery-v0.2","","""event"",""trial"",""time""
""fullscreenenter"",""1"",""2398""
","
","
","""event"",""trial"",""time""
""fullscreenenter"",""1"",""2398""
","
","","","-1","","","22","12450","5579","g","elianto","#f73b6a7A","-1","-1","1","0","[]","0","2","","","12450","84","3","4","lose","no-go","0"
"pit-trial","203","1265776","0.0-89.0","battery-v0.2","","""event"",""trial"",""time""
""fullscreenenter"",""1"",""2398""
","
","
","""event"",""trial"",""time""
""fullscreenenter"",""1"",""2398""
","
","","","1220","","","22","12450","5579","e","elianto","#f73b6a7A","-1"," ","0","0","[2073]","1","2","","","12450","85","7","4","lose","no-go","1"
"pit-trial","204","1270633","0.0-90.0","battery-v0.2","","""event"",""trial"",""time""
""fullscreenenter"",""1"",""2398""
","
","
","""event"",""trial"",""time""
""fullscreenenter"",""1"",""2398""
","
","","","-1","","","22","12450","5579","s","elianto","#3366ff99","-1","-1","1","+10","[]","0","2","","","12450","86","5","2","win","no-go","0"
"pit-trial","205","1274710","0.0-91.0","battery-v0.2","","""event"",""trial"",""time""
""fullscreenenter"",""1"",""2398""
","
","
","""event"",""trial"",""time""
""fullscreenenter"",""1"",""2398""
","
","","","1223.3999998569489","","","22","12450","5579","w","elianto","#f73b6a7A"," "," ","1","0","[2075.699999809265]","1","2","","","12450","87","6","3","lose","go","0"
"pit-trial","206","1278753","0.0-92.0","battery-v0.2","","""event"",""trial"",""time""
""fullscreenenter"",""1"",""2398""
","
","
","""event"",""trial"",""time""
""fullscreenenter"",""1"",""2398""
","
","","","1187.2999999523163","","","22","12450","5579","p","elianto","#3366ff99"," "," ","1","+10","[2038.4000000953674]","1","2","","","12450","88","4","1","win","go","0"
"pit-trial","207","1283607","0.0-93.0","battery-v0.2","","""event"",""trial"",""time""
""fullscreenenter"",""1"",""2398""
","
","
","""event"",""trial"",""time""
""fullscreenenter"",""1"",""2398""
","
","","","-1","","","22","12450","5579","w","elianto","#f73b6a7A"," ","-1","0","-10","[]","0","2","","","12450","89","6","3","lose","go","0"
"pit-trial","208","1287766","0.0-94.0","battery-v0.2","","""event"",""trial"",""time""
""fullscreenenter"",""1"",""2398""
","
","
","""event"",""trial"",""time""
""fullscreenenter"",""1"",""2398""
","
","","","1306.5999999046326","","","22","12450","5579","p","elianto","#3366ff99"," "," ","1","+10","[2156.5]","1","2","","","12450","90","4","1","win","go","0"
"pit-trial","209","1292238","0.0-95.0","battery-v0.2","","""event"",""trial"",""time""
""fullscreenenter"",""1"",""2398""
","
","
","""event"",""trial"",""time""
""fullscreenenter"",""1"",""2398""
","
","","","1617.5","","","22","12450","5579","e","elianto","#f73b6a7A","-1"," ","0","-10","[2469.4000000953674]","1","2","","","12450","91","7","4","lose","no-go","0"
"pit-trial","210","1297103","0.0-96.0","battery-v0.2","","""event"",""trial"",""time""
""fullscreenenter"",""1"",""2398""
","
","
","""event"",""trial"",""time""
""fullscreenenter"",""1"",""2398""
","
","","","-1","","","22","12450","5579","s","elianto","#3366ff99","-1","-1","1","+10","[]","0","2","","","12450","92","5","2","win","no-go","0"
"pit-trial","211","1301681","0.0-97.0","battery-v0.2","","""event"",""trial"",""time""
""fullscreenenter"",""1"",""2398""
","
","
","""event"",""trial"",""time""
""fullscreenenter"",""1"",""2398""
","
","","","1724.7000000476837","","","22","12450","5579","e","elianto","#f73b6a7A","-1"," ","0","-10","[2576.100000143051]","1","2","","","12450","93","7","4","lose","no-go","0"
"pit-trial","212","1306537","0.0-98.0","battery-v0.2","","""event"",""trial"",""time""
""fullscreenenter"",""1"",""2398""
","
","
","""event"",""trial"",""time""
""fullscreenenter"",""1"",""2398""
","
","","","-1","","","22","12450","5579","s","elianto","#3366ff99","-1","-1","1","+10","[]","0","2","","","12450","94","5","2","win","no-go","0"
"pit-trial","213","1310652","0.0-99.0","battery-v0.2","","""event"",""trial"",""time""
""fullscreenenter"",""1"",""2398""
","
","
","""event"",""trial"",""time""
""fullscreenenter"",""1"",""2398""
","
","","","1260","","","22","12450","5579","d","elianto","#3366ff99"," "," ","1","+10","[220,2111.600000143051]","2","2","","","12450","95","8","1","win","go","0"
"pit-trial","214","1315518","0.0-100.0","battery-v0.2","","""event"",""trial"",""time""
""fullscreenenter"",""1"",""2398""
","
","
","""event"",""trial"",""time""
""fullscreenenter"",""1"",""2398""
","
","","","-1","","","22","12450","5579","w","elianto","#f73b6a7A"," ","-1","0","0","[]","0","2","","","12450","96","6","3","lose","go","1"
"pit-trial","215","1320395","0.0-101.0","battery-v0.2","","""event"",""trial"",""time""
""fullscreenenter"",""1"",""2398""
","
","
","""event"",""trial"",""time""
""fullscreenenter"",""1"",""2398""
","
","","","-1","","","22","12450","5579","s","elianto","#3366ff99","-1","-1","1","+10","[]","0","2","","","12450","97","5","2","win","no-go","0"
"pit-trial","216","1324505","0.0-102.0","battery-v0.2","","""event"",""trial"",""time""
""fullscreenenter"",""1"",""2398""
","
","
","""event"",""trial"",""time""
""fullscreenenter"",""1"",""2398""
","
","","","1254.2999999523163","","","22","12450","5579","d","elianto","#3366ff99"," "," ","1","+10","[2104.5]","1","2","","","12450","98","8","1","win","go","0"
"pit-trial","217","1329364","0.0-103.0","battery-v0.2","","""event"",""trial"",""time""
""fullscreenenter"",""1"",""2398""
","
","
","""event"",""trial"",""time""
""fullscreenenter"",""1"",""2398""
","
","","","-1","","","22","12450","5579","w","elianto","#f73b6a7A"," ","-1","0","-10","[]","0","2","","","12450","99","6","3","lose","go","0"
"pit-trial","218","1333333","0.0-104.0","battery-v0.2","","""event"",""trial"",""time""
""fullscreenenter"",""1"",""2398""
","
","
","""event"",""trial"",""time""
""fullscreenenter"",""1"",""2398""
","
","","","1111.1999998092651","","","22","12450","5579","e","elianto","#f73b6a7A","-1"," ","0","-10","[1963.5]","1","2","","","12450","100","7","4","lose","no-go","0"
"pit-trial","219","1338189","0.0-105.0","battery-v0.2","","""event"",""trial"",""time""
""fullscreenenter"",""1"",""2398""
","
","
","""event"",""trial"",""time""
""fullscreenenter"",""1"",""2398""
","
","","","-1","","","22","12450","5579","e","elianto","#f73b6a7A","-1","-1","1","0","[]","0","2","","","12450","101","7","4","lose","no-go","0"
"pit-trial","220","1343045","0.0-106.0","battery-v0.2","","""event"",""trial"",""time""
""fullscreenenter"",""1"",""2398""
","
","
","""event"",""trial"",""time""
""fullscreenenter"",""1"",""2398""
","
","","","-1","","","22","12450","5579","s","elianto","#3366ff99","-1","-1","1","0","[]","0","2","","","12450","102","5","2","win","no-go","1"
"pit-trial","221","1347029","0.0-107.0","battery-v0.2","","""event"",""trial"",""time""
""fullscreenenter"",""1"",""2398""
","
","
","""event"",""trial"",""time""
""fullscreenenter"",""1"",""2398""
","
","","","1131.5999999046326","","","22","12450","5579","j","elianto","#3366ff99"," "," ","1","+10","[1981.8999998569489]","1","2","","","12450","103","9","1","win","go","0"
"pit-trial","222","1351056","0.0-108.0","battery-v0.2","","""event"",""trial"",""time""
""fullscreenenter"",""1"",""2398""
","
","
","""event"",""trial"",""time""
""fullscreenenter"",""1"",""2398""
","
","","","1173.1000001430511","","","22","12450","5579","d","elianto","#3366ff99"," "," ","1","+10","[2023.1999998092651]","1","2","","","12450","104","8","1","win","go","0"
"pit-trial","223","1355914","0.0-109.0","battery-v0.2","","""event"",""trial"",""time""
""fullscreenenter"",""1"",""2398""
","
","
","""event"",""trial"",""time""
""fullscreenenter"",""1"",""2398""
","
","","","-1","","","22","12450","5579","w","elianto","#f73b6a7A"," ","-1","0","-10","[]","0","2","","","12450","105","6","3","lose","go","0"
"pit-trial","224","1359974","0.0-110.0","battery-v0.2","","""event"",""trial"",""time""
""fullscreenenter"",""1"",""2398""
","
","
","""event"",""trial"",""time""
""fullscreenenter"",""1"",""2398""
","
","","","1202.5","","","22","12450","5579","j","elianto","#3366ff99"," "," ","1","+10","[2056.2000000476837]","1","2","","","12450","106","9","1","win","go","0"
"pit-trial","225","1364010","0.0-111.0","battery-v0.2","","""event"",""trial"",""time""
""fullscreenenter"",""1"",""2398""
","
","
","""event"",""trial"",""time""
""fullscreenenter"",""1"",""2398""
","
","","","1181.6999998092651","","","22","12450","5579","p","elianto","#3366ff99"," "," ","1","+10","[2033.2999999523163]","1","2","","","12450","107","4","1","win","go","0"
"pit-trial","226","1367784","0.0-112.0","battery-v0.2","","""event"",""trial"",""time""
""fullscreenenter"",""1"",""2398""
","
","
","""event"",""trial"",""time""
""fullscreenenter"",""1"",""2398""
","
","","","920.8999998569489","","","22","12450","5579","d","elianto","#3366ff99"," "," ","1","+10","[1771.3999998569489]","1","2","","","12450","108","8","1","win","go","0"
"pit-trial","227","1371847","0.0-113.0","battery-v0.2","","""event"",""trial"",""time""
""fullscreenenter"",""1"",""2398""
","
","
","""event"",""trial"",""time""
""fullscreenenter"",""1"",""2398""
","
","","","1205.5","","","22","12450","5579","w","elianto","#f73b6a7A"," "," ","1","0","[2057.7999999523163]","1","2","","","12450","109","6","3","lose","go","0"
"pit-trial","228","1375627","0.0-114.0","battery-v0.2","","""event"",""trial"",""time""
""fullscreenenter"",""1"",""2398""
","
","
","""event"",""trial"",""time""
""fullscreenenter"",""1"",""2398""
","
","","","925.5","","","22","12450","5579","j","elianto","#3366ff99"," "," ","1","+10","[1777.5]","1","2","","","12450","110","9","1","win","go","0"
"pit-trial","229","1379946","0.0-115.0","battery-v0.2","","""event"",""trial"",""time""
""fullscreenenter"",""1"",""2398""
","
","
","""event"",""trial"",""time""
""fullscreenenter"",""1"",""2398""
","
","","","1466.2999999523163","","","22","12450","5579","s","elianto","#3366ff99","-1"," ","0","0","[2317.5999999046326]","1","2","","","12450","111","5","2","win","no-go","0"
"pit-trial","230","1383688","0.0-116.0","battery-v0.2","","""event"",""trial"",""time""
""fullscreenenter"",""1"",""2398""
","
","
","""event"",""trial"",""time""
""fullscreenenter"",""1"",""2398""
","
","","","884.0999999046326","","","22","12450","5579","d","elianto","#3366ff99"," "," ","1","+10","[1736.5]","1","2","","","12450","112","8","1","win","go","0"
"pit-trial","231","1387807","0.0-117.0","battery-v0.2","","""event"",""trial"",""time""
""fullscreenenter"",""1"",""2398""
","
","
","""event"",""trial"",""time""
""fullscreenenter"",""1"",""2398""
","
","","","1260.2999999523163","","","22","12450","5579","s","elianto","#3366ff99","-1"," ","0","0","[2113.7999999523163]","1","2","","","12450","113","5","2","win","no-go","0"
"pit-trial","232","1392664","0.0-118.0","battery-v0.2","","""event"",""trial"",""time""
""fullscreenenter"",""1"",""2398""
","
","
","""event"",""trial"",""time""
""fullscreenenter"",""1"",""2398""
","
","","","-1","","","22","12450","5579","w","elianto","#f73b6a7A"," ","-1","0","0","[]","0","2","","","12450","114","6","3","lose","go","1"
"pit-trial","233","1396363","0.0-119.0","battery-v0.2","","""event"",""trial"",""time""
""fullscreenenter"",""1"",""2398""
","
","
","""event"",""trial"",""time""
""fullscreenenter"",""1"",""2398""
","
","","","843.3000001907349","","","22","12450","5579","j","elianto","#3366ff99"," "," ","1","+10","[1696.0999999046326]","1","2","","","12450","115","9","1","win","go","0"
"pit-trial","234","1399964","0.0-120.0","battery-v0.2","","""event"",""trial"",""time""
""fullscreenenter"",""1"",""2398""
","
","
","""event"",""trial"",""time""
""fullscreenenter"",""1"",""2398""
","
","","","743","","","22","12450","5579","d","elianto","#3366ff99"," "," ","1","+10","[1595.7999999523163]","1","2","","","12450","116","8","1","win","go","0"
"pit-trial","235","1403610","0.0-121.0","battery-v0.2","","""event"",""trial"",""time""
""fullscreenenter"",""1"",""2398""
","
","
","""event"",""trial"",""time""
""fullscreenenter"",""1"",""2398""
","
","","","790.1000001430511","","","22","12450","5579","j","elianto","#3366ff99"," "," ","1","+10","[1640.9000000953674]","1","2","","","12450","117","9","1","win","go","0"
"pit-trial","236","1407237","0.0-122.0","battery-v0.2","","""event"",""trial"",""time""
""fullscreenenter"",""1"",""2398""
","
","
","""event"",""trial"",""time""
""fullscreenenter"",""1"",""2398""
","
","","","774.4000000953674","","","22","12450","5579","d","elianto","#3366ff99"," "," ","1","+10","[1625.1000001430511]","1","2","","","12450","118","8","1","win","go","0"
"pit-trial","237","1412101","0.0-123.0","battery-v0.2","","""event"",""trial"",""time""
""fullscreenenter"",""1"",""2398""
","
","
","""event"",""trial"",""time""
""fullscreenenter"",""1"",""2398""
","
","","","-1","","","22","12450","5579","w","elianto","#f73b6a7A"," ","-1","0","-10","[]","0","2","","","12450","119","6","3","lose","go","0"
"pit-trial","238","1416969","0.0-124.0","battery-v0.2","","""event"",""trial"",""time""
""fullscreenenter"",""1"",""2398""
","
","
","""event"",""trial"",""time""
""fullscreenenter"",""1"",""2398""
","
","","","-1","","","22","12450","5579","s","elianto","#3366ff99","-1","-1","1","+10","[]","0","2","","","12450","120","5","2","win","no-go","0"
"pit-trial","239","1420549","0.0-125.0","battery-v0.2","","""event"",""trial"",""time""
""fullscreenenter"",""1"",""2398""
","
","
","""event"",""trial"",""time""
""fullscreenenter"",""1"",""2398""
","
","","","724.8999998569489","","","22","12450","5579","d","elianto","#3366ff99"," "," ","1","+10","[1577.7000000476837]","1","2","","","12450","121","8","1","win","go","0"
"pit-trial","240","1424116","0.0-126.0","battery-v0.2","","""event"",""trial"",""time""
""fullscreenenter"",""1"",""2398""
","
","
","""event"",""trial"",""time""
""fullscreenenter"",""1"",""2398""
","
","","","707.7999999523163","","","22","12450","5579","j","elianto","#3366ff99"," "," ","1","+10","[1561.5999999046326]","1","2","","","12450","122","9","1","win","go","0"
"pit-trial","241","1428975","0.0-127.0","battery-v0.2","","""event"",""trial"",""time""
""fullscreenenter"",""1"",""2398""
","
","
","""event"",""trial"",""time""
""fullscreenenter"",""1"",""2398""
","
","","","-1","","","22","12450","5579","w","elianto","#f73b6a7A"," ","-1","0","-10","[]","0","2","","","12450","123","6","3","lose","go","0"
"pit-trial","242","1432803","0.0-128.0","battery-v0.2","","""event"",""trial"",""time""
""fullscreenenter"",""1"",""2398""
","
","
","""event"",""trial"",""time""
""fullscreenenter"",""1"",""2398""
","
","","","974.7000000476837","","","22","12450","5579","e","elianto","#f73b6a7A","-1"," ","0","-10","[1825.3000001907349]","1","2","","","12450","124","7","4","lose","no-go","0"
"pit-trial","243","1436643","0.0-129.0","battery-v0.2","","""event"",""trial"",""time""
""fullscreenenter"",""1"",""2398""
","
","
","""event"",""trial"",""time""
""fullscreenenter"",""1"",""2398""
","
","","","975.1999998092651","","","22","12450","5579","j","elianto","#3366ff99"," "," ","1","+10","[1827.2999999523163]","1","2","","","12450","125","9","1","win","go","0"
"pit-trial","244","1441503","0.0-130.0","battery-v0.2","","""event"",""trial"",""time""
""fullscreenenter"",""1"",""2398""
","
","
","""event"",""trial"",""time""
""fullscreenenter"",""1"",""2398""
","
","","","-1","","","22","12450","5579","e","elianto","#f73b6a7A","-1","-1","1","-10","[]","0","2","","","12450","126","7","4","lose","no-go","1"
"pit-trial","245","1446359","0.0-131.0","battery-v0.2","","""event"",""trial"",""time""
""fullscreenenter"",""1"",""2398""
","
","
","""event"",""trial"",""time""
""fullscreenenter"",""1"",""2398""
","
","","","-1","","","22","12450","5579","w","elianto","#f73b6a7A"," ","-1","0","0","[]","0","2","","","12450","127","6","3","lose","go","1"
"pit-trial","246","1450075","0.0-132.0","battery-v0.2","","""event"",""trial"",""time""
""fullscreenenter"",""1"",""2398""
","
","
","""event"",""trial"",""time""
""fullscreenenter"",""1"",""2398""
","
","","","854.6000001430511","","","22","12450","5579","d","elianto","#3366ff99"," "," ","1","+10","[1706.2000000476837]","1","2","","","12450","128","8","1","win","go","0"
"pit-trial","247","1454403","0.0-133.0","battery-v0.2","","""event"",""trial"",""time""
""fullscreenenter"",""1"",""2398""
","
","
","""event"",""trial"",""time""
""fullscreenenter"",""1"",""2398""
","
","","","1473","","","22","12450","5579","w","elianto","#f73b6a7A"," "," ","1","0","[2324]","1","2","","","12450","129","6","3","lose","go","0"
"pit-trial","248","1457929","0.0-134.0","battery-v0.2","","""event"",""trial"",""time""
""fullscreenenter"",""1"",""2398""
","
","
","""event"",""trial"",""time""
""fullscreenenter"",""1"",""2398""
","
","","","669.5","","","22","12450","5579","d","elianto","#3366ff99"," "," ","1","0","[1521.8000001907349]","1","2","","","12450","130","8","1","win","go","1"
"pit-trial","249","1462788","0.0-135.0","battery-v0.2","","""event"",""trial"",""time""
""fullscreenenter"",""1"",""2398""
","
","
","""event"",""trial"",""time""
""fullscreenenter"",""1"",""2398""
","
","","","-1","","","22","12450","5579","e","elianto","#f73b6a7A","-1","-1","1","0","[]","0","2","","","12450","131","7","4","lose","no-go","0"
"pit-trial","250","1466265","0.0-136.0","battery-v0.2","","""event"",""trial"",""time""
""fullscreenenter"",""1"",""2398""
","
","
","""event"",""trial"",""time""
""fullscreenenter"",""1"",""2398""
","
","","","621.7999999523163","","","22","12450","5579","j","elianto","#3366ff99"," "," ","1","0","[1474]","1","2","","","12450","132","9","1","win","go","1"
"pit-trial","251","1469807","0.0-137.0","battery-v0.2","","""event"",""trial"",""time""
""fullscreenenter"",""1"",""2398""
","
","
","""event"",""trial"",""time""
""fullscreenenter"",""1"",""2398""
","
","","","685.7999999523163","","","22","12450","5579","d","elianto","#3366ff99"," "," ","1","+10","[1539.6000001430511]","1","2","","","12450","133","8","1","win","go","0"
"pit-trial","252","1473782","0.0-138.0","battery-v0.2","","""event"",""trial"",""time""
""fullscreenenter"",""1"",""2398""
","
","
","""event"",""trial"",""time""
""fullscreenenter"",""1"",""2398""
","
","","","1119.2000000476837","","","22","12450","5579","e","elianto","#f73b6a7A","-1"," ","0","0","[1970.5]","1","2","","","12450","134","7","4","lose","no-go","1"
"pit-trial","253","1477117","0.0-139.0","battery-v0.2","","""event"",""trial"",""time""
""fullscreenenter"",""1"",""2398""
","
","
","""event"",""trial"",""time""
""fullscreenenter"",""1"",""2398""
","
","","","479","","","22","12450","5579","j","elianto","#3366ff99"," "," ","1","+10","[1332.1000001430511]","1","2","","","12450","135","9","1","win","go","0"
"pit-trial","254","1481987","0.0-140.0","battery-v0.2","","""event"",""trial"",""time""
""fullscreenenter"",""1"",""2398""
","
","
","""event"",""trial"",""time""
""fullscreenenter"",""1"",""2398""
","
","","","-1","","","22","12450","5579","w","elianto","#f73b6a7A"," ","-1","0","-10","[]","0","2","","","12450","136","6","3","lose","go","0"
"pit-trial","255","1485604","0.0-141.0","battery-v0.2","","""event"",""trial"",""time""
""fullscreenenter"",""1"",""2398""
","
","
","""event"",""trial"",""time""
""fullscreenenter"",""1"",""2398""
","
","","","764","","","22","12450","5579","w","elianto","#f73b6a7A"," "," ","1","0","[1614.0999999046326]","1","2","","","12450","137","6","3","lose","go","0"
"pit-trial","256","1490461","0.0-142.0","battery-v0.2","","""event"",""trial"",""time""
""fullscreenenter"",""1"",""2398""
","
","
","""event"",""trial"",""time""
""fullscreenenter"",""1"",""2398""
","
","","","-1","","","22","12450","5579","e","elianto","#f73b6a7A","-1","-1","1","0","[]","0","2","","","12450","138","7","4","lose","no-go","0"
"pit-trial","257","1493917","0.0-143.0","battery-v0.2","","""event"",""trial"",""time""
""fullscreenenter"",""1"",""2398""
","
","
","""event"",""trial"",""time""
""fullscreenenter"",""1"",""2398""
","
","","","603","","","22","12450","5579","d","elianto","#3366ff99"," "," ","1","+10","[1453.4000000953674]","1","2","","","12450","139","8","1","win","go","0"
"pit-trial","258","1497369","0.0-144.0","battery-v0.2","","""event"",""trial"",""time""
""fullscreenenter"",""1"",""2398""
","
","
","""event"",""trial"",""time""
""fullscreenenter"",""1"",""2398""
","
","","","594.9000000953674","","","22","12450","5579","j","elianto","#3366ff99"," "," ","1","0","[1447.6000001430511]","1","2","","","12450","140","9","1","win","go","1"
"pit-instructions","259","1527085","0.0-145.0","battery-v0.2","","""event"",""trial"",""time""
""fullscreenenter"",""1"",""2398""
","
","
","""event"",""trial"",""time""
""fullscreenenter"",""1"",""2398""
","
","","[{""page_index"":0,""viewing_time"":20920.699999809265},{""page_index"":1,""viewing_time"":8795.100000143051}]","29716.199999809265","","","","","","","","","","","","","","","","","","","","","","","",""
"pit-trial","260","1530960","0.0-146.0","battery-v0.2","","""event"",""trial"",""time""
""fullscreenenter"",""1"",""2398""
","
","
","""event"",""trial"",""time""
""fullscreenenter"",""1"",""2398""
","
","","","1010","","","22","12450","5579","t","elianto","#f73b6a7A","-1"," ","0","0","[1864.8999998569489]","1","3","","","12450","141","2","4","lose","no-go","1"
"pit-trial","261","1535316","0.0-147.0","battery-v0.2","","""event"",""trial"",""time""
""fullscreenenter"",""1"",""2398""
","
","
","""event"",""trial"",""time""
""fullscreenenter"",""1"",""2398""
","
","","","1491.2999999523163","","","22","12450","5579","b","elianto","#f73b6a7A"," "," ","1","0","[2342.2999999523163]","1","3","","","12450","142","3","3","lose","go","0"
"pit-trial","262","1539733","0.0-148.0","battery-v0.2","","""event"",""trial"",""time""
""fullscreenenter"",""1"",""2398""
","
","
","""event"",""trial"",""time""
""fullscreenenter"",""1"",""2398""
","
","","","1548.7000000476837","","","22","12450","5579","f","elianto","#3366ff99"," "," ","1","0","[2402.7000000476837]","1","3","","","12450","143","1","1","win","go","1"
"pit-trial","263","1543862","0.0-149.0","battery-v0.2","","""event"",""trial"",""time""
""fullscreenenter"",""1"",""2398""
","
","
","""event"",""trial"",""time""
""fullscreenenter"",""1"",""2398""
","
","","","1275.8999998569489","","","22","12450","5579","n","elianto","#f73b6a7A","-1"," ","0","-10","[2128]","1","3","","","12450","144","0","4","lose","no-go","0"
"pit-trial","264","1548720","0.0-150.0","battery-v0.2","","""event"",""trial"",""time""
""fullscreenenter"",""1"",""2398""
","
","
","""event"",""trial"",""time""
""fullscreenenter"",""1"",""2398""
","
","","","-1","","","22","12450","5579","n","elianto","#f73b6a7A","-1","-1","1","0","[]","0","3","","","12450","145","0","4","lose","no-go","0"
"pit-trial","265","1552494","0.0-151.0","battery-v0.2","","""event"",""trial"",""time""
""fullscreenenter"",""1"",""2398""
","
","
","""event"",""trial"",""time""
""fullscreenenter"",""1"",""2398""
","
