"trial_type","trial_index","time_elapsed","internal_node_id","task_version","subject_id","interactions","blur_events","focus_events","fullscreenenter_events","fullscreenexit_events","success","view_history","rt","responses","num_errors","age","subject","participantId","rune","rune_set","hex","correct","choice","accuracy","outcome","keys","total_keys","block","practice","value","sub","trial","stimulus","robot","valence","action","sham"
"pavlovia","0","30","0.0-0.0","battery-v0.2","","""event"",""trial"",""time""
""fullscreenenter"",""1"",""3740""
","
","
","""event"",""trial"",""time""
""fullscreenenter"",""1"",""3740""
","
","","","","","","","","","","","","","","","","","","","","","","","","","","",""
"fullscreen","1","4682","0.0-1.0","battery-v0.2","","""event"",""trial"",""time""
""fullscreenenter"",""1"",""3740""
","
","
","""event"",""trial"",""time""
""fullscreenenter"",""1"",""3740""
","
","true","","","","","","","","","","","","","","","","","","","","","","","","","",""
"pit-instructions","2","9481","0.0-2.0-0.0","battery-v0.2","","""event"",""trial"",""time""
""fullscreenenter"",""1"",""3740""
","
","
","""event"",""trial"",""time""
""fullscreenenter"",""1"",""3740""
","
","","[{""page_index"":0,""viewing_time"":4793.0999999940395}]","4794.199999988079","","","","","","","","","","","","","","","","","","","","","","","",""
"pit-comprehension","3","15694","0.0-2.0-1.0-0.0","battery-v0.2","","""event"",""trial"",""time""
""fullscreenenter"",""1"",""3740""
","
","
","""event"",""trial"",""time""
""fullscreenenter"",""1"",""3740""
","
","","","6198.70000000298","[""shark""]","0","23","9102","4246","","","","","","","","","","","","","","","","","","",""
"pit-instructions","4","17027","0.0-2.0-1.0-1.0","battery-v0.2","","""event"",""trial"",""time""
""fullscreenenter"",""1"",""3740""
","
","
","""event"",""trial"",""time""
""fullscreenenter"",""1"",""3740""
","
","","[{""page_index"":0,""viewing_time"":1275.0999999940395}]","1275.7999999970198","","","","","","","","","","","","","","","","","","","","","","","",""
"pit-comprehension","5","21172","0.0-2.0-2.0-0.0","battery-v0.2","","""event"",""trial"",""time""
""fullscreenenter"",""1"",""3740""
","
","
","""event"",""trial"",""time""
""fullscreenenter"",""1"",""3740""
","
","","","4127.70000000298","[""tiger""]","0","23","9102","4246","","","","","","","","","","","","","","","","","","",""
"pit-instructions","6","22653","0.0-2.0-2.0-1.0","battery-v0.2","","""event"",""trial"",""time""
""fullscreenenter"",""1"",""3740""
","
","
","""event"",""trial"",""time""
""fullscreenenter"",""1"",""3740""
","
","","[{""page_index"":0,""viewing_time"":1464.5}]","1465.4000000059605","","","","","","","","","","","","","","","","","","","","","","","",""
"pit-instructions","7","106003","0.0-2.0-3.0","battery-v0.2","","""event"",""trial"",""time""
""fullscreenenter"",""1"",""3740""
","
","
","""event"",""trial"",""time""
""fullscreenenter"",""1"",""3740""
","
","","[{""page_index"":0,""viewing_time"":7593.800000011921},{""page_index"":1,""viewing_time"":5095},{""page_index"":2,""viewing_time"":6152.5999999940395},{""page_index"":3,""viewing_time"":5169.70000000298},{""page_index"":4,""viewing_time"":5050.399999991059},{""page_index"":5,""viewing_time"":5153.800000011921},{""page_index"":6,""viewing_time"":5303.29999999702},{""page_index"":7,""viewing_time"":6774.399999991059},{""page_index"":8,""viewing_time"":6741.20000000298},{""page_index"":9,""viewing_time"":5786.29999999702},{""page_index"":10,""viewing_time"":9003},{""page_index"":11,""viewing_time"":5024.5},{""page_index"":12,""viewing_time"":6314.4000000059605},{""page_index"":13,""viewing_time"":4169.5999999940395}]","83333.30000001192","","","","","","","","","","","","","","","","","","","","","","","",""
"pit-trial","8","109651","0.0-2.0-4.0-0.0","battery-v0.2","","""event"",""trial"",""time""
""fullscreenenter"",""1"",""3740""
","
","
","""event"",""trial"",""time""
""fullscreenenter"",""1"",""3740""
","
","","","769.2999999970198","","","23","9102","4246","&#9784;","elianto","#FFFFF080"," "," ","1","&#10004","[1622.2999999970198]","1","0","0","","","","","","","",""
"pit-trial","9","112644","0.0-2.0-4.1-0.1","battery-v0.2","","""event"",""trial"",""time""
""fullscreenenter"",""1"",""3740""
","
","
","""event"",""trial"",""time""
""fullscreenenter"",""1"",""3740""
","
","","","120.70000000298023","","","23","9102","4246","&#9784;","elianto","#FFFFF080"," "," ","1","&#10004","[471.20000000298023,971.2999999970198]","2","0","0","","","","","","","",""
"pit-trial","10","116018","0.0-2.0-4.2-0.2","battery-v0.2","","""event"",""trial"",""time""
""fullscreenenter"",""1"",""3740""
","
","
","""event"",""trial"",""time""
""fullscreenenter"",""1"",""3740""
","
","","","506.5","","","23","9102","4246","&#9784;","elianto","#FFFFF080"," "," ","1","&#10004","[1363.9000000059605]","1","0","0","","","","","","","",""
"pit-trial","11","119418","0.0-2.0-4.3-0.3","battery-v0.2","","""event"",""trial"",""time""
""fullscreenenter"",""1"",""3740""
","
","
","""event"",""trial"",""time""
""fullscreenenter"",""1"",""3740""
","
","","","529","","","23","9102","4246","&#9784;","elianto","#FFFFF080"," "," ","1","&#10004","[1389,1664.4000000059605,1878.9000000059605]","3","0","0","","","","","","","",""
"pit-trial","12","122444","0.0-2.0-4.4-0.4","battery-v0.2","","""event"",""trial"",""time""
""fullscreenenter"",""1"",""3740""
","
","
","""event"",""trial"",""time""
""fullscreenenter"",""1"",""3740""
","
","","","157.59999999403954","","","23","9102","4246","&#9784;","elianto","#FFFFF080"," "," ","1","&#10004","[681,1011.2000000029802,1283.7000000029802]","3","0","0","","","","","","","",""
"pit-instructions","13","142522","0.0-2.0-5.0","battery-v0.2","","""event"",""trial"",""time""
""fullscreenenter"",""1"",""3740""
","
","
","""event"",""trial"",""time""
""fullscreenenter"",""1"",""3740""
","
","","[{""page_index"":0,""viewing_time"":4633.70000000298},{""page_index"":1,""viewing_time"":5830.5},{""page_index"":2,""viewing_time"":4028.5},{""page_index"":3,""viewing_time"":5581.4000000059605}]","20075","","","","","","","","","","","","","","","","","","","","","","","",""
"pit-trial","14","147398","0.0-2.0-6.0-0.0","battery-v0.2","","""event"",""trial"",""time""
""fullscreenenter"",""1"",""3740""
","
","
","""event"",""trial"",""time""
""fullscreenenter"",""1"",""3740""
","
","","","-1","","","23","9102","4246","&#9854;","elianto","#FFFFF080","-1","-1","1","&#10004","[]","0","0","1","","","","","","","",""
"pit-trial","15","152275","0.0-2.0-6.1-0.1","battery-v0.2","","""event"",""trial"",""time""
""fullscreenenter"",""1"",""3740""
","
","
","""event"",""trial"",""time""
""fullscreenenter"",""1"",""3740""
","
","","","-1","","","23","9102","4246","&#9854;","elianto","#FFFFF080","-1","-1","1","&#10004","[]","0","0","1","","","","","","","",""
"pit-trial","16","157153","0.0-2.0-6.2-0.2","battery-v0.2","","""event"",""trial"",""time""
""fullscreenenter"",""1"",""3740""
","
","
","""event"",""trial"",""time""
""fullscreenenter"",""1"",""3740""
","
","","","-1","","","23","9102","4246","&#9854;","elianto","#FFFFF080","-1","-1","1","&#10004","[]","0","0","1","","","","","","","",""
"pit-trial","17","162031","0.0-2.0-6.3-0.3","battery-v0.2","","""event"",""trial"",""time""
""fullscreenenter"",""1"",""3740""
","
","
","""event"",""trial"",""time""
""fullscreenenter"",""1"",""3740""
","
","","","-1","","","23","9102","4246","&#9854;","elianto","#FFFFF080","-1","-1","1","&#10004","[]","0","0","1","","","","","","","",""
"pit-trial","18","166897","0.0-2.0-6.4-0.4","battery-v0.2","","""event"",""trial"",""time""
""fullscreenenter"",""1"",""3740""
","
","
","""event"",""trial"",""time""
""fullscreenenter"",""1"",""3740""
","
","","","-1","","","23","9102","4246","&#9854;","elianto","#FFFFF080","-1","-1","1","&#10004","[]","0","0","1","","","","","","","",""
"pit-instructions","19","283473","0.0-2.0-7.0","battery-v0.2","","""event"",""trial"",""time""
""fullscreenenter"",""1"",""3740""
","
","
","""event"",""trial"",""time""
""fullscreenenter"",""1"",""3740""
","
","","[{""page_index"":0,""viewing_time"":5917.29999999702},{""page_index"":1,""viewing_time"":6708.20000000298},{""page_index"":2,""viewing_time"":6757.9000000059605},{""page_index"":3,""viewing_time"":5246.0999999940395},{""page_index"":4,""viewing_time"":5458.20000000298},{""page_index"":5,""viewing_time"":5819.5999999940395},{""page_index"":6,""viewing_time"":4030.2000000029802},{""page_index"":7,""viewing_time"":7324.70000000298},{""page_index"":8,""viewing_time"":6427.70000000298},{""page_index"":9,""viewing_time"":8993.29999999702},{""page_index"":10,""viewing_time"":7269.0999999940395},{""page_index"":11,""viewing_time"":4311.5},{""page_index"":12,""viewing_time"":7192.70000000298},{""page_index"":13,""viewing_time"":6552.100000008941},{""page_index"":14,""viewing_time"":6283},{""page_index"":15,""viewing_time"":6377.5},{""page_index"":16,""viewing_time"":6367.5},{""page_index"":17,""viewing_time"":9530.699999988079}]","116567.70000000298","","","","","","","","","","","","","","","","","","","","","","","",""
"pit-trial","20","287224","0.0-2.0-8.0-0.0","battery-v0.2","","""event"",""trial"",""time""
""fullscreenenter"",""1"",""3740""
","
","
","""event"",""trial"",""time""
""fullscreenenter"",""1"",""3740""
","
","","","880.7999999970198","","","23","9102","4246","&#9776;","elianto","#3366ff99"," "," ","1","+10","[1736.0999999940395]","1","0","1","","","","","","","",""
"pit-trial","21","290699","0.0-2.0-8.0-1.0","battery-v0.2","","""event"",""trial"",""time""
""fullscreenenter"",""1"",""3740""
","
","
","""event"",""trial"",""time""
""fullscreenenter"",""1"",""3740""
","
","","","608.5999999940395","","","23","9102","4246","&#9776;","elianto","#3366ff99"," "," ","1","+10","[1462.5,3095.5999999940395]","2","0","1","","","","","","","",""
"pit-trial","22","295516","0.0-2.0-8.0-2.0","battery-v0.2","","""event"",""trial"",""time""
""fullscreenenter"",""1"",""3740""
","
","
","""event"",""trial"",""time""
""fullscreenenter"",""1"",""3740""
","
","","","1956.800000011921","","","23","9102","4246","&#9776;","elianto","#3366ff99"," "," ","1","+10","[2811,4811.4000000059605]","2","0","1","","","","","","","",""
"pit-trial","23","298652","0.0-2.0-8.0-3.0","battery-v0.2","","""event"",""trial"",""time""
""fullscreenenter"",""1"",""3740""
","
","
","""event"",""trial"",""time""
""fullscreenenter"",""1"",""3740""
","
","","","268.29999999701977","","","23","9102","4246","&#9776;","elianto","#3366ff99"," "," ","1","0","[272,471.59999999403954,713.5,1127.2999999970198,2479.2999999970198]","5","0","1","","","","","","","",""
"pit-trial","24","301628","0.0-2.0-8.0-4.0","battery-v0.2","","""event"",""trial"",""time""
""fullscreenenter"",""1"",""3740""
","
","
","""event"",""trial"",""time""
""fullscreenenter"",""1"",""3740""
","
","","","104.29999999701977","","","23","9102","4246","&#9776;","elianto","#3366ff99"," "," ","1","+10","[959.0999999940395,1200.7000000029802]","2","0","1","","","","","","","",""
"pit-trial","25","304773","0.0-2.0-8.1-0.1","battery-v0.2","","""event"",""trial"",""time""
""fullscreenenter"",""1"",""3740""
","
","
","""event"",""trial"",""time""
""fullscreenenter"",""1"",""3740""
","
","","","274.5","","","23","9102","4246","&#9776;","elianto","#3366ff99"," "," ","1","+10","[1133.5,1397.0999999940395]","2","0","1","","","","","","","",""
"pit-trial","26","308475","0.0-2.0-8.1-1.1","battery-v0.2","","""event"",""trial"",""time""
""fullscreenenter"",""1"",""3740""
","
","
","""event"",""trial"",""time""
""fullscreenenter"",""1"",""3740""
","
","","","836.6000000089407","","","23","9102","4246","&#9776;","elianto","#3366ff99"," "," ","1","+10","[1688.800000011921]","1","0","1","","","","","","","",""
"pit-trial","27","311686","0.0-2.0-8.1-2.1","battery-v0.2","","""event"",""trial"",""time""
""fullscreenenter"",""1"",""3740""
","
","
","""event"",""trial"",""time""
""fullscreenenter"",""1"",""3740""
","
","","","341.3999999910593","","","23","9102","4246","&#9776;","elianto","#3366ff99"," "," ","1","+10","[1194.2999999970198,1993.2999999970198]","2","0","1","","","","","","","",""
"pit-trial","28","315176","0.0-2.0-8.1-3.1","battery-v0.2","","""event"",""trial"",""time""
""fullscreenenter"",""1"",""3740""
","
","
","""event"",""trial"",""time""
""fullscreenenter"",""1"",""3740""
","
","","","633.2999999970198","","","23","9102","4246","&#9776;","elianto","#3366ff99"," "," ","1","0","[1484.300000011921]","1","0","1","","","","","","","",""
"pit-trial","29","318050","0.0-2.0-8.1-4.1","battery-v0.2","","""event"",""trial"",""time""
""fullscreenenter"",""1"",""3740""
","
","
","""event"",""trial"",""time""
""fullscreenenter"",""1"",""3740""
","
","","","16.700000002980232","","","23","9102","4246","&#9776;","elianto","#3366ff99"," "," ","1","+10","[543,867.0999999940395,1183.4000000059605]","3","0","1","","","","","","","",""
"pit-trial","30","321204","0.0-2.0-8.2-0.2","battery-v0.2","","""event"",""trial"",""time""
""fullscreenenter"",""1"",""3740""
","
","
","""event"",""trial"",""time""
""fullscreenenter"",""1"",""3740""
","
","","","289.90000000596046","","","23","9102","4246","&#9776;","elianto","#3366ff99"," "," ","1","+10","[1140.4000000059605,1357.300000011921,1492.2000000029802,1665.5,1850.4000000059605,2483.9000000059605,2734.1000000089407]","7","0","1","","","","","","","",""
"pit-trial","31","326012","0.0-2.0-8.2-1.2","battery-v0.2","","""event"",""trial"",""time""
""fullscreenenter"",""1"",""3740""
","
","
","""event"",""trial"",""time""
""fullscreenenter"",""1"",""3740""
","
","","","1943.6000000089407","","","23","9102","4246","&#9776;","elianto","#3366ff99"," "," ","1","+10","[2794.7000000029802,2987.2000000029802,3168.9000000059605,3359]","4","0","1","","","","","","","",""
"pit-trial","32","329067","0.0-2.0-8.2-2.2","battery-v0.2","","""event"",""trial"",""time""
""fullscreenenter"",""1"",""3740""
","
","
","""event"",""trial"",""time""
""fullscreenenter"",""1"",""3740""
","
","","","195.3999999910593","","","23","9102","4246","&#9776;","elianto","#3366ff99"," "," ","1","+10","[1047.7999999970198,1472.199999988079,1854.3999999910593,2410.2999999970198,3046.199999988079]","5","0","1","","","","","","","",""
"pit-trial","33","332134","0.0-2.0-8.2-3.2","battery-v0.2","","""event"",""trial"",""time""
""fullscreenenter"",""1"",""3740""
","
","
","""event"",""trial"",""time""
""fullscreenenter"",""1"",""3740""
","
","","","204.29999999701977","","","23","9102","4246","&#9776;","elianto","#3366ff99"," "," ","1","0","[1055.7999999970198,1334.5999999940395]","2","0","1","","","","","","","",""
"pit-trial","34","335155","0.0-2.0-8.2-4.2","battery-v0.2","","""event"",""trial"",""time""
""fullscreenenter"",""1"",""3740""
","
","
","""event"",""trial"",""time""
""fullscreenenter"",""1"",""3740""
","
","","","165.09999999403954","","","23","9102","4246","&#9776;","elianto","#3366ff99"," "," ","1","+10","[817.6999999880791,1016]","2","0","1","","","","","","","",""
"call-function","35","335160","0.0-2.0-9.0","battery-v0.2","","""event"",""trial"",""time""
""fullscreenenter"",""1"",""3740""
","
","
","""event"",""trial"",""time""
""fullscreenenter"",""1"",""3740""
","
","","","","","","","","","","","","","","","","","","","","","","","","","","",""
"pit-instructions","36","377174","0.0-2.0-10.0","battery-v0.2","","""event"",""trial"",""time""
""fullscreenenter"",""1"",""3740""
","
","
","""event"",""trial"",""time""
""fullscreenenter"",""1"",""3740""
","
","","[{""page_index"":0,""viewing_time"":7761},{""page_index"":1,""viewing_time"":6925.20000000298},{""page_index"":2,""viewing_time"":11464.79999999702},{""page_index"":3,""viewing_time"":8790},{""page_index"":4,""viewing_time"":7071.29999999702}]","42012.79999999702","","","","","","","","","","","","","","","","","","","","","","","",""
"pit-trial","37","382047","0.0-2.0-11.0-0.0","battery-v0.2","","""event"",""trial"",""time""
""fullscreenenter"",""1"",""3740""
","
","
","""event"",""trial"",""time""
""fullscreenenter"",""1"",""3740""
","
","","","-1","","","23","9102","4246","&#9761;","elianto","#3366ff99","-1","-1","1","+10","[2903.9000000059605,3122.7000000029802,3503.0999999940395,4105.0999999940395,4682.70000000298]","5","0","2","","","","","","","",""
"pit-trial","38","385106","0.0-2.0-11.0-1.0","battery-v0.2","","""event"",""trial"",""time""
""fullscreenenter"",""1"",""3740""
","
","
","""event"",""trial"",""time""
""fullscreenenter"",""1"",""3740""
","
","","","197.70000000298023","","","23","9102","4246","&#9761;","elianto","#3366ff99","-1"," ","0","0","[435.40000000596046,588.8000000119209,1051.300000011921,1690.9000000059605,1995.2000000029802]","5","0","2","","","","","","","",""
"pit-trial","39","388258","0.0-2.0-11.0-2.0","battery-v0.2","","""event"",""trial"",""time""
""fullscreenenter"",""1"",""3740""
","
","
","""event"",""trial"",""time""
""fullscreenenter"",""1"",""3740""
","
","","","280","","","23","9102","4246","&#9761;","elianto","#3366ff99","-1"," ","0","0","[1137.1000000089407,1326.6000000089407,1589.7999999970198,1876.2000000029802,2149.4000000059605,2444.2999999970198,2765.4000000059605,3026.6000000089407]","8","0","2","","","","","","","",""
"pit-trial","40","391389","0.0-2.0-11.0-3.0","battery-v0.2","","""event"",""trial"",""time""
""fullscreenenter"",""1"",""3740""
","
","
","""event"",""trial"",""time""
""fullscreenenter"",""1"",""3740""
","
","","","264.70000000298023","","","23","9102","4246","&#9761;","elianto","#3366ff99","-1"," ","0","+10","[212.6000000089407,772.7999999970198,1121.7000000029802,1385.2999999970198,1722.5,2329.9000000059605,2971.1000000089407]","7","0","2","","","","","","","",""
"pit-trial","41","394304","0.0-2.0-11.0-4.0","battery-v0.2","","""event"",""trial"",""time""
""fullscreenenter"",""1"",""3740""
","
","
","""event"",""trial"",""time""
""fullscreenenter"",""1"",""3740""
","
","","","54.599999994039536","","","23","9102","4246","&#9761;","elianto","#3366ff99","-1"," ","0","0","[110.70000000298023,375.59999999403954,569.2000000029802,749.4000000059605,909.0999999940395,1171.2000000029802,1297.7999999970198,1577.9000000059605,2265.5,2584.0999999940395]","10","0","2","","","","","","","",""
"pit-trial","42","397361","0.0-2.0-11.1-0.1","battery-v0.2","","""event"",""trial"",""time""
""fullscreenenter"",""1"",""3740""
","
","
","""event"",""trial"",""time""
""fullscreenenter"",""1"",""3740""
","
","","","188.90000000596046","","","23","9102","4246","&#9761;","elianto","#3366ff99","-1"," ","0","0","[425.59999999403954,616.7999999970198,846.6999999880791,1041.199999988079,2252.2999999970198,2945]","6","0","2","","","","","","","",""
"pit-trial","43","400507","0.0-2.0-11.1-1.1","battery-v0.2","","""event"",""trial"",""time""
""fullscreenenter"",""1"",""3740""
","
","
","""event"",""trial"",""time""
""fullscreenenter"",""1"",""3740""
","
","","","276.6000000089407","","","23","9102","4246","&#9761;","elianto","#3366ff99","-1"," ","0","0","[74.3999999910593,840.2999999970198,1127.8999999910593,1652.3999999910593,3086.8999999910593]","5","0","2","","","","","","","",""
"pit-trial","44","403408","0.0-2.0-11.1-2.1","battery-v0.2","","""event"",""trial"",""time""
""fullscreenenter"",""1"",""3740""
","
","
","""event"",""trial"",""time""
""fullscreenenter"",""1"",""3740""
","
","","","40.599999994039536","","","23","9102","4246","&#9761;","elianto","#3366ff99","-1"," ","0","0","[128.3999999910593,557.2999999970198,724.2000000029802,896.2000000029802,1194.3999999910593,1869.5999999940395]","6","0","2","","","","","","","",""
"pit-trial","45","407088","0.0-2.0-11.1-3.1","battery-v0.2","","""event"",""trial"",""time""
""fullscreenenter"",""1"",""3740""
","
","
","""event"",""trial"",""time""
""fullscreenenter"",""1"",""3740""
","
","","","820.9000000059605","","","23","9102","4246","&#9761;","elianto","#3366ff99","-1"," ","0","+10","[1671.7000000029802,1883.5,2078.2999999970198,2287.4000000059605,2461.7999999970198,2616.7999999970198,2910.6000000089407,3191.1000000089407,3633]","9","0","2","","","","","","","",""
"pit-trial","46","410556","0.0-2.0-11.1-4.1","battery-v0.2","","""event"",""trial"",""time""
""fullscreenenter"",""1"",""3740""
","
","
","""event"",""trial"",""time""
""fullscreenenter"",""1"",""3740""
","
","","","601.4000000059605","","","23","9102","4246","&#9761;","elianto","#3366ff99","-1"," ","0","0","[606.8999999910593,1456.2000000029802]","2","0","2","","","","","","","",""
"pit-trial","47","413467","0.0-2.0-11.2-0.2","battery-v0.2","","""event"",""trial"",""time""
""fullscreenenter"",""1"",""3740""
","
","
","""event"",""trial"",""time""
""fullscreenenter"",""1"",""3740""
","
","","","51.80000001192093","","","23","9102","4246","&#9761;","elianto","#3366ff99","-1"," ","0","0","[522.2000000029802,700.7999999970198,904.0999999940395,1089.0999999940395,1272.0999999940395,1541.8999999910593,1793.7999999970198,1989.5,2178.8999999910593,2348.5999999940395,2596.2999999970198]","11","0","2","","","","","","","",""
"pit-trial","48","416487","0.0-2.0-11.2-1.2","battery-v0.2","","""event"",""trial"",""time""
""fullscreenenter"",""1"",""3740""
","
","
","""event"",""trial"",""time""
""fullscreenenter"",""1"",""3740""
","
","","","158.8999999910593","","","23","9102","4246","&#9761;","elianto","#3366ff99","-1"," ","0","0","[83.70000000298023,293,1009.6000000089407,1181.4000000059605,1367,2087.800000011921,2279.300000011921,2673.1000000089407,2868.2000000029802]","9","0","2","","","","","","","",""
"pit-trial","49","421359","0.0-2.0-11.2-2.2","battery-v0.2","","""event"",""trial"",""time""
""fullscreenenter"",""1"",""3740""
","
","
","""event"",""trial"",""time""
""fullscreenenter"",""1"",""3740""
","
","","","-1","","","23","9102","4246","&#9761;","elianto","#3366ff99","-1","-1","1","+10","[69.1000000089407,220.79999999701977,726.2999999970198,4130.9000000059605,4423.9000000059605]","5","0","2","","","","","","","",""
"pit-trial","50","424516","0.0-2.0-11.2-3.2","battery-v0.2","","""event"",""trial"",""time""
""fullscreenenter"",""1"",""3740""
","
","
","""event"",""trial"",""time""
""fullscreenenter"",""1"",""3740""
","
","","","302.59999999403954","","","23","9102","4246","&#9761;","elianto","#3366ff99","-1"," ","0","+10","[381.8999999910593,847.3999999910593,1152.5999999940395,1365.7999999970198,1973.3999999910593,2134.7999999970198,2323.7999999970198,2603.8999999910593,2853.7999999970198,3153.5]","10","0","2","","","","","","","",""
"pit-trial","51","427671","0.0-2.0-11.2-4.2","battery-v0.2","","""event"",""trial"",""time""
""fullscreenenter"",""1"",""3740""
","
","
","""event"",""trial"",""time""
""fullscreenenter"",""1"",""3740""
","
","","","288.3999999910593","","","23","9102","4246","&#9761;","elianto","#3366ff99","-1"," ","0","0","[371.8999999910593,579.1999999880791,827.3999999910593,1142.3999999910593,1301.5999999940395,1608,2100.199999988079,2347.5999999940395,2514.2999999970198,2883.5999999940395]","10","0","2","","","","","","","",""
"pit-trial","52","430714","0.0-2.0-11.3-0.3","battery-v0.2","","""event"",""trial"",""time""
""fullscreenenter"",""1"",""3740""
","
","
","""event"",""trial"",""time""
""fullscreenenter"",""1"",""3740""
","
","","","172.20000000298023","","","23","9102","4246","&#9761;","elianto","#3366ff99","-1"," ","0","0","[36,309.90000000596046,819,1029.2000000029802,1355.7000000029802,1577.2999999970198,2006.4000000059605,2180.6000000089407,2685.4000000059605]","9","0","2","","","","","","","",""
"pit-trial","53","433651","0.0-2.0-11.3-1.3","battery-v0.2","","""event"",""trial"",""time""
""fullscreenenter"",""1"",""3740""
","
","
","""event"",""trial"",""time""
""fullscreenenter"",""1"",""3740""
","
","","","74","","","23","9102","4246","&#9761;","elianto","#3366ff99","-1"," ","0","0","[46.70000000298023,656.4000000059605,926.7000000029802,1782.2000000029802,2924.4000000059605]","5","0","2","","","","","","","",""
"pit-trial","54","437144","0.0-2.0-11.3-2.3","battery-v0.2","","""event"",""trial"",""time""
""fullscreenenter"",""1"",""3740""
","
","
","""event"",""trial"",""time""
""fullscreenenter"",""1"",""3740""
","
","","","633.7000000029802","","","23","9102","4246","&#9761;","elianto","#3366ff99","-1"," ","0","0","[165.90000000596046,1487.0999999940395,1911.7000000029802,2492.9000000059605]","4","0","2","","","","","","","",""
"pit-trial","55","440729","0.0-2.0-11.3-3.3","battery-v0.2","","""event"",""trial"",""time""
""fullscreenenter"",""1"",""3740""
","
","
","""event"",""trial"",""time""
""fullscreenenter"",""1"",""3740""
","
","","","721.0999999940395","","","23","9102","4246","&#9761;","elianto","#3366ff99","-1"," ","0","+10","[157.79999999701977,1571.7999999970198,1788,2808.2999999970198]","4","0","2","","","","","","","",""
"pit-trial","56","443705","0.0-2.0-11.3-4.3","battery-v0.2","","""event"",""trial"",""time""
""fullscreenenter"",""1"",""3740""
","
","
","""event"",""trial"",""time""
""fullscreenenter"",""1"",""3740""
","
","","","107.80000001192093","","","23","9102","4246","&#9761;","elianto","#3366ff99","-1"," ","0","0","[461.29999999701977,739.2999999970198,959,1137.0999999940395,1544.0999999940395,2140.5]","6","0","2","","","","","","","",""
"call-function","57","443710","0.0-2.0-12.0","battery-v0.2","","""event"",""trial"",""time""
""fullscreenenter"",""1"",""3740""
","
","
","""event"",""trial"",""time""
""fullscreenenter"",""1"",""3740""
","
","","","","","","","","","","","","","","","","","","","","","","","","","","",""
"pit-instructions","58","475550","0.0-2.0-13.0","battery-v0.2","","""event"",""trial"",""time""
""fullscreenenter"",""1"",""3740""
","
","
","""event"",""trial"",""time""
""fullscreenenter"",""1"",""3740""
","
","","[{""page_index"":0,""viewing_time"":6617.100000008941},{""page_index"":1,""viewing_time"":7466.399999991059},{""page_index"":2,""viewing_time"":3268.5},{""page_index"":3,""viewing_time"":10375.29999999702},{""page_index"":4,""viewing_time"":4110.20000000298}]","31838","","","","","","","","","","","","","","","","","","","","","","","",""
"pit-trial","59","480182","0.0-2.0-14.0-0.0","battery-v0.2","","""event"",""trial"",""time""
""fullscreenenter"",""1"",""3740""
","
","
","""event"",""trial"",""time""
""fullscreenenter"",""1"",""3740""
","
","","","1769.2999999970198","","","23","9102","4246","&#9826;","elianto","#f73b6a7A","-1"," ","0","-10","[2621.199999988079]","1","0","3","","","","","","","",""
"pit-trial","60","485050","0.0-2.0-14.0-1.0","battery-v0.2","","""event"",""trial"",""time""
""fullscreenenter"",""1"",""3740""
","
","
","""event"",""trial"",""time""
""fullscreenenter"",""1"",""3740""
","
","","","-1","","","23","9102","4246","&#9826;","elianto","#f73b6a7A","-1","-1","1","0","[]","0","0","3","","","","","","","",""
"pit-trial","61","489920","0.0-2.0-14.0-2.0","battery-v0.2","","""event"",""trial"",""time""
""fullscreenenter"",""1"",""3740""
","
","
","""event"",""trial"",""time""
""fullscreenenter"",""1"",""3740""
","
","","","-1","","","23","9102","4246","&#9826;","elianto","#f73b6a7A","-1","-1","1","0","[]","0","0","3","","","","","","","",""
"pit-trial","62","494790","0.0-2.0-14.0-3.0","battery-v0.2","","""event"",""trial"",""time""
""fullscreenenter"",""1"",""3740""
","
","
","""event"",""trial"",""time""
""fullscreenenter"",""1"",""3740""
","
","","","-1","","","23","9102","4246","&#9826;","elianto","#f73b6a7A","-1","-1","1","-10","[]","0","0","3","","","","","","","",""
"pit-trial","63","498541","0.0-2.0-14.0-4.0","battery-v0.2","","""event"",""trial"",""time""
""fullscreenenter"",""1"",""3740""
","
","
","""event"",""trial"",""time""
""fullscreenenter"",""1"",""3740""
","
","","","884.6000000089407","","","23","9102","4246","&#9826;","elianto","#f73b6a7A","-1"," ","0","-10","[1736.7000000029802]","1","0","3","","","","","","","",""
"pit-trial","64","503418","0.0-2.0-14.1-0.1","battery-v0.2","","""event"",""trial"",""time""
""fullscreenenter"",""1"",""3740""
","
","
","""event"",""trial"",""time""
""fullscreenenter"",""1"",""3740""
","
","","","-1","","","23","9102","4246","&#9826;","elianto","#f73b6a7A","-1","-1","1","0","[]","0","0","3","","","","","","","",""
"pit-trial","65","508286","0.0-2.0-14.1-1.1","battery-v0.2","","""event"",""trial"",""time""
""fullscreenenter"",""1"",""3740""
","
","
","""event"",""trial"",""time""
""fullscreenenter"",""1"",""3740""
","
","","","-1","","","23","9102","4246","&#9826;","elianto","#f73b6a7A","-1","-1","1","0","[]","0","0","3","","","","","","","",""
"pit-trial","66","513143","0.0-2.0-14.1-2.1","battery-v0.2","","""event"",""trial"",""time""
""fullscreenenter"",""1"",""3740""
","
","
","""event"",""trial"",""time""
""fullscreenenter"",""1"",""3740""
","
","","","-1","","","23","9102","4246","&#9826;","elianto","#f73b6a7A","-1","-1","1","0","[]","0","0","3","","","","","","","",""
"pit-trial","67","518020","0.0-2.0-14.1-3.1","battery-v0.2","","""event"",""trial"",""time""
""fullscreenenter"",""1"",""3740""
","
","
","""event"",""trial"",""time""
""fullscreenenter"",""1"",""3740""
","
","","","-1","","","23","9102","4246","&#9826;","elianto","#f73b6a7A","-1","-1","1","-10","[]","0","0","3","","","","","","","",""
"pit-trial","68","522881","0.0-2.0-14.1-4.1","battery-v0.2","","""event"",""trial"",""time""
""fullscreenenter"",""1"",""3740""
","
","
","""event"",""trial"",""time""
""fullscreenenter"",""1"",""3740""
","
","","","-1","","","23","9102","4246","&#9826;","elianto","#f73b6a7A","-1","-1","1","0","[]","0","0","3","","","","","","","",""
"pit-trial","69","527751","0.0-2.0-14.2-0.2","battery-v0.2","","""event"",""trial"",""time""
""fullscreenenter"",""1"",""3740""
","
","
","""event"",""trial"",""time""
""fullscreenenter"",""1"",""3740""
","
","","","-1","","","23","9102","4246","&#9826;","elianto","#f73b6a7A","-1","-1","1","0","[]","0","0","3","","","","","","","",""
"pit-trial","70","532615","0.0-2.0-14.2-1.2","battery-v0.2","","""event"",""trial"",""time""
""fullscreenenter"",""1"",""3740""
","
","
","""event"",""trial"",""time""
""fullscreenenter"",""1"",""3740""
","
","","","-1","","","23","9102","4246","&#9826;","elianto","#f73b6a7A","-1","-1","1","0","[]","0","0","3","","","","","","","",""
"pit-trial","71","537490","0.0-2.0-14.2-2.2","battery-v0.2","","""event"",""trial"",""time""
""fullscreenenter"",""1"",""3740""
","
","
","""event"",""trial"",""time""
""fullscreenenter"",""1"",""3740""
","
","","","-1","","","23","9102","4246","&#9826;","elianto","#f73b6a7A","-1","-1","1","0","[]","0","0","3","","","","","","","",""
"pit-trial","72","542346","0.0-2.0-14.2-3.2","battery-v0.2","","""event"",""trial"",""time""
""fullscreenenter"",""1"",""3740""
","
","
","""event"",""trial"",""time""
""fullscreenenter"",""1"",""3740""
","
","","","-1","","","23","9102","4246","&#9826;","elianto","#f73b6a7A","-1","-1","1","-10","[]","0","0","3","","","","","","","",""
"pit-trial","73","547216","0.0-2.0-14.2-4.2","battery-v0.2","","""event"",""trial"",""time""
""fullscreenenter"",""1"",""3740""
","
","
","""event"",""trial"",""time""
""fullscreenenter"",""1"",""3740""
","
","","","-1","","","23","9102","4246","&#9826;","elianto","#f73b6a7A","-1","-1","1","0","[]","0","0","3","","","","","","","",""
"pit-trial","74","552097","0.0-2.0-14.3-0.3","battery-v0.2","","""event"",""trial"",""time""
""fullscreenenter"",""1"",""3740""
","
","
","""event"",""trial"",""time""
""fullscreenenter"",""1"",""3740""
","
","","","-1","","","23","9102","4246","&#9826;","elianto","#f73b6a7A","-1","-1","1","0","[]","0","0","3","","","","","","","",""
"pit-trial","75","556968","0.0-2.0-14.3-1.3","battery-v0.2","","""event"",""trial"",""time""
""fullscreenenter"",""1"",""3740""
","
","
","""event"",""trial"",""time""
""fullscreenenter"",""1"",""3740""
","
","","","-1","","","23","9102","4246","&#9826;","elianto","#f73b6a7A","-1","-1","1","0","[]","0","0","3","","","","","","","",""
"pit-trial","76","561838","0.0-2.0-14.3-2.3","battery-v0.2","","""event"",""trial"",""time""
""fullscreenenter"",""1"",""3740""
","
","
","""event"",""trial"",""time""
""fullscreenenter"",""1"",""3740""
","
","","","-1","","","23","9102","4246","&#9826;","elianto","#f73b6a7A","-1","-1","1","0","[]","0","0","3","","","","","","","",""
"pit-trial","77","566702","0.0-2.0-14.3-3.3","battery-v0.2","","""event"",""trial"",""time""
""fullscreenenter"",""1"",""3740""
","
","
","""event"",""trial"",""time""
""fullscreenenter"",""1"",""3740""
","
","","","-1","","","23","9102","4246","&#9826;","elianto","#f73b6a7A","-1","-1","1","-10","[]","0","0","3","","","","","","","",""
"pit-trial","78","571568","0.0-2.0-14.3-4.3","battery-v0.2","","""event"",""trial"",""time""
""fullscreenenter"",""1"",""3740""
","
","
","""event"",""trial"",""time""
""fullscreenenter"",""1"",""3740""
","
","","","-1","","","23","9102","4246","&#9826;","elianto","#f73b6a7A","-1","-1","1","0","[]","0","0","3","","","","","","","",""
"call-function","79","571572","0.0-2.0-15.0","battery-v0.2","","""event"",""trial"",""time""
""fullscreenenter"",""1"",""3740""
","
","
","""event"",""trial"",""time""
""fullscreenenter"",""1"",""3740""
","
","","","","","","","","","","","","","","","","","","","","","","","","","","",""
"pit-instructions","80","605849","0.0-2.0-16.0","battery-v0.2","","""event"",""trial"",""time""
""fullscreenenter"",""1"",""3740""
","
","
","""event"",""trial"",""time""
""fullscreenenter"",""1"",""3740""
","
","","[{""page_index"":0,""viewing_time"":13838.39999999106},{""page_index"":1,""viewing_time"":10571.800000011921},{""page_index"":2,""viewing_time"":4354.199999988079},{""page_index"":3,""viewing_time"":5510}]","34275.09999999404","","","","","","","","","","","","","","","","","","","","","","","",""
"pit-trial","81","609052","0.0-2.0-17.0-0.0","battery-v0.2","","""event"",""trial"",""time""
""fullscreenenter"",""1"",""3740""
","
","
","""event"",""trial"",""time""
""fullscreenenter"",""1"",""3740""
","
","","","341.79999999701977","","","23","9102","4246","&#9789;","elianto","#f73b6a7A"," "," ","1","0","[1192.7999999970198]","1","0","4","","","","","","","",""
"pit-trial","82","612258","0.0-2.0-17.0-1.0","battery-v0.2","","""event"",""trial"",""time""
""fullscreenenter"",""1"",""3740""
","
","
","""event"",""trial"",""time""
""fullscreenenter"",""1"",""3740""
","
","","","329.40000000596046","","","23","9102","4246","&#9789;","elianto","#f73b6a7A"," "," ","1","0","[240.79999999701977,424.1000000089407,625.4000000059605,1184.7000000029802]","4","0","4","","","","","","","",""
"pit-trial","83","615601","0.0-2.0-17.0-2.0","battery-v0.2","","""event"",""trial"",""time""
""fullscreenenter"",""1"",""3740""
","
","
","""event"",""trial"",""time""
""fullscreenenter"",""1"",""3740""
","
","","","480.20000000298023","","","23","9102","4246","&#9789;","elianto","#f73b6a7A"," "," ","1","0","[1335.2000000029802,2460.2000000029802]","2","0","4","","","","","","","",""
"pit-trial","84","619246","0.0-2.0-17.0-3.0","battery-v0.2","","""event"",""trial"",""time""
""fullscreenenter"",""1"",""3740""
","
","
","""event"",""trial"",""time""
""fullscreenenter"",""1"",""3740""
","
","","","776","","","23","9102","4246","&#9789;","elianto","#f73b6a7A"," "," ","1","-10","[448,755.9000000059605,1627.2000000029802,1849.4000000059605]","4","0","4","","","","","","","",""
"pit-trial","85","622645","0.0-2.0-17.0-4.0","battery-v0.2","","""event"",""trial"",""time""
""fullscreenenter"",""1"",""3740""
","
","
","""event"",""trial"",""time""
""fullscreenenter"",""1"",""3740""
","
","","","531","","","23","9102","4246","&#9789;","elianto","#f73b6a7A"," "," ","1","0","[1383.800000011921]","1","0","4","","","","","","","",""
"pit-trial","86","625926","0.0-2.0-17.1-0.1","battery-v0.2","","""event"",""trial"",""time""
""fullscreenenter"",""1"",""3740""
","
","
","""event"",""trial"",""time""
""fullscreenenter"",""1"",""3740""
","
","","","420.59999999403954","","","23","9102","4246","&#9789;","elianto","#f73b6a7A"," "," ","1","0","[1271.2999999970198]","1","0","4","","","","","","","",""
"pit-trial","87","630801","0.0-2.0-17.1-1.1","battery-v0.2","","""event"",""trial"",""time""
""fullscreenenter"",""1"",""3740""
","
","
","""event"",""trial"",""time""
""fullscreenenter"",""1"",""3740""
","
","","","-1","","","23","9102","4246","&#9789;","elianto","#f73b6a7A"," ","-1","0","-10","[]","0","0","4","","","","","","","",""
"pit-trial","88","633803","0.0-2.0-17.1-2.1","battery-v0.2","","""event"",""trial"",""time""
""fullscreenenter"",""1"",""3740""
","
","
","""event"",""trial"",""time""
""fullscreenenter"",""1"",""3740""
","
","","","136","","","23","9102","4246","&#9789;","elianto","#f73b6a7A"," "," ","1","0","[987.2999999970198,1372.8999999910593]","2","0","4","","","","","","","",""
"pit-trial","89","637219","0.0-2.0-17.1-3.1","battery-v0.2","","""event"",""trial"",""time""
""fullscreenenter"",""1"",""3740""
","
","
","""event"",""trial"",""time""
""fullscreenenter"",""1"",""3740""
","
","","","554.0999999940395","","","23","9102","4246","&#9789;","elianto","#f73b6a7A"," "," ","1","-10","[1411.1000000089407]","1","0","4","","","","","","","",""
"pit-trial","90","640563","0.0-2.0-17.1-4.1","battery-v0.2","","""event"",""trial"",""time""
""fullscreenenter"",""1"",""3740""
","
","
","""event"",""trial"",""time""
""fullscreenenter"",""1"",""3740""
","
","","","478.79999999701977","","","23","9102","4246","&#9789;","elianto","#f73b6a7A"," "," ","1","0","[1335.2999999970198,1599.5999999940395]","2","0","4","","","","","","","",""
"pit-trial","91","643694","0.0-2.0-17.2-0.2","battery-v0.2","","""event"",""trial"",""time""
""fullscreenenter"",""1"",""3740""
","
","
","""event"",""trial"",""time""
""fullscreenenter"",""1"",""3740""
","
","","","265.90000000596046","","","23","9102","4246","&#9789;","elianto","#f73b6a7A"," "," ","1","0","[818.8999999910593,1116.7999999970198,1415.0999999940395]","3","0","4","","","","","","","",""
"pit-trial","92","647240","0.0-2.0-17.2-1.2","battery-v0.2","","""event"",""trial"",""time""
""fullscreenenter"",""1"",""3740""
","
","
","""event"",""trial"",""time""
""fullscreenenter"",""1"",""3740""
","
","","","685.7000000029802","","","23","9102","4246","&#9789;","elianto","#f73b6a7A"," "," ","1","0","[1538.4000000059605,1964,2333.7999999970198,2690.5,3075.7999999970198,3457.9000000059605]","6","0","4","","","","","","","",""
"pit-trial","93","650893","0.0-2.0-17.2-2.2","battery-v0.2","","""event"",""trial"",""time""
""fullscreenenter"",""1"",""3740""
","
","
","""event"",""trial"",""time""
""fullscreenenter"",""1"",""3740""
","
","","","791.3999999910593","","","23","9102","4246","&#9789;","elianto","#f73b6a7A"," "," ","1","0","[243.70000000298023,1641.7999999970198,1951.4000000059605,2289.1000000089407,2609.2999999970198,3377.6000000089407,3648.4000000059605]","7","0","4","","","","","","","",""
"pit-trial","94","654095","0.0-2.0-17.2-3.2","battery-v0.2","","""event"",""trial"",""time""
""fullscreenenter"",""1"",""3740""
","
","
","""event"",""trial"",""time""
""fullscreenenter"",""1"",""3740""
","
","","","346","","","23","9102","4246","&#9789;","elianto","#f73b6a7A"," "," ","1","-10","[296.6000000089407,690,1196.7000000029802,1545.2999999970198,2108.4000000059605,2424,2758.6000000089407,3063.5]","8","0","4","","","","","","","",""
"pit-trial","95","656984","0.0-2.0-17.2-4.2","battery-v0.2","","""event"",""trial"",""time""
""fullscreenenter"",""1"",""3740""
","
","
","""event"",""trial"",""time""
""fullscreenenter"",""1"",""3740""
","
","","","21","","","23","9102","4246","&#9789;","elianto","#f73b6a7A"," "," ","1","0","[199.5,543.2999999970198,876.2000000029802,1193.7999999970198,1534.5999999940395,1892.5999999940395,2138.3999999910593,2428.2999999970198,2803.5]","9","0","4","","","","","","","",""
"pit-trial","96","660028","0.0-2.0-17.3-0.3","battery-v0.2","","""event"",""trial"",""time""
""fullscreenenter"",""1"",""3740""
","
","
","""event"",""trial"",""time""
""fullscreenenter"",""1"",""3740""
","
","","","178.59999999403954","","","23","9102","4246","&#9789;","elianto","#f73b6a7A"," "," ","1","0","[489.3999999910593,1034.5,1356.3999999910593,1668.7999999970198,1867.5999999940395]","5","0","4","","","","","","","",""
"pit-trial","97","663105","0.0-2.0-17.3-1.3","battery-v0.2","","""event"",""trial"",""time""
""fullscreenenter"",""1"",""3740""
","
","
","""event"",""trial"",""time""
""fullscreenenter"",""1"",""3740""
","
","","","210.40000000596046","","","23","9102","4246","&#9789;","elianto","#f73b6a7A"," "," ","1","0","[12.300000011920929,396.70000000298023,737.2000000029802,1066.800000011921,1341.4000000059605,1611.1000000089407,1923.1000000089407,2130.6000000089407,2859.1000000089407]","9","0","4","","","","","","","",""
"pit-trial","98","666153","0.0-2.0-17.3-2.3","battery-v0.2","","""event"",""trial"",""time""
""fullscreenenter"",""1"",""3740""
","
","
","""event"",""trial"",""time""
""fullscreenenter"",""1"",""3740""
","
","","","191","","","23","9102","4246","&#9789;","elianto","#f73b6a7A"," "," ","1","0","[57.70000000298023,339.6000000089407,643.7000000029802,1042.1000000089407,1260.2000000029802,1519.9000000059605,1759.9000000059605,2296.800000011921,2544.6000000089407,2802]","10","0","4","","","","","","","",""
"pit-trial","99","669562","0.0-2.0-17.3-3.3","battery-v0.2","","""event"",""trial"",""time""
""fullscreenenter"",""1"",""3740""
","
","
","""event"",""trial"",""time""
""fullscreenenter"",""1"",""3740""
","
","","","544.2999999970198","","","23","9102","4246","&#9789;","elianto","#f73b6a7A"," "," ","1","-10","[108.40000000596046,570.1000000089407,846.2000000029802,1396.9000000059605,1748.2000000029802,2028.4000000059605,2326.9000000059605,2604.2999999970198,2874.4000000059605]","9","0","4","","","","","","","",""
"pit-trial","100","672526","0.0-2.0-17.3-4.3","battery-v0.2","","""event"",""trial"",""time""
""fullscreenenter"",""1"",""3740""
","
","
","""event"",""trial"",""time""
""fullscreenenter"",""1"",""3740""
","
","","","99.09999999403954","","","23","9102","4246","&#9789;","elianto","#f73b6a7A"," "," ","1","0","[50.099999994039536,331.3999999910593,646.0999999940395,953.2000000029802,1312.2000000029802,1603.2000000029802,2006.5999999940395,2526.7000000029802,2784.5]","9","0","4","","","","","","","",""
"call-function","101","672530","0.0-2.0-18.0","battery-v0.2","","""event"",""trial"",""time""
""fullscreenenter"",""1"",""3740""
","
","
","""event"",""trial"",""time""
""fullscreenenter"",""1"",""3740""
","
","","","","","","","","","","","","","","","","","","","","","","","","","","",""
"pit-instructions","102","730325","0.0-2.0-19.0","battery-v0.2","","""event"",""trial"",""time""
""fullscreenenter"",""1"",""3740""
","
","
","""event"",""trial"",""time""
""fullscreenenter"",""1"",""3740""
","
","","[{""page_index"":0,""viewing_time"":6791.5},{""page_index"":1,""viewing_time"":4513.70000000298},{""page_index"":2,""viewing_time"":8814.29999999702},{""page_index"":3,""viewing_time"":4184.70000000298},{""page_index"":4,""viewing_time"":7759.899999991059},{""page_index"":5,""viewing_time"":8579.60000000894},{""page_index"":6,""viewing_time"":6213.70000000298},{""page_index"":7,""viewing_time"":4453.0999999940395},{""page_index"":8,""viewing_time"":6482}]","57793.40000000596","","","","","","","","","","","","","","","","","","","","","","","",""
"pit-comprehension","103","736469","0.0-2.0-20.0-0.0","battery-v0.2","","""event"",""trial"",""time""
""fullscreenenter"",""1"",""3740""
","
","
","""event"",""trial"",""time""
""fullscreenenter"",""1"",""3740""
","
","","","6133.70000000298","[""SPACE""]","0","23","9102","4246","","","","","","","","","","","","","","","","","","",""
"pit-instructions","104","739097","0.0-2.0-20.0-1.0","battery-v0.2","","""event"",""trial"",""time""
""fullscreenenter"",""1"",""3740""
","
","
","""event"",""trial"",""time""
""fullscreenenter"",""1"",""3740""
","
","","[{""page_index"":0,""viewing_time"":2537.6000000089407}]","2538.1000000089407","","","","","","","","","","","","","","","","","","","","","","","",""
"pit-comprehension","105","745293","0.0-2.0-21.0-0.0","battery-v0.2","","""event"",""trial"",""time""
""fullscreenenter"",""1"",""3740""
","
","
","""event"",""trial"",""time""
""fullscreenenter"",""1"",""3740""
","
","","","6190.699999988079","[""10""]","0","23","9102","4246","","","","","","","","","","","","","","","","","","",""
"pit-instructions","106","747356","0.0-2.0-21.0-1.0","battery-v0.2","","""event"",""trial"",""time""
""fullscreenenter"",""1"",""3740""
","
","
","""event"",""trial"",""time""
""fullscreenenter"",""1"",""3740""
","
","","[{""page_index"":0,""viewing_time"":1943.7000000029802}]","1944.1000000089407","","","","","","","","","","","","","","","","","","","","","","","",""
"pit-comprehension","107","755775","0.0-2.0-22.0-0.0","battery-v0.2","","""event"",""trial"",""time""
""fullscreenenter"",""1"",""3740""
","
","
","""event"",""trial"",""time""
""fullscreenenter"",""1"",""3740""
","
","","","8413.20000000298","[""0""]","0","23","9102","4246","","","","","","","","","","","","","","","","","","",""
"pit-instructions","108","757326","0.0-2.0-22.0-1.0","battery-v0.2","","""event"",""trial"",""time""
""fullscreenenter"",""1"",""3740""
","
","
","""event"",""trial"",""time""
""fullscreenenter"",""1"",""3740""
","
","","[{""page_index"":0,""viewing_time"":1465.2000000029802}]","1465.7000000029802","","","","","","","","","","","","","","","","","","","","","","","",""
"pit-comprehension","109","765924","0.0-2.0-23.0-0.0","battery-v0.2","","""event"",""trial"",""time""
""fullscreenenter"",""1"",""3740""
","
","
","""event"",""trial"",""time""
""fullscreenenter"",""1"",""3740""
","
","","","8592.40000000596","[""True""]","0","23","9102","4246","","","","","","","","","","","","","","","","","","",""
"pit-instructions","110","767649","0.0-2.0-23.0-1.0","battery-v0.2","","""event"",""trial"",""time""
""fullscreenenter"",""1"",""3740""
","
","
","""event"",""trial"",""time""
""fullscreenenter"",""1"",""3740""
","
","","[{""page_index"":0,""viewing_time"":1632.6000000089407}]","1632.9000000059605","","","","","","","","","","","","","","","","","","","","","","","",""
"pit-comprehension","111","776805","0.0-2.0-24.0-0.0","battery-v0.2","","""event"",""trial"",""time""
""fullscreenenter"",""1"",""3740""
","
","
","""event"",""trial"",""time""
""fullscreenenter"",""1"",""3740""
","
","","","9150.20000000298","[""True""]","0","23","9102","4246","","","","","","","","","","","","","","","","","","",""
"pit-instructions","112","778395","0.0-2.0-24.0-1.0","battery-v0.2","","""event"",""trial"",""time""
""fullscreenenter"",""1"",""3740""
","
","
","""event"",""trial"",""time""
""fullscreenenter"",""1"",""3740""
","
","","[{""page_index"":0,""viewing_time"":1502.7999999970198}]","1503.4000000059605","","","","","","","","","","","","","","","","","","","","","","","",""
"pit-comprehension","113","784955","0.0-2.0-25.0-0.0","battery-v0.2","","""event"",""trial"",""time""
""fullscreenenter"",""1"",""3740""
","
","
","""event"",""trial"",""time""
""fullscreenenter"",""1"",""3740""
","
","","","6553.9000000059605","[""True""]","0","23","9102","4246","","","","","","","","","","","","","","","","","","",""
"pit-instructions","114","789990","0.0-2.0-25.0-1.0","battery-v0.2","","""event"",""trial"",""time""
""fullscreenenter"",""1"",""3740""
","
","
","""event"",""trial"",""time""
""fullscreenenter"",""1"",""3740""
","
","","[{""page_index"":0,""viewing_time"":4936.9000000059605}]","4937.5999999940395","","","","","","","","","","","","","","","","","","","","","","","",""
"pit-comprehension","115","794645","0.0-2.0-26.0-0.0","battery-v0.2","","""event"",""trial"",""time""
""fullscreenenter"",""1"",""3740""
","
","
","""event"",""trial"",""time""
""fullscreenenter"",""1"",""3740""
","
","","","4645.4000000059605","[""False""]","0","23","9102","4246","","","","","","","","","","","","","","","","","","",""
"pit-instructions","116","796426","0.0-2.0-26.0-1.0","battery-v0.2","","""event"",""trial"",""time""
""fullscreenenter"",""1"",""3740""
","
","
","""event"",""trial"",""time""
""fullscreenenter"",""1"",""3740""
","
","","[{""page_index"":0,""viewing_time"":1693.6000000089407}]","1693.9000000059605","","","","","","","","","","","","","","","","","","","","","","","",""
"pit-instructions","117","811518","0.0-3.0","battery-v0.2","","""event"",""trial"",""time""
""fullscreenenter"",""1"",""3740""
","
","
","""event"",""trial"",""time""
""fullscreenenter"",""1"",""3740""
","
","","[{""page_index"":0,""viewing_time"":3379.7000000029802},{""page_index"":1,""viewing_time"":5500.20000000298},{""page_index"":2,""viewing_time"":6208.70000000298}]","15089.300000011921","","","","","","","","","","","","","","","","","","","","","","","",""
"pit-trial","118","816394","0.0-4.0","battery-v0.2","","""event"",""trial"",""time""
""fullscreenenter"",""1"",""3740""
","
","
","""event"",""trial"",""time""
""fullscreenenter"",""1"",""3740""
","
","","","-1","","","23","9102","4246","&#9752;","elianto","#f73b6a7A"," ","-1","0","-10","[]","0","1","","","9102","1","3","3","lose","go","0"
"pit-trial","119","820240","0.0-5.0","battery-v0.2","","""event"",""trial"",""time""
""fullscreenenter"",""1"",""3740""
","
","
","""event"",""trial"",""time""
""fullscreenenter"",""1"",""3740""
","
","","","972","","","23","9102","4246","&#9728;","elianto","#f73b6a7A","-1"," ","0","-10","[1826.7999999970198]","1","1","","","9102","2","0","4","lose","no-go","0"
"pit-trial","120","823736","0.0-6.0","battery-v0.2","","""event"",""trial"",""time""
""fullscreenenter"",""1"",""3740""
","
","
","""event"",""trial"",""time""
""fullscreenenter"",""1"",""3740""
","
","","","623.5999999940395","","","23","9102","4246","&#9730;","elianto","#3366ff99"," "," ","1","+10","[1481.5]","1","1","","","9102","3","1","1","win","go","0"
"pit-trial","121","827170","0.0-7.0","battery-v0.2","","""event"",""trial"",""time""
""fullscreenenter"",""1"",""3740""
","
","
","""event"",""trial"",""time""
""fullscreenenter"",""1"",""3740""
","
","","","571.5","","","23","9102","4246","&#9733;","elianto","#3366ff99","-1"," ","0","0","[1427.9000000059605]","1","1","","","9102","4","2","2","win","no-go","0"
"pit-trial","122","832027","0.0-8.0","battery-v0.2","","""event"",""trial"",""time""
""fullscreenenter"",""1"",""3740""
","
","
","""event"",""trial"",""time""
""fullscreenenter"",""1"",""3740""
","
","","","-1","","","23","9102","4246","&#9728;","elianto","#f73b6a7A","-1","-1","1","0","[]","0","1","","","9102","5","0","4","lose","no-go","0"
"pit-trial","123","836619","0.0-9.0","battery-v0.2","","""event"",""trial"",""time""
""fullscreenenter"",""1"",""3740""
","
","
","""event"",""trial"",""time""
""fullscreenenter"",""1"",""3740""
","
","","","1729.5999999940395","","","23","9102","4246","&#9752;","elianto","#f73b6a7A"," "," ","1","0","[2585.2000000029802]","1","1","","","9102","6","3","3","lose","go","0"
"pit-trial","124","840096","0.0-10.0","battery-v0.2","","""event"",""trial"",""time""
""fullscreenenter"",""1"",""3740""
","
","
","""event"",""trial"",""time""
""fullscreenenter"",""1"",""3740""
","
","","","604.0999999940395","","","23","9102","4246","&#9730;","elianto","#3366ff99"," "," ","1","+10","[1458.5999999940395]","1","1","","","9102","7","1","1","win","go","0"
"pit-trial","125","843779","0.0-11.0","battery-v0.2","","""event"",""trial"",""time""
""fullscreenenter"",""1"",""3740""
","
","
","""event"",""trial"",""time""
""fullscreenenter"",""1"",""3740""
","
","","","821.5","","","23","9102","4246","&#9733;","elianto","#3366ff99","-1"," ","0","0","[1673.9000000059605]","1","1","","","9102","8","2","2","win","no-go","0"
"pit-trial","126","848649","0.0-12.0","battery-v0.2","","""event"",""trial"",""time""
""fullscreenenter"",""1"",""3740""
","
","
","""event"",""trial"",""time""
""fullscreenenter"",""1"",""3740""
","
","","","-1","","","23","9102","4246","&#9752;","elianto","#f73b6a7A"," ","-1","0","-10","[]","0","1","","","9102","9","3","3","lose","go","0"
"pit-trial","127","852176","0.0-13.0","battery-v0.2","","""event"",""trial"",""time""
""fullscreenenter"",""1"",""3740""
","
","
","""event"",""trial"",""time""
""fullscreenenter"",""1"",""3740""
","
","","","661.5","","","23","9102","4246","&#9733;","elianto","#3366ff99","-1"," ","0","+10","[1514.2999999970198]","1","1","","","9102","10","2","2","win","no-go","1"
"pit-trial","128","857040","0.0-14.0","battery-v0.2","","""event"",""trial"",""time""
""fullscreenenter"",""1"",""3740""
","
","
","""event"",""trial"",""time""
""fullscreenenter"",""1"",""3740""
","
","","","-1","","","23","9102","4246","&#9728;","elianto","#f73b6a7A","-1","-1","1","-10","[]","0","1","","","9102","11","0","4","lose","no-go","1"
"pit-trial","129","860513","0.0-15.0","battery-v0.2","","""event"",""trial"",""time""
""fullscreenenter"",""1"",""3740""
","
","
","""event"",""trial"",""time""
""fullscreenenter"",""1"",""3740""
","
","","","603.8999999910593","","","23","9102","4246","&#9730;","elianto","#3366ff99"," "," ","1","+10","[1460]","1","1","","","9102","12","1","1","win","go","0"
"pit-trial","130","865378","0.0-16.0","battery-v0.2","","""event"",""trial"",""time""
""fullscreenenter"",""1"",""3740""
","
","
","""event"",""trial"",""time""
""fullscreenenter"",""1"",""3740""
","
","","","-1","","","23","9102","4246","&#9728;","elianto","#f73b6a7A","-1","-1","1","0","[]","0","1","","","9102","13","0","4","lose","no-go","0"
"pit-trial","131","869165","0.0-17.0","battery-v0.2","","""event"",""trial"",""time""
""fullscreenenter"",""1"",""3740""
","
","
","""event"",""trial"",""time""
""fullscreenenter"",""1"",""3740""
","
","","","929.6000000089407","","","23","9102","4246","&#9730;","elianto","#3366ff99"," "," ","1","0","[1782.800000011921]","1","1","","","9102","14","1","1","win","go","1"
"pit-trial","132","874032","0.0-18.0","battery-v0.2","","""event"",""trial"",""time""
""fullscreenenter"",""1"",""3740""
","
","
","""event"",""trial"",""time""
""fullscreenenter"",""1"",""3740""
","
","","","-1","","","23","9102","4246","&#9752;","elianto","#f73b6a7A"," ","-1","0","0","[]","0","1","","","9102","15","3","3","lose","go","1"
"pit-trial","133","877911","0.0-19.0","battery-v0.2","","""event"",""trial"",""time""
""fullscreenenter"",""1"",""3740""
","
","
","""event"",""trial"",""time""
""fullscreenenter"",""1"",""3740""
","
","","","1017.4000000059605","","","23","9102","4246","&#9733;","elianto","#3366ff99","-1"," ","0","+10","[1869.5]","1","1","","","9102","16","2","2","win","no-go","1"
"pit-trial","134","881857","0.0-20.0","battery-v0.2","","""event"",""trial"",""time""
""fullscreenenter"",""1"",""3740""
","
","
","""event"",""trial"",""time""
""fullscreenenter"",""1"",""3740""
","
","","","1082.6000000089407","","","23","9102","4246","&#9730;","elianto","#3366ff99"," "," ","1","+10","[1933.2000000029802]","1","1","","","9102","17","1","1","win","go","0"
"pit-trial","135","886721","0.0-21.0","battery-v0.2","","""event"",""trial"",""time""
""fullscreenenter"",""1"",""3740""
","
","
","""event"",""trial"",""time""
""fullscreenenter"",""1"",""3740""
","
","","","-1","","","23","9102","4246","&#9752;","elianto","#f73b6a7A"," ","-1","0","-10","[]","0","1","","","9102","18","3","3","lose","go","0"
"pit-trial","136","891587","0.0-22.0","battery-v0.2","","""event"",""trial"",""time""
""fullscreenenter"",""1"",""3740""
","
","
","""event"",""trial"",""time""
""fullscreenenter"",""1"",""3740""
","
","","","-1","","","23","9102","4246","&#9728;","elianto","#f73b6a7A","-1","-1","1","-10","[]","0","1","","","9102","19","0","4","lose","no-go","1"
"pit-trial","137","895268","0.0-23.0","battery-v0.2","","""event"",""trial"",""time""
""fullscreenenter"",""1"",""3740""
","
","
","""event"",""trial"",""time""
""fullscreenenter"",""1"",""3740""
","
","","","826.0999999940395","","","23","9102","4246","&#9733;","elianto","#3366ff99","-1"," ","0","0","[1676.5999999940395]","1","1","","","9102","20","2","2","win","no-go","0"
"pit-instructions","138","913355","0.0-24.0","battery-v0.2","","""event"",""trial"",""time""
""fullscreenenter"",""1"",""3740""
","
","
","""event"",""trial"",""time""
""fullscreenenter"",""1"",""3740""
","
","","[{""page_index"":0,""viewing_time"":11397.29999999702},{""page_index"":1,""viewing_time"":6684.800000011921}]","18082.5","","","","","","","","","","","","","","","","","","","","","","","",""
"pit-trial","139","918222","0.0-25.0","battery-v0.2","","""event"",""trial"",""time""
""fullscreenenter"",""1"",""3740""
","
","
","""event"",""trial"",""time""
""fullscreenenter"",""1"",""3740""
","
","","","-1","","","23","9102","4246","w","elianto","#f73b6a7A","-1","-1","1","0","[]","0","2","","","9102","21","3","4","lose","no-go","0"
"pit-trial","140","923096","0.0-26.0","battery-v0.2","","""event"",""trial"",""time""
""fullscreenenter"",""1"",""3740""
","
","
","""event"",""trial"",""time""
""fullscreenenter"",""1"",""3740""
","
","","","-1","","","23","9102","4246","j","elianto","#f73b6a7A"," ","-1","0","-10","[]","0","2","","","9102","22","0","3","lose","go","0"
"pit-trial","141","926562","0.0-27.0","battery-v0.2","","""event"",""trial"",""time""
""fullscreenenter"",""1"",""3740""
","
","
","""event"",""trial"",""time""
""fullscreenenter"",""1"",""3740""
","
","","","602.4000000059605","","","23","9102","4246","d","elianto","#3366ff99","-1"," ","0","0","[1453.5]","1","2","","","9102","23","1","2","win","no-go","0"
"pit-trial","142","931427","0.0-28.0","battery-v0.2","","""event"",""trial"",""time""
""fullscreenenter"",""1"",""3740""
","
","
","""event"",""trial"",""time""
""fullscreenenter"",""1"",""3740""
","
","","","-1","","","23","9102","4246","e","elianto","#f73b6a7A"," ","-1","0","0","[]","0","2","","","9102","24","2","3","lose","go","1"
"pit-trial","143","936296","0.0-29.0","battery-v0.2","","""event"",""trial"",""time""
""fullscreenenter"",""1"",""3740""
","
","
","""event"",""trial"",""time""
""fullscreenenter"",""1"",""3740""
","
","","","-1","","","23","9102","4246","w","elianto","#f73b6a7A","-1","-1","1","0","[]","0","2","","","9102","25","3","4","lose","no-go","0"
"pit-trial","144","941168","0.0-30.0","battery-v0.2","","""event"",""trial"",""time""
""fullscreenenter"",""1"",""3740""
","
","
","""event"",""trial"",""time""
""fullscreenenter"",""1"",""3740""
","
","","","-1","","","23","9102","4246","j","elianto","#f73b6a7A"," ","-1","0","-10","[]","0","2","","","9102","26","0","3","lose","go","0"
"pit-trial","145","946044","0.0-31.0","battery-v0.2","","""event"",""trial"",""time""
""fullscreenenter"",""1"",""3740""
","
","
","""event"",""trial"",""time""
""fullscreenenter"",""1"",""3740""
","
","","","-1","","","23","9102","4246","e","elianto","#f73b6a7A"," ","-1","0","0","[]","0","2","","","9102","27","2","3","lose","go","1"
"pit-trial","146","949524","0.0-32.0","battery-v0.2","","""event"",""trial"",""time""
""fullscreenenter"",""1"",""3740""
","
","
","""event"",""trial"",""time""
""fullscreenenter"",""1"",""3740""
","
","","","608.6999999880791","","","23","9102","4246","d","elianto","#3366ff99","-1"," ","0","0","[1465.2000000029802]","1","2","","","9102","28","1","2","win","no-go","0"
"pit-trial","147","954398","0.0-33.0","battery-v0.2","","""event"",""trial"",""time""
""fullscreenenter"",""1"",""3740""
","
","
","""event"",""trial"",""time""
""fullscreenenter"",""1"",""3740""
","
","","","-1","","","23","9102","4246","j","elianto","#f73b6a7A"," ","-1","0","-10","[]","0","2","","","9102","29","0","3","lose","go","0"
"pit-trial","148","959266","0.0-34.0","battery-v0.2","","""event"",""trial"",""time""
""fullscreenenter"",""1"",""3740""
","
","
","""event"",""trial"",""time""
""fullscreenenter"",""1"",""3740""
","
","","","-1","","","23","9102","4246","w","elianto","#f73b6a7A","-1","-1","1","0","[3982.9000000059605]","1","2","","","9102","30","3","4","lose","no-go","0"
"pit-trial","149","964129","0.0-35.0","battery-v0.2","","""event"",""trial"",""time""
""fullscreenenter"",""1"",""3740""
","
","
","""event"",""trial"",""time""
""fullscreenenter"",""1"",""3740""
","
","","","-1","","","23","9102","4246","e","elianto","#f73b6a7A"," ","-1","0","0","[3965]","1","2","","","9102","31","2","3","lose","go","1"
"pit-trial","150","967552","0.0-36.0","battery-v0.2","","""event"",""trial"",""time""
""fullscreenenter"",""1"",""3740""
","
","
","""event"",""trial"",""time""
""fullscreenenter"",""1"",""3740""
","
","","","562.2000000029802","","","23","9102","4246","d","elianto","#3366ff99","-1"," ","0","0","[1412.4000000059605]","1","2","","","9102","32","1","2","win","no-go","0"
"pit-trial","151","972425","0.0-37.0","battery-v0.2","","""event"",""trial"",""time""
""fullscreenenter"",""1"",""3740""
","
","
","""event"",""trial"",""time""
""fullscreenenter"",""1"",""3740""
","
","","","-1","","","23","9102","4246","e","elianto","#f73b6a7A"," ","-1","0","-10","[]","0","2","","","9102","33","2","3","lose","go","0"
"pit-trial","152","975925","0.0-38.0","battery-v0.2","","""event"",""trial"",""time""
""fullscreenenter"",""1"",""3740""
","
","
","""event"",""trial"",""time""
""fullscreenenter"",""1"",""3740""
","
","","","636.2000000029802","","","23","9102","4246","d","elianto","#3366ff99","-1"," ","0","0","[1489.1000000089407]","1","2","","","9102","34","1","2","win","no-go","0"
"pit-trial","153","980797","0.0-39.0","battery-v0.2","","""event"",""trial"",""time""
""fullscreenenter"",""1"",""3740""
","
","
","""event"",""trial"",""time""
""fullscreenenter"",""1"",""3740""
","
","","","-1","","","23","9102","4246","w","elianto","#f73b6a7A","-1","-1","1","0","[]","0","2","","","9102","35","3","4","lose","no-go","0"
"pit-trial","154","985657","0.0-40.0","battery-v0.2","","""event"",""trial"",""time""
""fullscreenenter"",""1"",""3740""
","
","
","""event"",""trial"",""time""
""fullscreenenter"",""1"",""3740""
","
","","","-1","","","23","9102","4246","j","elianto","#f73b6a7A"," ","-1","0","-10","[]","0","2","","","9102","36","0","3","lose","go","0"
"pit-trial","155","990525","0.0-41.0","battery-v0.2","","""event"",""trial"",""time""
""fullscreenenter"",""1"",""3740""
","
","
","""event"",""trial"",""time""
""fullscreenenter"",""1"",""3740""
","
","","","-1","","","23","9102","4246","w","elianto","#f73b6a7A","-1","-1","1","0","[]","0","2","","","9102","37","3","4","lose","no-go","0"
"pit-trial","156","995392","0.0-42.0","battery-v0.2","","""event"",""trial"",""time""
""fullscreenenter"",""1"",""3740""
","
","
","""event"",""trial"",""time""
""fullscreenenter"",""1"",""3740""
","
","","","-1","","","23","9102","4246","e","elianto","#f73b6a7A"," ","-1","0","-10","[]","0","2","","","9102","38","2","3","lose","go","0"
"pit-trial","157","1000265","0.0-43.0","battery-v0.2","","""event"",""trial"",""time""
""fullscreenenter"",""1"",""3740""
","
","
","""event"",""trial"",""time""
""fullscreenenter"",""1"",""3740""
","
","","","-1","","","23","9102","4246","j","elianto","#f73b6a7A"," ","-1","0","-10","[]","0","2","","","9102","39","0","3","lose","go","0"
"pit-trial","158","1003705","0.0-44.0","battery-v0.2","","""event"",""trial"",""time""
""fullscreenenter"",""1"",""3740""
","
","
","""event"",""trial"",""time""
""fullscreenenter"",""1"",""3740""
","
","","","566.7000000029802","","","23","9102","4246","d","elianto","#3366ff99","-1"," ","0","0","[1421.7000000029802,2045.4000000059605,2370.5,2582.5]","4","2","","","9102","40","1","2","win","no-go","0"
"pit-trial","159","1008563","0.0-45.0","battery-v0.2","","""event"",""trial"",""time""
""fullscreenenter"",""1"",""3740""
","
","
","""event"",""trial"",""time""
""fullscreenenter"",""1"",""3740""
","
","","","-1","","","23","9102","4246","e","elianto","#f73b6a7A"," ","-1","0","-10","[]","0","2","","","9102","41","2","3","lose","go","0"
"pit-trial","160","1013435","0.0-46.0","battery-v0.2","","""event"",""trial"",""time""
""fullscreenenter"",""1"",""3740""
","
","
","""event"",""trial"",""time""
""fullscreenenter"",""1"",""3740""
","
","","","-1","","","23","9102","4246","j","elianto","#f73b6a7A"," ","-1","0","-10","[]","0","2","","","9102","42","0","3","lose","go","0"
"pit-trial","161","1018297","0.0-47.0","battery-v0.2","","""event"",""trial"",""time""
""fullscreenenter"",""1"",""3740""
","
","
","""event"",""trial"",""time""
""fullscreenenter"",""1"",""3740""
","
","","","-1","","","23","9102","4246","w","elianto","#f73b6a7A","-1","-1","1","0","[]","0","2","","","9102","43","3","4","lose","no-go","0"
"pit-trial","162","1022014","0.0-48.0","battery-v0.2","","""event"",""trial"",""time""
""fullscreenenter"",""1"",""3740""
","
","
","""event"",""trial"",""time""
""fullscreenenter"",""1"",""3740""
","
","","","855.0999999940395","","","23","9102","4246","d","elianto","#3366ff99","-1"," ","0","+10","[1705.7999999970198,1937.199999988079]","2","2","","","9102","44","1","2","win","no-go","1"
"pit-trial","163","1026873","0.0-49.0","battery-v0.2","","""event"",""trial"",""time""
""fullscreenenter"",""1"",""3740""
","
","
","""event"",""trial"",""time""
""fullscreenenter"",""1"",""3740""
","
","","","-1","","","23","9102","4246","j","elianto","#f73b6a7A"," ","-1","0","-10","[]","0","2","","","9102","45","0","3","lose","go","0"
"pit-trial","164","1030731","0.0-50.0","battery-v0.2","","""event"",""trial"",""time""
""fullscreenenter"",""1"",""3740""
","
","
","""event"",""trial"",""time""
""fullscreenenter"",""1"",""3740""
","
","","","995.5","","","23","9102","4246","d","elianto","#3366ff99","-1"," ","0","0","[1850.3999999910593,2220.8999999910593,2462.5999999940395]","3","2","","","9102","46","1","2","win","no-go","0"
"pit-trial","165","1035600","0.0-51.0","battery-v0.2","","""event"",""trial"",""time""
""fullscreenenter"",""1"",""3740""
","
","
","""event"",""trial"",""time""
""fullscreenenter"",""1"",""3740""
","
","","","-1","","","23","9102","4246","e","elianto","#f73b6a7A"," ","-1","0","-10","[]","0","2","","","9102","47","2","3","lose","go","0"
"pit-trial","166","1040468","0.0-52.0","battery-v0.2","","""event"",""trial"",""time""
""fullscreenenter"",""1"",""3740""
","
","
","""event"",""trial"",""time""
""fullscreenenter"",""1"",""3740""
","
","","","-1","","","23","9102","4246","w","elianto","#f73b6a7A","-1","-1","1","0","[]","0","2","","","9102","48","3","4","lose","no-go","0"
"pit-trial","167","1045329","0.0-53.0","battery-v0.2","","""event"",""trial"",""time""
""fullscreenenter"",""1"",""3740""
","
","
","""event"",""trial"",""time""
""fullscreenenter"",""1"",""3740""
","
","","","-1","","","23","9102","4246","e","elianto","#f73b6a7A"," ","-1","0","0","[]","0","2","","","9102","49","2","3","lose","go","1"
"pit-trial","168","1050190","0.0-54.0","battery-v0.2","","""event"",""trial"",""time""
""fullscreenenter"",""1"",""3740""
","
","
","""event"",""trial"",""time""
""fullscreenenter"",""1"",""3740""
","
","","","-1","","","23","9102","4246","d","elianto","#3366ff99","-1","-1","1","0","[2882.8999999910593]","1","2","","","9102","50","1","2","win","no-go","1"
"pit-trial","169","1055058","0.0-55.0","battery-v0.2","","""event"",""trial"",""time""
""fullscreenenter"",""1"",""3740""
","
","
","""event"",""trial"",""time""
""fullscreenenter"",""1"",""3740""
","
","","","-1","","","23","9102","4246","w","elianto","#f73b6a7A","-1","-1","1","0","[]","0","2","","","9102","51","3","4","lose","no-go","0"
"pit-trial","170","1058742","0.0-56.0","battery-v0.2","","""event"",""trial"",""time""
""fullscreenenter"",""1"",""3740""
","
","
","""event"",""trial"",""time""
""fullscreenenter"",""1"",""3740""
","
","","","826.2999999970198","","","23","9102","4246","j","elianto","#f73b6a7A"," "," ","1","0","[1680.6000000089407]","1","2","","","9102","52","0","3","lose","go","0"
"pit-trial","171","1063617","0.0-57.0","battery-v0.2","","""event"",""trial"",""time""
""fullscreenenter"",""1"",""3740""
","
","
","""event"",""trial"",""time""
""fullscreenenter"",""1"",""3740""
","
","","","-1","","","23","9102","4246","w","elianto","#f73b6a7A","-1","-1","1","0","[]","0","2","","","9102","53","3","4","lose","no-go","0"
"pit-trial","172","1068314","0.0-58.0","battery-v0.2","","""event"",""trial"",""time""
""fullscreenenter"",""1"",""3740""
","
","
","""event"",""trial"",""time""
""fullscreenenter"",""1"",""3740""
","
","","","1830","","","23","9102","4246","j","elianto","#f73b6a7A"," "," ","1","0","[2680.7999999970198]","1","2","","","9102","54","0","3","lose","go","0"
"pit-trial","173","1073178","0.0-59.0","battery-v0.2","","""event"",""trial"",""time""
""fullscreenenter"",""1"",""3740""
","
","
","""event"",""trial"",""time""
""fullscreenenter"",""1"",""3740""
","
","","","-1","","","23","9102","4246","e","elianto","#f73b6a7A"," ","-1","0","-10","[]","0","2","","","9102","55","2","3","lose","go","0"
"pit-trial","174","1076836","0.0-60.0","battery-v0.2","","""event"",""trial"",""time""
""fullscreenenter"",""1"",""3740""
","
","
","""event"",""trial"",""time""
""fullscreenenter"",""1"",""3740""
","
","","","800.7999999970198","","","23","9102","4246","d","elianto","#3366ff99","-1"," ","0","0","[1652.0999999940395]","1","2","","","9102","56","1","2","win","no-go","0"
"pit-trial","175","1080352","0.0-61.0","battery-v0.2","","""event"",""trial"",""time""
""fullscreenenter"",""1"",""3740""
","
","
","""event"",""trial"",""time""
""fullscreenenter"",""1"",""3740""
","
","","","642.2999999970198","","","23","9102","4246","s","elianto","#3366ff99"," "," ","1","+10","[1495.2999999970198]","1","2","","","9102","57","4","1","win","go","0"
"pit-trial","176","1085216","0.0-62.0","battery-v0.2","","""event"",""trial"",""time""
""fullscreenenter"",""1"",""3740""
","
","
","""event"",""trial"",""time""
""fullscreenenter"",""1"",""3740""
","
","","","-1","","","23","9102","4246","w","elianto","#f73b6a7A","-1","-1","1","0","[]","0","2","","","9102","58","3","4","lose","no-go","0"
"pit-trial","177","1090081","0.0-63.0","battery-v0.2","","""event"",""trial"",""time""
""fullscreenenter"",""1"",""3740""
","
","
","""event"",""trial"",""time""
""fullscreenenter"",""1"",""3740""
","
","","","-1","","","23","9102","4246","e","elianto","#f73b6a7A"," ","-1","0","0","[]","0","2","","","9102","59","2","3","lose","go","1"
"pit-trial","178","1094940","0.0-64.0","battery-v0.2","","""event"",""trial"",""time""
""fullscreenenter"",""1"",""3740""
","
","
","""event"",""trial"",""time""
""fullscreenenter"",""1"",""3740""
","
","","","-1","","","23","9102","4246","j","elianto","#f73b6a7A"," ","-1","0","-10","[]","0","2","","","9102","60","0","3","lose","go","0"
"pit-trial","179","1098412","0.0-65.0","battery-v0.2","","""event"",""trial"",""time""
""fullscreenenter"",""1"",""3740""
","
","
","""event"",""trial"",""time""
""fullscreenenter"",""1"",""3740""
","
","","","605","","","23","9102","4246","s","elianto","#3366ff99"," "," ","1","+10","[1460.5999999940395]","1","2","","","9102","61","4","1","win","go","0"
"pit-trial","180","1103273","0.0-66.0","battery-v0.2","","""event"",""trial"",""time""
""fullscreenenter"",""1"",""3740""
","
","
","""event"",""trial"",""time""
""fullscreenenter"",""1"",""3740""
","
","","","-1","","","23","9102","4246","w","elianto","#f73b6a7A","-1","-1","1","-10","[]","0","2","","","9102","62","3","4","lose","no-go","1"
"pit-trial","181","1108138","0.0-67.0","battery-v0.2","","""event"",""trial"",""time""
""fullscreenenter"",""1"",""3740""
","
","
","""event"",""trial"",""time""
""fullscreenenter"",""1"",""3740""
","
","","","-1","","","23","9102","4246","d","elianto","#3366ff99","-1","-1","1","+10","[]","0","2","","","9102","63","1","2","win","no-go","0"
"pit-trial","182","1113010","0.0-68.0","battery-v0.2","","""event"",""trial"",""time""
""fullscreenenter"",""1"",""3740""
","
","
","""event"",""trial"",""time""
""fullscreenenter"",""1"",""3740""
","
","","","-1","","","23","9102","4246","e","elianto","#f73b6a7A"," ","-1","0","-10","[]","0","2","","","9102","64","2","3","lose","go","0"
"pit-trial","183","1117292","0.0-69.0","battery-v0.2","","""event"",""trial"",""time""
""fullscreenenter"",""1"",""3740""
","
","
","""event"",""trial"",""time""
""fullscreenenter"",""1"",""3740""
","
","","","1410.2000000029802","","","23","9102","4246","w","elianto","#f73b6a7A","-1"," ","0","-10","[743.5,2266.8999999910593]","2","2","","","9102","65","3","4","lose","no-go","0"
"pit-trial","184","1122156","0.0-70.0","battery-v0.2","","""event"",""trial"",""time""
""fullscreenenter"",""1"",""3740""
","
","
","""event"",""trial"",""time""
""fullscreenenter"",""1"",""3740""
","
","","","-1","","","23","9102","4246","p","elianto","#3366ff99","-1","-1","1","+10","[2933.6000000089407]","1","2","","","9102","66","5","2","win","no-go","0"
"pit-trial","185","1127017","0.0-71.0","battery-v0.2","","""event"",""trial"",""time""
""fullscreenenter"",""1"",""3740""
","
","
","""event"",""trial"",""time""
""fullscreenenter"",""1"",""3740""
","
","","","-1","","","23","9102","4246","s","elianto","#3366ff99"," ","-1","0","0","[2987,4396.5999999940395]","2","2","","","9102","67","4","1","win","go","0"
"pit-trial","186","1131346","0.0-72.0","battery-v0.2","","""event"",""trial"",""time""
""fullscreenenter"",""1"",""3740""
","
","
","""event"",""trial"",""time""
""fullscreenenter"",""1"",""3740""
","
","","","1459.4000000059605","","","23","9102","4246","d","elianto","#3366ff99","-1"," ","0","0","[2310]","1","2","","","9102","68","1","2","win","no-go","0"
"pit-trial","187","1136211","0.0-73.0","battery-v0.2","","""event"",""trial"",""time""
""fullscreenenter"",""1"",""3740""
","
","
","""event"",""trial"",""time""
""fullscreenenter"",""1"",""3740""
","
","","","-1","","","23","9102","4246","s","elianto","#3366ff99"," ","-1","0","0","[]","0","2","","","9102","69","4","1","win","go","0"
"pit-trial","188","1139675","0.0-74.0","battery-v0.2","","""event"",""trial"",""time""
""fullscreenenter"",""1"",""3740""
","
","
","""event"",""trial"",""time""
""fullscreenenter"",""1"",""3740""
","
","","","596.2999999970198","","","23","9102","4246","d","elianto","#3366ff99","-1"," ","0","+10","[1448.7999999970198]","1","2","","","9102","70","1","2","win","no-go","1"
"pit-trial","189","1143963","0.0-75.0","battery-v0.2","","""event"",""trial"",""time""
""fullscreenenter"",""1"",""3740""
","
","
","""event"",""trial"",""time""
""fullscreenenter"",""1"",""3740""
","
","","","1425.3999999910593","","","23","9102","4246","p","elianto","#3366ff99","-1"," ","0","+10","[2279.4000000059605]","1","2","","","9102","71","5","2","win","no-go","1"
"pit-trial","190","1148840","0.0-76.0","battery-v0.2","","""event"",""trial"",""time""
""fullscreenenter"",""1"",""3740""
","
","
","""event"",""trial"",""time""
""fullscreenenter"",""1"",""3740""
","
","","","-1","","","23","9102","4246","e","elianto","#f73b6a7A"," ","-1","0","0","[]","0","2","","","9102","72","2","3","lose","go","1"
"pit-trial","191","1153698","0.0-77.0","battery-v0.2","","""event"",""trial"",""time""
""fullscreenenter"",""1"",""3740""
","
","
","""event"",""trial"",""time""
""fullscreenenter"",""1"",""3740""
","
","","","-1","","","23","9102","4246","d","elianto","#3366ff99","-1","-1","1","+10","[]","0","2","","","9102","73","1","2","win","no-go","0"
"pit-trial","192","1158558","0.0-78.0","battery-v0.2","","""event"",""trial"",""time""
""fullscreenenter"",""1"",""3740""
","
","
","""event"",""trial"",""time""
""fullscreenenter"",""1"",""3740""
","
","","","-1","","","23","9102","4246","p","elianto","#3366ff99","-1","-1","1","+10","[3095.2999999970198]","1","2","","","9102","74","5","2","win","no-go","0"
"pit-trial","193","1163418","0.0-79.0","battery-v0.2","","""event"",""trial"",""time""
""fullscreenenter"",""1"",""3740""
","
","
","""event"",""trial"",""time""
""fullscreenenter"",""1"",""3740""
","
","","","-1","","","23","9102","4246","s","elianto","#3366ff99"," ","-1","0","+10","[]","0","2","","","9102","75","4","1","win","go","1"
"pit-trial","194","1167987","0.0-80.0","battery-v0.2","","""event"",""trial"",""time""
""fullscreenenter"",""1"",""3740""
","
","
","""event"",""trial"",""time""
""fullscreenenter"",""1"",""3740""
","
","","","1709.3999999910593","","","23","9102","4246","w","elianto","#f73b6a7A","-1"," ","0","-10","[2560.4000000059605]","1","2","","","9102","76","3","4","lose","no-go","0"
"pit-trial","195","1172000","0.0-81.0","battery-v0.2","","""event"",""trial"",""time""
""fullscreenenter"",""1"",""3740""
","
","
","""event"",""trial"",""time""
""fullscreenenter"",""1"",""3740""
","
","","","1152.7999999970198","","","23","9102","4246","p","elianto","#3366ff99","-1"," ","0","0","[2005.4000000059605]","1","2","","","9102","77","5","2","win","no-go","0"
"pit-trial","196","1175704","0.0-82.0","battery-v0.2","","""event"",""trial"",""time""
""fullscreenenter"",""1"",""3740""
","
","
","""event"",""trial"",""time""
""fullscreenenter"",""1"",""3740""
","
","","","840.7000000029802","","","23","9102","4246","s","elianto","#3366ff99"," "," ","1","+10","[1690.9000000059605]","1","2","","","9102","78","4","1","win","go","0"
"pit-trial","197","1179505","0.0-83.0","battery-v0.2","","""event"",""trial"",""time""
""fullscreenenter"",""1"",""3740""
","
","
","""event"",""trial"",""time""
""fullscreenenter"",""1"",""3740""
","
","","","924.3999999910593","","","23","9102","4246","s","elianto","#3366ff99"," "," ","1","+10","[1779.699999988079]","1","2","","","9102","79","4","1","win","go","0"
"pit-trial","198","1184362","0.0-84.0","battery-v0.2","","""event"",""trial"",""time""
""fullscreenenter"",""1"",""3740""
","
","
","""event"",""trial"",""time""
""fullscreenenter"",""1"",""3740""
","
","","","-1","","","23","9102","4246","w","elianto","#f73b6a7A","-1","-1","1","0","[]","0","2","","","9102","80","3","4","lose","no-go","0"
"pit-trial","199","1189228","0.0-85.0","battery-v0.2","","""event"",""trial"",""time""
""fullscreenenter"",""1"",""3740""
","
","
","""event"",""trial"",""time""
""fullscreenenter"",""1"",""3740""
","
","","","-1","","","23","9102","4246","a","elianto","#f73b6a7A","-1","-1","1","0","[]","0","2","","","9102","81","7","4","lose","no-go","0"
"pit-trial","200","1192695","0.0-86.0","battery-v0.2","","""event"",""trial"",""time""
""fullscreenenter"",""1"",""3740""
","
","
","""event"",""trial"",""time""
""fullscreenenter"",""1"",""3740""
","
","","","600.4000000059605","","","23","9102","4246","p","elianto","#3366ff99","-1"," ","0","0","[1451.800000011921]","1","2","","","9102","82","5","2","win","no-go","0"
"pit-trial","201","1197561","0.0-87.0","battery-v0.2","","""event"",""trial"",""time""
""fullscreenenter"",""1"",""3740""
","
","
","""event"",""trial"",""time""
""fullscreenenter"",""1"",""3740""
","
","","","-1","","","23","9102","4246","s","elianto","#3366ff99"," ","-1","0","0","[]","0","2","","","9102","83","4","1","win","go","0"
"pit-trial","202","1202430","0.0-88.0","battery-v0.2","","""event"",""trial"",""time""
""fullscreenenter"",""1"",""3740""
","
","
","""event"",""trial"",""time""
""fullscreenenter"",""1"",""3740""
","
","","","-1","","","23","9102","4246","w","elianto","#f73b6a7A","-1","-1","1","0","[]","0","2","","","9102","84","3","4","lose","no-go","0"
"pit-trial","203","1207295","0.0-89.0","battery-v0.2","","""event"",""trial"",""time""
""fullscreenenter"",""1"",""3740""
","
","
","""event"",""trial"",""time""
""fullscreenenter"",""1"",""3740""
","
","","","-1","","","23","9102","4246","g","elianto","#f73b6a7A"," ","-1","0","0","[]","0","2","","","9102","85","6","3","lose","go","1"
"pit-trial","204","1210877","0.0-90.0","battery-v0.2","","""event"",""trial"",""time""
""fullscreenenter"",""1"",""3740""
","
","
","""event"",""trial"",""time""
""fullscreenenter"",""1"",""3740""
","
","","","723.3000000119209","","","23","9102","4246","s","elianto","#3366ff99"," "," ","1","+10","[1576.2000000029802]","1","2","","","9102","86","4","1","win","go","0"
"pit-trial","205","1215503","0.0-91.0","battery-v0.2","","""event"",""trial"",""time""
""fullscreenenter"",""1"",""3740""
","
","
","""event"",""trial"",""time""
""fullscreenenter"",""1"",""3740""
","
","","","1761.199999988079","","","23","9102","4246","p","elianto","#3366ff99","-1"," ","0","0","[2613.2000000029802]","1","2","","","9102","87","5","2","win","no-go","0"
"pit-trial","206","1220375","0.0-92.0","battery-v0.2","","""event"",""trial"",""time""
""fullscreenenter"",""1"",""3740""
","
","
","""event"",""trial"",""time""
""fullscreenenter"",""1"",""3740""
","
","","","-1","","","23","9102","4246","a","elianto","#f73b6a7A","-1","-1","1","0","[]","0","2","","","9102","88","7","4","lose","no-go","0"
"pit-trial","207","1224547","0.0-93.0","battery-v0.2","","""event"",""trial"",""time""
""fullscreenenter"",""1"",""3740""
","
","
","""event"",""trial"",""time""
""fullscreenenter"",""1"",""3740""
","
","","","1307.0999999940395","","","23","9102","4246","p","elianto","#3366ff99","-1"," ","0","0","[2160.6000000089407]","1","2","","","9102","89","5","2","win","no-go","0"
"pit-trial","208","1229412","0.0-94.0","battery-v0.2","","""event"",""trial"",""time""
""fullscreenenter"",""1"",""3740""
","
","
","""event"",""trial"",""time""
""fullscreenenter"",""1"",""3740""
","
","","","-1","","","23","9102","4246","g","elianto","#f73b6a7A"," ","-1","0","-10","[]","0","2","","","9102","90","6","3","lose","go","0"
"pit-trial","209","1234294","0.0-95.0","battery-v0.2","","""event"",""trial"",""time""
""fullscreenenter"",""1"",""3740""
","
","
","""event"",""trial"",""time""
""fullscreenenter"",""1"",""3740""
","
","","","-1","","","23","9102","4246","a","elianto","#f73b6a7A","-1","-1","1","0","[]","0","2","","","9102","91","7","4","lose","no-go","0"
"pit-trial","210","1237955","0.0-96.0","battery-v0.2","","""event"",""trial"",""time""
""fullscreenenter"",""1"",""3740""
","
","
","""event"",""trial"",""time""
""fullscreenenter"",""1"",""3740""
","
","","","798.7999999970198","","","23","9102","4246","s","elianto","#3366ff99"," "," ","1","0","[1650.5]","1","2","","","9102","92","4","1","win","go","1"
"pit-trial","211","1241780","0.0-97.0","battery-v0.2","","""event"",""trial"",""time""
""fullscreenenter"",""1"",""3740""
","
","
","""event"",""trial"",""time""
""fullscreenenter"",""1"",""3740""
","
","","","953.0999999940395","","","23","9102","4246","l","elianto","#3366ff99"," "," ","1","+10","[1803.7000000029802]","1","2","","","9102","93","8","1","win","go","0"
"pit-trial","212","1246539","0.0-98.0","battery-v0.2","","""event"",""trial"",""time""
""fullscreenenter"",""1"",""3740""
","
","
","""event"",""trial"",""time""
""fullscreenenter"",""1"",""3740""
","
","","","1897.7999999970198","","","23","9102","4246","p","elianto","#3366ff99","-1"," ","0","0","[2750.5999999940395]","1","2","","","9102","94","5","2","win","no-go","0"
"pit-trial","213","1251402","0.0-99.0","battery-v0.2","","""event"",""trial"",""time""
""fullscreenenter"",""1"",""3740""
","
","
","""event"",""trial"",""time""
""fullscreenenter"",""1"",""3740""
","
","","","-1","","","23","9102","4246","a","elianto","#f73b6a7A","-1","-1","1","0","[]","0","2","","","9102","95","7","4","lose","no-go","0"
"pit-trial","214","1256260","0.0-100.0","battery-v0.2","","""event"",""trial"",""time""
""fullscreenenter"",""1"",""3740""
","
","
","""event"",""trial"",""time""
""fullscreenenter"",""1"",""3740""
","
","","","-1","","","23","9102","4246","g","elianto","#f73b6a7A"," ","-1","0","0","[]","0","2","","","9102","96","6","3","lose","go","1"
"pit-trial","215","1260453","0.0-101.0","battery-v0.2","","""event"",""trial"",""time""
""fullscreenenter"",""1"",""3740""
","
","
","""event"",""trial"",""time""
""fullscreenenter"",""1"",""3740""
","
","","","1330","","","23","9102","4246","p","elianto","#3366ff99","-1"," ","0","0","[2183.2000000029802]","1","2","","","9102","97","5","2","win","no-go","0"
"pit-trial","216","1264195","0.0-102.0","battery-v0.2","","""event"",""trial"",""time""
""fullscreenenter"",""1"",""3740""
","
","
","""event"",""trial"",""time""
""fullscreenenter"",""1"",""3740""
","
","","","880.6999999880791","","","23","9102","4246","l","elianto","#3366ff99"," "," ","1","+10","[1734.7999999970198]","1","2","","","9102","98","8","1","win","go","0"
"pit-trial","217","1269078","0.0-103.0","battery-v0.2","","""event"",""trial"",""time""
""fullscreenenter"",""1"",""3740""
","
","
","""event"",""trial"",""time""
""fullscreenenter"",""1"",""3740""
","
","","","-1","","","23","9102","4246","a","elianto","#f73b6a7A","-1","-1","1","-10","[]","0","2","","","9102","99","7","4","lose","no-go","1"
"pit-trial","218","1273945","0.0-104.0","battery-v0.2","","""event"",""trial"",""time""
""fullscreenenter"",""1"",""3740""
","
","
","""event"",""trial"",""time""
""fullscreenenter"",""1"",""3740""
","
","","","-1","","","23","9102","4246","g","elianto","#f73b6a7A"," ","-1","0","-10","[]","0","2","","","9102","100","6","3","lose","go","0"
"pit-trial","219","1277817","0.0-105.0","battery-v0.2","","""event"",""trial"",""time""
""fullscreenenter"",""1"",""3740""
","
","
","""event"",""trial"",""time""
""fullscreenenter"",""1"",""3740""
","
","","","1010.9000000059605","","","23","9102","4246","l","elianto","#3366ff99"," "," ","1","+10","[1861.5]","1","2","","","9102","101","8","1","win","go","0"
"pit-trial","220","1282689","0.0-106.0","battery-v0.2","","""event"",""trial"",""time""
""fullscreenenter"",""1"",""3740""
","
","
","""event"",""trial"",""time""
""fullscreenenter"",""1"",""3740""
","
","","","-1","","","23","9102","4246","a","elianto","#f73b6a7A","-1","-1","1","0","[]","0","2","","","9102","102","7","4","lose","no-go","0"
"pit-trial","221","1287099","0.0-107.0","battery-v0.2","","""event"",""trial"",""time""
""fullscreenenter"",""1"",""3740""
","
","
","""event"",""trial"",""time""
""fullscreenenter"",""1"",""3740""
","
","","","1552","","","23","9102","4246","u","elianto","#3366ff99"," "," ","1","0","[2404.2999999970198]","1","2","","","9102","103","9","1","win","go","1"
"pit-trial","222","1291970","0.0-108.0","battery-v0.2","","""event"",""trial"",""time""
""fullscreenenter"",""1"",""3740""
","
","
","""event"",""trial"",""time""
""fullscreenenter"",""1"",""3740""
","
","","","-1","","","23","9102","4246","p","elianto","#3366ff99","-1","-1","1","+10","[]","0","2","","","9102","104","5","2","win","no-go","0"
"pit-trial","223","1296165","0.0-109.0","battery-v0.2","","""event"",""trial"",""time""
""fullscreenenter"",""1"",""3740""
","
","
","""event"",""trial"",""time""
""fullscreenenter"",""1"",""3740""
","
","","","1321.7000000029802","","","23","9102","4246","u","elianto","#3366ff99"," "," ","1","0","[2174,2911.4000000059605,3670.1000000089407,4047.800000011921]","4","2","","","9102","105","9","1","win","go","1"
"pit-trial","224","1301029","0.0-110.0","battery-v0.2","","""event"",""trial"",""time""
""fullscreenenter"",""1"",""3740""
","
","
","""event"",""trial"",""time""
""fullscreenenter"",""1"",""3740""
","
","","","-1","","","23","9102","4246","g","elianto","#f73b6a7A"," ","-1","0","-10","[]","0","2","","","9102","106","6","3","lose","go","0"
"pit-trial","225","1304732","0.0-111.0","battery-v0.2","","""event"",""trial"",""time""
""fullscreenenter"",""1"",""3740""
","
","
","""event"",""trial"",""time""
""fullscreenenter"",""1"",""3740""
","
","","","838.5","","","23","9102","4246","l","elianto","#3366ff99"," "," ","1","+10","[1689]","1","2","","","9102","107","8","1","win","go","0"
"pit-trial","226","1308569","0.0-112.0","battery-v0.2","","""event"",""trial"",""time""
""fullscreenenter"",""1"",""3740""
","
","
","""event"",""trial"",""time""
""fullscreenenter"",""1"",""3740""
","
","","","973","","","23","9102","4246","s","elianto","#3366ff99"," "," ","1","0","[1824]","1","2","","","9102","108","4","1","win","go","1"
"pit-trial","227","1312181","0.0-113.0","battery-v0.2","","""event"",""trial"",""time""
""fullscreenenter"",""1"",""3740""
","
","
","""event"",""trial"",""time""
""fullscreenenter"",""1"",""3740""
","
","","","751.7999999970198","","","23","9102","4246","u","elianto","#3366ff99"," "," ","1","+10","[1602.8999999910593]","1","2","","","9102","109","9","1","win","go","0"
"pit-trial","228","1317058","0.0-114.0","battery-v0.2","","""event"",""trial"",""time""
""fullscreenenter"",""1"",""3740""
","
","
","""event"",""trial"",""time""
""fullscreenenter"",""1"",""3740""
","
","","","-1","","","23","9102","4246","g","elianto","#f73b6a7A"," ","-1","0","-10","[]","0","2","","","9102","110","6","3","lose","go","0"
"pit-trial","229","1320680","0.0-115.0","battery-v0.2","","""event"",""trial"",""time""
""fullscreenenter"",""1"",""3740""
","
","
","""event"",""trial"",""time""
""fullscreenenter"",""1"",""3740""
","
","","","752.9000000059605","","","23","9102","4246","l","elianto","#3366ff99"," "," ","1","+10","[1612.2999999970198]","1","2","","","9102","111","8","1","win","go","0"
"pit-trial","230","1325543","0.0-116.0","battery-v0.2","","""event"",""trial"",""time""
""fullscreenenter"",""1"",""3740""
","
","
","""event"",""trial"",""time""
""fullscreenenter"",""1"",""3740""
","
","","","-1","","","23","9102","4246","p","elianto","#3366ff99","-1","-1","1","+10","[]","0","2","","","9102","112","5","2","win","no-go","0"
"pit-trial","231","1330415","0.0-117.0","battery-v0.2","","""event"",""trial"",""time""
""fullscreenenter"",""1"",""3740""
","
","
","""event"",""trial"",""time""
""fullscreenenter"",""1"",""3740""
","
","","","-1","","","23","9102","4246","u","elianto","#3366ff99"," ","-1","0","0","[]","0","2","","","9102","113","9","1","win","go","0"
"pit-trial","232","1335276","0.0-118.0","battery-v0.2","","""event"",""trial"",""time""
""fullscreenenter"",""1"",""3740""
","
","
","""event"",""trial"",""time""
""fullscreenenter"",""1"",""3740""
","
","","","-1","","","23","9102","4246","p","elianto","#3366ff99","-1","-1","1","+10","[]","0","2","","","9102","114","5","2","win","no-go","0"
"pit-trial","233","1340135","0.0-119.0","battery-v0.2","","""event"",""trial"",""time""
""fullscreenenter"",""1"",""3740""
","
","
","""event"",""trial"",""time""
""fullscreenenter"",""1"",""3740""
","
","","","-1","","","23","9102","4246","g","elianto","#f73b6a7A"," ","-1","0","-10","[]","0","2","","","9102","115","6","3","lose","go","0"
"pit-trial","234","1343871","0.0-120.0","battery-v0.2","","""event"",""trial"",""time""
""fullscreenenter"",""1"",""3740""
","
","
","""event"",""trial"",""time""
""fullscreenenter"",""1"",""3740""
","
","","","873","","","23","9102","4246","l","elianto","#3366ff99"," "," ","1","+10","[1726.9000000059605]","1","2","","","9102","116","8","1","win","go","0"
"pit-trial","235","1348730","0.0-121.0","battery-v0.2","","""event"",""trial"",""time""
""fullscreenenter"",""1"",""3740""
","
","
","""event"",""trial"",""time""
""fullscreenenter"",""1"",""3740""
","
","","","-1","","","23","9102","4246","p","elianto","#3366ff99","-1","-1","1","+10","[]","0","2","","","9102","117","5","2","win","no-go","0"
"pit-trial","236","1352365","0.0-122.0","battery-v0.2","","""event"",""trial"",""time""
""fullscreenenter"",""1"",""3740""
","
","
","""event"",""trial"",""time""
""fullscreenenter"",""1"",""3740""
","
","","","766","","","23","9102","4246","l","elianto","#3366ff99"," "," ","1","+10","[1616.2000000029802]","1","2","","","9102","118","8","1","win","go","0"
"pit-trial","237","1356875","0.0-123.0","battery-v0.2","","""event"",""trial"",""time""
""fullscreenenter"",""1"",""3740""
","
","
","""event"",""trial"",""time""
""fullscreenenter"",""1"",""3740""
","
","","","1646.5999999940395","","","23","9102","4246","u","elianto","#3366ff99"," "," ","1","+10","[2499.4000000059605]","1","2","","","9102","119","9","1","win","go","0"
"pit-trial","238","1360863","0.0-124.0","battery-v0.2","","""event"",""trial"",""time""
""fullscreenenter"",""1"",""3740""
","
","
","""event"",""trial"",""time""
""fullscreenenter"",""1"",""3740""
","
","","","1131.5","","","23","9102","4246","g","elianto","#f73b6a7A"," "," ","1","0","[1982.699999988079]","1","2","","","9102","120","6","3","lose","go","0"
"pit-trial","239","1365076","0.0-125.0","battery-v0.2","","""event"",""trial"",""time""
""fullscreenenter"",""1"",""3740""
","
","
","""event"",""trial"",""time""
""fullscreenenter"",""1"",""3740""
","
","","","1348.3999999910593","","","23","9102","4246","g","elianto","#f73b6a7A"," "," ","1","0","[2202.2999999970198]","1","2","","","9102","121","6","3","lose","go","0"
"pit-trial","240","1368991","0.0-126.0","battery-v0.2","","""event"",""trial"",""time""
""fullscreenenter"",""1"",""3740""
","
","
","""event"",""trial"",""time""
""fullscreenenter"",""1"",""3740""
","
","","","1053.7000000029802","","","23","9102","4246","u","elianto","#3366ff99"," "," ","1","+10","[1903.9000000059605]","1","2","","","9102","122","9","1","win","go","0"
"pit-trial","241","1372585","0.0-127.0","battery-v0.2","","""event"",""trial"",""time""
""fullscreenenter"",""1"",""3740""
","
","
","""event"",""trial"",""time""
""fullscreenenter"",""1"",""3740""
","
","","","736.4000000059605","","","23","9102","4246","l","elianto","#3366ff99"," "," ","1","+10","[1587]","1","2","","","9102","123","8","1","win","go","0"
"pit-trial","242","1377469","0.0-128.0","battery-v0.2","","""event"",""trial"",""time""
""fullscreenenter"",""1"",""3740""
","
","
","""event"",""trial"",""time""
""fullscreenenter"",""1"",""3740""
","
","","","-1","","","23","9102","4246","a","elianto","#f73b6a7A","-1","-1","1","0","[]","0","2","","","9102","124","7","4","lose","no-go","0"
"pit-trial","243","1381736","0.0-129.0","battery-v0.2","","""event"",""trial"",""time""
""fullscreenenter"",""1"",""3740""
","
","
","""event"",""trial"",""time""
""fullscreenenter"",""1"",""3740""
","
","","","1403.5","","","23","9102","4246","a","elianto","#f73b6a7A","-1"," ","0","0","[2260.1000000089407]","1","2","","","9102","125","7","4","lose","no-go","1"
"pit-trial","244","1385355","0.0-130.0","battery-v0.2","","""event"",""trial"",""time""
""fullscreenenter"",""1"",""3740""
","
","
","""event"",""trial"",""time""
""fullscreenenter"",""1"",""3740""
","
","","","752","","","23","9102","4246","l","elianto","#3366ff99"," "," ","1","+10","[1605.9000000059605]","1","2","","","9102","126","8","1","win","go","0"
"pit-trial","245","1389280","0.0-131.0","battery-v0.2","","""event"",""trial"",""time""
""fullscreenenter"",""1"",""3740""
","
","
","""event"",""trial"",""time""
""fullscreenenter"",""1"",""3740""
","
","","","1069.2999999970198","","","23","9102","4246","g","elianto","#f73b6a7A"," "," ","1","-10","[1920]","1","2","","","9102","127","6","3","lose","go","1"
"pit-trial","246","1392913","0.0-132.0","battery-v0.2","","""event"",""trial"",""time""
""fullscreenenter"",""1"",""3740""
","
","
","""event"",""trial"",""time""
""fullscreenenter"",""1"",""3740""
","
","","","767.6999999880791","","","23","9102","4246","u","elianto","#3366ff99"," "," ","1","0","[1626.0999999940395]","1","2","","","9102","128","9","1","win","go","1"
"pit-trial","247","1397782","0.0-133.0","battery-v0.2","","""event"",""trial"",""time""
""fullscreenenter"",""1"",""3740""
","
","
","""event"",""trial"",""time""
""fullscreenenter"",""1"",""3740""
","
","","","-1","","","23","9102","4246","g","elianto","#f73b6a7A"," ","-1","0","0","[]","0","2","","","9102","129","6","3","lose","go","1"
"pit-trial","248","1402643","0.0-134.0","battery-v0.2","","""event"",""trial"",""time""
""fullscreenenter"",""1"",""3740""
","
","
","""event"",""trial"",""time""
""fullscreenenter"",""1"",""3740""
","
","","","-1","","","23","9102","4246","a","elianto","#f73b6a7A","-1","-1","1","0","[]","0","2","","","9102","130","7","4","lose","no-go","0"
"pit-trial","249","1406225","0.0-135.0","battery-v0.2","","""event"",""trial"",""time""
""fullscreenenter"",""1"",""3740""
","
","
","""event"",""trial"",""time""
""fullscreenenter"",""1"",""3740""
","
","","","720","","","23","9102","4246","l","elianto","#3366ff99"," "," ","1","+10","[1573.4000000059605]","1","2","","","9102","131","8","1","win","go","0"
"pit-trial","250","1411094","0.0-136.0","battery-v0.2","","""event"",""trial"",""time""
""fullscreenenter"",""1"",""3740""
","
","
","""event"",""trial"",""time""
""fullscreenenter"",""1"",""3740""
","
","","","-1","","","23","9102","4246","u","elianto","#3366ff99"," ","-1","0","0","[]","0","2","","","9102","132","9","1","win","go","0"
"pit-trial","251","1414626","0.0-137.0","battery-v0.2","","""event"",""trial"",""time""
""fullscreenenter"",""1"",""3740""
","
","
","""event"",""trial"",""time""
""fullscreenenter"",""1"",""3740""
","
","","","657.2000000029802","","","23","9102","4246","l","elianto","#3366ff99"," "," ","1","+10","[1510.7999999970198]","1","2","","","9102","133","8","1","win","go","0"
"pit-trial","252","1419509","0.0-138.0","battery-v0.2","","""event"",""trial"",""time""
""fullscreenenter"",""1"",""3740""
","
","
","""event"",""trial"",""time""
""fullscreenenter"",""1"",""3740""
","
","","","-1","","","23","9102","4246","g","elianto","#f73b6a7A"," ","-1","0","0","[]","0","2","","","9102","134","6","3","lose","go","1"
"pit-trial","253","1423519","0.0-139.0","battery-v0.2","","""event"",""trial"",""time""
""fullscreenenter"",""1"",""3740""
","
","
","""event"",""trial"",""time""
""fullscreenenter"",""1"",""3740""
","
","","","1147.2000000029802","","","23","9102","4246","u","elianto","#3366ff99"," "," ","1","+10","[2001.2000000029802]","1","2","","","9102","135","9","1","win","go","0"
"pit-trial","254","1428389","0.0-140.0","battery-v0.2","","""event"",""trial"",""time""
""fullscreenenter"",""1"",""3740""
","
","
","""event"",""trial"",""time""
""fullscreenenter"",""1"",""3740""
","
","","","-1","","","23","9102","4246","a","elianto","#f73b6a7A","-1","-1","1","0","[]","0","2","","","9102","136","7","4","lose","no-go","0"
"pit-trial","255","1433251","0.0-141.0","battery-v0.2","","""event"",""trial"",""time""
""fullscreenenter"",""1"",""3740""
","
","
","""event"",""trial"",""time""
""fullscreenenter"",""1"",""3740""
","
","","","-1","","","23","9102","4246","g","elianto","#f73b6a7A"," ","-1","0","-10","[]","0","2","","","9102","137","6","3","lose","go","0"
"pit-trial","256","1436878","0.0-142.0","battery-v0.2","","""event"",""trial"",""time""
""fullscreenenter"",""1"",""3740""
","
","
","""event"",""trial"",""time""
""fullscreenenter"",""1"",""3740""
","
","","","762.7000000029802","","","23","9102","4246","l","elianto","#3366ff99"," "," ","1","+10","[1616.7999999970198]","1","2","","","9102","138","8","1","win","go","0"
"pit-trial","257","1440953","0.0-143.0","battery-v0.2","","""event"",""trial"",""time""
