"trial_type","trial_index","time_elapsed","internal_node_id","task_version","subject_id","interactions","blur_events","focus_events","fullscreenenter_events","fullscreenexit_events","success","view_history","rt","responses","num_errors","age","subject","participantId","rune","rune_set","hex","correct","choice","accuracy","outcome","keys","total_keys","block","practice","value","sub","trial","stimulus","robot","valence","action","sham"
"pavlovia","0","8","0.0-0.0","battery-v0.2","","""event"",""trial"",""time""
""fullscreenenter"",""1"",""31089""
","
","
","""event"",""trial"",""time""
""fullscreenenter"",""1"",""31089""
","
","","","","","","","","","","","","","","","","","","","","","","","","","","",""
"fullscreen","1","32059","0.0-1.0","battery-v0.2","","""event"",""trial"",""time""
""fullscreenenter"",""1"",""31089""
","
","
","""event"",""trial"",""time""
""fullscreenenter"",""1"",""31089""
","
","true","","","","","","","","","","","","","","","","","","","","","","","","","",""
"pit-instructions","2","38904","0.0-2.0-0.0","battery-v0.2","","""event"",""trial"",""time""
""fullscreenenter"",""1"",""31089""
","
","
","""event"",""trial"",""time""
""fullscreenenter"",""1"",""31089""
","
","","[{""page_index"":0,""viewing_time"":6838.700000000186}]","6839.200000000186","","","","","","","","","","","","","","","","","","","","","","","",""
"pit-comprehension","3","43153","0.0-2.0-1.0-0.0","battery-v0.2","","""event"",""trial"",""time""
""fullscreenenter"",""1"",""31089""
","
","
","""event"",""trial"",""time""
""fullscreenenter"",""1"",""31089""
","
","","","4246","[""shark""]","0","10","3794","1231","","","","","","","","","","","","","","","","","","",""
"pit-instructions","4","46220","0.0-2.0-1.0-1.0","battery-v0.2","","""event"",""trial"",""time""
""fullscreenenter"",""1"",""31089""
","
","
","""event"",""trial"",""time""
""fullscreenenter"",""1"",""31089""
","
","","[{""page_index"":0,""viewing_time"":3056.9000000003725}]","3057.2000000001863","","","","","","","","","","","","","","","","","","","","","","","",""
"pit-comprehension","5","49630","0.0-2.0-2.0-0.0","battery-v0.2","","""event"",""trial"",""time""
""fullscreenenter"",""1"",""31089""
","
","
","""event"",""trial"",""time""
""fullscreenenter"",""1"",""31089""
","
","","","3407.600000000559","[""tiger""]","0","10","3794","1231","","","","","","","","","","","","","","","","","","",""
"pit-instructions","6","50993","0.0-2.0-2.0-1.0","battery-v0.2","","""event"",""trial"",""time""
""fullscreenenter"",""1"",""31089""
","
","
","""event"",""trial"",""time""
""fullscreenenter"",""1"",""31089""
","
","","[{""page_index"":0,""viewing_time"":1360.0999999996275}]","1360.4000000003725","","","","","","","","","","","","","","","","","","","","","","","",""
"pit-instructions","7","161760","0.0-2.0-3.0","battery-v0.2","","""event"",""trial"",""time""
""fullscreenenter"",""1"",""31089""
","
","
","""event"",""trial"",""time""
""fullscreenenter"",""1"",""31089""
","
","","[{""page_index"":0,""viewing_time"":10768},{""page_index"":1,""viewing_time"":6090},{""page_index"":2,""viewing_time"":8744.299999999814},{""page_index"":3,""viewing_time"":5615.800000000745},{""page_index"":4,""viewing_time"":6241},{""page_index"":5,""viewing_time"":7383.5},{""page_index"":6,""viewing_time"":9057.899999999441},{""page_index"":7,""viewing_time"":6715.600000000559},{""page_index"":8,""viewing_time"":9480.399999999441},{""page_index"":9,""viewing_time"":9553.700000000186},{""page_index"":10,""viewing_time"":7460.4000000003725},{""page_index"":11,""viewing_time"":8630.099999999627},{""page_index"":12,""viewing_time"":7170.5999999996275},{""page_index"":13,""viewing_time"":7853}]","110764.70000000019","","","","","","","","","","","","","","","","","","","","","","","",""
"pit-trial","8","165085","0.0-2.0-4.0-0.0","battery-v0.2","","""event"",""trial"",""time""
""fullscreenenter"",""1"",""31089""
","
","
","""event"",""trial"",""time""
""fullscreenenter"",""1"",""31089""
","
","","","460.20000000018626","","","10","3794","1231","&#9784;","elianto","#FFFFF080"," "," ","1","&#10004","[1320.1000000005588]","1","0","0","","","","","","","",""
"pit-trial","9","168204","0.0-2.0-4.1-0.1","battery-v0.2","","""event"",""trial"",""time""
""fullscreenenter"",""1"",""31089""
","
","
","""event"",""trial"",""time""
""fullscreenenter"",""1"",""31089""
","
","","","257","","","10","3794","1231","&#9784;","elianto","#FFFFF080"," "," ","1","&#10004","[1107.1000000005588]","1","0","0","","","","","","","",""
"pit-trial","10","171495","0.0-2.0-4.2-0.2","battery-v0.2","","""event"",""trial"",""time""
""fullscreenenter"",""1"",""31089""
","
","
","""event"",""trial"",""time""
""fullscreenenter"",""1"",""31089""
","
","","","418.69999999925494","","","10","3794","1231","&#9784;","elianto","#FFFFF080"," "," ","1","&#10004","[1277.199999999255]","1","0","0","","","","","","","",""
"pit-trial","11","174776","0.0-2.0-4.3-0.3","battery-v0.2","","""event"",""trial"",""time""
""fullscreenenter"",""1"",""31089""
","
","
","""event"",""trial"",""time""
""fullscreenenter"",""1"",""31089""
","
","","","413.29999999981374","","","10","3794","1231","&#9784;","elianto","#FFFFF080"," "," ","1","&#10004","[1263.5]","1","0","0","","","","","","","",""
"pit-trial","12","177839","0.0-2.0-4.4-0.4","battery-v0.2","","""event"",""trial"",""time""
""fullscreenenter"",""1"",""31089""
","
","
","""event"",""trial"",""time""
""fullscreenenter"",""1"",""31089""
","
","","","206.20000000018626","","","10","3794","1231","&#9784;","elianto","#FFFFF080"," "," ","1","&#10004","[1056.4000000003725]","1","0","0","","","","","","","",""
"pit-instructions","13","209368","0.0-2.0-5.0","battery-v0.2","","""event"",""trial"",""time""
""fullscreenenter"",""1"",""31089""
","
","
","""event"",""trial"",""time""
""fullscreenenter"",""1"",""31089""
","
","","[{""page_index"":0,""viewing_time"":9836.5},{""page_index"":1,""viewing_time"":8197.799999999814},{""page_index"":2,""viewing_time"":6994.600000000559},{""page_index"":3,""viewing_time"":6498}]","31527.200000000186","","","","","","","","","","","","","","","","","","","","","","","",""
"pit-trial","14","214254","0.0-2.0-6.0-0.0","battery-v0.2","","""event"",""trial"",""time""
""fullscreenenter"",""1"",""31089""
","
","
","""event"",""trial"",""time""
""fullscreenenter"",""1"",""31089""
","
","","","-1","","","10","3794","1231","&#9854;","elianto","#FFFFF080","-1","-1","1","&#10004","[]","0","0","1","","","","","","","",""
"pit-trial","15","219133","0.0-2.0-6.1-0.1","battery-v0.2","","""event"",""trial"",""time""
""fullscreenenter"",""1"",""31089""
","
","
","""event"",""trial"",""time""
""fullscreenenter"",""1"",""31089""
","
","","","-1","","","10","3794","1231","&#9854;","elianto","#FFFFF080","-1","-1","1","&#10004","[]","0","0","1","","","","","","","",""
"pit-trial","16","224011","0.0-2.0-6.2-0.2","battery-v0.2","","""event"",""trial"",""time""
""fullscreenenter"",""1"",""31089""
","
","
","""event"",""trial"",""time""
""fullscreenenter"",""1"",""31089""
","
","","","-1","","","10","3794","1231","&#9854;","elianto","#FFFFF080","-1","-1","1","&#10004","[]","0","0","1","","","","","","","",""
"pit-trial","17","228890","0.0-2.0-6.3-0.3","battery-v0.2","","""event"",""trial"",""time""
""fullscreenenter"",""1"",""31089""
","
","
","""event"",""trial"",""time""
""fullscreenenter"",""1"",""31089""
","
","","","-1","","","10","3794","1231","&#9854;","elianto","#FFFFF080","-1","-1","1","&#10004","[]","0","0","1","","","","","","","",""
"pit-trial","18","233768","0.0-2.0-6.4-0.4","battery-v0.2","","""event"",""trial"",""time""
""fullscreenenter"",""1"",""31089""
","
","
","""event"",""trial"",""time""
""fullscreenenter"",""1"",""31089""
","
","","","-1","","","10","3794","1231","&#9854;","elianto","#FFFFF080","-1","-1","1","&#10004","[]","0","0","1","","","","","","","",""
"pit-instructions","19","415230","0.0-2.0-7.0","battery-v0.2","","""event"",""trial"",""time""
""fullscreenenter"",""1"",""31089""
","
","
","""event"",""trial"",""time""
""fullscreenenter"",""1"",""31089""
","
","","[{""page_index"":0,""viewing_time"":23310.800000000745},{""page_index"":1,""viewing_time"":8733.199999999255},{""page_index"":2,""viewing_time"":11001.700000000186},{""page_index"":3,""viewing_time"":17859},{""page_index"":4,""viewing_time"":6899.600000000559},{""page_index"":5,""viewing_time"":6681.899999999441},{""page_index"":6,""viewing_time"":6601},{""page_index"":7,""viewing_time"":11616.200000000186},{""page_index"":8,""viewing_time"":6376.4000000003725},{""page_index"":9,""viewing_time"":7480.699999999255},{""page_index"":10,""viewing_time"":8479.400000000373},{""page_index"":11,""viewing_time"":5437.299999999814},{""page_index"":12,""viewing_time"":6648.100000000559},{""page_index"":13,""viewing_time"":11747.5},{""page_index"":14,""viewing_time"":16017.099999999627},{""page_index"":15,""viewing_time"":7400.299999999814},{""page_index"":16,""viewing_time"":8242.700000000186},{""page_index"":17,""viewing_time"":10924.599999999627}]","181458.10000000056","","","","","","","","","","","","","","","","","","","","","","","",""
"pit-trial","20","419454","0.0-2.0-8.0-0.0","battery-v0.2","","""event"",""trial"",""time""
""fullscreenenter"",""1"",""31089""
","
","
","""event"",""trial"",""time""
""fullscreenenter"",""1"",""31089""
","
","","","1351.5999999996275","","","10","3794","1231","&#9776;","elianto","#3366ff99"," "," ","1","+10","[2209.600000000559]","1","0","1","","","","","","","",""
"pit-trial","21","422884","0.0-2.0-8.0-1.0","battery-v0.2","","""event"",""trial"",""time""
""fullscreenenter"",""1"",""31089""
","
","
","""event"",""trial"",""time""
""fullscreenenter"",""1"",""31089""
","
","","","557.2999999998137","","","10","3794","1231","&#9776;","elianto","#3366ff99"," "," ","1","+10","[1407.9000000003725]","1","0","1","","","","","","","",""
"pit-trial","22","426380","0.0-2.0-8.0-2.0","battery-v0.2","","""event"",""trial"",""time""
""fullscreenenter"",""1"",""31089""
","
","
","""event"",""trial"",""time""
""fullscreenenter"",""1"",""31089""
","
","","","631.2999999998137","","","10","3794","1231","&#9776;","elianto","#3366ff99"," "," ","1","+10","[1481.5,3264.5999999996275]","2","0","1","","","","","","","",""
"pit-trial","23","430443","0.0-2.0-8.0-3.0","battery-v0.2","","""event"",""trial"",""time""
""fullscreenenter"",""1"",""31089""
","
","
","""event"",""trial"",""time""
""fullscreenenter"",""1"",""31089""
","
","","","1208.2999999998137","","","10","3794","1231","&#9776;","elianto","#3366ff99"," "," ","1","0","[2058.7999999998137]","1","0","1","","","","","","","",""
"pit-trial","24","435322","0.0-2.0-8.0-4.0","battery-v0.2","","""event"",""trial"",""time""
""fullscreenenter"",""1"",""31089""
","
","
","""event"",""trial"",""time""
""fullscreenenter"",""1"",""31089""
","
","","","-1","","","10","3794","1231","&#9776;","elianto","#3366ff99"," ","-1","0","0","[]","0","0","1","","","","","","","",""
"pit-trial","25","438685","0.0-2.0-8.1-0.1","battery-v0.2","","""event"",""trial"",""time""
""fullscreenenter"",""1"",""31089""
","
","
","""event"",""trial"",""time""
""fullscreenenter"",""1"",""31089""
","
","","","489.40000000037253","","","10","3794","1231","&#9776;","elianto","#3366ff99"," "," ","1","+10","[1349.2999999998137]","1","0","1","","","","","","","",""
"pit-trial","26","442697","0.0-2.0-8.1-1.1","battery-v0.2","","""event"",""trial"",""time""
""fullscreenenter"",""1"",""31089""
","
","
","""event"",""trial"",""time""
""fullscreenenter"",""1"",""31089""
","
","","","1144.4000000003725","","","10","3794","1231","&#9776;","elianto","#3366ff99"," "," ","1","+10","[1994.7000000001863]","1","0","1","","","","","","","",""
"pit-trial","27","446238","0.0-2.0-8.1-2.1","battery-v0.2","","""event"",""trial"",""time""
""fullscreenenter"",""1"",""31089""
","
","
","""event"",""trial"",""time""
""fullscreenenter"",""1"",""31089""
","
","","","683.8000000007451","","","10","3794","1231","&#9776;","elianto","#3366ff99"," "," ","1","+10","[1534.800000000745]","1","0","1","","","","","","","",""
"pit-trial","28","449470","0.0-2.0-8.1-3.1","battery-v0.2","","""event"",""trial"",""time""
""fullscreenenter"",""1"",""31089""
","
","
","""event"",""trial"",""time""
""fullscreenenter"",""1"",""31089""
","
","","","363.79999999981374","","","10","3794","1231","&#9776;","elianto","#3366ff99"," "," ","1","0","[1217]","1","0","1","","","","","","","",""
"pit-trial","29","453648","0.0-2.0-8.1-4.1","battery-v0.2","","""event"",""trial"",""time""
""fullscreenenter"",""1"",""31089""
","
","
","""event"",""trial"",""time""
""fullscreenenter"",""1"",""31089""
","
","","","1312.3999999994412","","","10","3794","1231","&#9776;","elianto","#3366ff99"," "," ","1","+10","[2165.2000000001863]","1","0","1","","","","","","","",""
"pit-trial","30","457626","0.0-2.0-8.2-0.2","battery-v0.2","","""event"",""trial"",""time""
""fullscreenenter"",""1"",""31089""
","
","
","""event"",""trial"",""time""
""fullscreenenter"",""1"",""31089""
","
","","","1108.2999999998137","","","10","3794","1231","&#9776;","elianto","#3366ff99"," "," ","1","+10","[1961.0999999996275]","1","0","1","","","","","","","",""
"pit-trial","31","460973","0.0-2.0-8.2-1.2","battery-v0.2","","""event"",""trial"",""time""
""fullscreenenter"",""1"",""31089""
","
","
","""event"",""trial"",""time""
""fullscreenenter"",""1"",""31089""
","
","","","485.40000000037253","","","10","3794","1231","&#9776;","elianto","#3366ff99"," "," ","1","+10","[1340.6000000005588]","1","0","1","","","","","","","",""
"pit-trial","32","464344","0.0-2.0-8.2-2.2","battery-v0.2","","""event"",""trial"",""time""
""fullscreenenter"",""1"",""31089""
","
","
","""event"",""trial"",""time""
""fullscreenenter"",""1"",""31089""
","
","","","505.29999999981374","","","10","3794","1231","&#9776;","elianto","#3366ff99"," "," ","1","+10","[1359.6000000005588]","1","0","1","","","","","","","",""
"pit-trial","33","469222","0.0-2.0-8.2-3.2","battery-v0.2","","""event"",""trial"",""time""
""fullscreenenter"",""1"",""31089""
","
","
","""event"",""trial"",""time""
""fullscreenenter"",""1"",""31089""
","
","","","-1","","","10","3794","1231","&#9776;","elianto","#3366ff99"," ","-1","0","+10","[3685.2999999998137]","1","0","1","","","","","","","",""
"pit-trial","34","472845","0.0-2.0-8.2-4.2","battery-v0.2","","""event"",""trial"",""time""
""fullscreenenter"",""1"",""31089""
","
","
","""event"",""trial"",""time""
""fullscreenenter"",""1"",""31089""
","
","","","767.5999999996275","","","10","3794","1231","&#9776;","elianto","#3366ff99"," "," ","1","+10","[1618,3492.7999999998137]","2","0","1","","","","","","","",""
"call-function","35","472847","0.0-2.0-9.0","battery-v0.2","","""event"",""trial"",""time""
""fullscreenenter"",""1"",""31089""
","
","
","""event"",""trial"",""time""
""fullscreenenter"",""1"",""31089""
","
","","","","","","","","","","","","","","","","","","","","","","","","","","",""
"pit-instructions","36","562202","0.0-2.0-10.0","battery-v0.2","","""event"",""trial"",""time""
""fullscreenenter"",""1"",""31089""
","
","
","""event"",""trial"",""time""
""fullscreenenter"",""1"",""31089""
","
","","[{""page_index"":0,""viewing_time"":16163.5},{""page_index"":1,""viewing_time"":13977.899999999441},{""page_index"":2,""viewing_time"":36978.5},{""page_index"":3,""viewing_time"":10316.800000000745},{""page_index"":4,""viewing_time"":11917.5}]","89354.79999999981","","","","","","","","","","","","","","","","","","","","","","","",""
"pit-trial","37","566809","0.0-2.0-11.0-0.0","battery-v0.2","","""event"",""trial"",""time""
""fullscreenenter"",""1"",""31089""
","
","
","""event"",""trial"",""time""
""fullscreenenter"",""1"",""31089""
","
","","","1727.7999999998137","","","10","3794","1231","&#9761;","elianto","#3366ff99","-1"," ","0","0","[2587.5]","1","0","2","","","","","","","",""
"pit-trial","38","570008","0.0-2.0-11.0-1.0","battery-v0.2","","""event"",""trial"",""time""
""fullscreenenter"",""1"",""31089""
","
","
","""event"",""trial"",""time""
""fullscreenenter"",""1"",""31089""
","
","","","328.09999999962747","","","10","3794","1231","&#9761;","elianto","#3366ff99","-1"," ","0","0","[1178.2000000001863]","1","0","2","","","","","","","",""
"pit-trial","39","574885","0.0-2.0-11.0-2.0","battery-v0.2","","""event"",""trial"",""time""
""fullscreenenter"",""1"",""31089""
","
","
","""event"",""trial"",""time""
""fullscreenenter"",""1"",""31089""
","
","","","-1","","","10","3794","1231","&#9761;","elianto","#3366ff99","-1","-1","1","+10","[]","0","0","2","","","","","","","",""
"pit-trial","40","579763","0.0-2.0-11.0-3.0","battery-v0.2","","""event"",""trial"",""time""
""fullscreenenter"",""1"",""31089""
","
","
","""event"",""trial"",""time""
""fullscreenenter"",""1"",""31089""
","
","","","-1","","","10","3794","1231","&#9761;","elianto","#3366ff99","-1","-1","1","0","[26.09999999962747,3203.0999999996275]","2","0","2","","","","","","","",""
"pit-trial","41","583459","0.0-2.0-11.0-4.0","battery-v0.2","","""event"",""trial"",""time""
""fullscreenenter"",""1"",""31089""
","
","
","""event"",""trial"",""time""
""fullscreenenter"",""1"",""31089""
","
","","","826.2999999998137","","","10","3794","1231","&#9761;","elianto","#3366ff99","-1"," ","0","0","[1676.5,2971]","2","0","2","","","","","","","",""
"pit-trial","42","586807","0.0-2.0-11.1-0.1","battery-v0.2","","""event"",""trial"",""time""
""fullscreenenter"",""1"",""31089""
","
","
","""event"",""trial"",""time""
""fullscreenenter"",""1"",""31089""
","
","","","482.20000000018626","","","10","3794","1231","&#9761;","elianto","#3366ff99","-1"," ","0","0","[1332.2999999998137]","1","0","2","","","","","","","",""
"pit-trial","43","591680","0.0-2.0-11.1-1.1","battery-v0.2","","""event"",""trial"",""time""
""fullscreenenter"",""1"",""31089""
","
","
","""event"",""trial"",""time""
""fullscreenenter"",""1"",""31089""
","
","","","-1","","","10","3794","1231","&#9761;","elianto","#3366ff99","-1","-1","1","+10","[3745.300000000745]","1","0","2","","","","","","","",""
"pit-trial","44","595548","0.0-2.0-11.1-2.1","battery-v0.2","","""event"",""trial"",""time""
""fullscreenenter"",""1"",""31089""
","
","
","""event"",""trial"",""time""
""fullscreenenter"",""1"",""31089""
","
","","","1005.6000000005588","","","10","3794","1231","&#9761;","elianto","#3366ff99","-1"," ","0","0","[1858.9000000003725]","1","0","2","","","","","","","",""
"pit-trial","45","599138","0.0-2.0-11.1-3.1","battery-v0.2","","""event"",""trial"",""time""
""fullscreenenter"",""1"",""31089""
","
","
","""event"",""trial"",""time""
""fullscreenenter"",""1"",""31089""
","
","","","724.4000000003725","","","10","3794","1231","&#9761;","elianto","#3366ff99","-1"," ","0","+10","[1574.5]","1","0","2","","","","","","","",""
"pit-trial","46","602884","0.0-2.0-11.1-4.1","battery-v0.2","","""event"",""trial"",""time""
""fullscreenenter"",""1"",""31089""
","
","
","""event"",""trial"",""time""
""fullscreenenter"",""1"",""31089""
","
","","","876","","","10","3794","1231","&#9761;","elianto","#3366ff99","-1"," ","0","0","[1731]","1","0","2","","","","","","","",""
"pit-trial","47","606364","0.0-2.0-11.2-0.2","battery-v0.2","","""event"",""trial"",""time""
""fullscreenenter"",""1"",""31089""
","
","
","""event"",""trial"",""time""
""fullscreenenter"",""1"",""31089""
","
","","","611.1999999992549","","","10","3794","1231","&#9761;","elianto","#3366ff99","-1"," ","0","0","[1465.7000000001863]","1","0","2","","","","","","","",""
"pit-trial","48","609462","0.0-2.0-11.2-1.2","battery-v0.2","","""event"",""trial"",""time""
""fullscreenenter"",""1"",""31089""
","
","
","""event"",""trial"",""time""
""fullscreenenter"",""1"",""31089""
","
","","","233.20000000018626","","","10","3794","1231","&#9761;","elianto","#3366ff99","-1"," ","0","0","[1088]","1","0","2","","","","","","","",""
"pit-trial","49","612988","0.0-2.0-11.2-2.2","battery-v0.2","","""event"",""trial"",""time""
""fullscreenenter"",""1"",""31089""
","
","
","""event"",""trial"",""time""
""fullscreenenter"",""1"",""31089""
","
","","","659","","","10","3794","1231","&#9761;","elianto","#3366ff99","-1"," ","0","0","[1516.2999999998137]","1","0","2","","","","","","","",""
"pit-trial","50","617208","0.0-2.0-11.2-3.2","battery-v0.2","","""event"",""trial"",""time""
""fullscreenenter"",""1"",""31089""
","
","
","""event"",""trial"",""time""
""fullscreenenter"",""1"",""31089""
","
","","","1350.7999999998137","","","10","3794","1231","&#9761;","elianto","#3366ff99","-1"," ","0","+10","[2208.5999999996275]","1","0","2","","","","","","","",""
"pit-trial","51","622085","0.0-2.0-11.2-4.2","battery-v0.2","","""event"",""trial"",""time""
""fullscreenenter"",""1"",""31089""
","
","
","""event"",""trial"",""time""
""fullscreenenter"",""1"",""31089""
","
","","","-1","","","10","3794","1231","&#9761;","elianto","#3366ff99","-1","-1","1","+10","[]","0","0","2","","","","","","","",""
"pit-trial","52","625713","0.0-2.0-11.3-0.3","battery-v0.2","","""event"",""trial"",""time""
""fullscreenenter"",""1"",""31089""
","
","
","""event"",""trial"",""time""
""fullscreenenter"",""1"",""31089""
","
","","","761.5","","","10","3794","1231","&#9761;","elianto","#3366ff99","-1"," ","0","0","[1613.7999999998137]","1","0","2","","","","","","","",""
"pit-trial","53","629525","0.0-2.0-11.3-1.3","battery-v0.2","","""event"",""trial"",""time""
""fullscreenenter"",""1"",""31089""
","
","
","""event"",""trial"",""time""
""fullscreenenter"",""1"",""31089""
","
","","","953.8000000007451","","","10","3794","1231","&#9761;","elianto","#3366ff99","-1"," ","0","0","[1807.2000000001863]","1","0","2","","","","","","","",""
"pit-trial","54","634404","0.0-2.0-11.3-2.3","battery-v0.2","","""event"",""trial"",""time""
""fullscreenenter"",""1"",""31089""
","
","
","""event"",""trial"",""time""
""fullscreenenter"",""1"",""31089""
","
","","","-1","","","10","3794","1231","&#9761;","elianto","#3366ff99","-1","-1","1","+10","[]","0","0","2","","","","","","","",""
"pit-trial","55","638899","0.0-2.0-11.3-3.3","battery-v0.2","","""event"",""trial"",""time""
""fullscreenenter"",""1"",""31089""
","
","
","""event"",""trial"",""time""
""fullscreenenter"",""1"",""31089""
","
","","","1624.5","","","10","3794","1231","&#9761;","elianto","#3366ff99","-1"," ","0","+10","[2478.899999999441]","1","0","2","","","","","","","",""
"pit-trial","56","642546","0.0-2.0-11.3-4.3","battery-v0.2","","""event"",""trial"",""time""
""fullscreenenter"",""1"",""31089""
","
","
","""event"",""trial"",""time""
""fullscreenenter"",""1"",""31089""
","
","","","780.1999999992549","","","10","3794","1231","&#9761;","elianto","#3366ff99","-1"," ","0","0","[1634.8999999994412]","1","0","2","","","","","","","",""
"call-function","57","642547","0.0-2.0-12.0","battery-v0.2","","""event"",""trial"",""time""
""fullscreenenter"",""1"",""31089""
","
","
","""event"",""trial"",""time""
""fullscreenenter"",""1"",""31089""
","
","","","","","","","","","","","","","","","","","","","","","","","","","","",""
"pit-instructions","58","693948","0.0-2.0-13.0","battery-v0.2","","""event"",""trial"",""time""
""fullscreenenter"",""1"",""31089""
","
","
","""event"",""trial"",""time""
""fullscreenenter"",""1"",""31089""
","
","","[{""page_index"":0,""viewing_time"":16343.099999999627},{""page_index"":1,""viewing_time"":10895.700000000186},{""page_index"":2,""viewing_time"":4832.5},{""page_index"":3,""viewing_time"":11192},{""page_index"":4,""viewing_time"":8136.9000000003725}]","51400.799999999814","","","","","","","","","","","","","","","","","","","","","","","",""
"pit-trial","59","697931","0.0-2.0-14.0-0.0","battery-v0.2","","""event"",""trial"",""time""
""fullscreenenter"",""1"",""31089""
","
","
","""event"",""trial"",""time""
""fullscreenenter"",""1"",""31089""
","
","","","1112.5999999996275","","","10","3794","1231","&#9826;","elianto","#f73b6a7A","-1"," ","0","-10","[1966.2999999998137]","1","0","3","","","","","","","",""
"pit-trial","60","701495","0.0-2.0-14.0-1.0","battery-v0.2","","""event"",""trial"",""time""
""fullscreenenter"",""1"",""31089""
","
","
","""event"",""trial"",""time""
""fullscreenenter"",""1"",""31089""
","
","","","693.1999999992549","","","10","3794","1231","&#9826;","elianto","#f73b6a7A","-1"," ","0","-10","[1543.5]","1","0","3","","","","","","","",""
"pit-trial","61","706374","0.0-2.0-14.0-2.0","battery-v0.2","","""event"",""trial"",""time""
""fullscreenenter"",""1"",""31089""
","
","
","""event"",""trial"",""time""
""fullscreenenter"",""1"",""31089""
","
","","","-1","","","10","3794","1231","&#9826;","elianto","#f73b6a7A","-1","-1","1","0","[]","0","0","3","","","","","","","",""
"pit-trial","62","711251","0.0-2.0-14.0-3.0","battery-v0.2","","""event"",""trial"",""time""
""fullscreenenter"",""1"",""31089""
","
","
","""event"",""trial"",""time""
""fullscreenenter"",""1"",""31089""
","
","","","-1","","","10","3794","1231","&#9826;","elianto","#f73b6a7A","-1","-1","1","-10","[]","0","0","3","","","","","","","",""
"pit-trial","63","716129","0.0-2.0-14.0-4.0","battery-v0.2","","""event"",""trial"",""time""
""fullscreenenter"",""1"",""31089""
","
","
","""event"",""trial"",""time""
""fullscreenenter"",""1"",""31089""
","
","","","-1","","","10","3794","1231","&#9826;","elianto","#f73b6a7A","-1","-1","1","0","[]","0","0","3","","","","","","","",""
"pit-trial","64","721007","0.0-2.0-14.1-0.1","battery-v0.2","","""event"",""trial"",""time""
""fullscreenenter"",""1"",""31089""
","
","
","""event"",""trial"",""time""
""fullscreenenter"",""1"",""31089""
","
","","","-1","","","10","3794","1231","&#9826;","elianto","#f73b6a7A","-1","-1","1","0","[]","0","0","3","","","","","","","",""
"pit-trial","65","725880","0.0-2.0-14.1-1.1","battery-v0.2","","""event"",""trial"",""time""
""fullscreenenter"",""1"",""31089""
","
","
","""event"",""trial"",""time""
""fullscreenenter"",""1"",""31089""
","
","","","-1","","","10","3794","1231","&#9826;","elianto","#f73b6a7A","-1","-1","1","0","[]","0","0","3","","","","","","","",""
"pit-trial","66","730759","0.0-2.0-14.1-2.1","battery-v0.2","","""event"",""trial"",""time""
""fullscreenenter"",""1"",""31089""
","
","
","""event"",""trial"",""time""
""fullscreenenter"",""1"",""31089""
","
","","","-1","","","10","3794","1231","&#9826;","elianto","#f73b6a7A","-1","-1","1","0","[]","0","0","3","","","","","","","",""
"pit-trial","67","735623","0.0-2.0-14.1-3.1","battery-v0.2","","""event"",""trial"",""time""
""fullscreenenter"",""1"",""31089""
","
","
","""event"",""trial"",""time""
""fullscreenenter"",""1"",""31089""
","
","","","-1","","","10","3794","1231","&#9826;","elianto","#f73b6a7A","-1","-1","1","-10","[]","0","0","3","","","","","","","",""
"pit-trial","68","740491","0.0-2.0-14.1-4.1","battery-v0.2","","""event"",""trial"",""time""
""fullscreenenter"",""1"",""31089""
","
","
","""event"",""trial"",""time""
""fullscreenenter"",""1"",""31089""
","
","","","-1","","","10","3794","1231","&#9826;","elianto","#f73b6a7A","-1","-1","1","0","[]","0","0","3","","","","","","","",""
"pit-trial","69","745378","0.0-2.0-14.2-0.2","battery-v0.2","","""event"",""trial"",""time""
""fullscreenenter"",""1"",""31089""
","
","
","""event"",""trial"",""time""
""fullscreenenter"",""1"",""31089""
","
","","","-1","","","10","3794","1231","&#9826;","elianto","#f73b6a7A","-1","-1","1","0","[]","0","0","3","","","","","","","",""
"pit-trial","70","750248","0.0-2.0-14.2-1.2","battery-v0.2","","""event"",""trial"",""time""
""fullscreenenter"",""1"",""31089""
","
","
","""event"",""trial"",""time""
""fullscreenenter"",""1"",""31089""
","
","","","-1","","","10","3794","1231","&#9826;","elianto","#f73b6a7A","-1","-1","1","0","[]","0","0","3","","","","","","","",""
"pit-trial","71","755127","0.0-2.0-14.2-2.2","battery-v0.2","","""event"",""trial"",""time""
""fullscreenenter"",""1"",""31089""
","
","
","""event"",""trial"",""time""
""fullscreenenter"",""1"",""31089""
","
","","","-1","","","10","3794","1231","&#9826;","elianto","#f73b6a7A","-1","-1","1","0","[]","0","0","3","","","","","","","",""
"pit-trial","72","759988","0.0-2.0-14.2-3.2","battery-v0.2","","""event"",""trial"",""time""
""fullscreenenter"",""1"",""31089""
","
","
","""event"",""trial"",""time""
""fullscreenenter"",""1"",""31089""
","
","","","-1","","","10","3794","1231","&#9826;","elianto","#f73b6a7A","-1","-1","1","-10","[]","0","0","3","","","","","","","",""
"pit-trial","73","764860","0.0-2.0-14.2-4.2","battery-v0.2","","""event"",""trial"",""time""
""fullscreenenter"",""1"",""31089""
","
","
","""event"",""trial"",""time""
""fullscreenenter"",""1"",""31089""
","
","","","-1","","","10","3794","1231","&#9826;","elianto","#f73b6a7A","-1","-1","1","0","[]","0","0","3","","","","","","","",""
"pit-trial","74","769729","0.0-2.0-14.3-0.3","battery-v0.2","","""event"",""trial"",""time""
""fullscreenenter"",""1"",""31089""
","
","
","""event"",""trial"",""time""
""fullscreenenter"",""1"",""31089""
","
","","","-1","","","10","3794","1231","&#9826;","elianto","#f73b6a7A","-1","-1","1","0","[]","0","0","3","","","","","","","",""
"pit-trial","75","774607","0.0-2.0-14.3-1.3","battery-v0.2","","""event"",""trial"",""time""
""fullscreenenter"",""1"",""31089""
","
","
","""event"",""trial"",""time""
""fullscreenenter"",""1"",""31089""
","
","","","-1","","","10","3794","1231","&#9826;","elianto","#f73b6a7A","-1","-1","1","0","[]","0","0","3","","","","","","","",""
"pit-trial","76","779471","0.0-2.0-14.3-2.3","battery-v0.2","","""event"",""trial"",""time""
""fullscreenenter"",""1"",""31089""
","
","
","""event"",""trial"",""time""
""fullscreenenter"",""1"",""31089""
","
","","","-1","","","10","3794","1231","&#9826;","elianto","#f73b6a7A","-1","-1","1","0","[]","0","0","3","","","","","","","",""
"pit-trial","77","784332","0.0-2.0-14.3-3.3","battery-v0.2","","""event"",""trial"",""time""
""fullscreenenter"",""1"",""31089""
","
","
","""event"",""trial"",""time""
""fullscreenenter"",""1"",""31089""
","
","","","-1","","","10","3794","1231","&#9826;","elianto","#f73b6a7A","-1","-1","1","-10","[]","0","0","3","","","","","","","",""
"pit-trial","78","789202","0.0-2.0-14.3-4.3","battery-v0.2","","""event"",""trial"",""time""
""fullscreenenter"",""1"",""31089""
","
","
","""event"",""trial"",""time""
""fullscreenenter"",""1"",""31089""
","
","","","-1","","","10","3794","1231","&#9826;","elianto","#f73b6a7A","-1","-1","1","0","[]","0","0","3","","","","","","","",""
"call-function","79","789203","0.0-2.0-15.0","battery-v0.2","","""event"",""trial"",""time""
""fullscreenenter"",""1"",""31089""
","
","
","""event"",""trial"",""time""
""fullscreenenter"",""1"",""31089""
","
","","","","","","","","","","","","","","","","","","","","","","","","","","",""
"pit-instructions","80","840594","0.0-2.0-16.0","battery-v0.2","","""event"",""trial"",""time""
""fullscreenenter"",""1"",""31089""
","
","
","""event"",""trial"",""time""
""fullscreenenter"",""1"",""31089""
","
","","[{""page_index"":0,""viewing_time"":19105.299999999814},{""page_index"":1,""viewing_time"":9822.5},{""page_index"":2,""viewing_time"":13370},{""page_index"":3,""viewing_time"":9091.599999999627}]","51389.89999999944","","","","","","","","","","","","","","","","","","","","","","","",""
"pit-trial","81","845469","0.0-2.0-17.0-0.0","battery-v0.2","","""event"",""trial"",""time""
""fullscreenenter"",""1"",""31089""
","
","
","""event"",""trial"",""time""
""fullscreenenter"",""1"",""31089""
","
","","","-1","","","10","3794","1231","&#9789;","elianto","#f73b6a7A"," ","-1","0","-10","[]","0","0","4","","","","","","","",""
"pit-trial","82","850349","0.0-2.0-17.0-1.0","battery-v0.2","","""event"",""trial"",""time""
""fullscreenenter"",""1"",""31089""
","
","
","""event"",""trial"",""time""
""fullscreenenter"",""1"",""31089""
","
","","","-1","","","10","3794","1231","&#9789;","elianto","#f73b6a7A"," ","-1","0","-10","[]","0","0","4","","","","","","","",""
"pit-trial","83","855227","0.0-2.0-17.0-2.0","battery-v0.2","","""event"",""trial"",""time""
""fullscreenenter"",""1"",""31089""
","
","
","""event"",""trial"",""time""
""fullscreenenter"",""1"",""31089""
","
","","","-1","","","10","3794","1231","&#9789;","elianto","#f73b6a7A"," ","-1","0","-10","[]","0","0","4","","","","","","","",""
"pit-trial","84","860095","0.0-2.0-17.0-3.0","battery-v0.2","","""event"",""trial"",""time""
""fullscreenenter"",""1"",""31089""
","
","
","""event"",""trial"",""time""
""fullscreenenter"",""1"",""31089""
","
","","","-1","","","10","3794","1231","&#9789;","elianto","#f73b6a7A"," ","-1","0","0","[]","0","0","4","","","","","","","",""
"pit-trial","85","864968","0.0-2.0-17.0-4.0","battery-v0.2","","""event"",""trial"",""time""
""fullscreenenter"",""1"",""31089""
","
","
","""event"",""trial"",""time""
""fullscreenenter"",""1"",""31089""
","
","","","-1","","","10","3794","1231","&#9789;","elianto","#f73b6a7A"," ","-1","0","-10","[]","0","0","4","","","","","","","",""
"pit-trial","86","869843","0.0-2.0-17.1-0.1","battery-v0.2","","""event"",""trial"",""time""
""fullscreenenter"",""1"",""31089""
","
","
","""event"",""trial"",""time""
""fullscreenenter"",""1"",""31089""
","
","","","-1","","","10","3794","1231","&#9789;","elianto","#f73b6a7A"," ","-1","0","-10","[]","0","0","4","","","","","","","",""
"pit-trial","87","874709","0.0-2.0-17.1-1.1","battery-v0.2","","""event"",""trial"",""time""
""fullscreenenter"",""1"",""31089""
","
","
","""event"",""trial"",""time""
""fullscreenenter"",""1"",""31089""
","
","","","-1","","","10","3794","1231","&#9789;","elianto","#f73b6a7A"," ","-1","0","-10","[]","0","0","4","","","","","","","",""
"pit-trial","88","879581","0.0-2.0-17.1-2.1","battery-v0.2","","""event"",""trial"",""time""
""fullscreenenter"",""1"",""31089""
","
","
","""event"",""trial"",""time""
""fullscreenenter"",""1"",""31089""
","
","","","-1","","","10","3794","1231","&#9789;","elianto","#f73b6a7A"," ","-1","0","-10","[]","0","0","4","","","","","","","",""
"pit-trial","89","884450","0.0-2.0-17.1-3.1","battery-v0.2","","""event"",""trial"",""time""
""fullscreenenter"",""1"",""31089""
","
","
","""event"",""trial"",""time""
""fullscreenenter"",""1"",""31089""
","
","","","-1","","","10","3794","1231","&#9789;","elianto","#f73b6a7A"," ","-1","0","0","[]","0","0","4","","","","","","","",""
"pit-trial","90","889320","0.0-2.0-17.1-4.1","battery-v0.2","","""event"",""trial"",""time""
""fullscreenenter"",""1"",""31089""
","
","
","""event"",""trial"",""time""
""fullscreenenter"",""1"",""31089""
","
","","","-1","","","10","3794","1231","&#9789;","elianto","#f73b6a7A"," ","-1","0","-10","[]","0","0","4","","","","","","","",""
"pit-trial","91","894199","0.0-2.0-17.2-0.2","battery-v0.2","","""event"",""trial"",""time""
""fullscreenenter"",""1"",""31089""
","
","
","""event"",""trial"",""time""
""fullscreenenter"",""1"",""31089""
","
","","","-1","","","10","3794","1231","&#9789;","elianto","#f73b6a7A"," ","-1","0","-10","[]","0","0","4","","","","","","","",""
"pit-trial","92","899068","0.0-2.0-17.2-1.2","battery-v0.2","","""event"",""trial"",""time""
""fullscreenenter"",""1"",""31089""
","
","
","""event"",""trial"",""time""
""fullscreenenter"",""1"",""31089""
","
","","","-1","","","10","3794","1231","&#9789;","elianto","#f73b6a7A"," ","-1","0","-10","[]","0","0","4","","","","","","","",""
"pit-trial","93","902849","0.0-2.0-17.2-2.2","battery-v0.2","","""event"",""trial"",""time""
""fullscreenenter"",""1"",""31089""
","
","
","""event"",""trial"",""time""
""fullscreenenter"",""1"",""31089""
","
","","","906.2999999998137","","","10","3794","1231","&#9789;","elianto","#f73b6a7A"," "," ","1","0","[1767.6000000005588]","1","0","4","","","","","","","",""
"pit-trial","94","906056","0.0-2.0-17.2-3.2","battery-v0.2","","""event"",""trial"",""time""
""fullscreenenter"",""1"",""31089""
","
","
","""event"",""trial"",""time""
""fullscreenenter"",""1"",""31089""
","
","","","340.79999999981374","","","10","3794","1231","&#9789;","elianto","#f73b6a7A"," "," ","1","-10","[1199.2000000001863]","1","0","4","","","","","","","",""
"pit-trial","95","909615","0.0-2.0-17.2-4.2","battery-v0.2","","""event"",""trial"",""time""
""fullscreenenter"",""1"",""31089""
","
","
","""event"",""trial"",""time""
""fullscreenenter"",""1"",""31089""
","
","","","694","","","10","3794","1231","&#9789;","elianto","#f73b6a7A"," "," ","1","0","[1547.9000000003725]","1","0","4","","","","","","","",""
"pit-trial","96","912914","0.0-2.0-17.3-0.3","battery-v0.2","","""event"",""trial"",""time""
""fullscreenenter"",""1"",""31089""
","
","
","""event"",""trial"",""time""
""fullscreenenter"",""1"",""31089""
","
","","","428.90000000037253","","","10","3794","1231","&#9789;","elianto","#f73b6a7A"," "," ","1","0","[1285.6000000005588]","1","0","4","","","","","","","",""
"pit-trial","97","916244","0.0-2.0-17.3-1.3","battery-v0.2","","""event"",""trial"",""time""
""fullscreenenter"",""1"",""31089""
","
","
","""event"",""trial"",""time""
""fullscreenenter"",""1"",""31089""
","
","","","468.69999999925494","","","10","3794","1231","&#9789;","elianto","#f73b6a7A"," "," ","1","0","[1323.8999999994412]","1","0","4","","","","","","","",""
"pit-trial","98","920557","0.0-2.0-17.3-2.3","battery-v0.2","","""event"",""trial"",""time""
""fullscreenenter"",""1"",""31089""
","
","
","""event"",""trial"",""time""
""fullscreenenter"",""1"",""31089""
","
","","","1445.2000000001863","","","10","3794","1231","&#9789;","elianto","#f73b6a7A"," "," ","1","0","[2300.600000000559]","1","0","4","","","","","","","",""
"pit-trial","99","924120","0.0-2.0-17.3-3.3","battery-v0.2","","""event"",""trial"",""time""
""fullscreenenter"",""1"",""31089""
","
","
","""event"",""trial"",""time""
""fullscreenenter"",""1"",""31089""
","
","","","691.2999999998137","","","10","3794","1231","&#9789;","elianto","#f73b6a7A"," "," ","1","-10","[1547.5]","1","0","4","","","","","","","",""
"pit-trial","100","928125","0.0-2.0-17.3-4.3","battery-v0.2","","""event"",""trial"",""time""
""fullscreenenter"",""1"",""31089""
","
","
","""event"",""trial"",""time""
""fullscreenenter"",""1"",""31089""
","
","","","1138.5999999996275","","","10","3794","1231","&#9789;","elianto","#f73b6a7A"," "," ","1","0","[1995.4000000003725]","1","0","4","","","","","","","",""
"call-function","101","928127","0.0-2.0-18.0","battery-v0.2","","""event"",""trial"",""time""
""fullscreenenter"",""1"",""31089""
","
","
","""event"",""trial"",""time""
""fullscreenenter"",""1"",""31089""
","
","","","","","","","","","","","","","","","","","","","","","","","","","","",""
"pit-instructions","102","1009381","0.0-2.0-19.0","battery-v0.2","","""event"",""trial"",""time""
""fullscreenenter"",""1"",""31089""
","
","
","""event"",""trial"",""time""
""fullscreenenter"",""1"",""31089""
","
","","[{""page_index"":0,""viewing_time"":9871.900000000373},{""page_index"":1,""viewing_time"":10604.700000000186},{""page_index"":2,""viewing_time"":16166.5},{""page_index"":3,""viewing_time"":10975.199999999255},{""page_index"":4,""viewing_time"":9854.100000000559},{""page_index"":5,""viewing_time"":8888.099999999627},{""page_index"":6,""viewing_time"":7497},{""page_index"":7,""viewing_time"":4220.200000000186},{""page_index"":8,""viewing_time"":3174.7000000001863}]","81253.10000000056","","","","","","","","","","","","","","","","","","","","","","","",""
"pit-comprehension","103","1014524","0.0-2.0-20.0-0.0","battery-v0.2","","""event"",""trial"",""time""
""fullscreenenter"",""1"",""31089""
","
","
","""event"",""trial"",""time""
""fullscreenenter"",""1"",""31089""
","
","","","5140.4000000003725","[""SPACE""]","0","10","3794","1231","","","","","","","","","","","","","","","","","","",""
"pit-instructions","104","1019540","0.0-2.0-20.0-1.0","battery-v0.2","","""event"",""trial"",""time""
""fullscreenenter"",""1"",""31089""
","
","
","""event"",""trial"",""time""
""fullscreenenter"",""1"",""31089""
","
","","[{""page_index"":0,""viewing_time"":4979.299999999814}]","4979.700000000186","","","","","","","","","","","","","","","","","","","","","","","",""
"pit-comprehension","105","1028622","0.0-2.0-21.0-0.0","battery-v0.2","","""event"",""trial"",""time""
""fullscreenenter"",""1"",""31089""
","
","
","""event"",""trial"",""time""
""fullscreenenter"",""1"",""31089""
","
","","","9079.599999999627","[""10""]","0","10","3794","1231","","","","","","","","","","","","","","","","","","",""
"pit-instructions","106","1035056","0.0-2.0-21.0-1.0","battery-v0.2","","""event"",""trial"",""time""
""fullscreenenter"",""1"",""31089""
","
","
","""event"",""trial"",""time""
""fullscreenenter"",""1"",""31089""
","
","","[{""page_index"":0,""viewing_time"":6400.700000000186}]","6401","","","","","","","","","","","","","","","","","","","","","","","",""
"pit-comprehension","107","1042640","0.0-2.0-22.0-0.0","battery-v0.2","","""event"",""trial"",""time""
""fullscreenenter"",""1"",""31089""
","
","
","""event"",""trial"",""time""
""fullscreenenter"",""1"",""31089""
","
","","","7581.200000000186","[""-10""]","1","10","3794","1231","","","","","","","","","","","","","","","","","","",""
"pit-instructions","108","1054418","0.0-2.0-22.0-1.0","battery-v0.2","","""event"",""trial"",""time""
""fullscreenenter"",""1"",""31089""
","
","
","""event"",""trial"",""time""
""fullscreenenter"",""1"",""31089""
","
","","[{""page_index"":0,""viewing_time"":11746.5}]","11746.900000000373","","","","","","","","","","","","","","","","","","","","","","","",""
"pit-instructions","109","1056699","0.0-2.0-22.0-2.0-0.0","battery-v0.2","","""event"",""trial"",""time""
""fullscreenenter"",""1"",""31089""
","
","
","""event"",""trial"",""time""
""fullscreenenter"",""1"",""31089""
","
","","[{""page_index"":0,""viewing_time"":2279.800000000745}]","2280.100000000559","","","","","","","","","","","","","","","","","","","","","","","",""
"pit-comprehension","110","1064388","0.0-2.0-22.1-0.1","battery-v0.2","","""event"",""trial"",""time""
""fullscreenenter"",""1"",""31089""
","
","
","""event"",""trial"",""time""
""fullscreenenter"",""1"",""31089""
","
","","","7686.700000000186","[""0""]","0","10","3794","1231","","","","","","","","","","","","","","","","","","",""
"pit-instructions","111","1069876","0.0-2.0-22.1-1.1","battery-v0.2","","""event"",""trial"",""time""
""fullscreenenter"",""1"",""31089""
","
","
","""event"",""trial"",""time""
""fullscreenenter"",""1"",""31089""
","
","","[{""page_index"":0,""viewing_time"":5458}]","5458.5","","","","","","","","","","","","","","","","","","","","","","","",""
"pit-comprehension","112","1080177","0.0-2.0-23.0-0.0","battery-v0.2","","""event"",""trial"",""time""
""fullscreenenter"",""1"",""31089""
","
","
","""event"",""trial"",""time""
""fullscreenenter"",""1"",""31089""
","
","","","10298.400000000373","[""False""]","1","10","3794","1231","","","","","","","","","","","","","","","","","","",""
"pit-instructions","113","1082604","0.0-2.0-23.0-1.0","battery-v0.2","","""event"",""trial"",""time""
""fullscreenenter"",""1"",""31089""
","
","
","""event"",""trial"",""time""
""fullscreenenter"",""1"",""31089""
","
","","[{""page_index"":0,""viewing_time"":2395.2999999998137}]","2395.699999999255","","","","","","","","","","","","","","","","","","","","","","","",""
"pit-instructions","114","1085570","0.0-2.0-23.0-2.0-0.0","battery-v0.2","","""event"",""trial"",""time""
""fullscreenenter"",""1"",""31089""
","
","
","""event"",""trial"",""time""
""fullscreenenter"",""1"",""31089""
","
","","[{""page_index"":0,""viewing_time"":2964}]","2964.2999999998137","","","","","","","","","","","","","","","","","","","","","","","",""
"pit-comprehension","115","1094462","0.0-2.0-23.1-0.1","battery-v0.2","","""event"",""trial"",""time""
""fullscreenenter"",""1"",""31089""
","
","
","""event"",""trial"",""time""
""fullscreenenter"",""1"",""31089""
","
","","","8889.799999999814","[""True""]","0","10","3794","1231","","","","","","","","","","","","","","","","","","",""
"pit-instructions","116","1097559","0.0-2.0-23.1-1.1","battery-v0.2","","""event"",""trial"",""time""
""fullscreenenter"",""1"",""31089""
","
","
","""event"",""trial"",""time""
""fullscreenenter"",""1"",""31089""
","
","","[{""page_index"":0,""viewing_time"":3060}]","3060.4000000003725","","","","","","","","","","","","","","","","","","","","","","","",""
"pit-comprehension","117","1106809","0.0-2.0-24.0-0.0","battery-v0.2","","""event"",""trial"",""time""
""fullscreenenter"",""1"",""31089""
","
","
","""event"",""trial"",""time""
""fullscreenenter"",""1"",""31089""
","
","","","9247.900000000373","[""True""]","0","10","3794","1231","","","","","","","","","","","","","","","","","","",""
"pit-instructions","118","1108620","0.0-2.0-24.0-1.0","battery-v0.2","","""event"",""trial"",""time""
""fullscreenenter"",""1"",""31089""
","
","
","""event"",""trial"",""time""
""fullscreenenter"",""1"",""31089""
","
","","[{""page_index"":0,""viewing_time"":1776.300000000745}]","1776.6000000005588","","","","","","","","","","","","","","","","","","","","","","","",""
"pit-comprehension","119","1116294","0.0-2.0-25.0-0.0","battery-v0.2","","""event"",""trial"",""time""
""fullscreenenter"",""1"",""31089""
","
","
","""event"",""trial"",""time""
""fullscreenenter"",""1"",""31089""
","
","","","7671.699999999255","[""True""]","0","10","3794","1231","","","","","","","","","","","","","","","","","","",""
"pit-instructions","120","1122463","0.0-2.0-25.0-1.0","battery-v0.2","","""event"",""trial"",""time""
""fullscreenenter"",""1"",""31089""
","
","
","""event"",""trial"",""time""
""fullscreenenter"",""1"",""31089""
","
","","[{""page_index"":0,""viewing_time"":6130.799999999814}]","6131.100000000559","","","","","","","","","","","","","","","","","","","","","","","",""
"pit-comprehension","121","1128047","0.0-2.0-26.0-0.0","battery-v0.2","","""event"",""trial"",""time""
""fullscreenenter"",""1"",""31089""
","
","
","""event"",""trial"",""time""
""fullscreenenter"",""1"",""31089""
","
","","","5582.0999999996275","[""False""]","0","10","3794","1231","","","","","","","","","","","","","","","","","","",""
"pit-instructions","122","1136850","0.0-2.0-26.0-1.0","battery-v0.2","","""event"",""trial"",""time""
""fullscreenenter"",""1"",""31089""
","
","
","""event"",""trial"",""time""
""fullscreenenter"",""1"",""31089""
","
","","[{""page_index"":0,""viewing_time"":8747.100000000559}]","8747.5","","","","","","","","","","","","","","","","","","","","","","","",""
"pit-instructions","123","1154654","0.0-3.0","battery-v0.2","","""event"",""trial"",""time""
""fullscreenenter"",""1"",""31089""
","
","
","""event"",""trial"",""time""
""fullscreenenter"",""1"",""31089""
","
","","[{""page_index"":0,""viewing_time"":3918},{""page_index"":1,""viewing_time"":6460.100000000559},{""page_index"":2,""viewing_time"":7424.399999999441}]","17802.800000000745","","","","","","","","","","","","","","","","","","","","","","","",""
"pit-trial","124","1158447","0.0-4.0","battery-v0.2","","""event"",""trial"",""time""
""fullscreenenter"",""1"",""31089""
","
","
","""event"",""trial"",""time""
""fullscreenenter"",""1"",""31089""
","
","","","921.5999999996275","","","10","3794","1231","&#9730;","elianto","#3366ff99"," "," ","1","+10","[1779.2999999998137]","1","1","","","3794","1","1","1","win","go","0"
"pit-trial","125","1163325","0.0-5.0","battery-v0.2","","""event"",""trial"",""time""
""fullscreenenter"",""1"",""31089""
","
","
","""event"",""trial"",""time""
""fullscreenenter"",""1"",""31089""
","
","","","-1","","","10","3794","1231","&#9728;","elianto","#f73b6a7A","-1","-1","1","0","[]","0","1","","","3794","2","0","4","lose","no-go","0"
"pit-trial","126","1168205","0.0-6.0","battery-v0.2","","""event"",""trial"",""time""
""fullscreenenter"",""1"",""31089""
","
","
","""event"",""trial"",""time""
""fullscreenenter"",""1"",""31089""
","
","","","-1","","","10","3794","1231","&#9752;","elianto","#f73b6a7A"," ","-1","0","0","[]","0","1","","","3794","3","3","3","lose","go","1"
"pit-trial","127","1171968","0.0-7.0","battery-v0.2","","""event"",""trial"",""time""
""fullscreenenter"",""1"",""31089""
","
","
","""event"",""trial"",""time""
""fullscreenenter"",""1"",""31089""
","
","","","895.3999999994412","","","10","3794","1231","&#9733;","elianto","#3366ff99","-1"," ","0","0","[1745.5]","1","1","","","3794","4","2","2","win","no-go","0"
"pit-trial","128","1176847","0.0-8.0","battery-v0.2","","""event"",""trial"",""time""
""fullscreenenter"",""1"",""31089""
","
","
","""event"",""trial"",""time""
""fullscreenenter"",""1"",""31089""
","
","","","-1","","","10","3794","1231","&#9752;","elianto","#f73b6a7A"," ","-1","0","0","[]","0","1","","","3794","5","3","3","lose","go","1"
"pit-trial","129","1180609","0.0-9.0","battery-v0.2","","""event"",""trial"",""time""
""fullscreenenter"",""1"",""31089""
","
","
","""event"",""trial"",""time""
""fullscreenenter"",""1"",""31089""
","
","","","894.7000000001863","","","10","3794","1231","&#9730;","elianto","#3366ff99"," "," ","1","+10","[1745.3999999994412]","1","1","","","3794","6","1","1","win","go","0"
"pit-trial","130","1184772","0.0-10.0","battery-v0.2","","""event"",""trial"",""time""
""fullscreenenter"",""1"",""31089""
","
","
","""event"",""trial"",""time""
""fullscreenenter"",""1"",""31089""
","
","","","1300.6000000005588","","","10","3794","1231","&#9733;","elianto","#3366ff99","-1"," ","0","0","[2150.800000000745]","1","1","","","3794","7","2","2","win","no-go","0"
"pit-trial","131","1189645","0.0-11.0","battery-v0.2","","""event"",""trial"",""time""
""fullscreenenter"",""1"",""31089""
","
","
","""event"",""trial"",""time""
""fullscreenenter"",""1"",""31089""
","
","","","-1","","","10","3794","1231","&#9728;","elianto","#f73b6a7A","-1","-1","1","-10","[]","0","1","","","3794","8","0","4","lose","no-go","1"
"pit-trial","132","1194522","0.0-12.0","battery-v0.2","","""event"",""trial"",""time""
""fullscreenenter"",""1"",""31089""
","
","
","""event"",""trial"",""time""
""fullscreenenter"",""1"",""31089""
","
","","","-1","","","10","3794","1231","&#9728;","elianto","#f73b6a7A","-1","-1","1","0","[]","0","1","","","3794","9","0","4","lose","no-go","0"
"pit-trial","133","1199402","0.0-13.0","battery-v0.2","","""event"",""trial"",""time""
""fullscreenenter"",""1"",""31089""
","
","
","""event"",""trial"",""time""
""fullscreenenter"",""1"",""31089""
","
","","","-1","","","10","3794","1231","&#9752;","elianto","#f73b6a7A"," ","-1","0","-10","[]","0","1","","","3794","10","3","3","lose","go","0"
"pit-trial","134","1203114","0.0-14.0","battery-v0.2","","""event"",""trial"",""time""
""fullscreenenter"",""1"",""31089""
","
","
","""event"",""trial"",""time""
""fullscreenenter"",""1"",""31089""
","
","","","836.7999999998137","","","10","3794","1231","&#9730;","elianto","#3366ff99"," "," ","1","+10","[1689.5]","1","1","","","3794","11","1","1","win","go","0"
"pit-trial","135","1207984","0.0-15.0","battery-v0.2","","""event"",""trial"",""time""
""fullscreenenter"",""1"",""31089""
","
","
","""event"",""trial"",""time""
""fullscreenenter"",""1"",""31089""
","
","","","-1","","","10","3794","1231","&#9733;","elianto","#3366ff99","-1","-1","1","+10","[]","0","1","","","3794","12","2","2","win","no-go","0"
"pit-trial","136","1211690","0.0-16.0","battery-v0.2","","""event"",""trial"",""time""
""fullscreenenter"",""1"",""31089""
","
","
","""event"",""trial"",""time""
""fullscreenenter"",""1"",""31089""
","
","","","841.9000000003725","","","10","3794","1231","&#9730;","elianto","#3366ff99"," "," ","1","+10","[1692]","1","1","","","3794","13","1","1","win","go","0"
"pit-trial","137","1216568","0.0-17.0","battery-v0.2","","""event"",""trial"",""time""
""fullscreenenter"",""1"",""31089""
","
","
","""event"",""trial"",""time""
""fullscreenenter"",""1"",""31089""
","
","","","-1","","","10","3794","1231","&#9728;","elianto","#f73b6a7A","-1","-1","1","0","[]","0","1","","","3794","14","0","4","lose","no-go","0"
"pit-trial","138","1221446","0.0-18.0","battery-v0.2","","""event"",""trial"",""time""
""fullscreenenter"",""1"",""31089""
","
","
","""event"",""trial"",""time""
""fullscreenenter"",""1"",""31089""
","
","","","-1","","","10","3794","1231","&#9752;","elianto","#f73b6a7A"," ","-1","0","0","[]","0","1","","","3794","15","3","3","lose","go","1"
"pit-trial","139","1225317","0.0-19.0","battery-v0.2","","""event"",""trial"",""time""
""fullscreenenter"",""1"",""31089""
","
","
","""event"",""trial"",""time""
""fullscreenenter"",""1"",""31089""
","
","","","1013","","","10","3794","1231","&#9733;","elianto","#3366ff99","-1"," ","0","0","[1865.5]","1","1","","","3794","16","2","2","win","no-go","0"
"pit-trial","140","1230189","0.0-20.0","battery-v0.2","","""event"",""trial"",""time""
""fullscreenenter"",""1"",""31089""
","
","
","""event"",""trial"",""time""
""fullscreenenter"",""1"",""31089""
","
","","","-1","","","10","3794","1231","&#9728;","elianto","#f73b6a7A","-1","-1","1","0","[]","0","1","","","3794","17","0","4","lose","no-go","0"
"pit-trial","141","1234308","0.0-21.0","battery-v0.2","","""event"",""trial"",""time""
""fullscreenenter"",""1"",""31089""
","
","
","""event"",""trial"",""time""
""fullscreenenter"",""1"",""31089""
","
","","","1258.1000000005588","","","10","3794","1231","&#9733;","elianto","#3366ff99","-1"," ","0","0","[2113]","1","1","","","3794","18","2","2","win","no-go","0"
"pit-trial","142","1239178","0.0-22.0","battery-v0.2","","""event"",""trial"",""time""
""fullscreenenter"",""1"",""31089""
","
","
","""event"",""trial"",""time""
""fullscreenenter"",""1"",""31089""
","
","","","-1","","","10","3794","1231","&#9752;","elianto","#f73b6a7A"," ","-1","0","-10","[]","0","1","","","3794","19","3","3","lose","go","0"
"pit-trial","143","1242958","0.0-23.0","battery-v0.2","","""event"",""trial"",""time""
""fullscreenenter"",""1"",""31089""
","
","
","""event"",""trial"",""time""
""fullscreenenter"",""1"",""31089""
","
","","","913.7000000001863","","","10","3794","1231","&#9730;","elianto","#3366ff99"," "," ","1","+10","[1768.8999999994412]","1","1","","","3794","20","1","1","win","go","0"
"pit-instructions","144","1262163","0.0-24.0","battery-v0.2","","""event"",""trial"",""time""
""fullscreenenter"",""1"",""31089""
","
","
","""event"",""trial"",""time""
""fullscreenenter"",""1"",""31089""
","
","","[{""page_index"":0,""viewing_time"":8610.900000000373},{""page_index"":1,""viewing_time"":10591.099999999627}]","19202.400000000373","","","","","","","","","","","","","","","","","","","","","","","",""
"pit-trial","145","1267040","0.0-25.0","battery-v0.2","","""event"",""trial"",""time""
""fullscreenenter"",""1"",""31089""
","
","
","""event"",""trial"",""time""
""fullscreenenter"",""1"",""31089""
","
","","","-1","","","10","3794","1231","j","elianto","#f73b6a7A"," ","-1","0","-10","[]","0","2","","","3794","21","0","3","lose","go","0"
"pit-trial","146","1271920","0.0-26.0","battery-v0.2","","""event"",""trial"",""time""
""fullscreenenter"",""1"",""31089""
","
","
","""event"",""trial"",""time""
""fullscreenenter"",""1"",""31089""
","
","","","-1","","","10","3794","1231","w","elianto","#f73b6a7A","-1","-1","1","0","[]","0","2","","","3794","22","3","4","lose","no-go","0"
"pit-trial","147","1276315","0.0-27.0","battery-v0.2","","""event"",""trial"",""time""
""fullscreenenter"",""1"",""31089""
","
","
","""event"",""trial"",""time""
""fullscreenenter"",""1"",""31089""
","
","","","1542.5999999996275","","","10","3794","1231","d","elianto","#3366ff99","-1"," ","0","+10","[2392.7000000001863]","1","2","","","3794","23","1","2","win","no-go","1"
"pit-trial","148","1281194","0.0-28.0","battery-v0.2","","""event"",""trial"",""time""
""fullscreenenter"",""1"",""31089""
","
","
","""event"",""trial"",""time""
""fullscreenenter"",""1"",""31089""
","
","","","-1","","","10","3794","1231","e","elianto","#f73b6a7A"," ","-1","0","-10","[]","0","2","","","3794","24","2","3","lose","go","0"
"pit-trial","149","1286073","0.0-29.0","battery-v0.2","","""event"",""trial"",""time""
""fullscreenenter"",""1"",""31089""
","
","
","""event"",""trial"",""time""
""fullscreenenter"",""1"",""31089""
","
","","","-1","","","10","3794","1231","e","elianto","#f73b6a7A"," ","-1","0","0","[]","0","2","","","3794","25","2","3","lose","go","1"
"pit-trial","150","1290950","0.0-30.0","battery-v0.2","","""event"",""trial"",""time""
""fullscreenenter"",""1"",""31089""
","
","
","""event"",""trial"",""time""
""fullscreenenter"",""1"",""31089""
","
","","","-1","","","10","3794","1231","w","elianto","#f73b6a7A","-1","-1","1","0","[]","0","2","","","3794","26","3","4","lose","no-go","0"
"pit-trial","151","1295823","0.0-31.0","battery-v0.2","","""event"",""trial"",""time""
""fullscreenenter"",""1"",""31089""
","
","
","""event"",""trial"",""time""
""fullscreenenter"",""1"",""31089""
","
","","","-1","","","10","3794","1231","j","elianto","#f73b6a7A"," ","-1","0","-10","[]","0","2","","","3794","27","0","3","lose","go","0"
"pit-trial","152","1300014","0.0-32.0","battery-v0.2","","""event"",""trial"",""time""
""fullscreenenter"",""1"",""31089""
","
","
","""event"",""trial"",""time""
""fullscreenenter"",""1"",""31089""
","
","","","1328.3999999994412","","","10","3794","1231","d","elianto","#3366ff99","-1"," ","0","+10","[2182.7000000001863]","1","2","","","3794","28","1","2","win","no-go","1"
"pit-trial","153","1304880","0.0-33.0","battery-v0.2","","""event"",""trial"",""time""
""fullscreenenter"",""1"",""31089""
","
","
","""event"",""trial"",""time""
""fullscreenenter"",""1"",""31089""
","
","","","-1","","","10","3794","1231","j","elianto","#f73b6a7A"," ","-1","0","0","[]","0","2","","","3794","29","0","3","lose","go","1"
"pit-trial","154","1309759","0.0-34.0","battery-v0.2","","""event"",""trial"",""time""
""fullscreenenter"",""1"",""31089""
","
","
","""event"",""trial"",""time""
""fullscreenenter"",""1"",""31089""
","
","","","-1","","","10","3794","1231","e","elianto","#f73b6a7A"," ","-1","0","0","[]","0","2","","","3794","30","2","3","lose","go","1"
"pit-trial","155","1313590","0.0-35.0","battery-v0.2","","""event"",""trial"",""time""
""fullscreenenter"",""1"",""31089""
","
","
","""event"",""trial"",""time""
""fullscreenenter"",""1"",""31089""
","
","","","966.7999999998137","","","10","3794","1231","d","elianto","#3366ff99","-1"," ","0","0","[1821.3999999994412]","1","2","","","3794","31","1","2","win","no-go","0"
"pit-trial","156","1318457","0.0-36.0","battery-v0.2","","""event"",""trial"",""time""
""fullscreenenter"",""1"",""31089""
","
","
","""event"",""trial"",""time""
""fullscreenenter"",""1"",""31089""
","
","","","-1","","","10","3794","1231","w","elianto","#f73b6a7A","-1","-1","1","0","[]","0","2","","","3794","32","3","4","lose","no-go","0"
"pit-trial","157","1323334","0.0-37.0","battery-v0.2","","""event"",""trial"",""time""
""fullscreenenter"",""1"",""31089""
","
","
","""event"",""trial"",""time""
""fullscreenenter"",""1"",""31089""
","
","","","-1","","","10","3794","1231","w","elianto","#f73b6a7A","-1","-1","1","0","[]","0","2","","","3794","33","3","4","lose","no-go","0"
"pit-trial","158","1328198","0.0-38.0","battery-v0.2","","""event"",""trial"",""time""
""fullscreenenter"",""1"",""31089""
","
","
","""event"",""trial"",""time""
""fullscreenenter"",""1"",""31089""
","
","","","-1","","","10","3794","1231","e","elianto","#f73b6a7A"," ","-1","0","0","[]","0","2","","","3794","34","2","3","lose","go","1"
"pit-trial","159","1332055","0.0-39.0","battery-v0.2","","""event"",""trial"",""time""
""fullscreenenter"",""1"",""31089""
","
","
","""event"",""trial"",""time""
""fullscreenenter"",""1"",""31089""
","
","","","985.1000000005588","","","10","3794","1231","d","elianto","#3366ff99","-1"," ","0","0","[1836]","1","2","","","3794","35","1","2","win","no-go","0"
"pit-trial","160","1336917","0.0-40.0","battery-v0.2","","""event"",""trial"",""time""
""fullscreenenter"",""1"",""31089""
","
","
","""event"",""trial"",""time""
""fullscreenenter"",""1"",""31089""
","
","","","-1","","","10","3794","1231","j","elianto","#f73b6a7A"," ","-1","0","-10","[]","0","2","","","3794","36","0","3","lose","go","0"
"pit-trial","161","1341796","0.0-41.0","battery-v0.2","","""event"",""trial"",""time""
""fullscreenenter"",""1"",""31089""
","
","
","""event"",""trial"",""time""
""fullscreenenter"",""1"",""31089""
","
","","","-1","","","10","3794","1231","w","elianto","#f73b6a7A","-1","-1","1","0","[]","0","2","","","3794","37","3","4","lose","no-go","0"
"pit-trial","162","1346028","0.0-42.0","battery-v0.2","","""event"",""trial"",""time""
""fullscreenenter"",""1"",""31089""
","
","
","""event"",""trial"",""time""
""fullscreenenter"",""1"",""31089""
","
","","","1365.0999999996275","","","10","3794","1231","d","elianto","#3366ff99","-1"," ","0","0","[2218.7000000001863]","1","2","","","3794","38","1","2","win","no-go","0"
"pit-trial","163","1350894","0.0-43.0","battery-v0.2","","""event"",""trial"",""time""
""fullscreenenter"",""1"",""31089""
","
","
","""event"",""trial"",""time""
""fullscreenenter"",""1"",""31089""
","
","","","-1","","","10","3794","1231","j","elianto","#f73b6a7A"," ","-1","0","0","[]","0","2","","","3794","39","0","3","lose","go","1"
"pit-trial","164","1355757","0.0-44.0","battery-v0.2","","""event"",""trial"",""time""
""fullscreenenter"",""1"",""31089""
","
","
","""event"",""trial"",""time""
""fullscreenenter"",""1"",""31089""
","
","","","-1","","","10","3794","1231","e","elianto","#f73b6a7A"," ","-1","0","-10","[]","0","2","","","3794","40","2","3","lose","go","0"
"pit-trial","165","1360627","0.0-45.0","battery-v0.2","","""event"",""trial"",""time""
""fullscreenenter"",""1"",""31089""
","
","
","""event"",""trial"",""time""
""fullscreenenter"",""1"",""31089""
","
","","","-1","","","10","3794","1231","e","elianto","#f73b6a7A"," ","-1","0","-10","[]","0","2","","","3794","41","2","3","lose","go","0"
"pit-trial","166","1365181","0.0-46.0","battery-v0.2","","""event"",""trial"",""time""
""fullscreenenter"",""1"",""31089""
","
","
","""event"",""trial"",""time""
""fullscreenenter"",""1"",""31089""
","
","","","1689.7000000001863","","","10","3794","1231","d","elianto","#3366ff99","-1"," ","0","0","[2544]","1","2","","","3794","42","1","2","win","no-go","0"
"pit-trial","167","1370059","0.0-47.0","battery-v0.2","","""event"",""trial"",""time""
""fullscreenenter"",""1"",""31089""
","
","
","""event"",""trial"",""time""
""fullscreenenter"",""1"",""31089""
","
","","","-1","","","10","3794","1231","w","elianto","#f73b6a7A","-1","-1","1","-10","[]","0","2","","","3794","43","3","4","lose","no-go","1"
"pit-trial","168","1374946","0.0-48.0","battery-v0.2","","""event"",""trial"",""time""
""fullscreenenter"",""1"",""31089""
","
","
","""event"",""trial"",""time""
""fullscreenenter"",""1"",""31089""
","
","","","-1","","","10","3794","1231","j","elianto","#f73b6a7A"," ","-1","0","-10","[]","0","2","","","3794","44","0","3","lose","go","0"
"pit-trial","169","1379825","0.0-49.0","battery-v0.2","","""event"",""trial"",""time""
""fullscreenenter"",""1"",""31089""
","
","
","""event"",""trial"",""time""
""fullscreenenter"",""1"",""31089""
","
","","","-1","","","10","3794","1231","w","elianto","#f73b6a7A","-1","-1","1","0","[]","0","2","","","3794","45","3","4","lose","no-go","0"
"pit-trial","170","1384696","0.0-50.0","battery-v0.2","","""event"",""trial"",""time""
""fullscreenenter"",""1"",""31089""
","
","
","""event"",""trial"",""time""
""fullscreenenter"",""1"",""31089""
","
","","","-1","","","10","3794","1231","e","elianto","#f73b6a7A"," ","-1","0","-10","[]","0","2","","","3794","46","2","3","lose","go","0"
"pit-trial","171","1389566","0.0-51.0","battery-v0.2","","""event"",""trial"",""time""
""fullscreenenter"",""1"",""31089""
","
","
","""event"",""trial"",""time""
""fullscreenenter"",""1"",""31089""
","
","","","-1","","","10","3794","1231","j","elianto","#f73b6a7A"," ","-1","0","-10","[]","0","2","","","3794","47","0","3","lose","go","0"
"pit-trial","172","1394277","0.0-52.0","battery-v0.2","","""event"",""trial"",""time""
""fullscreenenter"",""1"",""31089""
","
","
","""event"",""trial"",""time""
""fullscreenenter"",""1"",""31089""
","
","","","1841.7999999998137","","","10","3794","1231","d","elianto","#3366ff99","-1"," ","0","0","[2695.4000000003725]","1","2","","","3794","48","1","2","win","no-go","0"
"pit-trial","173","1399157","0.0-53.0","battery-v0.2","","""event"",""trial"",""time""
""fullscreenenter"",""1"",""31089""
","
","
","""event"",""trial"",""time""
""fullscreenenter"",""1"",""31089""
","
","","","-1","","","10","3794","1231","w","elianto","#f73b6a7A","-1","-1","1","0","[]","0","2","","","3794","49","3","4","lose","no-go","0"
"pit-trial","174","1404034","0.0-54.0","battery-v0.2","","""event"",""trial"",""time""
""fullscreenenter"",""1"",""31089""
","
","
","""event"",""trial"",""time""
""fullscreenenter"",""1"",""31089""
","
","","","-1","","","10","3794","1231","j","elianto","#f73b6a7A"," ","-1","0","0","[]","0","2","","","3794","50","0","3","lose","go","1"
"pit-trial","175","1408915","0.0-55.0","battery-v0.2","","""event"",""trial"",""time""
""fullscreenenter"",""1"",""31089""
","
","
","""event"",""trial"",""time""
""fullscreenenter"",""1"",""31089""
","
","","","-1","","","10","3794","1231","d","elianto","#3366ff99","-1","-1","1","+10","[]","0","2","","","3794","51","1","2","win","no-go","0"
"pit-trial","176","1413783","0.0-56.0","battery-v0.2","","""event"",""trial"",""time""
""fullscreenenter"",""1"",""31089""
","
","
","""event"",""trial"",""time""
""fullscreenenter"",""1"",""31089""
","
","","","-1","","","10","3794","1231","e","elianto","#f73b6a7A"," ","-1","0","-10","[]","0","2","","","3794","52","2","3","lose","go","0"
"pit-trial","177","1418647","0.0-57.0","battery-v0.2","","""event"",""trial"",""time""
""fullscreenenter"",""1"",""31089""
","
","
","""event"",""trial"",""time""
""fullscreenenter"",""1"",""31089""
","
","","","-1","","","10","3794","1231","j","elianto","#f73b6a7A"," ","-1","0","0","[]","0","2","","","3794","53","0","3","lose","go","1"
"pit-trial","178","1422183","0.0-58.0","battery-v0.2","","""event"",""trial"",""time""
""fullscreenenter"",""1"",""31089""
","
","
","""event"",""trial"",""time""
""fullscreenenter"",""1"",""31089""
","
","","","656.2999999998137","","","10","3794","1231","d","elianto","#3366ff99","-1"," ","0","0","[1515.2999999998137]","1","2","","","3794","54","1","2","win","no-go","0"
"pit-trial","179","1427054","0.0-59.0","battery-v0.2","","""event"",""trial"",""time""
""fullscreenenter"",""1"",""31089""
","
","
","""event"",""trial"",""time""
""fullscreenenter"",""1"",""31089""
","
","","","-1","","","10","3794","1231","e","elianto","#f73b6a7A"," ","-1","0","-10","[]","0","2","","","3794","55","2","3","lose","go","0"
"pit-trial","180","1431925","0.0-60.0","battery-v0.2","","""event"",""trial"",""time""
""fullscreenenter"",""1"",""31089""
","
","
","""event"",""trial"",""time""
""fullscreenenter"",""1"",""31089""
","
","","","-1","","","10","3794","1231","w","elianto","#f73b6a7A","-1","-1","1","0","[]","0","2","","","3794","56","3","4","lose","no-go","0"
"pit-trial","181","1436809","0.0-61.0","battery-v0.2","","""event"",""trial"",""time""
""fullscreenenter"",""1"",""31089""
","
","
","""event"",""trial"",""time""
""fullscreenenter"",""1"",""31089""
","
","","","-1","","","10","3794","1231","j","elianto","#f73b6a7A"," ","-1","0","-10","[]","0","2","","","3794","57","0","3","lose","go","0"
"pit-trial","182","1441681","0.0-62.0","battery-v0.2","","""event"",""trial"",""time""
""fullscreenenter"",""1"",""31089""
","
","
","""event"",""trial"",""time""
""fullscreenenter"",""1"",""31089""
","
","","","-1","","","10","3794","1231","e","elianto","#f73b6a7A"," ","-1","0","-10","[]","0","2","","","3794","58","2","3","lose","go","0"
"pit-trial","183","1446566","0.0-63.0","battery-v0.2","","""event"",""trial"",""time""
""fullscreenenter"",""1"",""31089""
","
","
","""event"",""trial"",""time""
""fullscreenenter"",""1"",""31089""
","
","","","-1","","","10","3794","1231","s","elianto","#3366ff99"," ","-1","0","0","[2913.899999999441]","1","2","","","3794","59","4","1","win","go","0"
"pit-trial","184","1451430","0.0-64.0","battery-v0.2","","""event"",""trial"",""time""
""fullscreenenter"",""1"",""31089""
","
","
","""event"",""trial"",""time""
""fullscreenenter"",""1"",""31089""
","
","","","-1","","","10","3794","1231","w","elianto","#f73b6a7A","-1","-1","1","0","[]","0","2","","","3794","60","3","4","lose","no-go","0"
"pit-trial","185","1456301","0.0-65.0","battery-v0.2","","""event"",""trial"",""time""
""fullscreenenter"",""1"",""31089""
","
","
","""event"",""trial"",""time""
""fullscreenenter"",""1"",""31089""
","
","","","-1","","","10","3794","1231","w","elianto","#f73b6a7A","-1","-1","1","0","[]","0","2","","","3794","61","3","4","lose","no-go","0"
"pit-trial","186","1461170","0.0-66.0","battery-v0.2","","""event"",""trial"",""time""
""fullscreenenter"",""1"",""31089""
","
","
","""event"",""trial"",""time""
""fullscreenenter"",""1"",""31089""
","
","","","-1","","","10","3794","1231","s","elianto","#3366ff99"," ","-1","0","0","[]","0","2","","","3794","62","4","1","win","go","0"
"pit-trial","187","1466040","0.0-67.0","battery-v0.2","","""event"",""trial"",""time""
""fullscreenenter"",""1"",""31089""
","
","
","""event"",""trial"",""time""
""fullscreenenter"",""1"",""31089""
","
","","","-1","","","10","3794","1231","e","elianto","#f73b6a7A"," ","-1","0","-10","[]","0","2","","","3794","63","2","3","lose","go","0"
"pit-trial","188","1470338","0.0-68.0","battery-v0.2","","""event"",""trial"",""time""
""fullscreenenter"",""1"",""31089""
","
","
","""event"",""trial"",""time""
""fullscreenenter"",""1"",""31089""
","
","","","1433.3999999994412","","","10","3794","1231","d","elianto","#3366ff99","-1"," ","0","+10","[2288.2999999998137]","1","2","","","3794","64","1","2","win","no-go","1"
"pit-trial","189","1475216","0.0-69.0","battery-v0.2","","""event"",""trial"",""time""
""fullscreenenter"",""1"",""31089""
","
","
","""event"",""trial"",""time""
""fullscreenenter"",""1"",""31089""
","
","","","-1","","","10","3794","1231","w","elianto","#f73b6a7A","-1","-1","1","0","[]","0","2","","","3794","65","3","4","lose","no-go","0"
"pit-trial","190","1480093","0.0-70.0","battery-v0.2","","""event"",""trial"",""time""
""fullscreenenter"",""1"",""31089""
","
","
","""event"",""trial"",""time""
""fullscreenenter"",""1"",""31089""
","
","","","-1","","","10","3794","1231","d","elianto","#3366ff99","-1","-1","1","+10","[3320.5]","1","2","","","3794","66","1","2","win","no-go","0"
"pit-trial","191","1484289","0.0-71.0","battery-v0.2","","""event"",""trial"",""time""
""fullscreenenter"",""1"",""31089""
","
","
","""event"",""trial"",""time""
""fullscreenenter"",""1"",""31089""
","
","","","1332.2999999998137","","","10","3794","1231","p","elianto","#3366ff99","-1"," ","0","0","[2187.2000000001863]","1","2","","","3794","67","5","2","win","no-go","0"
"pit-trial","192","1489159","0.0-72.0","battery-v0.2","","""event"",""trial"",""time""
""fullscreenenter"",""1"",""31089""
","
","
","""event"",""trial"",""time""
""fullscreenenter"",""1"",""31089""
","
","","","-1","","","10","3794","1231","s","elianto","#3366ff99"," ","-1","0","0","[]","0","2","","","3794","68","4","1","win","go","0"
"pit-trial","193","1494037","0.0-73.0","battery-v0.2","","""event"",""trial"",""time""
""fullscreenenter"",""1"",""31089""
","
","
","""event"",""trial"",""time""
""fullscreenenter"",""1"",""31089""
","
","","","-1","","","10","3794","1231","e","elianto","#f73b6a7A"," ","-1","0","-10","[]","0","2","","","3794","69","2","3","lose","go","0"
"pit-trial","194","1497644","0.0-74.0","battery-v0.2","","""event"",""trial"",""time""
""fullscreenenter"",""1"",""31089""
","
","
","""event"",""trial"",""time""
""fullscreenenter"",""1"",""31089""
","
","","","739.2000000001863","","","10","3794","1231","d","elianto","#3366ff99","-1"," ","0","0","[1599]","1","2","","","3794","70","1","2","win","no-go","0"
"pit-trial","195","1502521","0.0-75.0","battery-v0.2","","""event"",""trial"",""time""
""fullscreenenter"",""1"",""31089""
","
","
","""event"",""trial"",""time""
""fullscreenenter"",""1"",""31089""
","
","","","-1","","","10","3794","1231","p","elianto","#3366ff99","-1","-1","1","+10","[3929.7999999998137]","1","2","","","3794","71","5","2","win","no-go","0"
"pit-trial","196","1507388","0.0-76.0","battery-v0.2","","""event"",""trial"",""time""
""fullscreenenter"",""1"",""31089""
","
","
","""event"",""trial"",""time""
""fullscreenenter"",""1"",""31089""
","
","","","-1","","","10","3794","1231","s","elianto","#3366ff99"," ","-1","0","0","[]","0","2","","","3794","72","4","1","win","go","0"
"pit-trial","197","1512254","0.0-77.0","battery-v0.2","","""event"",""trial"",""time""
""fullscreenenter"",""1"",""31089""
","
","
","""event"",""trial"",""time""
""fullscreenenter"",""1"",""31089""
","
","","","-1","","","10","3794","1231","s","elianto","#3366ff99"," ","-1","0","0","[]","0","2","","","3794","73","4","1","win","go","0"
"pit-trial","198","1516915","0.0-78.0","battery-v0.2","","""event"",""trial"",""time""
""fullscreenenter"",""1"",""31089""
","
","
","""event"",""trial"",""time""
""fullscreenenter"",""1"",""31089""
","
","","","1787","","","10","3794","1231","p","elianto","#3366ff99","-1"," ","0","0","[2647.9000000003725]","1","2","","","3794","74","5","2","win","no-go","0"
"pit-trial","199","1521786","0.0-79.0","battery-v0.2","","""event"",""trial"",""time""
""fullscreenenter"",""1"",""31089""
","
","
","""event"",""trial"",""time""
""fullscreenenter"",""1"",""31089""
","
","","","-1","","","10","3794","1231","w","elianto","#f73b6a7A","-1","-1","1","0","[]","0","2","","","3794","75","3","4","lose","no-go","0"
"pit-trial","200","1526015","0.0-80.0","battery-v0.2","","""event"",""trial"",""time""
""fullscreenenter"",""1"",""31089""
","
","
","""event"",""trial"",""time""
""fullscreenenter"",""1"",""31089""
","
","","","1362.5999999996275","","","10","3794","1231","d","elianto","#3366ff99","-1"," ","0","+10","[2217.699999999255]","1","2","","","3794","76","1","2","win","no-go","1"
"pit-trial","201","1530893","0.0-81.0","battery-v0.2","","""event"",""trial"",""time""
""fullscreenenter"",""1"",""31089""
","
","
","""event"",""trial"",""time""
""fullscreenenter"",""1"",""31089""
","
","","","-1","","","10","3794","1231","s","elianto","#3366ff99"," ","-1","0","0","[]","0","2","","","3794","77","4","1","win","go","0"
"pit-trial","202","1535760","0.0-82.0","battery-v0.2","","""event"",""trial"",""time""
""fullscreenenter"",""1"",""31089""
","
","
","""event"",""trial"",""time""
""fullscreenenter"",""1"",""31089""
","
","","","-1","","","10","3794","1231","s","elianto","#3366ff99"," ","-1","0","+10","[]","0","2","","","3794","78","4","1","win","go","1"
"pit-trial","203","1539735","0.0-83.0","battery-v0.2","","""event"",""trial"",""time""
""fullscreenenter"",""1"",""31089""
","
","
","""event"",""trial"",""time""
""fullscreenenter"",""1"",""31089""
","
","","","1112.800000000745","","","10","3794","1231","p","elianto","#3366ff99","-1"," ","0","0","[1964.7000000001863]","1","2","","","3794","79","5","2","win","no-go","0"
"pit-trial","204","1544605","0.0-84.0","battery-v0.2","","""event"",""trial"",""time""
""fullscreenenter"",""1"",""31089""
","
","
","""event"",""trial"",""time""
""fullscreenenter"",""1"",""31089""
","
","","","-1","","","10","3794","1231","w","elianto","#f73b6a7A","-1","-1","1","0","[]","0","2","","","3794","80","3","4","lose","no-go","0"
"pit-trial","205","1549474","0.0-85.0","battery-v0.2","","""event"",""trial"",""time""
""fullscreenenter"",""1"",""31089""
","
","
","""event"",""trial"",""time""
""fullscreenenter"",""1"",""31089""
","
","","","-1","","","10","3794","1231","w","elianto","#f73b6a7A","-1","-1","1","0","[]","0","2","","","3794","81","3","4","lose","no-go","0"
"pit-trial","206","1554355","0.0-86.0","battery-v0.2","","""event"",""trial"",""time""
""fullscreenenter"",""1"",""31089""
","
","
","""event"",""trial"",""time""
""fullscreenenter"",""1"",""31089""
","
","","","-1","","","10","3794","1231","s","elianto","#3366ff99"," ","-1","0","0","[]","0","2","","","3794","82","4","1","win","go","0"
"pit-trial","207","1559224","0.0-87.0","battery-v0.2","","""event"",""trial"",""time""
""fullscreenenter"",""1"",""31089""
","
","
","""event"",""trial"",""time""
""fullscreenenter"",""1"",""31089""
","
","","","-1","","","10","3794","1231","a","elianto","#f73b6a7A","-1","-1","1","0","[]","0","2","","","3794","83","7","4","lose","no-go","0"
"pit-trial","208","1564103","0.0-88.0","battery-v0.2","","""event"",""trial"",""time""
""fullscreenenter"",""1"",""31089""
","
","
","""event"",""trial"",""time""
""fullscreenenter"",""1"",""31089""
","
","","","-1","","","10","3794","1231","p","elianto","#3366ff99","-1","-1","1","+10","[]","0","2","","","3794","84","5","2","win","no-go","0"
"pit-trial","209","1568976","0.0-89.0","battery-v0.2","","""event"",""trial"",""time""
""fullscreenenter"",""1"",""31089""
","
","
","""event"",""trial"",""time""
""fullscreenenter"",""1"",""31089""
","
","","","-1","","","10","3794","1231","a","elianto","#f73b6a7A","-1","-1","1","0","[]","0","2","","","3794","85","7","4","lose","no-go","0"
"pit-trial","210","1573593","0.0-90.0","battery-v0.2","","""event"",""trial"",""time""
""fullscreenenter"",""1"",""31089""
","
","
","""event"",""trial"",""time""
""fullscreenenter"",""1"",""31089""
","
","","","1750.2999999998137","","","10","3794","1231","p","elianto","#3366ff99","-1"," ","0","0","[2601.7999999998137]","1","2","","","3794","86","5","2","win","no-go","0"
"pit-trial","211","1578472","0.0-91.0","battery-v0.2","","""event"",""trial"",""time""
""fullscreenenter"",""1"",""31089""
","
","
","""event"",""trial"",""time""
""fullscreenenter"",""1"",""31089""
","
","","","-1","","","10","3794","1231","s","elianto","#3366ff99"," ","-1","0","0","[]","0","2","","","3794","87","4","1","win","go","0"
"pit-trial","212","1583342","0.0-92.0","battery-v0.2","","""event"",""trial"",""time""
""fullscreenenter"",""1"",""31089""
","
","
","""event"",""trial"",""time""
""fullscreenenter"",""1"",""31089""
","
","","","-1","","","10","3794","1231","g","elianto","#f73b6a7A"," ","-1","0","-10","[]","0","2","","","3794","88","6","3","lose","go","0"
"pit-trial","213","1588206","0.0-93.0","battery-v0.2","","""event"",""trial"",""time""
""fullscreenenter"",""1"",""31089""
","
","
","""event"",""trial"",""time""
""fullscreenenter"",""1"",""31089""
","
","","","-1","","","10","3794","1231","g","elianto","#f73b6a7A"," ","-1","0","-10","[]","0","2","","","3794","89","6","3","lose","go","0"
"pit-trial","214","1593083","0.0-94.0","battery-v0.2","","""event"",""trial"",""time""
""fullscreenenter"",""1"",""31089""
","
","
","""event"",""trial"",""time""
""fullscreenenter"",""1"",""31089""
","
","","","-1","","","10","3794","1231","s","elianto","#3366ff99"," ","-1","0","0","[]","0","2","","","3794","90","4","1","win","go","0"
"pit-trial","215","1597147","0.0-95.0","battery-v0.2","","""event"",""trial"",""time""
""fullscreenenter"",""1"",""31089""
","
","
","""event"",""trial"",""time""
""fullscreenenter"",""1"",""31089""
","
","","","1196.2999999998137","","","10","3794","1231","p","elianto","#3366ff99","-1"," ","0","0","[2050.7000000001863]","1","2","","","3794","91","5","2","win","no-go","0"
"pit-trial","216","1602014","0.0-96.0","battery-v0.2","","""event"",""trial"",""time""
""fullscreenenter"",""1"",""31089""
","
","
","""event"",""trial"",""time""
""fullscreenenter"",""1"",""31089""
","
","","","-1","","","10","3794","1231","a","elianto","#f73b6a7A","-1","-1","1","0","[]","0","2","","","3794","92","7","4","lose","no-go","0"
"pit-trial","217","1606369","0.0-97.0","battery-v0.2","","""event"",""trial"",""time""
""fullscreenenter"",""1"",""31089""
","
","
","""event"",""trial"",""time""
""fullscreenenter"",""1"",""31089""
","
","","","1487","","","10","3794","1231","p","elianto","#3366ff99","-1"," ","0","0","[2340.199999999255]","1","2","","","3794","93","5","2","win","no-go","0"
"pit-trial","218","1611240","0.0-98.0","battery-v0.2","","""event"",""trial"",""time""
""fullscreenenter"",""1"",""31089""
","
","
","""event"",""trial"",""time""
""fullscreenenter"",""1"",""31089""
","
","","","-1","","","10","3794","1231","g","elianto","#f73b6a7A"," ","-1","0","-10","[]","0","2","","","3794","94","6","3","lose","go","0"
"pit-trial","219","1616118","0.0-99.0","battery-v0.2","","""event"",""trial"",""time""
""fullscreenenter"",""1"",""31089""
","
","
","""event"",""trial"",""time""
""fullscreenenter"",""1"",""31089""
","
","","","-1","","","10","3794","1231","l","elianto","#3366ff99"," ","-1","0","+10","[]","0","2","","","3794","95","8","1","win","go","1"
"pit-trial","220","1620989","0.0-100.0","battery-v0.2","","""event"",""trial"",""time""
""fullscreenenter"",""1"",""31089""
","
","
","""event"",""trial"",""time""
""fullscreenenter"",""1"",""31089""
","
","","","-1","","","10","3794","1231","a","elianto","#f73b6a7A","-1","-1","1","0","[]","0","2","","","3794","96","7","4","lose","no-go","0"
"pit-trial","221","1625867","0.0-101.0","battery-v0.2","","""event"",""trial"",""time""
""fullscreenenter"",""1"",""31089""
","
","
","""event"",""trial"",""time""
""fullscreenenter"",""1"",""31089""
","
","","","-1","","","10","3794","1231","g","elianto","#f73b6a7A"," ","-1","0","-10","[]","0","2","","","3794","97","6","3","lose","go","0"
"pit-trial","222","1630747","0.0-102.0","battery-v0.2","","""event"",""trial"",""time""
""fullscreenenter"",""1"",""31089""
","
","
","""event"",""trial"",""time""
""fullscreenenter"",""1"",""31089""
","
","","","-1","","","10","3794","1231","p","elianto","#3366ff99","-1","-1","1","+10","[]","0","2","","","3794","98","5","2","win","no-go","0"
"pit-trial","223","1635616","0.0-103.0","battery-v0.2","","""event"",""trial"",""time""
""fullscreenenter"",""1"",""31089""
","
","
","""event"",""trial"",""time""
""fullscreenenter"",""1"",""31089""
","
","","","-1","","","10","3794","1231","a","elianto","#f73b6a7A","-1","-1","1","0","[]","0","2","","","3794","99","7","4","lose","no-go","0"
"pit-trial","224","1639390","0.0-104.0","battery-v0.2","","""event"",""trial"",""time""
""fullscreenenter"",""1"",""31089""
","
","
","""event"",""trial"",""time""
""fullscreenenter"",""1"",""31089""
","
","","","903.7999999998137","","","10","3794","1231","l","elianto","#3366ff99"," "," ","1","0","[1763.5]","1","2","","","3794","100","8","1","win","go","1"
"pit-trial","225","1643641","0.0-105.0","battery-v0.2","","""event"",""trial"",""time""
""fullscreenenter"",""1"",""31089""
","
","
","""event"",""trial"",""time""
""fullscreenenter"",""1"",""31089""
","
","","","1386.8999999994412","","","10","3794","1231","l","elianto","#3366ff99"," "," ","1","+10","[2239.100000000559]","1","2","","","3794","101","8","1","win","go","0"
"pit-trial","226","1648528","0.0-106.0","battery-v0.2","","""event"",""trial"",""time""
""fullscreenenter"",""1"",""31089""
","
","
","""event"",""trial"",""time""
""fullscreenenter"",""1"",""31089""
","
","","","-1","","","10","3794","1231","a","elianto","#f73b6a7A","-1","-1","1","0","[]","0","2","","","3794","102","7","4","lose","no-go","0"
"pit-trial","227","1652257","0.0-107.0","battery-v0.2","","""event"",""trial"",""time""
""fullscreenenter"",""1"",""31089""
","
","
","""event"",""trial"",""time""
""fullscreenenter"",""1"",""31089""
","
","","","860.2000000001863","","","10","3794","1231","p","elianto","#3366ff99","-1"," ","0","0","[1714.8999999994412]","1","2","","","3794","103","5","2","win","no-go","0"
"pit-trial","228","1656104","0.0-108.0","battery-v0.2","","""event"",""trial"",""time""
""fullscreenenter"",""1"",""31089""
","
","
","""event"",""trial"",""time""
""fullscreenenter"",""1"",""31089""
","
","","","981.6000000005588","","","10","3794","1231","u","elianto","#3366ff99"," "," ","1","+10","[1838]","1","2","","","3794","104","9","1","win","go","0"
"pit-trial","229","1659709","0.0-109.0","battery-v0.2","","""event"",""trial"",""time""
""fullscreenenter"",""1"",""31089""
","
","
","""event"",""trial"",""time""
""fullscreenenter"",""1"",""31089""
","
","","","740.5","","","10","3794","1231","u","elianto","#3366ff99"," "," ","1","+10","[1595.2000000001863]","1","2","","","3794","105","9","1","win","go","0"
"pit-trial","230","1664579","0.0-110.0","battery-v0.2","","""event"",""trial"",""time""
""fullscreenenter"",""1"",""31089""
","
","
","""event"",""trial"",""time""
""fullscreenenter"",""1"",""31089""
","
","","","-1","","","10","3794","1231","g","elianto","#f73b6a7A"," ","-1","0","-10","[]","0","2","","","3794","106","6","3","lose","go","0"
"pit-trial","231","1669459","0.0-111.0","battery-v0.2","","""event"",""trial"",""time""
""fullscreenenter"",""1"",""31089""
","
","
","""event"",""trial"",""time""
""fullscreenenter"",""1"",""31089""
","
","","","-1","","","10","3794","1231","s","elianto","#3366ff99"," ","-1","0","0","[]","0","2","","","3794","107","4","1","win","go","0"
"pit-trial","232","1673478","0.0-112.0","battery-v0.2","","""event"",""trial"",""time""
""fullscreenenter"",""1"",""31089""
","
","
","""event"",""trial"",""time""
""fullscreenenter"",""1"",""31089""
","
","","","1152.2999999998137","","","10","3794","1231","l","elianto","#3366ff99"," "," ","1","+10","[2005.7999999998137]","1","2","","","3794","108","8","1","win","go","0"
"pit-trial","233","1677275","0.0-113.0","battery-v0.2","","""event"",""trial"",""time""
""fullscreenenter"",""1"",""31089""
","
","
","""event"",""trial"",""time""
""fullscreenenter"",""1"",""31089""
","
","","","921.4000000003725","","","10","3794","1231","l","elianto","#3366ff99"," "," ","1","0","[1781.9000000003725]","1","2","","","3794","109","8","1","win","go","1"
"pit-trial","234","1682146","0.0-114.0","battery-v0.2","","""event"",""trial"",""time""
""fullscreenenter"",""1"",""31089""
","
","
","""event"",""trial"",""time""
""fullscreenenter"",""1"",""31089""
","
","","","-1","","","10","3794","1231","g","elianto","#f73b6a7A"," ","-1","0","-10","[]","0","2","","","3794","110","6","3","lose","go","0"
"pit-trial","235","1685892","0.0-115.0","battery-v0.2","","""event"",""trial"",""time""
""fullscreenenter"",""1"",""31089""
","
","
","""event"",""trial"",""time""
""fullscreenenter"",""1"",""31089""
","
","","","879.3999999994412","","","10","3794","1231","u","elianto","#3366ff99"," "," ","1","0","[1735.2999999998137]","1","2","","","3794","111","9","1","win","go","1"
"pit-trial","236","1689630","0.0-116.0","battery-v0.2","","""event"",""trial"",""time""
""fullscreenenter"",""1"",""31089""
","
","
","""event"",""trial"",""time""
""fullscreenenter"",""1"",""31089""
","
","","","870.7999999998137","","","10","3794","1231","p","elianto","#3366ff99","-1"," ","0","+10","[1727.5]","1","2","","","3794","112","5","2","win","no-go","1"
"pit-trial","237","1693370","0.0-117.0","battery-v0.2","","""event"",""trial"",""time""
""fullscreenenter"",""1"",""31089""
","
","
","""event"",""trial"",""time""
""fullscreenenter"",""1"",""31089""
","
","","","873.9000000003725","","","10","3794","1231","l","elianto","#3366ff99"," "," ","1","+10","[1725.6000000005588]","1","2","","","3794","113","8","1","win","go","0"
"pit-trial","238","1696864","0.0-118.0","battery-v0.2","","""event"",""trial"",""time""
""fullscreenenter"",""1"",""31089""
","
","
","""event"",""trial"",""time""
""fullscreenenter"",""1"",""31089""
","
","","","632.5999999996275","","","10","3794","1231","p","elianto","#3366ff99","-1"," ","0","0","[1485.4000000003725]","1","2","","","3794","114","5","2","win","no-go","0"
"pit-trial","239","1701743","0.0-119.0","battery-v0.2","","""event"",""trial"",""time""
""fullscreenenter"",""1"",""31089""
","
","
","""event"",""trial"",""time""
""fullscreenenter"",""1"",""31089""
","
","","","-1","","","10","3794","1231","g","elianto","#f73b6a7A"," ","-1","0","-10","[]","0","2","","","3794","115","6","3","lose","go","0"
"pit-trial","240","1705348","0.0-120.0","battery-v0.2","","""event"",""trial"",""time""
""fullscreenenter"",""1"",""31089""
","
","
","""event"",""trial"",""time""
""fullscreenenter"",""1"",""31089""
","
","","","732.5","","","10","3794","1231","u","elianto","#3366ff99"," "," ","1","+10","[1589.0999999996275]","1","2","","","3794","116","9","1","win","go","0"
"pit-trial","241","1710217","0.0-121.0","battery-v0.2","","""event"",""trial"",""time""
""fullscreenenter"",""1"",""31089""
","
","
","""event"",""trial"",""time""
""fullscreenenter"",""1"",""31089""
","
","","","-1","","","10","3794","1231","g","elianto","#f73b6a7A"," ","-1","0","0","[]","0","2","","","3794","117","6","3","lose","go","1"
"pit-trial","242","1713723","0.0-122.0","battery-v0.2","","""event"",""trial"",""time""
""fullscreenenter"",""1"",""31089""
","
","
","""event"",""trial"",""time""
""fullscreenenter"",""1"",""31089""
","
","","","634.5","","","10","3794","1231","u","elianto","#3366ff99"," "," ","1","+10","[1491]","1","2","","","3794","118","9","1","win","go","0"
"pit-trial","243","1717569","0.0-123.0","battery-v0.2","","""event"",""trial"",""time""
""fullscreenenter"",""1"",""31089""
","
","
","""event"",""trial"",""time""
""fullscreenenter"",""1"",""31089""
","
","","","971.8000000007451","","","10","3794","1231","l","elianto","#3366ff99"," "," ","1","+10","[1831]","1","2","","","3794","119","8","1","win","go","0"
"pit-trial","244","1721107","0.0-124.0","battery-v0.2","","""event"",""trial"",""time""
""fullscreenenter"",""1"",""31089""
","
","
","""event"",""trial"",""time""
""fullscreenenter"",""1"",""31089""
","
","","","662.5999999996275","","","10","3794","1231","p","elianto","#3366ff99","-1"," ","0","+10","[1525.0999999996275]","1","2","","","3794","120","5","2","win","no-go","1"
"pit-trial","245","1725978","0.0-125.0","battery-v0.2","","""event"",""trial"",""time""
""fullscreenenter"",""1"",""31089""
","
","
","""event"",""trial"",""time""
""fullscreenenter"",""1"",""31089""
","
","","","-1","","","10","3794","1231","a","elianto","#f73b6a7A","-1","-1","1","0","[]","0","2","","","3794","121","7","4","lose","no-go","0"
"pit-trial","246","1729840","0.0-126.0","battery-v0.2","","""event"",""trial"",""time""
""fullscreenenter"",""1"",""31089""
","
","
","""event"",""trial"",""time""
""fullscreenenter"",""1"",""31089""
","
","","","985","","","10","3794","1231","l","elianto","#3366ff99"," "," ","1","+10","[1847.5999999996275]","1","2","","","3794","122","8","1","win","go","0"
"pit-trial","247","1733387","0.0-127.0","battery-v0.2","","""event"",""trial"",""time""
""fullscreenenter"",""1"",""31089""
","
","
","""event"",""trial"",""time""
""fullscreenenter"",""1"",""31089""
","
","","","676.2000000001863","","","10","3794","1231","u","elianto","#3366ff99"," "," ","1","+10","[1533.7000000001863]","1","2","","","3794","123","9","1","win","go","0"
"pit-trial","248","1738266","0.0-128.0","battery-v0.2","","""event"",""trial"",""time""
""fullscreenenter"",""1"",""31089""
","
","
","""event"",""trial"",""time""
""fullscreenenter"",""1"",""31089""
","
","","","-1","","","10","3794","1231","g","elianto","#f73b6a7A"," ","-1","0","-10","[]","0","2","","","3794","124","6","3","lose","go","0"
"pit-trial","249","1742012","0.0-129.0","battery-v0.2","","""event"",""trial"",""time""
""fullscreenenter"",""1"",""31089""
","
","
","""event"",""trial"",""time""
""fullscreenenter"",""1"",""31089""
","
","","","884.5","","","10","3794","1231","u","elianto","#3366ff99"," "," ","1","+10","[1742.5999999996275]","1","2","","","3794","125","9","1","win","go","0"
"pit-trial","250","1746899","0.0-130.0","battery-v0.2","","""event"",""trial"",""time""
""fullscreenenter"",""1"",""31089""
","
","
","""event"",""trial"",""time""
""fullscreenenter"",""1"",""31089""
","
","","","-1","","","10","3794","1231","a","elianto","#f73b6a7A","-1","-1","1","-10","[]","0","2","","","3794","126","7","4","lose","no-go","1"
"pit-trial","251","1751768","0.0-131.0","battery-v0.2","","""event"",""trial"",""time""
""fullscreenenter"",""1"",""31089""
","
","
","""event"",""trial"",""time""
""fullscreenenter"",""1"",""31089""
","
","","","-1","","","10","3794","1231","g","elianto","#f73b6a7A"," ","-1","0","0","[]","0","2","","","3794","127","6","3","lose","go","1"
"pit-trial","252","1755300","0.0-132.0","battery-v0.2","","""event"",""trial"",""time""
""fullscreenenter"",""1"",""31089""
","
","
","""event"",""trial"",""time""
""fullscreenenter"",""1"",""31089""
","
","","","658.2000000001863","","","10","3794","1231","l","elianto","#3366ff99"," "," ","1","+10","[1521.2000000001863]","1","2","","","3794","128","8","1","win","go","0"
"pit-trial","253","1760169","0.0-133.0","battery-v0.2","","""event"",""trial"",""time""
""fullscreenenter"",""1"",""31089""
","
","
","""event"",""trial"",""time""
""fullscreenenter"",""1"",""31089""
","
","","","-1","","","10","3794","1231","g","elianto","#f73b6a7A"," ","-1","0","-10","[]","0","2","","","3794","129","6","3","lose","go","0"
"pit-trial","254","1765048","0.0-134.0","battery-v0.2","","""event"",""trial"",""time""
""fullscreenenter"",""1"",""31089""
","
","
","""event"",""trial"",""time""
""fullscreenenter"",""1"",""31089""
","
","","","-1","","","10","3794","1231","a","elianto","#f73b6a7A","-1","-1","1","0","[]","0","2","","","3794","130","7","4","lose","no-go","0"
"pit-trial","255","1768407","0.0-135.0","battery-v0.2","","""event"",""trial"",""time""
""fullscreenenter"",""1"",""31089""
","
","
","""event"",""trial"",""time""
""fullscreenenter"",""1"",""31089""
","
","","","497.29999999981374","","","10","3794","1231","l","elianto","#3366ff99"," "," ","1","+10","[1351.7999999998137]","1","2","","","3794","131","8","1","win","go","0"
"pit-trial","256","1771991","0.0-136.0","battery-v0.2","","""event"",""trial"",""time""
""fullscreenenter"",""1"",""31089""
","
","
","""event"",""trial"",""time""
""fullscreenenter"",""1"",""31089""
","
","","","714.5","","","10","3794","1231","u","elianto","#3366ff99"," "," ","1","+10","[1572.5999999996275]","1","2","","","3794","132","9","1","win","go","0"
"pit-trial","257","1775647","0.0-137.0","battery-v0.2","","""event"",""trial"",""time""
""fullscreenenter"",""1"",""31089""
","
","
","""event"",""trial"",""time""
""fullscreenenter"",""1"",""31089""
","
","","","794.2000000001863","","","10","3794","1231","u","elianto","#3366ff99"," "," ","1","+10","[1648.5999999996275]","1","2","","","3794","133","9","1","win","go","0"
"pit-trial","258","1780517","0.0-138.0","battery-v0.2","","""event"",""trial"",""time""
""fullscreenenter"",""1"",""31089""
","
","
","""event"",""trial"",""time""
""fullscreenenter"",""1"",""31089""
","
","","","-1","","","10","3794","1231","g","elianto","#f73b6a7A"," ","-1","0","-10","[]","0","2","","","3794","134","6","3","lose","go","0"
"pit-trial","259","1785396","0.0-139.0","battery-v0.2","","""event"",""trial"",""time""
""fullscreenenter"",""1"",""31089""
","
","
","""event"",""trial"",""time""
""fullscreenenter"",""1"",""31089""
","
","","","-1","","","10","3794","1231","a","elianto","#f73b6a7A","-1","-1","1","0","[]","0","2","","","3794","135","7","4","lose","no-go","0"
"pit-trial","260","1788792","0.0-140.0","battery-v0.2","","""event"",""trial"",""time""
""fullscreenenter"",""1"",""31089""
","
","
","""event"",""trial"",""time""
""fullscreenenter"",""1"",""31089""
","
","","","530","","","10","3794","1231","l","elianto","#3366ff99"," "," ","1","0","[1384]","1","2","","","3794","136","8","1","win","go","1"
"pit-trial","261","1792679","0.0-141.0","battery-v0.2","","""event"",""trial"",""time""
""fullscreenenter"",""1"",""31089""
","
","
","""event"",""trial"",""time""
""fullscreenenter"",""1"",""31089""
","
","","","1021.9000000003725","","","10","3794","1231","u","elianto","#3366ff99"," "," ","1","+10","[1876.5]","1","2","","","3794","137","9","1","win","go","0"
"pit-trial","262","1797549","0.0-142.0","battery-v0.2","","""event"",""trial"",""time""
""fullscreenenter"",""1"",""31089""
","
","
","""event"",""trial"",""time""
""fullscreenenter"",""1"",""31089""
","
","","","-1","","","10","3794","1231","g","elianto","#f73b6a7A"," ","-1","0","0","[]","0","2","","","3794","138","6","3","lose","go","1"
"pit-trial","263","1802430","0.0-143.0","battery-v0.2","","""event"",""trial"",""time""
""fullscreenenter"",""1"",""31089""
","
","
","""event"",""trial"",""time""
""fullscreenenter"",""1"",""31089""
","
","","","-1","","","10","3794","1231","a","elianto","#f73b6a7A","-1","-1","1","0","[]","0","2","","","3794","139","7","4","lose","no-go","0"
"pit-trial","264","1806141","0.0-144.0","battery-v0.2","","""event"",""trial"",""time""
""fullscreenenter"",""1"",""31089""
","
","
","""event"",""trial"",""time""
""fullscreenenter"",""1"",""31089""
","
","","","854.1000000005588","","","10","3794","1231","l","elianto","#3366ff99"," "," ","1","+10","[1706.7999999998137]","1","2","","","3794","140","8","1","win","go","0"
"pit-instructions","265","1825246","0.0-145.0","battery-v0.2","","""event"",""trial"",""time""
""fullscreenenter"",""1"",""31089""
","
","
","""event"",""trial"",""time""
""fullscreenenter"",""1"",""31089""
","
","","[{""page_index"":0,""viewing_time"":8535.400000000373},{""page_index"":1,""viewing_time"":10568.399999999441}]","19104.200000000186","","","","","","","","","","","","","","","","","","","","","","","",""
"pit-trial","266","1830124","0.0-146.0","battery-v0.2","","""event"",""trial"",""time""
""fullscreenenter"",""1"",""31089""
","
","
","""event"",""trial"",""time""
""fullscreenenter"",""1"",""31089""
","
","","","-1","","","10","3794","1231","t","elianto","#f73b6a7A","-1","-1","1","-10","[]","0","3","","","3794","141","2","4","lose","no-go","1"
"pit-trial","267","1835002","0.0-147.0","battery-v0.2","","""event"",""trial"",""time""
""fullscreenenter"",""1"",""31089""
","
","
","""event"",""trial"",""time""
""fullscreenenter"",""1"",""31089""
","
","","","-1","","","10","3794","1231","b","elianto","#f73b6a7A"," ","-1","0","-10","[]","0","3","","","3794","142","3","3","lose","go","0"
"pit-trial","268","1838741","0.0-148.0","battery-v0.2","","""event"",""trial"",""time""
""fullscreenenter"",""1"",""31089""
","
","
","""event"",""trial"",""time""
""fullscreenenter"",""1"",""31089""
","
