"trial_type","trial_index","time_elapsed","internal_node_id","task_version","subject_id","interactions","blur_events","focus_events","fullscreenenter_events","fullscreenexit_events","success","view_history","rt","responses","num_errors","age","subject","participantId","rune","rune_set","hex","correct","choice","accuracy","outcome","keys","total_keys","block","practice","value","sub","trial","stimulus","robot","valence","action","sham"
"pavlovia","0","19","0.0-0.0","battery-v0.2","","""event"",""trial"",""time""
""fullscreenenter"",""1"",""3223""
","
","
","""event"",""trial"",""time""
""fullscreenenter"",""1"",""3223""
","
","","","","","","","","","","","","","","","","","","","","","","","","","","",""
"fullscreen","1","4182","0.0-1.0","battery-v0.2","","""event"",""trial"",""time""
""fullscreenenter"",""1"",""3223""
","
","
","""event"",""trial"",""time""
""fullscreenenter"",""1"",""3223""
","
","true","","","","","","","","","","","","","","","","","","","","","","","","","",""
"pit-instructions","2","9597","0.0-2.0-0.0","battery-v0.2","","""event"",""trial"",""time""
""fullscreenenter"",""1"",""3223""
","
","
","""event"",""trial"",""time""
""fullscreenenter"",""1"",""3223""
","
","","[{""page_index"":0,""viewing_time"":5408.399999976158}]","5409.5","","","","","","","","","","","","","","","","","","","","","","","",""
"pit-comprehension","3","13197","0.0-2.0-1.0-0.0","battery-v0.2","","""event"",""trial"",""time""
""fullscreenenter"",""1"",""3223""
","
","
","""event"",""trial"",""time""
""fullscreenenter"",""1"",""3223""
","
","","","3589.100000023842","[""shark""]","0","21","14970","6161","","","","","","","","","","","","","","","","","","",""
"pit-instructions","4","15180","0.0-2.0-1.0-1.0","battery-v0.2","","""event"",""trial"",""time""
""fullscreenenter"",""1"",""3223""
","
","
","""event"",""trial"",""time""
""fullscreenenter"",""1"",""3223""
","
","","[{""page_index"":0,""viewing_time"":1930.2000000476837}]","1933.2000000476837","","","","","","","","","","","","","","","","","","","","","","","",""
"pit-comprehension","5","18369","0.0-2.0-2.0-0.0","battery-v0.2","","""event"",""trial"",""time""
""fullscreenenter"",""1"",""3223""
","
","
","""event"",""trial"",""time""
""fullscreenenter"",""1"",""3223""
","
","","","3178.6999999284744","[""tiger""]","0","21","14970","6161","","","","","","","","","","","","","","","","","","",""
"pit-instructions","6","19884","0.0-2.0-2.0-1.0","battery-v0.2","","""event"",""trial"",""time""
""fullscreenenter"",""1"",""3223""
","
","
","""event"",""trial"",""time""
""fullscreenenter"",""1"",""3223""
","
","","[{""page_index"":0,""viewing_time"":1510.8999999761581}]","1511.8999999761581","","","","","","","","","","","","","","","","","","","","","","","",""
"pit-instructions","7","120500","0.0-2.0-3.0","battery-v0.2","","""event"",""trial"",""time""
""fullscreenenter"",""1"",""3223""
","
","
","""event"",""trial"",""time""
""fullscreenenter"",""1"",""3223""
","
","","[{""page_index"":0,""viewing_time"":10347.399999976158},{""page_index"":1,""viewing_time"":8753.399999976158},{""page_index"":2,""viewing_time"":6254.200000047684},{""page_index"":3,""viewing_time"":5237.100000023842},{""page_index"":4,""viewing_time"":6364.600000023842},{""page_index"":5,""viewing_time"":5725.699999928474},{""page_index"":6,""viewing_time"":6356.399999976158},{""page_index"":7,""viewing_time"":6442.400000095367},{""page_index"":8,""viewing_time"":6275.599999904633},{""page_index"":9,""viewing_time"":7761.400000095367},{""page_index"":10,""viewing_time"":9184.899999976158},{""page_index"":11,""viewing_time"":6939.5},{""page_index"":12,""viewing_time"":8531.100000023842},{""page_index"":13,""viewing_time"":6427.599999904633}]","100603","","","","","","","","","","","","","","","","","","","","","","","",""
"pit-trial","8","124121","0.0-2.0-4.0-0.0","battery-v0.2","","""event"",""trial"",""time""
""fullscreenenter"",""1"",""3223""
","
","
","""event"",""trial"",""time""
""fullscreenenter"",""1"",""3223""
","
","","","744.9000000953674","","","21","14970","6161","&#9784;","elianto","#FFFFF080"," "," ","1","&#10004","[1605.3999999761581]","1","0","0","","","","","","","",""
"pit-trial","9","127944","0.0-2.0-4.1-0.1","battery-v0.2","","""event"",""trial"",""time""
""fullscreenenter"",""1"",""3223""
","
","
","""event"",""trial"",""time""
""fullscreenenter"",""1"",""3223""
","
","","","952.4000000953674","","","21","14970","6161","&#9784;","elianto","#FFFFF080"," "," ","1","&#10004","[1802.5]","1","0","0","","","","","","","",""
"pit-trial","10","131478","0.0-2.0-4.2-0.2","battery-v0.2","","""event"",""trial"",""time""
""fullscreenenter"",""1"",""3223""
","
","
","""event"",""trial"",""time""
""fullscreenenter"",""1"",""3223""
","
","","","668","","","21","14970","6161","&#9784;","elianto","#FFFFF080"," "," ","1","&#10004","[1521.1000000238419]","1","0","0","","","","","","","",""
"pit-trial","11","134837","0.0-2.0-4.3-0.3","battery-v0.2","","""event"",""trial"",""time""
""fullscreenenter"",""1"",""3223""
","
","
","""event"",""trial"",""time""
""fullscreenenter"",""1"",""3223""
","
","","","491.39999997615814","","","21","14970","6161","&#9784;","elianto","#FFFFF080"," "," ","1","&#10004","[1344.6999999284744]","1","0","0","","","","","","","",""
"pit-trial","12","138167","0.0-2.0-4.4-0.4","battery-v0.2","","""event"",""trial"",""time""
""fullscreenenter"",""1"",""3223""
","
","
","""event"",""trial"",""time""
""fullscreenenter"",""1"",""3223""
","
","","","465.59999990463257","","","21","14970","6161","&#9784;","elianto","#FFFFF080"," "," ","1","&#10004","[1316.3999999761581]","1","0","0","","","","","","","",""
"pit-instructions","13","161443","0.0-2.0-5.0","battery-v0.2","","""event"",""trial"",""time""
""fullscreenenter"",""1"",""3223""
","
","
","""event"",""trial"",""time""
""fullscreenenter"",""1"",""3223""
","
","","[{""page_index"":0,""viewing_time"":5868.399999976158},{""page_index"":1,""viewing_time"":7061.700000047684},{""page_index"":2,""viewing_time"":4993.399999976158},{""page_index"":3,""viewing_time"":5342.899999976158}]","23267.5","","","","","","","","","","","","","","","","","","","","","","","",""
"pit-trial","14","166324","0.0-2.0-6.0-0.0","battery-v0.2","","""event"",""trial"",""time""
""fullscreenenter"",""1"",""3223""
","
","
","""event"",""trial"",""time""
""fullscreenenter"",""1"",""3223""
","
","","","-1","","","21","14970","6161","&#9854;","elianto","#FFFFF080","-1","-1","1","&#10004","[]","0","0","1","","","","","","","",""
"pit-trial","15","171186","0.0-2.0-6.1-0.1","battery-v0.2","","""event"",""trial"",""time""
""fullscreenenter"",""1"",""3223""
","
","
","""event"",""trial"",""time""
""fullscreenenter"",""1"",""3223""
","
","","","-1","","","21","14970","6161","&#9854;","elianto","#FFFFF080","-1","-1","1","&#10004","[]","0","0","1","","","","","","","",""
"pit-trial","16","176054","0.0-2.0-6.2-0.2","battery-v0.2","","""event"",""trial"",""time""
""fullscreenenter"",""1"",""3223""
","
","
","""event"",""trial"",""time""
""fullscreenenter"",""1"",""3223""
","
","","","-1","","","21","14970","6161","&#9854;","elianto","#FFFFF080","-1","-1","1","&#10004","[]","0","0","1","","","","","","","",""
"pit-trial","17","180928","0.0-2.0-6.3-0.3","battery-v0.2","","""event"",""trial"",""time""
""fullscreenenter"",""1"",""3223""
","
","
","""event"",""trial"",""time""
""fullscreenenter"",""1"",""3223""
","
","","","-1","","","21","14970","6161","&#9854;","elianto","#FFFFF080","-1","-1","1","&#10004","[]","0","0","1","","","","","","","",""
"pit-trial","18","185811","0.0-2.0-6.4-0.4","battery-v0.2","","""event"",""trial"",""time""
""fullscreenenter"",""1"",""3223""
","
","
","""event"",""trial"",""time""
""fullscreenenter"",""1"",""3223""
","
","","","-1","","","21","14970","6161","&#9854;","elianto","#FFFFF080","-1","-1","1","&#10004","[]","0","0","1","","","","","","","",""
"pit-instructions","19","301228","0.0-2.0-7.0","battery-v0.2","","""event"",""trial"",""time""
""fullscreenenter"",""1"",""3223""
","
","
","""event"",""trial"",""time""
""fullscreenenter"",""1"",""3223""
","
","","[{""page_index"":0,""viewing_time"":5706.799999952316},{""page_index"":1,""viewing_time"":6587.899999976158},{""page_index"":2,""viewing_time"":6133.5},{""page_index"":3,""viewing_time"":6403},{""page_index"":4,""viewing_time"":5566.700000047684},{""page_index"":5,""viewing_time"":5548.600000023842},{""page_index"":6,""viewing_time"":4505},{""page_index"":7,""viewing_time"":7855.199999928474},{""page_index"":8,""viewing_time"":6988.300000071526},{""page_index"":9,""viewing_time"":5592.099999904633},{""page_index"":10,""viewing_time"":7810.100000023842},{""page_index"":11,""viewing_time"":4340.600000023842},{""page_index"":12,""viewing_time"":6485.899999976158},{""page_index"":13,""viewing_time"":7147.700000047684},{""page_index"":14,""viewing_time"":7146.899999976158},{""page_index"":15,""viewing_time"":6379.5},{""page_index"":16,""viewing_time"":6845.600000023842},{""page_index"":17,""viewing_time"":8368.899999976158}]","115413.5","","","","","","","","","","","","","","","","","","","","","","","",""
"pit-trial","20","305436","0.0-2.0-8.0-0.0","battery-v0.2","","""event"",""trial"",""time""
""fullscreenenter"",""1"",""3223""
","
","
","""event"",""trial"",""time""
""fullscreenenter"",""1"",""3223""
","
","","","1343.8999999761581","","","21","14970","6161","&#9776;","elianto","#3366ff99"," "," ","1","+10","[2196.600000023842]","1","0","1","","","","","","","",""
"pit-trial","21","308966","0.0-2.0-8.0-1.0","battery-v0.2","","""event"",""trial"",""time""
""fullscreenenter"",""1"",""3223""
","
","
","""event"",""trial"",""time""
""fullscreenenter"",""1"",""3223""
","
","","","666.1000000238419","","","21","14970","6161","&#9776;","elianto","#3366ff99"," "," ","1","+10","[1519.3000000715256]","1","0","1","","","","","","","",""
"pit-trial","22","312421","0.0-2.0-8.0-2.0","battery-v0.2","","""event"",""trial"",""time""
""fullscreenenter"",""1"",""3223""
","
","
","""event"",""trial"",""time""
""fullscreenenter"",""1"",""3223""
","
","","","593.8999999761581","","","21","14970","6161","&#9776;","elianto","#3366ff99"," "," ","1","+10","[1446.7000000476837]","1","0","1","","","","","","","",""
"pit-trial","23","315934","0.0-2.0-8.0-3.0","battery-v0.2","","""event"",""trial"",""time""
""fullscreenenter"",""1"",""3223""
","
","
","""event"",""trial"",""time""
""fullscreenenter"",""1"",""3223""
","
","","","640.3000000715256","","","21","14970","6161","&#9776;","elianto","#3366ff99"," "," ","1","0","[1495.3000000715256]","1","0","1","","","","","","","",""
"pit-trial","24","319407","0.0-2.0-8.0-4.0","battery-v0.2","","""event"",""trial"",""time""
""fullscreenenter"",""1"",""3223""
","
","
","""event"",""trial"",""time""
""fullscreenenter"",""1"",""3223""
","
","","","604.5","","","21","14970","6161","&#9776;","elianto","#3366ff99"," "," ","1","+10","[1459.2999999523163]","1","0","1","","","","","","","",""
"pit-trial","25","322866","0.0-2.0-8.1-0.1","battery-v0.2","","""event"",""trial"",""time""
""fullscreenenter"",""1"",""3223""
","
","
","""event"",""trial"",""time""
""fullscreenenter"",""1"",""3223""
","
","","","593.1000000238419","","","21","14970","6161","&#9776;","elianto","#3366ff99"," "," ","1","+10","[1444.7000000476837]","1","0","1","","","","","","","",""
"pit-trial","26","326452","0.0-2.0-8.1-1.1","battery-v0.2","","""event"",""trial"",""time""
""fullscreenenter"",""1"",""3223""
","
","
","""event"",""trial"",""time""
""fullscreenenter"",""1"",""3223""
","
","","","718.6999999284744","","","21","14970","6161","&#9776;","elianto","#3366ff99"," "," ","1","+10","[1569.3999999761581]","1","0","1","","","","","","","",""
"pit-trial","27","329935","0.0-2.0-8.1-2.1","battery-v0.2","","""event"",""trial"",""time""
""fullscreenenter"",""1"",""3223""
","
","
","""event"",""trial"",""time""
""fullscreenenter"",""1"",""3223""
","
","","","619.1999999284744","","","21","14970","6161","&#9776;","elianto","#3366ff99"," "," ","1","+10","[1471.2999999523163]","1","0","1","","","","","","","",""
"pit-trial","28","333593","0.0-2.0-8.1-3.1","battery-v0.2","","""event"",""trial"",""time""
""fullscreenenter"",""1"",""3223""
","
","
","""event"",""trial"",""time""
""fullscreenenter"",""1"",""3223""
","
","","","793.3999999761581","","","21","14970","6161","&#9776;","elianto","#3366ff99"," "," ","1","0","[1647.6999999284744]","1","0","1","","","","","","","",""
"pit-trial","29","336865","0.0-2.0-8.1-4.1","battery-v0.2","","""event"",""trial"",""time""
""fullscreenenter"",""1"",""3223""
","
","
","""event"",""trial"",""time""
""fullscreenenter"",""1"",""3223""
","
","","","409.3000000715256","","","21","14970","6161","&#9776;","elianto","#3366ff99"," "," ","1","+10","[1263]","1","0","1","","","","","","","",""
"pit-trial","30","340713","0.0-2.0-8.2-0.2","battery-v0.2","","""event"",""trial"",""time""
""fullscreenenter"",""1"",""3223""
","
","
","""event"",""trial"",""time""
""fullscreenenter"",""1"",""3223""
","
","","","983.5","","","21","14970","6161","&#9776;","elianto","#3366ff99"," "," ","1","+10","[1837.8999999761581]","1","0","1","","","","","","","",""
"pit-trial","31","344208","0.0-2.0-8.2-1.2","battery-v0.2","","""event"",""trial"",""time""
""fullscreenenter"",""1"",""3223""
","
","
","""event"",""trial"",""time""
""fullscreenenter"",""1"",""3223""
","
","","","636.1000000238419","","","21","14970","6161","&#9776;","elianto","#3366ff99"," "," ","1","+10","[1489.1000000238419]","1","0","1","","","","","","","",""
"pit-trial","32","347684","0.0-2.0-8.2-2.2","battery-v0.2","","""event"",""trial"",""time""
""fullscreenenter"",""1"",""3223""
","
","
","""event"",""trial"",""time""
""fullscreenenter"",""1"",""3223""
","
","","","606.6999999284744","","","21","14970","6161","&#9776;","elianto","#3366ff99"," "," ","1","+10","[1456.7999999523163]","1","0","1","","","","","","","",""
"pit-trial","33","351333","0.0-2.0-8.2-3.2","battery-v0.2","","""event"",""trial"",""time""
""fullscreenenter"",""1"",""3223""
","
","
","""event"",""trial"",""time""
""fullscreenenter"",""1"",""3223""
","
","","","787.5","","","21","14970","6161","&#9776;","elianto","#3366ff99"," "," ","1","0","[1638.1000000238419]","1","0","1","","","","","","","",""
"pit-trial","34","354463","0.0-2.0-8.2-4.2","battery-v0.2","","""event"",""trial"",""time""
""fullscreenenter"",""1"",""3223""
","
","
","""event"",""trial"",""time""
""fullscreenenter"",""1"",""3223""
","
","","","265","","","21","14970","6161","&#9776;","elianto","#3366ff99"," "," ","1","+10","[1120.2000000476837]","1","0","1","","","","","","","",""
"call-function","35","354465","0.0-2.0-9.0","battery-v0.2","","""event"",""trial"",""time""
""fullscreenenter"",""1"",""3223""
","
","
","""event"",""trial"",""time""
""fullscreenenter"",""1"",""3223""
","
","","","","","","","","","","","","","","","","","","","","","","","","","","",""
"pit-instructions","36","398731","0.0-2.0-10.0","battery-v0.2","","""event"",""trial"",""time""
""fullscreenenter"",""1"",""3223""
","
","
","""event"",""trial"",""time""
""fullscreenenter"",""1"",""3223""
","
","","[{""page_index"":0,""viewing_time"":7726.5},{""page_index"":1,""viewing_time"":7018.700000047684},{""page_index"":2,""viewing_time"":11717.799999952316},{""page_index"":3,""viewing_time"":9086},{""page_index"":4,""viewing_time"":8714.700000047684}]","44264.5","","","","","","","","","","","","","","","","","","","","","","","",""
"pit-trial","37","403608","0.0-2.0-11.0-0.0","battery-v0.2","","""event"",""trial"",""time""
""fullscreenenter"",""1"",""3223""
","
","
","""event"",""trial"",""time""
""fullscreenenter"",""1"",""3223""
","
","","","-1","","","21","14970","6161","&#9761;","elianto","#3366ff99","-1","-1","1","+10","[]","0","0","2","","","","","","","",""
"pit-trial","38","408478","0.0-2.0-11.0-1.0","battery-v0.2","","""event"",""trial"",""time""
""fullscreenenter"",""1"",""3223""
","
","
","""event"",""trial"",""time""
""fullscreenenter"",""1"",""3223""
","
","","","-1","","","21","14970","6161","&#9761;","elianto","#3366ff99","-1","-1","1","+10","[]","0","0","2","","","","","","","",""
"pit-trial","39","413344","0.0-2.0-11.0-2.0","battery-v0.2","","""event"",""trial"",""time""
""fullscreenenter"",""1"",""3223""
","
","
","""event"",""trial"",""time""
""fullscreenenter"",""1"",""3223""
","
","","","-1","","","21","14970","6161","&#9761;","elianto","#3366ff99","-1","-1","1","+10","[]","0","0","2","","","","","","","",""
"pit-trial","40","418217","0.0-2.0-11.0-3.0","battery-v0.2","","""event"",""trial"",""time""
""fullscreenenter"",""1"",""3223""
","
","
","""event"",""trial"",""time""
""fullscreenenter"",""1"",""3223""
","
","","","-1","","","21","14970","6161","&#9761;","elianto","#3366ff99","-1","-1","1","0","[]","0","0","2","","","","","","","",""
"pit-trial","41","423088","0.0-2.0-11.0-4.0","battery-v0.2","","""event"",""trial"",""time""
""fullscreenenter"",""1"",""3223""
","
","
","""event"",""trial"",""time""
""fullscreenenter"",""1"",""3223""
","
","","","-1","","","21","14970","6161","&#9761;","elianto","#3366ff99","-1","-1","1","+10","[]","0","0","2","","","","","","","",""
"pit-trial","42","427965","0.0-2.0-11.1-0.1","battery-v0.2","","""event"",""trial"",""time""
""fullscreenenter"",""1"",""3223""
","
","
","""event"",""trial"",""time""
""fullscreenenter"",""1"",""3223""
","
","","","-1","","","21","14970","6161","&#9761;","elianto","#3366ff99","-1","-1","1","+10","[]","0","0","2","","","","","","","",""
"pit-trial","43","432826","0.0-2.0-11.1-1.1","battery-v0.2","","""event"",""trial"",""time""
""fullscreenenter"",""1"",""3223""
","
","
","""event"",""trial"",""time""
""fullscreenenter"",""1"",""3223""
","
","","","-1","","","21","14970","6161","&#9761;","elianto","#3366ff99","-1","-1","1","+10","[]","0","0","2","","","","","","","",""
"pit-trial","44","437695","0.0-2.0-11.1-2.1","battery-v0.2","","""event"",""trial"",""time""
""fullscreenenter"",""1"",""3223""
","
","
","""event"",""trial"",""time""
""fullscreenenter"",""1"",""3223""
","
","","","-1","","","21","14970","6161","&#9761;","elianto","#3366ff99","-1","-1","1","+10","[]","0","0","2","","","","","","","",""
"pit-trial","45","442570","0.0-2.0-11.1-3.1","battery-v0.2","","""event"",""trial"",""time""
""fullscreenenter"",""1"",""3223""
","
","
","""event"",""trial"",""time""
""fullscreenenter"",""1"",""3223""
","
","","","-1","","","21","14970","6161","&#9761;","elianto","#3366ff99","-1","-1","1","0","[]","0","0","2","","","","","","","",""
"pit-trial","46","447446","0.0-2.0-11.1-4.1","battery-v0.2","","""event"",""trial"",""time""
""fullscreenenter"",""1"",""3223""
","
","
","""event"",""trial"",""time""
""fullscreenenter"",""1"",""3223""
","
","","","-1","","","21","14970","6161","&#9761;","elianto","#3366ff99","-1","-1","1","+10","[]","0","0","2","","","","","","","",""
"pit-trial","47","452314","0.0-2.0-11.2-0.2","battery-v0.2","","""event"",""trial"",""time""
""fullscreenenter"",""1"",""3223""
","
","
","""event"",""trial"",""time""
""fullscreenenter"",""1"",""3223""
","
","","","-1","","","21","14970","6161","&#9761;","elianto","#3366ff99","-1","-1","1","+10","[]","0","0","2","","","","","","","",""
"pit-trial","48","457178","0.0-2.0-11.2-1.2","battery-v0.2","","""event"",""trial"",""time""
""fullscreenenter"",""1"",""3223""
","
","
","""event"",""trial"",""time""
""fullscreenenter"",""1"",""3223""
","
","","","-1","","","21","14970","6161","&#9761;","elianto","#3366ff99","-1","-1","1","+10","[]","0","0","2","","","","","","","",""
"pit-trial","49","462040","0.0-2.0-11.2-2.2","battery-v0.2","","""event"",""trial"",""time""
""fullscreenenter"",""1"",""3223""
","
","
","""event"",""trial"",""time""
""fullscreenenter"",""1"",""3223""
","
","","","-1","","","21","14970","6161","&#9761;","elianto","#3366ff99","-1","-1","1","+10","[]","0","0","2","","","","","","","",""
"pit-trial","50","466915","0.0-2.0-11.2-3.2","battery-v0.2","","""event"",""trial"",""time""
""fullscreenenter"",""1"",""3223""
","
","
","""event"",""trial"",""time""
""fullscreenenter"",""1"",""3223""
","
","","","-1","","","21","14970","6161","&#9761;","elianto","#3366ff99","-1","-1","1","0","[]","0","0","2","","","","","","","",""
"pit-trial","51","471794","0.0-2.0-11.2-4.2","battery-v0.2","","""event"",""trial"",""time""
""fullscreenenter"",""1"",""3223""
","
","
","""event"",""trial"",""time""
""fullscreenenter"",""1"",""3223""
","
","","","-1","","","21","14970","6161","&#9761;","elianto","#3366ff99","-1","-1","1","+10","[]","0","0","2","","","","","","","",""
"pit-trial","52","476658","0.0-2.0-11.3-0.3","battery-v0.2","","""event"",""trial"",""time""
""fullscreenenter"",""1"",""3223""
","
","
","""event"",""trial"",""time""
""fullscreenenter"",""1"",""3223""
","
","","","-1","","","21","14970","6161","&#9761;","elianto","#3366ff99","-1","-1","1","+10","[]","0","0","2","","","","","","","",""
"pit-trial","53","481522","0.0-2.0-11.3-1.3","battery-v0.2","","""event"",""trial"",""time""
""fullscreenenter"",""1"",""3223""
","
","
","""event"",""trial"",""time""
""fullscreenenter"",""1"",""3223""
","
","","","-1","","","21","14970","6161","&#9761;","elianto","#3366ff99","-1","-1","1","+10","[]","0","0","2","","","","","","","",""
"pit-trial","54","486381","0.0-2.0-11.3-2.3","battery-v0.2","","""event"",""trial"",""time""
""fullscreenenter"",""1"",""3223""
","
","
","""event"",""trial"",""time""
""fullscreenenter"",""1"",""3223""
","
","","","-1","","","21","14970","6161","&#9761;","elianto","#3366ff99","-1","-1","1","+10","[]","0","0","2","","","","","","","",""
"pit-trial","55","491245","0.0-2.0-11.3-3.3","battery-v0.2","","""event"",""trial"",""time""
""fullscreenenter"",""1"",""3223""
","
","
","""event"",""trial"",""time""
""fullscreenenter"",""1"",""3223""
","
","","","-1","","","21","14970","6161","&#9761;","elianto","#3366ff99","-1","-1","1","0","[]","0","0","2","","","","","","","",""
"pit-trial","56","496109","0.0-2.0-11.3-4.3","battery-v0.2","","""event"",""trial"",""time""
""fullscreenenter"",""1"",""3223""
","
","
","""event"",""trial"",""time""
""fullscreenenter"",""1"",""3223""
","
","","","-1","","","21","14970","6161","&#9761;","elianto","#3366ff99","-1","-1","1","+10","[]","0","0","2","","","","","","","",""
"call-function","57","496113","0.0-2.0-12.0","battery-v0.2","","""event"",""trial"",""time""
""fullscreenenter"",""1"",""3223""
","
","
","""event"",""trial"",""time""
""fullscreenenter"",""1"",""3223""
","
","","","","","","","","","","","","","","","","","","","","","","","","","","",""
"pit-instructions","58","531449","0.0-2.0-13.0","battery-v0.2","","""event"",""trial"",""time""
""fullscreenenter"",""1"",""3223""
","
","
","""event"",""trial"",""time""
""fullscreenenter"",""1"",""3223""
","
","","[{""page_index"":0,""viewing_time"":5889.100000023842},{""page_index"":1,""viewing_time"":7494.799999952316},{""page_index"":2,""viewing_time"":5702.899999976158},{""page_index"":3,""viewing_time"":11430},{""page_index"":4,""viewing_time"":4816.800000071526}]","35335.799999952316","","","","","","","","","","","","","","","","","","","","","","","",""
"pit-trial","59","535160","0.0-2.0-14.0-0.0","battery-v0.2","","""event"",""trial"",""time""
""fullscreenenter"",""1"",""3223""
","
","
","""event"",""trial"",""time""
""fullscreenenter"",""1"",""3223""
","
","","","843","","","21","14970","6161","&#9826;","elianto","#f73b6a7A","-1"," ","0","-10","[1694.3999999761581]","1","0","3","","","","","","","",""
"pit-trial","60","540020","0.0-2.0-14.0-1.0","battery-v0.2","","""event"",""trial"",""time""
""fullscreenenter"",""1"",""3223""
","
","
","""event"",""trial"",""time""
""fullscreenenter"",""1"",""3223""
","
","","","-1","","","21","14970","6161","&#9826;","elianto","#f73b6a7A","-1","-1","1","0","[]","0","0","3","","","","","","","",""
"pit-trial","61","544883","0.0-2.0-14.0-2.0","battery-v0.2","","""event"",""trial"",""time""
""fullscreenenter"",""1"",""3223""
","
","
","""event"",""trial"",""time""
""fullscreenenter"",""1"",""3223""
","
","","","-1","","","21","14970","6161","&#9826;","elianto","#f73b6a7A","-1","-1","1","0","[]","0","0","3","","","","","","","",""
"pit-trial","62","549755","0.0-2.0-14.0-3.0","battery-v0.2","","""event"",""trial"",""time""
""fullscreenenter"",""1"",""3223""
","
","
","""event"",""trial"",""time""
""fullscreenenter"",""1"",""3223""
","
","","","-1","","","21","14970","6161","&#9826;","elianto","#f73b6a7A","-1","-1","1","-10","[]","0","0","3","","","","","","","",""
"pit-trial","63","554629","0.0-2.0-14.0-4.0","battery-v0.2","","""event"",""trial"",""time""
""fullscreenenter"",""1"",""3223""
","
","
","""event"",""trial"",""time""
""fullscreenenter"",""1"",""3223""
","
","","","-1","","","21","14970","6161","&#9826;","elianto","#f73b6a7A","-1","-1","1","0","[]","0","0","3","","","","","","","",""
"pit-trial","64","559489","0.0-2.0-14.1-0.1","battery-v0.2","","""event"",""trial"",""time""
""fullscreenenter"",""1"",""3223""
","
","
","""event"",""trial"",""time""
""fullscreenenter"",""1"",""3223""
","
","","","-1","","","21","14970","6161","&#9826;","elianto","#f73b6a7A","-1","-1","1","0","[]","0","0","3","","","","","","","",""
"pit-trial","65","564347","0.0-2.0-14.1-1.1","battery-v0.2","","""event"",""trial"",""time""
""fullscreenenter"",""1"",""3223""
","
","
","""event"",""trial"",""time""
""fullscreenenter"",""1"",""3223""
","
","","","-1","","","21","14970","6161","&#9826;","elianto","#f73b6a7A","-1","-1","1","0","[]","0","0","3","","","","","","","",""
"pit-trial","66","569215","0.0-2.0-14.1-2.1","battery-v0.2","","""event"",""trial"",""time""
""fullscreenenter"",""1"",""3223""
","
","
","""event"",""trial"",""time""
""fullscreenenter"",""1"",""3223""
","
","","","-1","","","21","14970","6161","&#9826;","elianto","#f73b6a7A","-1","-1","1","0","[]","0","0","3","","","","","","","",""
"pit-trial","67","574086","0.0-2.0-14.1-3.1","battery-v0.2","","""event"",""trial"",""time""
""fullscreenenter"",""1"",""3223""
","
","
","""event"",""trial"",""time""
""fullscreenenter"",""1"",""3223""
","
","","","-1","","","21","14970","6161","&#9826;","elianto","#f73b6a7A","-1","-1","1","-10","[]","0","0","3","","","","","","","",""
"pit-trial","68","578951","0.0-2.0-14.1-4.1","battery-v0.2","","""event"",""trial"",""time""
""fullscreenenter"",""1"",""3223""
","
","
","""event"",""trial"",""time""
""fullscreenenter"",""1"",""3223""
","
","","","-1","","","21","14970","6161","&#9826;","elianto","#f73b6a7A","-1","-1","1","0","[]","0","0","3","","","","","","","",""
"pit-trial","69","583817","0.0-2.0-14.2-0.2","battery-v0.2","","""event"",""trial"",""time""
""fullscreenenter"",""1"",""3223""
","
","
","""event"",""trial"",""time""
""fullscreenenter"",""1"",""3223""
","
","","","-1","","","21","14970","6161","&#9826;","elianto","#f73b6a7A","-1","-1","1","0","[]","0","0","3","","","","","","","",""
"pit-trial","70","588685","0.0-2.0-14.2-1.2","battery-v0.2","","""event"",""trial"",""time""
""fullscreenenter"",""1"",""3223""
","
","
","""event"",""trial"",""time""
""fullscreenenter"",""1"",""3223""
","
","","","-1","","","21","14970","6161","&#9826;","elianto","#f73b6a7A","-1","-1","1","0","[]","0","0","3","","","","","","","",""
"pit-trial","71","593548","0.0-2.0-14.2-2.2","battery-v0.2","","""event"",""trial"",""time""
""fullscreenenter"",""1"",""3223""
","
","
","""event"",""trial"",""time""
""fullscreenenter"",""1"",""3223""
","
","","","-1","","","21","14970","6161","&#9826;","elianto","#f73b6a7A","-1","-1","1","0","[]","0","0","3","","","","","","","",""
"pit-trial","72","598404","0.0-2.0-14.2-3.2","battery-v0.2","","""event"",""trial"",""time""
""fullscreenenter"",""1"",""3223""
","
","
","""event"",""trial"",""time""
""fullscreenenter"",""1"",""3223""
","
","","","-1","","","21","14970","6161","&#9826;","elianto","#f73b6a7A","-1","-1","1","-10","[]","0","0","3","","","","","","","",""
"pit-trial","73","603270","0.0-2.0-14.2-4.2","battery-v0.2","","""event"",""trial"",""time""
""fullscreenenter"",""1"",""3223""
","
","
","""event"",""trial"",""time""
""fullscreenenter"",""1"",""3223""
","
","","","-1","","","21","14970","6161","&#9826;","elianto","#f73b6a7A","-1","-1","1","0","[]","0","0","3","","","","","","","",""
"pit-trial","74","608139","0.0-2.0-14.3-0.3","battery-v0.2","","""event"",""trial"",""time""
""fullscreenenter"",""1"",""3223""
","
","
","""event"",""trial"",""time""
""fullscreenenter"",""1"",""3223""
","
","","","-1","","","21","14970","6161","&#9826;","elianto","#f73b6a7A","-1","-1","1","0","[]","0","0","3","","","","","","","",""
"pit-trial","75","613006","0.0-2.0-14.3-1.3","battery-v0.2","","""event"",""trial"",""time""
""fullscreenenter"",""1"",""3223""
","
","
","""event"",""trial"",""time""
""fullscreenenter"",""1"",""3223""
","
","","","-1","","","21","14970","6161","&#9826;","elianto","#f73b6a7A","-1","-1","1","0","[]","0","0","3","","","","","","","",""
"pit-trial","76","617879","0.0-2.0-14.3-2.3","battery-v0.2","","""event"",""trial"",""time""
""fullscreenenter"",""1"",""3223""
","
","
","""event"",""trial"",""time""
""fullscreenenter"",""1"",""3223""
","
","","","-1","","","21","14970","6161","&#9826;","elianto","#f73b6a7A","-1","-1","1","0","[]","0","0","3","","","","","","","",""
"pit-trial","77","622743","0.0-2.0-14.3-3.3","battery-v0.2","","""event"",""trial"",""time""
""fullscreenenter"",""1"",""3223""
","
","
","""event"",""trial"",""time""
""fullscreenenter"",""1"",""3223""
","
","","","-1","","","21","14970","6161","&#9826;","elianto","#f73b6a7A","-1","-1","1","-10","[]","0","0","3","","","","","","","",""
"pit-trial","78","627618","0.0-2.0-14.3-4.3","battery-v0.2","","""event"",""trial"",""time""
""fullscreenenter"",""1"",""3223""
","
","
","""event"",""trial"",""time""
""fullscreenenter"",""1"",""3223""
","
","","","-1","","","21","14970","6161","&#9826;","elianto","#f73b6a7A","-1","-1","1","0","[]","0","0","3","","","","","","","",""
"call-function","79","627621","0.0-2.0-15.0","battery-v0.2","","""event"",""trial"",""time""
""fullscreenenter"",""1"",""3223""
","
","
","""event"",""trial"",""time""
""fullscreenenter"",""1"",""3223""
","
","","","","","","","","","","","","","","","","","","","","","","","","","","",""
"pit-instructions","80","657188","0.0-2.0-16.0","battery-v0.2","","""event"",""trial"",""time""
""fullscreenenter"",""1"",""3223""
","
","
","""event"",""trial"",""time""
""fullscreenenter"",""1"",""3223""
","
","","[{""page_index"":0,""viewing_time"":9637},{""page_index"":1,""viewing_time"":8309.600000023842},{""page_index"":2,""viewing_time"":5721.700000047684},{""page_index"":3,""viewing_time"":5896}]","29566.200000047684","","","","","","","","","","","","","","","","","","","","","","","",""
"pit-trial","81","660426","0.0-2.0-17.0-0.0","battery-v0.2","","""event"",""trial"",""time""
""fullscreenenter"",""1"",""3223""
","
","
","""event"",""trial"",""time""
""fullscreenenter"",""1"",""3223""
","
","","","378.7999999523163","","","21","14970","6161","&#9789;","elianto","#f73b6a7A"," "," ","1","0","[1229.7000000476837]","1","0","4","","","","","","","",""
"pit-trial","82","663564","0.0-2.0-17.0-1.0","battery-v0.2","","""event"",""trial"",""time""
""fullscreenenter"",""1"",""3223""
","
","
","""event"",""trial"",""time""
""fullscreenenter"",""1"",""3223""
","
","","","281.40000009536743","","","21","14970","6161","&#9789;","elianto","#f73b6a7A"," "," ","1","0","[1131.5]","1","0","4","","","","","","","",""
"pit-trial","83","666885","0.0-2.0-17.0-2.0","battery-v0.2","","""event"",""trial"",""time""
""fullscreenenter"",""1"",""3223""
","
","
","""event"",""trial"",""time""
""fullscreenenter"",""1"",""3223""
","
","","","453.2000000476837","","","21","14970","6161","&#9789;","elianto","#f73b6a7A"," "," ","1","0","[1303.2000000476837]","1","0","4","","","","","","","",""
"pit-trial","84","670593","0.0-2.0-17.0-3.0","battery-v0.2","","""event"",""trial"",""time""
""fullscreenenter"",""1"",""3223""
","
","
","""event"",""trial"",""time""
""fullscreenenter"",""1"",""3223""
","
","","","851.5","","","21","14970","6161","&#9789;","elianto","#f73b6a7A"," "," ","1","-10","[1702.2000000476837]","1","0","4","","","","","","","",""
"pit-trial","85","674258","0.0-2.0-17.0-4.0","battery-v0.2","","""event"",""trial"",""time""
""fullscreenenter"",""1"",""3223""
","
","
","""event"",""trial"",""time""
""fullscreenenter"",""1"",""3223""
","
","","","802.1000000238419","","","21","14970","6161","&#9789;","elianto","#f73b6a7A"," "," ","1","0","[1656.3000000715256]","1","0","4","","","","","","","",""
"pit-trial","86","677715","0.0-2.0-17.1-0.1","battery-v0.2","","""event"",""trial"",""time""
""fullscreenenter"",""1"",""3223""
","
","
","""event"",""trial"",""time""
""fullscreenenter"",""1"",""3223""
","
","","","584.2999999523163","","","21","14970","6161","&#9789;","elianto","#f73b6a7A"," "," ","1","0","[1436.8999999761581]","1","0","4","","","","","","","",""
"pit-trial","87","681269","0.0-2.0-17.1-1.1","battery-v0.2","","""event"",""trial"",""time""
""fullscreenenter"",""1"",""3223""
","
","
","""event"",""trial"",""time""
""fullscreenenter"",""1"",""3223""
","
","","","689.7999999523163","","","21","14970","6161","&#9789;","elianto","#f73b6a7A"," "," ","1","0","[1540.2999999523163]","1","0","4","","","","","","","",""
"pit-trial","88","684314","0.0-2.0-17.1-2.1","battery-v0.2","","""event"",""trial"",""time""
""fullscreenenter"",""1"",""3223""
","
","
","""event"",""trial"",""time""
""fullscreenenter"",""1"",""3223""
","
","","","178.5","","","21","14970","6161","&#9789;","elianto","#f73b6a7A"," "," ","1","0","[1029]","1","0","4","","","","","","","",""
"pit-trial","89","687922","0.0-2.0-17.1-3.1","battery-v0.2","","""event"",""trial"",""time""
""fullscreenenter"",""1"",""3223""
","
","
","""event"",""trial"",""time""
""fullscreenenter"",""1"",""3223""
","
","","","751.2000000476837","","","21","14970","6161","&#9789;","elianto","#f73b6a7A"," "," ","1","-10","[1601.7000000476837]","1","0","4","","","","","","","",""
"pit-trial","90","691868","0.0-2.0-17.1-4.1","battery-v0.2","","""event"",""trial"",""time""
""fullscreenenter"",""1"",""3223""
","
","
","""event"",""trial"",""time""
""fullscreenenter"",""1"",""3223""
","
","","","1084.3999999761581","","","21","14970","6161","&#9789;","elianto","#f73b6a7A"," "," ","1","0","[1935.2999999523163]","1","0","4","","","","","","","",""
"pit-trial","91","695276","0.0-2.0-17.2-0.2","battery-v0.2","","""event"",""trial"",""time""
""fullscreenenter"",""1"",""3223""
","
","
","""event"",""trial"",""time""
""fullscreenenter"",""1"",""3223""
","
","","","546.8000000715256","","","21","14970","6161","&#9789;","elianto","#f73b6a7A"," "," ","1","0","[1399.3000000715256]","1","0","4","","","","","","","",""
"pit-trial","92","698967","0.0-2.0-17.2-1.2","battery-v0.2","","""event"",""trial"",""time""
""fullscreenenter"",""1"",""3223""
","
","
","""event"",""trial"",""time""
""fullscreenenter"",""1"",""3223""
","
","","","830.6999999284744","","","21","14970","6161","&#9789;","elianto","#f73b6a7A"," "," ","1","0","[1680.9000000953674]","1","0","4","","","","","","","",""
"pit-trial","93","702507","0.0-2.0-17.2-2.2","battery-v0.2","","""event"",""trial"",""time""
""fullscreenenter"",""1"",""3223""
","
","
","""event"",""trial"",""time""
""fullscreenenter"",""1"",""3223""
","
","","","676","","","21","14970","6161","&#9789;","elianto","#f73b6a7A"," "," ","1","0","[1528.8000000715256]","1","0","4","","","","","","","",""
"pit-trial","94","706036","0.0-2.0-17.2-3.2","battery-v0.2","","""event"",""trial"",""time""
""fullscreenenter"",""1"",""3223""
","
","
","""event"",""trial"",""time""
""fullscreenenter"",""1"",""3223""
","
","","","670.3999999761581","","","21","14970","6161","&#9789;","elianto","#f73b6a7A"," "," ","1","-10","[1520.3999999761581]","1","0","4","","","","","","","",""
"pit-trial","95","709697","0.0-2.0-17.2-4.2","battery-v0.2","","""event"",""trial"",""time""
""fullscreenenter"",""1"",""3223""
","
","
","""event"",""trial"",""time""
""fullscreenenter"",""1"",""3223""
","
","","","800.3999999761581","","","21","14970","6161","&#9789;","elianto","#f73b6a7A"," "," ","1","0","[1650.2999999523163]","1","0","4","","","","","","","",""
"pit-trial","96","713215","0.0-2.0-17.3-0.3","battery-v0.2","","""event"",""trial"",""time""
""fullscreenenter"",""1"",""3223""
","
","
","""event"",""trial"",""time""
""fullscreenenter"",""1"",""3223""
","
","","","656.7000000476837","","","21","14970","6161","&#9789;","elianto","#f73b6a7A"," "," ","1","0","[1508.6999999284744]","1","0","4","","","","","","","",""
"pit-trial","97","716989","0.0-2.0-17.3-1.3","battery-v0.2","","""event"",""trial"",""time""
""fullscreenenter"",""1"",""3223""
","
","
","""event"",""trial"",""time""
""fullscreenenter"",""1"",""3223""
","
","","","912","","","21","14970","6161","&#9789;","elianto","#f73b6a7A"," "," ","1","0","[1765.6000000238419]","1","0","4","","","","","","","",""
"pit-trial","98","720399","0.0-2.0-17.3-2.3","battery-v0.2","","""event"",""trial"",""time""
""fullscreenenter"",""1"",""3223""
","
","
","""event"",""trial"",""time""
""fullscreenenter"",""1"",""3223""
","
","","","542.1999999284744","","","21","14970","6161","&#9789;","elianto","#f73b6a7A"," "," ","1","0","[1396.6999999284744]","1","0","4","","","","","","","",""
"pit-trial","99","723950","0.0-2.0-17.3-3.3","battery-v0.2","","""event"",""trial"",""time""
""fullscreenenter"",""1"",""3223""
","
","
","""event"",""trial"",""time""
""fullscreenenter"",""1"",""3223""
","
","","","690.1000000238419","","","21","14970","6161","&#9789;","elianto","#f73b6a7A"," "," ","1","-10","[1540.6000000238419]","1","0","4","","","","","","","",""
"pit-trial","100","727840","0.0-2.0-17.3-4.3","battery-v0.2","","""event"",""trial"",""time""
""fullscreenenter"",""1"",""3223""
","
","
","""event"",""trial"",""time""
""fullscreenenter"",""1"",""3223""
","
","","","1027.6999999284744","","","21","14970","6161","&#9789;","elianto","#f73b6a7A"," "," ","1","0","[1880]","1","0","4","","","","","","","",""
"call-function","101","727844","0.0-2.0-18.0","battery-v0.2","","""event"",""trial"",""time""
""fullscreenenter"",""1"",""3223""
","
","
","""event"",""trial"",""time""
""fullscreenenter"",""1"",""3223""
","
","","","","","","","","","","","","","","","","","","","","","","","","","","",""
"pit-instructions","102","802310","0.0-2.0-19.0","battery-v0.2","","""event"",""trial"",""time""
""fullscreenenter"",""1"",""3223""
","
","
","""event"",""trial"",""time""
""fullscreenenter"",""1"",""3223""
","
","","[{""page_index"":0,""viewing_time"":8578.799999952316},{""page_index"":1,""viewing_time"":6604.600000023842},{""page_index"":2,""viewing_time"":14252.5},{""page_index"":3,""viewing_time"":8140.300000071526},{""page_index"":4,""viewing_time"":8897.299999952316},{""page_index"":5,""viewing_time"":8854},{""page_index"":6,""viewing_time"":8348.600000023842},{""page_index"":7,""viewing_time"":6934.199999928474},{""page_index"":8,""viewing_time"":3851}]","74463","","","","","","","","","","","","","","","","","","","","","","","",""
"pit-comprehension","103","807125","0.0-2.0-20.0-0.0","battery-v0.2","","""event"",""trial"",""time""
""fullscreenenter"",""1"",""3223""
","
","
","""event"",""trial"",""time""
""fullscreenenter"",""1"",""3223""
","
","","","4804","[""SPACE""]","0","21","14970","6161","","","","","","","","","","","","","","","","","","",""
"pit-instructions","104","810921","0.0-2.0-20.0-1.0","battery-v0.2","","""event"",""trial"",""time""
""fullscreenenter"",""1"",""3223""
","
","
","""event"",""trial"",""time""
""fullscreenenter"",""1"",""3223""
","
","","[{""page_index"":0,""viewing_time"":3701.100000023842}]","3702.899999976158","","","","","","","","","","","","","","","","","","","","","","","",""
"pit-comprehension","105","816745","0.0-2.0-21.0-0.0","battery-v0.2","","""event"",""trial"",""time""
""fullscreenenter"",""1"",""3223""
","
","
","""event"",""trial"",""time""
""fullscreenenter"",""1"",""3223""
","
","","","5813.799999952316","[""10""]","0","21","14970","6161","","","","","","","","","","","","","","","","","","",""
"pit-instructions","106","818462","0.0-2.0-21.0-1.0","battery-v0.2","","""event"",""trial"",""time""
""fullscreenenter"",""1"",""3223""
","
","
","""event"",""trial"",""time""
""fullscreenenter"",""1"",""3223""
","
","","[{""page_index"":0,""viewing_time"":1629.1000000238419}]","1631","","","","","","","","","","","","","","","","","","","","","","","",""
"pit-comprehension","107","825283","0.0-2.0-22.0-0.0","battery-v0.2","","""event"",""trial"",""time""
""fullscreenenter"",""1"",""3223""
","
","
","""event"",""trial"",""time""
""fullscreenenter"",""1"",""3223""
","
","","","6811.899999976158","[""0""]","0","21","14970","6161","","","","","","","","","","","","","","","","","","",""
"pit-instructions","108","826989","0.0-2.0-22.0-1.0","battery-v0.2","","""event"",""trial"",""time""
""fullscreenenter"",""1"",""3223""
","
","
","""event"",""trial"",""time""
""fullscreenenter"",""1"",""3223""
","
","","[{""page_index"":0,""viewing_time"":1603.3999999761581}]","1606.5","","","","","","","","","","","","","","","","","","","","","","","",""
"pit-comprehension","109","835562","0.0-2.0-23.0-0.0","battery-v0.2","","""event"",""trial"",""time""
""fullscreenenter"",""1"",""3223""
","
","
","""event"",""trial"",""time""
""fullscreenenter"",""1"",""3223""
","
","","","8563.5","[""True""]","0","21","14970","6161","","","","","","","","","","","","","","","","","","",""
"pit-instructions","110","837707","0.0-2.0-23.0-1.0","battery-v0.2","","""event"",""trial"",""time""
""fullscreenenter"",""1"",""3223""
","
","
","""event"",""trial"",""time""
""fullscreenenter"",""1"",""3223""
","
","","[{""page_index"":0,""viewing_time"":2068.2000000476837}]","2069.8000000715256","","","","","","","","","","","","","","","","","","","","","","","",""
"pit-comprehension","111","845294","0.0-2.0-24.0-0.0","battery-v0.2","","""event"",""trial"",""time""
""fullscreenenter"",""1"",""3223""
","
","
","""event"",""trial"",""time""
""fullscreenenter"",""1"",""3223""
","
","","","7580.299999952316","[""True""]","0","21","14970","6161","","","","","","","","","","","","","","","","","","",""
"pit-instructions","112","847036","0.0-2.0-24.0-1.0","battery-v0.2","","""event"",""trial"",""time""
""fullscreenenter"",""1"",""3223""
","
","
","""event"",""trial"",""time""
""fullscreenenter"",""1"",""3223""
","
","","[{""page_index"":0,""viewing_time"":1641.6000000238419}]","1643.4000000953674","","","","","","","","","","","","","","","","","","","","","","","",""
"pit-comprehension","113","854443","0.0-2.0-25.0-0.0","battery-v0.2","","""event"",""trial"",""time""
""fullscreenenter"",""1"",""3223""
","
","
","""event"",""trial"",""time""
""fullscreenenter"",""1"",""3223""
","
","","","7396.799999952316","[""True""]","0","21","14970","6161","","","","","","","","","","","","","","","","","","",""
"pit-instructions","114","856367","0.0-2.0-25.0-1.0","battery-v0.2","","""event"",""trial"",""time""
""fullscreenenter"",""1"",""3223""
","
","
","""event"",""trial"",""time""
""fullscreenenter"",""1"",""3223""
","
","","[{""page_index"":0,""viewing_time"":1845.7999999523163}]","1847.5","","","","","","","","","","","","","","","","","","","","","","","",""
"pit-comprehension","115","861657","0.0-2.0-26.0-0.0","battery-v0.2","","""event"",""trial"",""time""
""fullscreenenter"",""1"",""3223""
","
","
","""event"",""trial"",""time""
""fullscreenenter"",""1"",""3223""
","
","","","5282.699999928474","[""False""]","0","21","14970","6161","","","","","","","","","","","","","","","","","","",""
"pit-instructions","116","863607","0.0-2.0-26.0-1.0","battery-v0.2","","""event"",""trial"",""time""
""fullscreenenter"",""1"",""3223""
","
","
","""event"",""trial"",""time""
""fullscreenenter"",""1"",""3223""
","
","","[{""page_index"":0,""viewing_time"":1864.2999999523163}]","1865.5","","","","","","","","","","","","","","","","","","","","","","","",""
"pit-instructions","117","879761","0.0-3.0","battery-v0.2","","""event"",""trial"",""time""
""fullscreenenter"",""1"",""3223""
","
","
","""event"",""trial"",""time""
""fullscreenenter"",""1"",""3223""
","
","","[{""page_index"":0,""viewing_time"":4588.5},{""page_index"":1,""viewing_time"":5238},{""page_index"":2,""viewing_time"":6321}]","16148.399999976158","","","","","","","","","","","","","","","","","","","","","","","",""
"pit-trial","118","883666","0.0-4.0","battery-v0.2","","""event"",""trial"",""time""
""fullscreenenter"",""1"",""3223""
","
","
","""event"",""trial"",""time""
""fullscreenenter"",""1"",""3223""
","
","","","1037.5","","","21","14970","6161","&#9728;","elianto","#f73b6a7A","-1"," ","0","-10","[1890.5999999046326]","1","1","","","14970","1","0","4","lose","no-go","0"
"pit-trial","119","887770","0.0-5.0","battery-v0.2","","""event"",""trial"",""time""
""fullscreenenter"",""1"",""3223""
","
","
","""event"",""trial"",""time""
""fullscreenenter"",""1"",""3223""
","
","","","1238.3999999761581","","","21","14970","6161","&#9752;","elianto","#f73b6a7A"," "," ","1","0","[2094.7000000476837]","1","1","","","14970","2","3","3","lose","go","0"
"pit-trial","120","891796","0.0-6.0","battery-v0.2","","""event"",""trial"",""time""
""fullscreenenter"",""1"",""3223""
","
","
","""event"",""trial"",""time""
""fullscreenenter"",""1"",""3223""
","
","","","1161.1000000238419","","","21","14970","6161","&#9730;","elianto","#3366ff99"," "," ","1","+10","[2018.7000000476837]","1","1","","","14970","3","1","1","win","go","0"
"pit-trial","121","895638","0.0-7.0","battery-v0.2","","""event"",""trial"",""time""
""fullscreenenter"",""1"",""3223""
","
","
","""event"",""trial"",""time""
""fullscreenenter"",""1"",""3223""
","
","","","982.2999999523163","","","21","14970","6161","&#9733;","elianto","#3366ff99","-1"," ","0","0","[1832.6999999284744]","1","1","","","14970","4","2","2","win","no-go","0"
"pit-trial","122","900506","0.0-8.0","battery-v0.2","","""event"",""trial"",""time""
""fullscreenenter"",""1"",""3223""
","
","
","""event"",""trial"",""time""
""fullscreenenter"",""1"",""3223""
","
","","","-1","","","21","14970","6161","&#9733;","elianto","#3366ff99","-1","-1","1","0","[]","0","1","","","14970","5","2","2","win","no-go","1"
"pit-trial","123","904719","0.0-9.0","battery-v0.2","","""event"",""trial"",""time""
""fullscreenenter"",""1"",""3223""
","
","
","""event"",""trial"",""time""
""fullscreenenter"",""1"",""3223""
","
","","","1346.5","","","21","14970","6161","&#9730;","elianto","#3366ff99"," "," ","1","+10","[2202.6999999284744]","1","1","","","14970","6","1","1","win","go","0"
"pit-trial","124","909582","0.0-10.0","battery-v0.2","","""event"",""trial"",""time""
""fullscreenenter"",""1"",""3223""
","
","
","""event"",""trial"",""time""
""fullscreenenter"",""1"",""3223""
","
","","","-1","","","21","14970","6161","&#9728;","elianto","#f73b6a7A","-1","-1","1","0","[]","0","1","","","14970","7","0","4","lose","no-go","0"
"pit-trial","125","913172","0.0-11.0","battery-v0.2","","""event"",""trial"",""time""
""fullscreenenter"",""1"",""3223""
","
","
","""event"",""trial"",""time""
""fullscreenenter"",""1"",""3223""
","
","","","725.3000000715256","","","21","14970","6161","&#9752;","elianto","#f73b6a7A"," "," ","1","-10","[1576.3999999761581]","1","1","","","14970","8","3","3","lose","go","1"
"pit-trial","126","918032","0.0-12.0","battery-v0.2","","""event"",""trial"",""time""
""fullscreenenter"",""1"",""3223""
","
","
","""event"",""trial"",""time""
""fullscreenenter"",""1"",""3223""
","
","","","-1","","","21","14970","6161","&#9728;","elianto","#f73b6a7A","-1","-1","1","0","[]","0","1","","","14970","9","0","4","lose","no-go","0"
"pit-trial","127","922081","0.0-13.0","battery-v0.2","","""event"",""trial"",""time""
""fullscreenenter"",""1"",""3223""
","
","
","""event"",""trial"",""time""
""fullscreenenter"",""1"",""3223""
","
","","","1186.7999999523163","","","21","14970","6161","&#9752;","elianto","#f73b6a7A"," "," ","1","0","[2039.8999999761581]","1","1","","","14970","10","3","3","lose","go","0"
"pit-trial","128","926155","0.0-14.0","battery-v0.2","","""event"",""trial"",""time""
""fullscreenenter"",""1"",""3223""
","
","
","""event"",""trial"",""time""
""fullscreenenter"",""1"",""3223""
","
","","","1210.3000000715256","","","21","14970","6161","&#9730;","elianto","#3366ff99"," "," ","1","+10","[2063.600000023842]","1","1","","","14970","11","1","1","win","go","0"
"pit-trial","129","931034","0.0-15.0","battery-v0.2","","""event"",""trial"",""time""
""fullscreenenter"",""1"",""3223""
","
","
","""event"",""trial"",""time""
""fullscreenenter"",""1"",""3223""
","
","","","-1","","","21","14970","6161","&#9733;","elianto","#3366ff99","-1","-1","1","+10","[]","0","1","","","14970","12","2","2","win","no-go","0"
"pit-trial","130","935918","0.0-16.0","battery-v0.2","","""event"",""trial"",""time""
""fullscreenenter"",""1"",""3223""
","
","
","""event"",""trial"",""time""
""fullscreenenter"",""1"",""3223""
","
","","","-1","","","21","14970","6161","&#9728;","elianto","#f73b6a7A","-1","-1","1","0","[]","0","1","","","14970","13","0","4","lose","no-go","0"
"pit-trial","131","940063","0.0-17.0","battery-v0.2","","""event"",""trial"",""time""
""fullscreenenter"",""1"",""3223""
","
","
","""event"",""trial"",""time""
""fullscreenenter"",""1"",""3223""
","
","","","1274.3000000715256","","","21","14970","6161","&#9730;","elianto","#3366ff99"," "," ","1","+10","[2128.2000000476837]","1","1","","","14970","14","1","1","win","go","0"
"pit-trial","132","944939","0.0-18.0","battery-v0.2","","""event"",""trial"",""time""
""fullscreenenter"",""1"",""3223""
","
","
","""event"",""trial"",""time""
""fullscreenenter"",""1"",""3223""
","
","","","-1","","","21","14970","6161","&#9733;","elianto","#3366ff99","-1","-1","1","0","[]","0","1","","","14970","15","2","2","win","no-go","1"
"pit-trial","133","948988","0.0-19.0","battery-v0.2","","""event"",""trial"",""time""
""fullscreenenter"",""1"",""3223""
","
","
","""event"",""trial"",""time""
""fullscreenenter"",""1"",""3223""
","
","","","1184.5","","","21","14970","6161","&#9752;","elianto","#f73b6a7A"," "," ","1","0","[2038.9000000953674]","1","1","","","14970","16","3","3","lose","go","0"
"pit-trial","134","953163","0.0-20.0","battery-v0.2","","""event"",""trial"",""time""
""fullscreenenter"",""1"",""3223""
","
","
","""event"",""trial"",""time""
""fullscreenenter"",""1"",""3223""
","
","","","1312.1999999284744","","","21","14970","6161","&#9730;","elianto","#3366ff99"," "," ","1","0","[2168]","1","1","","","14970","17","1","1","win","go","1"
"pit-trial","135","958024","0.0-21.0","battery-v0.2","","""event"",""trial"",""time""
""fullscreenenter"",""1"",""3223""
","
","
","""event"",""trial"",""time""
""fullscreenenter"",""1"",""3223""
","
","","","-1","","","21","14970","6161","&#9733;","elianto","#3366ff99","-1","-1","1","+10","[]","0","1","","","14970","18","2","2","win","no-go","0"
"pit-trial","136","961763","0.0-22.0","battery-v0.2","","""event"",""trial"",""time""
""fullscreenenter"",""1"",""3223""
","
","
","""event"",""trial"",""time""
""fullscreenenter"",""1"",""3223""
","
","","","868.2999999523163","","","21","14970","6161","&#9752;","elianto","#f73b6a7A"," "," ","1","-10","[1721.7999999523163]","1","1","","","14970","19","3","3","lose","go","1"
"pit-trial","137","966633","0.0-23.0","battery-v0.2","","""event"",""trial"",""time""
""fullscreenenter"",""1"",""3223""
","
","
","""event"",""trial"",""time""
""fullscreenenter"",""1"",""3223""
","
","","","-1","","","21","14970","6161","&#9728;","elianto","#f73b6a7A","-1","-1","1","-10","[]","0","1","","","14970","20","0","4","lose","no-go","1"
"pit-instructions","138","980036","0.0-24.0","battery-v0.2","","""event"",""trial"",""time""
""fullscreenenter"",""1"",""3223""
","
","
","""event"",""trial"",""time""
""fullscreenenter"",""1"",""3223""
","
","","[{""page_index"":0,""viewing_time"":6117.100000023842},{""page_index"":1,""viewing_time"":7278.899999976158}]","13396.600000023842","","","","","","","","","","","","","","","","","","","","","","","",""
"pit-trial","139","984106","0.0-25.0","battery-v0.2","","""event"",""trial"",""time""
""fullscreenenter"",""1"",""3223""
","
","
","""event"",""trial"",""time""
""fullscreenenter"",""1"",""3223""
","
","","","1199.7000000476837","","","21","14970","6161","t","elianto","#f73b6a7A"," "," ","1","-10","[2050.3000000715256]","1","2","","","14970","21","2","3","lose","go","1"
"pit-trial","140","988322","0.0-26.0","battery-v0.2","","""event"",""trial"",""time""
""fullscreenenter"",""1"",""3223""
","
","
","""event"",""trial"",""time""
""fullscreenenter"",""1"",""3223""
","
","","","1352.8999999761581","","","21","14970","6161","f","elianto","#3366ff99","-1"," ","0","0","[2203.2999999523163]","1","2","","","14970","22","1","2","win","no-go","0"
"pit-trial","141","992620","0.0-27.0","battery-v0.2","","""event"",""trial"",""time""
""fullscreenenter"",""1"",""3223""
","
","
","""event"",""trial"",""time""
""fullscreenenter"",""1"",""3223""
","
","","","1437.5","","","21","14970","6161","n","elianto","#f73b6a7A"," "," ","1","0","[2288]","1","2","","","14970","23","0","3","lose","go","0"
"pit-trial","142","996778","0.0-28.0","battery-v0.2","","""event"",""trial"",""time""
""fullscreenenter"",""1"",""3223""
","
","
","""event"",""trial"",""time""
""fullscreenenter"",""1"",""3223""
","
","","","1294.1000000238419","","","21","14970","6161","b","elianto","#f73b6a7A","-1"," ","0","0","[2147.399999976158]","1","2","","","14970","24","3","4","lose","no-go","1"
"pit-trial","143","1001654","0.0-29.0","battery-v0.2","","""event"",""trial"",""time""
""fullscreenenter"",""1"",""3223""
","
","
","""event"",""trial"",""time""
""fullscreenenter"",""1"",""3223""
","
","","","-1","","","21","14970","6161","f","elianto","#3366ff99","-1","-1","1","0","[]","0","2","","","14970","25","1","2","win","no-go","1"
"pit-trial","144","1006527","0.0-30.0","battery-v0.2","","""event"",""trial"",""time""
""fullscreenenter"",""1"",""3223""
","
","
","""event"",""trial"",""time""
""fullscreenenter"",""1"",""3223""
","
","","","-1","","","21","14970","6161","b","elianto","#f73b6a7A","-1","-1","1","0","[]","0","2","","","14970","26","3","4","lose","no-go","0"
"pit-trial","145","1011153","0.0-31.0","battery-v0.2","","""event"",""trial"",""time""
""fullscreenenter"",""1"",""3223""
","
","
","""event"",""trial"",""time""
""fullscreenenter"",""1"",""3223""
","
","","","1763.7000000476837","","","21","14970","6161","t","elianto","#f73b6a7A"," "," ","1","0","[2614.5]","1","2","","","14970","27","2","3","lose","go","0"
"pit-trial","146","1016019","0.0-32.0","battery-v0.2","","""event"",""trial"",""time""
""fullscreenenter"",""1"",""3223""
","
","
","""event"",""trial"",""time""
""fullscreenenter"",""1"",""3223""
","
","","","-1","","","21","14970","6161","n","elianto","#f73b6a7A"," ","-1","0","-10","[]","0","2","","","14970","28","0","3","lose","go","0"
"pit-trial","147","1020882","0.0-33.0","battery-v0.2","","""event"",""trial"",""time""
""fullscreenenter"",""1"",""3223""
","
","
","""event"",""trial"",""time""
""fullscreenenter"",""1"",""3223""
","
","","","-1","","","21","14970","6161","t","elianto","#f73b6a7A"," ","-1","0","-10","[]","0","2","","","14970","29","2","3","lose","go","0"
"pit-trial","148","1025138","0.0-34.0","battery-v0.2","","""event"",""trial"",""time""
""fullscreenenter"",""1"",""3223""
","
","
","""event"",""trial"",""time""
""fullscreenenter"",""1"",""3223""
","
","","","1392.1999999284744","","","21","14970","6161","b","elianto","#f73b6a7A","-1"," ","0","0","[2247.5]","1","2","","","14970","30","3","4","lose","no-go","1"
"pit-trial","149","1029049","0.0-35.0","battery-v0.2","","""event"",""trial"",""time""
""fullscreenenter"",""1"",""3223""
","
","
","""event"",""trial"",""time""
""fullscreenenter"",""1"",""3223""
","
","","","1045.1000000238419","","","21","14970","6161","n","elianto","#f73b6a7A"," "," ","1","-10","[1900.1000000238419]","1","2","","","14970","31","0","3","lose","go","1"
"pit-trial","150","1033088","0.0-36.0","battery-v0.2","","""event"",""trial"",""time""
""fullscreenenter"",""1"",""3223""
","
","
","""event"",""trial"",""time""
""fullscreenenter"",""1"",""3223""
","
","","","1177.8999999761581","","","21","14970","6161","f","elianto","#3366ff99","-1"," ","0","0","[2028.2999999523163]","1","2","","","14970","32","1","2","win","no-go","0"
"pit-trial","151","1037951","0.0-37.0","battery-v0.2","","""event"",""trial"",""time""
""fullscreenenter"",""1"",""3223""
","
","
","""event"",""trial"",""time""
""fullscreenenter"",""1"",""3223""
","
","","","-1","","","21","14970","6161","t","elianto","#f73b6a7A"," ","-1","0","0","[]","0","2","","","14970","33","2","3","lose","go","1"
"pit-trial","152","1042293","0.0-38.0","battery-v0.2","","""event"",""trial"",""time""
""fullscreenenter"",""1"",""3223""
","
","
","""event"",""trial"",""time""
""fullscreenenter"",""1"",""3223""
","
","","","1489","","","21","14970","6161","f","elianto","#3366ff99","-1"," ","0","0","[2339.2999999523163]","1","2","","","14970","34","1","2","win","no-go","0"
"pit-trial","153","1046664","0.0-39.0","battery-v0.2","","""event"",""trial"",""time""
""fullscreenenter"",""1"",""3223""
","
","
","""event"",""trial"",""time""
""fullscreenenter"",""1"",""3223""
","
","","","1512.7000000476837","","","21","14970","6161","b","elianto","#f73b6a7A","-1"," ","0","-10","[2362.7000000476837]","1","2","","","14970","35","3","4","lose","no-go","0"
"pit-trial","154","1050973","0.0-40.0","battery-v0.2","","""event"",""trial"",""time""
""fullscreenenter"",""1"",""3223""
","
","
","""event"",""trial"",""time""
""fullscreenenter"",""1"",""3223""
","
","","","1439.5","","","21","14970","6161","n","elianto","#f73b6a7A"," "," ","1","0","[2292.100000023842]","1","2","","","14970","36","0","3","lose","go","0"
"pit-trial","155","1055837","0.0-41.0","battery-v0.2","","""event"",""trial"",""time""
""fullscreenenter"",""1"",""3223""
","
","
","""event"",""trial"",""time""
""fullscreenenter"",""1"",""3223""
","
","","","-1","","","21","14970","6161","t","elianto","#f73b6a7A"," ","-1","0","-10","[]","0","2","","","14970","37","2","3","lose","go","0"
"pit-trial","156","1060142","0.0-42.0","battery-v0.2","","""event"",""trial"",""time""
""fullscreenenter"",""1"",""3223""
","
","
","""event"",""trial"",""time""
""fullscreenenter"",""1"",""3223""
","
","","","1441.0999999046326","","","21","14970","6161","b","elianto","#f73b6a7A","-1"," ","0","-10","[2291.5]","1","2","","","14970","38","3","4","lose","no-go","0"
"pit-trial","157","1063879","0.0-43.0","battery-v0.2","","""event"",""trial"",""time""
""fullscreenenter"",""1"",""3223""
","
","
","""event"",""trial"",""time""
""fullscreenenter"",""1"",""3223""
","
","","","873.7000000476837","","","21","14970","6161","n","elianto","#f73b6a7A"," "," ","1","0","[1724.6000000238419]","1","2","","","14970","39","0","3","lose","go","0"
"pit-trial","158","1068746","0.0-44.0","battery-v0.2","","""event"",""trial"",""time""
""fullscreenenter"",""1"",""3223""
","
","
","""event"",""trial"",""time""
""fullscreenenter"",""1"",""3223""
","
","","","-1","","","21","14970","6161","f","elianto","#3366ff99","-1","-1","1","+10","[]","0","2","","","14970","40","1","2","win","no-go","0"
"pit-trial","159","1073609","0.0-45.0","battery-v0.2","","""event"",""trial"",""time""
""fullscreenenter"",""1"",""3223""
","
","
","""event"",""trial"",""time""
""fullscreenenter"",""1"",""3223""
","
","","","-1","","","21","14970","6161","f","elianto","#3366ff99","-1","-1","1","+10","[]","0","2","","","14970","41","1","2","win","no-go","0"
"pit-trial","160","1077772","0.0-46.0","battery-v0.2","","""event"",""trial"",""time""
""fullscreenenter"",""1"",""3223""
","
","
","""event"",""trial"",""time""
""fullscreenenter"",""1"",""3223""
","
","","","1303.2000000476837","","","21","14970","6161","n","elianto","#f73b6a7A"," "," ","1","-10","[2154.7000000476837]","1","2","","","14970","42","0","3","lose","go","1"
"pit-trial","161","1082635","0.0-47.0","battery-v0.2","","""event"",""trial"",""time""
""fullscreenenter"",""1"",""3223""
","
","
","""event"",""trial"",""time""
""fullscreenenter"",""1"",""3223""
","
","","","-1","","","21","14970","6161","t","elianto","#f73b6a7A"," ","-1","0","0","[]","0","2","","","14970","43","2","3","lose","go","1"
"pit-trial","162","1086622","0.0-48.0","battery-v0.2","","""event"",""trial"",""time""
""fullscreenenter"",""1"",""3223""
","
","
","""event"",""trial"",""time""
""fullscreenenter"",""1"",""3223""
","
","","","1116.8000000715256","","","21","14970","6161","b","elianto","#f73b6a7A","-1"," ","0","-10","[1970.7000000476837]","1","2","","","14970","44","3","4","lose","no-go","0"
"pit-trial","163","1091488","0.0-49.0","battery-v0.2","","""event"",""trial"",""time""
""fullscreenenter"",""1"",""3223""
","
","
","""event"",""trial"",""time""
""fullscreenenter"",""1"",""3223""
","
","","","-1","","","21","14970","6161","t","elianto","#f73b6a7A"," ","-1","0","0","[]","0","2","","","14970","45","2","3","lose","go","1"
"pit-trial","164","1095342","0.0-50.0","battery-v0.2","","""event"",""trial"",""time""
""fullscreenenter"",""1"",""3223""
","
","
","""event"",""trial"",""time""
""fullscreenenter"",""1"",""3223""
","
","","","994.1000000238419","","","21","14970","6161","b","elianto","#f73b6a7A","-1"," ","0","-10","[1847.3999999761581]","1","2","","","14970","46","3","4","lose","no-go","0"
"pit-trial","165","1100199","0.0-51.0","battery-v0.2","","""event"",""trial"",""time""
""fullscreenenter"",""1"",""3223""
","
","
","""event"",""trial"",""time""
""fullscreenenter"",""1"",""3223""
","
","","","-1","","","21","14970","6161","f","elianto","#3366ff99","-1","-1","1","+10","[]","0","2","","","14970","47","1","2","win","no-go","0"
"pit-trial","166","1104246","0.0-52.0","battery-v0.2","","""event"",""trial"",""time""
""fullscreenenter"",""1"",""3223""
","
","
","""event"",""trial"",""time""
""fullscreenenter"",""1"",""3223""
","
","","","1183.2999999523163","","","21","14970","6161","n","elianto","#f73b6a7A"," "," ","1","0","[2036.2999999523163]","1","2","","","14970","48","0","3","lose","go","0"
"pit-trial","167","1107994","0.0-53.0","battery-v0.2","","""event"",""trial"",""time""
""fullscreenenter"",""1"",""3223""
","
","
","""event"",""trial"",""time""
""fullscreenenter"",""1"",""3223""
","
","","","887.7000000476837","","","21","14970","6161","n","elianto","#f73b6a7A"," "," ","1","-10","[1739.7999999523163]","1","2","","","14970","49","0","3","lose","go","1"
"pit-trial","168","1112863","0.0-54.0","battery-v0.2","","""event"",""trial"",""time""
""fullscreenenter"",""1"",""3223""
","
","
","""event"",""trial"",""time""
""fullscreenenter"",""1"",""3223""
","
","","","-1","","","21","14970","6161","t","elianto","#f73b6a7A"," ","-1","0","-10","[]","0","2","","","14970","50","2","3","lose","go","0"
"pit-trial","169","1117738","0.0-55.0","battery-v0.2","","""event"",""trial"",""time""
""fullscreenenter"",""1"",""3223""
","
","
","""event"",""trial"",""time""
""fullscreenenter"",""1"",""3223""
","
","","","-1","","","21","14970","6161","f","elianto","#3366ff99","-1","-1","1","+10","[]","0","2","","","14970","51","1","2","win","no-go","0"
"pit-trial","170","1121754","0.0-56.0","battery-v0.2","","""event"",""trial"",""time""
""fullscreenenter"",""1"",""3223""
","
","
","""event"",""trial"",""time""
""fullscreenenter"",""1"",""3223""
","
","","","1156.3000000715256","","","21","14970","6161","b","elianto","#f73b6a7A","-1"," ","0","0","[2011.1000000238419]","1","2","","","14970","52","3","4","lose","no-go","1"
"pit-trial","171","1125430","0.0-57.0","battery-v0.2","","""event"",""trial"",""time""
""fullscreenenter"",""1"",""3223""
","
","
","""event"",""trial"",""time""
""fullscreenenter"",""1"",""3223""
","
","","","809.7000000476837","","","21","14970","6161","n","elianto","#f73b6a7A"," "," ","1","0","[1661.3999999761581]","1","2","","","14970","53","0","3","lose","go","0"
"pit-trial","172","1130300","0.0-58.0","battery-v0.2","","""event"",""trial"",""time""
""fullscreenenter"",""1"",""3223""
","
","
","""event"",""trial"",""time""
""fullscreenenter"",""1"",""3223""
","
","","","-1","","","21","14970","6161","t","elianto","#f73b6a7A"," ","-1","0","-10","[]","0","2","","","14970","54","2","3","lose","go","0"
"pit-trial","173","1134034","0.0-59.0","battery-v0.2","","""event"",""trial"",""time""
""fullscreenenter"",""1"",""3223""
","
","
","""event"",""trial"",""time""
""fullscreenenter"",""1"",""3223""
","
","","","876.2999999523163","","","21","14970","6161","b","elianto","#f73b6a7A","-1"," ","0","-10","[1726.5999999046326]","1","2","","","14970","55","3","4","lose","no-go","0"
"pit-trial","174","1138907","0.0-60.0","battery-v0.2","","""event"",""trial"",""time""
""fullscreenenter"",""1"",""3223""
","
","
","""event"",""trial"",""time""
""fullscreenenter"",""1"",""3223""
","
","","","-1","","","21","14970","6161","f","elianto","#3366ff99","-1","-1","1","+10","[]","0","2","","","14970","56","1","2","win","no-go","0"
"pit-trial","175","1143768","0.0-61.0","battery-v0.2","","""event"",""trial"",""time""
""fullscreenenter"",""1"",""3223""
","
","
","""event"",""trial"",""time""
""fullscreenenter"",""1"",""3223""
","
","","","-1","","","21","14970","6161","t","elianto","#f73b6a7A"," ","-1","0","-10","[]","0","2","","","14970","57","2","3","lose","go","0"
"pit-trial","176","1147472","0.0-62.0","battery-v0.2","","""event"",""trial"",""time""
""fullscreenenter"",""1"",""3223""
","
","
","""event"",""trial"",""time""
""fullscreenenter"",""1"",""3223""
","
","","","834.7999999523163","","","21","14970","6161","n","elianto","#f73b6a7A"," "," ","1","0","[1689.8000000715256]","1","2","","","14970","58","0","3","lose","go","0"
"pit-trial","177","1151089","0.0-63.0","battery-v0.2","","""event"",""trial"",""time""
""fullscreenenter"",""1"",""3223""
","
","
","""event"",""trial"",""time""
""fullscreenenter"",""1"",""3223""
","
","","","751.7999999523163","","","21","14970","6161","b","elianto","#f73b6a7A","-1"," ","0","-10","[1605.9000000953674]","1","2","","","14970","59","3","4","lose","no-go","0"
"pit-trial","178","1155464","0.0-64.0","battery-v0.2","","""event"",""trial"",""time""
""fullscreenenter"",""1"",""3223""
","
","
","""event"",""trial"",""time""
""fullscreenenter"",""1"",""3223""
","
","","","1513.7000000476837","","","21","14970","6161","c","elianto","#3366ff99"," "," ","1","+10","[2368.3000000715256]","1","2","","","14970","60","4","1","win","go","0"
"pit-trial","179","1159724","0.0-65.0","battery-v0.2","","""event"",""trial"",""time""
""fullscreenenter"",""1"",""3223""
","
","
","""event"",""trial"",""time""
""fullscreenenter"",""1"",""3223""
","
","","","1400.6000000238419","","","21","14970","6161","b","elianto","#f73b6a7A","-1"," ","0","-10","[2254.100000023842,2391.899999976158]","2","2","","","14970","61","3","4","lose","no-go","0"
"pit-trial","180","1163754","0.0-66.0","battery-v0.2","","""event"",""trial"",""time""
""fullscreenenter"",""1"",""3223""
","
","
","""event"",""trial"",""time""
""fullscreenenter"",""1"",""3223""
","
","","","1172.1000000238419","","","21","14970","6161","c","elianto","#3366ff99"," "," ","1","0","[2023]","1","2","","","14970","62","4","1","win","go","1"
"pit-trial","181","1168631","0.0-67.0","battery-v0.2","","""event"",""trial"",""time""
""fullscreenenter"",""1"",""3223""
","
","
","""event"",""trial"",""time""
""fullscreenenter"",""1"",""3223""
","
","","","-1","","","21","14970","6161","t","elianto","#f73b6a7A"," ","-1","0","0","[]","0","2","","","14970","63","2","3","lose","go","1"
"pit-trial","182","1173508","0.0-68.0","battery-v0.2","","""event"",""trial"",""time""
""fullscreenenter"",""1"",""3223""
","
","
","""event"",""trial"",""time""
""fullscreenenter"",""1"",""3223""
","
","","","-1","","","21","14970","6161","f","elianto","#3366ff99","-1","-1","1","0","[]","0","2","","","14970","64","1","2","win","no-go","1"
"pit-trial","183","1177701","0.0-69.0","battery-v0.2","","""event"",""trial"",""time""
""fullscreenenter"",""1"",""3223""
","
","
","""event"",""trial"",""time""
""fullscreenenter"",""1"",""3223""
","
","","","1334.6999999284744","","","21","14970","6161","z","elianto","#3366ff99","-1"," ","0","0","[2188.6999999284744]","1","2","","","14970","65","5","2","win","no-go","0"
"pit-trial","184","1182577","0.0-70.0","battery-v0.2","","""event"",""trial"",""time""
""fullscreenenter"",""1"",""3223""
","
","
","""event"",""trial"",""time""
""fullscreenenter"",""1"",""3223""
","
","","","-1","","","21","14970","6161","f","elianto","#3366ff99","-1","-1","1","+10","[]","0","2","","","14970","66","1","2","win","no-go","0"
"pit-trial","185","1186446","0.0-71.0","battery-v0.2","","""event"",""trial"",""time""
""fullscreenenter"",""1"",""3223""
","
","
","""event"",""trial"",""time""
""fullscreenenter"",""1"",""3223""
","
","","","998.1999999284744","","","21","14970","6161","b","elianto","#f73b6a7A","-1"," ","0","-10","[1848.7999999523163]","1","2","","","14970","67","3","4","lose","no-go","0"
"pit-trial","186","1190128","0.0-72.0","battery-v0.2","","""event"",""trial"",""time""
""fullscreenenter"",""1"",""3223""
","
","
","""event"",""trial"",""time""
""fullscreenenter"",""1"",""3223""
","
","","","820.6999999284744","","","21","14970","6161","c","elianto","#3366ff99"," "," ","1","+10","[1671]","1","2","","","14970","68","4","1","win","go","0"
"pit-trial","187","1194997","0.0-73.0","battery-v0.2","","""event"",""trial"",""time""
""fullscreenenter"",""1"",""3223""
","
","
","""event"",""trial"",""time""
""fullscreenenter"",""1"",""3223""
","
","","","-1","","","21","14970","6161","f","elianto","#3366ff99","-1","-1","1","+10","[]","0","2","","","14970","69","1","2","win","no-go","0"
"pit-trial","188","1198736","0.0-74.0","battery-v0.2","","""event"",""trial"",""time""
""fullscreenenter"",""1"",""3223""
","
","
","""event"",""trial"",""time""
""fullscreenenter"",""1"",""3223""
","
","","","875.1000000238419","","","21","14970","6161","c","elianto","#3366ff99"," "," ","1","+10","[1731.8000000715256]","1","2","","","14970","70","4","1","win","go","0"
"pit-trial","189","1203605","0.0-75.0","battery-v0.2","","""event"",""trial"",""time""
""fullscreenenter"",""1"",""3223""
","
","
","""event"",""trial"",""time""
""fullscreenenter"",""1"",""3223""
","
","","","-1","","","21","14970","6161","t","elianto","#f73b6a7A"," ","-1","0","-10","[]","0","2","","","14970","71","2","3","lose","go","0"
"pit-trial","190","1208471","0.0-76.0","battery-v0.2","","""event"",""trial"",""time""
""fullscreenenter"",""1"",""3223""
","
","
","""event"",""trial"",""time""
""fullscreenenter"",""1"",""3223""
","
","","","-1","","","21","14970","6161","z","elianto","#3366ff99","-1","-1","1","0","[]","0","2","","","14970","72","5","2","win","no-go","1"
"pit-trial","191","1212456","0.0-77.0","battery-v0.2","","""event"",""trial"",""time""
""fullscreenenter"",""1"",""3223""
","
","
","""event"",""trial"",""time""
""fullscreenenter"",""1"",""3223""
","
","","","1113.8999999761581","","","21","14970","6161","z","elianto","#3366ff99","-1"," ","0","0","[1967.8999999761581]","1","2","","","14970","73","5","2","win","no-go","0"
"pit-trial","192","1216152","0.0-78.0","battery-v0.2","","""event"",""trial"",""time""
""fullscreenenter"",""1"",""3223""
","
","
","""event"",""trial"",""time""
""fullscreenenter"",""1"",""3223""
","
","","","828.8000000715256","","","21","14970","6161","f","elianto","#3366ff99","-1"," ","0","0","[1681.3999999761581]","1","2","","","14970","74","1","2","win","no-go","0"
"pit-trial","193","1220035","0.0-79.0","battery-v0.2","","""event"",""trial"",""time""
""fullscreenenter"",""1"",""3223""
","
","
","""event"",""trial"",""time""
""fullscreenenter"",""1"",""3223""
","
","","","1022.2999999523163","","","21","14970","6161","b","elianto","#f73b6a7A","-1"," ","0","-10","[1876.1999999284744]","1","2","","","14970","75","3","4","lose","no-go","0"
"pit-trial","194","1224041","0.0-80.0","battery-v0.2","","""event"",""trial"",""time""
""fullscreenenter"",""1"",""3223""
","
","
","""event"",""trial"",""time""
""fullscreenenter"",""1"",""3223""
","
","","","1134.3999999761581","","","21","14970","6161","c","elianto","#3366ff99"," "," ","1","+10","[1984.6999999284744]","1","2","","","14970","76","4","1","win","go","0"
"pit-trial","195","1228910","0.0-81.0","battery-v0.2","","""event"",""trial"",""time""
""fullscreenenter"",""1"",""3223""
","
","
","""event"",""trial"",""time""
""fullscreenenter"",""1"",""3223""
","
","","","-1","","","21","14970","6161","z","elianto","#3366ff99","-1","-1","1","+10","[]","0","2","","","14970","77","5","2","win","no-go","0"
"pit-trial","196","1232656","0.0-82.0","battery-v0.2","","""event"",""trial"",""time""
""fullscreenenter"",""1"",""3223""
","
","
","""event"",""trial"",""time""
""fullscreenenter"",""1"",""3223""
","
","","","873.3999999761581","","","21","14970","6161","c","elianto","#3366ff99"," "," ","1","+10","[1728.3000000715256]","1","2","","","14970","78","4","1","win","go","0"
"pit-trial","197","1237523","0.0-83.0","battery-v0.2","","""event"",""trial"",""time""
""fullscreenenter"",""1"",""3223""
","
","
","""event"",""trial"",""time""
""fullscreenenter"",""1"",""3223""
","
","","","-1","","","21","14970","6161","b","elianto","#f73b6a7A","-1","-1","1","-10","[]","0","2","","","14970","79","3","4","lose","no-go","1"
"pit-trial","198","1241241","0.0-84.0","battery-v0.2","","""event"",""trial"",""time""
""fullscreenenter"",""1"",""3223""
","
","
","""event"",""trial"",""time""
""fullscreenenter"",""1"",""3223""
","
","","","843.2999999523163","","","21","14970","6161","c","elianto","#3366ff99"," "," ","1","+10","[1696.5999999046326]","1","2","","","14970","80","4","1","win","go","0"
"pit-trial","199","1245290","0.0-85.0","battery-v0.2","","""event"",""trial"",""time""
""fullscreenenter"",""1"",""3223""
","
","
","""event"",""trial"",""time""
""fullscreenenter"",""1"",""3223""
","
","","","1183.5","","","21","14970","6161","y","elianto","#f73b6a7A","-1"," ","0","0","[2037.3999999761581]","1","2","","","14970","81","7","4","lose","no-go","1"
"pit-trial","200","1248960","0.0-86.0","battery-v0.2","","""event"",""trial"",""time""
""fullscreenenter"",""1"",""3223""
","
","
","""event"",""trial"",""time""
""fullscreenenter"",""1"",""3223""
","
","","","805.3000000715256","","","21","14970","6161","c","elianto","#3366ff99"," "," ","1","+10","[1657.8999999761581]","1","2","","","14970","82","4","1","win","go","0"
"pit-trial","201","1253833","0.0-87.0","battery-v0.2","","""event"",""trial"",""time""
""fullscreenenter"",""1"",""3223""
","
","
","""event"",""trial"",""time""
""fullscreenenter"",""1"",""3223""
","
","","","-1","","","21","14970","6161","z","elianto","#3366ff99","-1","-1","1","+10","[]","0","2","","","14970","83","5","2","win","no-go","0"
"pit-trial","202","1258701","0.0-88.0","battery-v0.2","","""event"",""trial"",""time""
""fullscreenenter"",""1"",""3223""
","
","
","""event"",""trial"",""time""
""fullscreenenter"",""1"",""3223""
","
","","","-1","","","21","14970","6161","b","elianto","#f73b6a7A","-1","-1","1","0","[]","0","2","","","14970","84","3","4","lose","no-go","0"
"pit-trial","203","1263579","0.0-89.0","battery-v0.2","","""event"",""trial"",""time""
""fullscreenenter"",""1"",""3223""
","
","
","""event"",""trial"",""time""
""fullscreenenter"",""1"",""3223""
","
","","","-1","","","21","14970","6161","z","elianto","#3366ff99","-1","-1","1","+10","[]","0","2","","","14970","85","5","2","win","no-go","0"
"pit-trial","204","1267454","0.0-90.0","battery-v0.2","","""event"",""trial"",""time""
""fullscreenenter"",""1"",""3223""
","
","
","""event"",""trial"",""time""
""fullscreenenter"",""1"",""3223""
","
","","","1015.7000000476837","","","21","14970","6161","c","elianto","#3366ff99"," "," ","1","+10","[1869.4000000953674]","1","2","","","14970","86","4","1","win","go","0"
"pit-trial","205","1271422","0.0-91.0","battery-v0.2","","""event"",""trial"",""time""
""fullscreenenter"",""1"",""3223""
","
","
","""event"",""trial"",""time""
""fullscreenenter"",""1"",""3223""
","
","","","1103.2999999523163","","","21","14970","6161","y","elianto","#f73b6a7A","-1"," ","0","0","[1953.5]","1","2","","","14970","87","7","4","lose","no-go","1"
"pit-trial","206","1275535","0.0-92.0","battery-v0.2","","""event"",""trial"",""time""
""fullscreenenter"",""1"",""3223""
","
","
","""event"",""trial"",""time""
""fullscreenenter"",""1"",""3223""
","
","","","1253.1999999284744","","","21","14970","6161","h","elianto","#f73b6a7A"," "," ","1","-10","[2107.2000000476837]","1","2","","","14970","88","6","3","lose","go","1"
"pit-trial","207","1279401","0.0-93.0","battery-v0.2","","""event"",""trial"",""time""
""fullscreenenter"",""1"",""3223""
","
","
","""event"",""trial"",""time""
""fullscreenenter"",""1"",""3223""
","
","","","999.2999999523163","","","21","14970","6161","c","elianto","#3366ff99"," "," ","1","+10","[1852.7999999523163]","1","2","","","14970","89","4","1","win","go","0"
"pit-trial","208","1284282","0.0-94.0","battery-v0.2","","""event"",""trial"",""time""
""fullscreenenter"",""1"",""3223""
","
","
","""event"",""trial"",""time""
""fullscreenenter"",""1"",""3223""
","
","","","-1","","","21","14970","6161","h","elianto","#f73b6a7A"," ","-1","0","-10","[]","0","2","","","14970","90","6","3","lose","go","0"
"pit-trial","209","1289147","0.0-95.0","battery-v0.2","","""event"",""trial"",""time""
""fullscreenenter"",""1"",""3223""
","
","
","""event"",""trial"",""time""
""fullscreenenter"",""1"",""3223""
","
","","","-1","","","21","14970","6161","z","elianto","#3366ff99","-1","-1","1","+10","[]","0","2","","","14970","91","5","2","win","no-go","0"
"pit-trial","210","1293415","0.0-96.0","battery-v0.2","","""event"",""trial"",""time""
""fullscreenenter"",""1"",""3223""
","
","
","""event"",""trial"",""time""
""fullscreenenter"",""1"",""3223""
","
","","","1407.7000000476837","","","21","14970","6161","y","elianto","#f73b6a7A","-1"," ","0","0","[2258.100000023842]","1","2","","","14970","92","7","4","lose","no-go","1"
"pit-trial","211","1298280","0.0-97.0","battery-v0.2","","""event"",""trial"",""time""
""fullscreenenter"",""1"",""3223""
","
","
","""event"",""trial"",""time""
""fullscreenenter"",""1"",""3223""
","
","","","-1","","","21","14970","6161","h","elianto","#f73b6a7A"," ","-1","0","-10","[]","0","2","","","14970","93","6","3","lose","go","0"
"pit-trial","212","1302606","0.0-98.0","battery-v0.2","","""event"",""trial"",""time""
""fullscreenenter"",""1"",""3223""
","
","
","""event"",""trial"",""time""
""fullscreenenter"",""1"",""3223""
","
","","","1460.3999999761581","","","21","14970","6161","y","elianto","#f73b6a7A","-1"," ","0","-10","[2315]","1","2","","","14970","94","7","4","lose","no-go","0"
"pit-trial","213","1307477","0.0-99.0","battery-v0.2","","""event"",""trial"",""time""
""fullscreenenter"",""1"",""3223""
","
","
","""event"",""trial"",""time""
""fullscreenenter"",""1"",""3223""
","
","","","-1","","","21","14970","6161","z","elianto","#3366ff99","-1","-1","1","+10","[]","0","2","","","14970","95","5","2","win","no-go","0"
"pit-trial","214","1311615","0.0-100.0","battery-v0.2","","""event"",""trial"",""time""
""fullscreenenter"",""1"",""3223""
","
","
","""event"",""trial"",""time""
""fullscreenenter"",""1"",""3223""
","
","","","1277.1000000238419","","","21","14970","6161","r","elianto","#3366ff99"," "," ","1","+10","[2128.5]","1","2","","","14970","96","8","1","win","go","0"
"pit-trial","215","1315762","0.0-101.0","battery-v0.2","","""event"",""trial"",""time""
""fullscreenenter"",""1"",""3223""
","
","
","""event"",""trial"",""time""
""fullscreenenter"",""1"",""3223""
","
","","","1285.2000000476837","","","21","14970","6161","h","elianto","#f73b6a7A"," "," ","1","0","[2138.7000000476837]","1","2","","","14970","97","6","3","lose","go","0"
"pit-trial","216","1320647","0.0-102.0","battery-v0.2","","""event"",""trial"",""time""
""fullscreenenter"",""1"",""3223""
","
","
","""event"",""trial"",""time""
""fullscreenenter"",""1"",""3223""
","
","","","-1","","","21","14970","6161","z","elianto","#3366ff99","-1","-1","1","+10","[]","0","2","","","14970","98","5","2","win","no-go","0"
"pit-trial","217","1324726","0.0-103.0","battery-v0.2","","""event"",""trial"",""time""
""fullscreenenter"",""1"",""3223""
","
","
","""event"",""trial"",""time""
""fullscreenenter"",""1"",""3223""
","
","","","1214.6000000238419","","","21","14970","6161","y","elianto","#f73b6a7A","-1"," ","0","-10","[2067.5999999046326]","1","2","","","14970","99","7","4","lose","no-go","0"
"pit-trial","218","1328933","0.0-104.0","battery-v0.2","","""event"",""trial"",""time""
""fullscreenenter"",""1"",""3223""
","
","
","""event"",""trial"",""time""
""fullscreenenter"",""1"",""3223""
","
","","","1342.7000000476837","","","21","14970","6161","r","elianto","#3366ff99"," "," ","1","+10","[2197.5]","1","2","","","14970","100","8","1","win","go","0"
"pit-trial","219","1332869","0.0-105.0","battery-v0.2","","""event"",""trial"",""time""
""fullscreenenter"",""1"",""3223""
","
","
","""event"",""trial"",""time""
""fullscreenenter"",""1"",""3223""
","
","","","1075.8999999761581","","","21","14970","6161","r","elianto","#3366ff99"," "," ","1","0","[1931.2000000476837]","1","2","","","14970","101","8","1","win","go","1"
"pit-trial","220","1336781","0.0-106.0","battery-v0.2","","""event"",""trial"",""time""
""fullscreenenter"",""1"",""3223""
","
","
","""event"",""trial"",""time""
""fullscreenenter"",""1"",""3223""
","
","","","1042.8000000715256","","","21","14970","6161","m","elianto","#3366ff99"," "," ","1","0","[1896.2999999523163]","1","2","","","14970","102","9","1","win","go","1"
"pit-trial","221","1341653","0.0-107.0","battery-v0.2","","""event"",""trial"",""time""
""fullscreenenter"",""1"",""3223""
","
","
","""event"",""trial"",""time""
""fullscreenenter"",""1"",""3223""
","
","","","-1","","","21","14970","6161","z","elianto","#3366ff99","-1","-1","1","+10","[]","0","2","","","14970","103","5","2","win","no-go","0"
"pit-trial","222","1345700","0.0-108.0","battery-v0.2","","""event"",""trial"",""time""
""fullscreenenter"",""1"",""3223""
","
","
","""event"",""trial"",""time""
""fullscreenenter"",""1"",""3223""
","
","","","1181.0999999046326","","","21","14970","6161","y","elianto","#f73b6a7A","-1"," ","0","-10","[2035.4000000953674]","1","2","","","14970","104","7","4","lose","no-go","0"
"pit-trial","223","1349862","0.0-109.0","battery-v0.2","","""event"",""trial"",""time""
""fullscreenenter"",""1"",""3223""
","
","
","""event"",""trial"",""time""
""fullscreenenter"",""1"",""3223""
","
","","","1295.1999999284744","","","21","14970","6161","c","elianto","#3366ff99"," "," ","1","0","[2148.7999999523163]","1","2","","","14970","105","4","1","win","go","1"
"pit-trial","224","1354729","0.0-110.0","battery-v0.2","","""event"",""trial"",""time""
""fullscreenenter"",""1"",""3223""
","
","
","""event"",""trial"",""time""
""fullscreenenter"",""1"",""3223""
","
","","","-1","","","21","14970","6161","m","elianto","#3366ff99"," ","-1","0","0","[]","0","2","","","14970","106","9","1","win","go","0"
"pit-trial","225","1358887","0.0-111.0","battery-v0.2","","""event"",""trial"",""time""
""fullscreenenter"",""1"",""3223""
","
","
","""event"",""trial"",""time""
""fullscreenenter"",""1"",""3223""
","
","","","1292","","","21","14970","6161","h","elianto","#f73b6a7A"," "," ","1","0","[2146.9000000953674]","1","2","","","14970","107","6","3","lose","go","0"
"pit-trial","226","1362605","0.0-112.0","battery-v0.2","","""event"",""trial"",""time""
""fullscreenenter"",""1"",""3223""
","
","
","""event"",""trial"",""time""
""fullscreenenter"",""1"",""3223""
","
","","","856","","","21","14970","6161","r","elianto","#3366ff99"," "," ","1","0","[1710.1999999284744]","1","2","","","14970","108","8","1","win","go","1"
"pit-trial","227","1367483","0.0-113.0","battery-v0.2","","""event"",""trial"",""time""
""fullscreenenter"",""1"",""3223""
","
","
","""event"",""trial"",""time""
""fullscreenenter"",""1"",""3223""
","
","","","-1","","","21","14970","6161","r","elianto","#3366ff99"," ","-1","0","0","[3011.2000000476837]","1","2","","","14970","109","8","1","win","go","0"
"pit-trial","228","1372353","0.0-114.0","battery-v0.2","","""event"",""trial"",""time""
""fullscreenenter"",""1"",""3223""
","
","
","""event"",""trial"",""time""
""fullscreenenter"",""1"",""3223""
","
","","","-1","","","21","14970","6161","z","elianto","#3366ff99","-1","-1","1","+10","[]","0","2","","","14970","110","5","2","win","no-go","0"
"pit-trial","229","1376238","0.0-115.0","battery-v0.2","","""event"",""trial"",""time""
""fullscreenenter"",""1"",""3223""
","
","
","""event"",""trial"",""time""
""fullscreenenter"",""1"",""3223""
","
","","","1012.2000000476837","","","21","14970","6161","h","elianto","#f73b6a7A"," "," ","1","0","[1865.6000000238419]","1","2","","","14970","111","6","3","lose","go","0"
"pit-trial","230","1381100","0.0-116.0","battery-v0.2","","""event"",""trial"",""time""
""fullscreenenter"",""1"",""3223""
","
","
","""event"",""trial"",""time""
""fullscreenenter"",""1"",""3223""
","
","","","-1","","","21","14970","6161","m","elianto","#3366ff99"," ","-1","0","0","[]","0","2","","","14970","112","9","1","win","go","0"
"pit-trial","231","1385978","0.0-117.0","battery-v0.2","","""event"",""trial"",""time""
""fullscreenenter"",""1"",""3223""
","
","
","""event"",""trial"",""time""
""fullscreenenter"",""1"",""3223""
","
","","","-1","","","21","14970","6161","z","elianto","#3366ff99","-1","-1","1","0","[]","0","2","","","14970","113","5","2","win","no-go","1"
"pit-trial","232","1389788","0.0-118.0","battery-v0.2","","""event"",""trial"",""time""
""fullscreenenter"",""1"",""3223""
","
","
","""event"",""trial"",""time""
""fullscreenenter"",""1"",""3223""
","
","","","946.8999999761581","","","21","14970","6161","r","elianto","#3366ff99"," "," ","1","0","[1801.2999999523163]","1","2","","","14970","114","8","1","win","go","1"
"pit-trial","233","1393649","0.0-119.0","battery-v0.2","","""event"",""trial"",""time""
""fullscreenenter"",""1"",""3223""
","
","
","""event"",""trial"",""time""
""fullscreenenter"",""1"",""3223""
","
","","","997.5","","","21","14970","6161","m","elianto","#3366ff99"," "," ","1","+10","[1849.8999999761581]","1","2","","","14970","115","9","1","win","go","0"
"pit-trial","234","1397458","0.0-120.0","battery-v0.2","","""event"",""trial"",""time""
""fullscreenenter"",""1"",""3223""
","
","
","""event"",""trial"",""time""
""fullscreenenter"",""1"",""3223""
","
","","","943.8999999761581","","","21","14970","6161","h","elianto","#f73b6a7A"," "," ","1","0","[1798.1999999284744]","1","2","","","14970","116","6","3","lose","go","0"
"pit-trial","235","1401090","0.0-121.0","battery-v0.2","","""event"",""trial"",""time""
""fullscreenenter"",""1"",""3223""
","
","
","""event"",""trial"",""time""
""fullscreenenter"",""1"",""3223""
","
","","","769.0999999046326","","","21","14970","6161","r","elianto","#3366ff99"," "," ","1","0","[1619.7000000476837]","1","2","","","14970","117","8","1","win","go","1"
"pit-trial","236","1405958","0.0-122.0","battery-v0.2","","""event"",""trial"",""time""
""fullscreenenter"",""1"",""3223""
","
","
","""event"",""trial"",""time""
""fullscreenenter"",""1"",""3223""
","
","","","-1","","","21","14970","6161","z","elianto","#3366ff99","-1","-1","1","+10","[]","0","2","","","14970","118","5","2","win","no-go","0"
"pit-trial","237","1409641","0.0-123.0","battery-v0.2","","""event"",""trial"",""time""
""fullscreenenter"",""1"",""3223""
","
","
","""event"",""trial"",""time""
""fullscreenenter"",""1"",""3223""
","
","","","821.6000000238419","","","21","14970","6161","m","elianto","#3366ff99"," "," ","1","+10","[1674.8000000715256]","1","2","","","14970","119","9","1","win","go","0"
"pit-trial","238","1413319","0.0-124.0","battery-v0.2","","""event"",""trial"",""time""
""fullscreenenter"",""1"",""3223""
","
","
","""event"",""trial"",""time""
""fullscreenenter"",""1"",""3223""
","
","","","817.0999999046326","","","21","14970","6161","h","elianto","#f73b6a7A"," "," ","1","0","[1671.3999999761581]","1","2","","","14970","120","6","3","lose","go","0"
"pit-trial","239","1417036","0.0-125.0","battery-v0.2","","""event"",""trial"",""time""
""fullscreenenter"",""1"",""3223""
","
","
","""event"",""trial"",""time""
""fullscreenenter"",""1"",""3223""
","
","","","850.1000000238419","","","21","14970","6161","h","elianto","#f73b6a7A"," "," ","1","0","[1702.8999999761581]","1","2","","","14970","121","6","3","lose","go","0"
"pit-trial","240","1420866","0.0-126.0","battery-v0.2","","""event"",""trial"",""time""
""fullscreenenter"",""1"",""3223""
","
","
","""event"",""trial"",""time""
""fullscreenenter"",""1"",""3223""
","
","","","973","","","21","14970","6161","r","elianto","#3366ff99"," "," ","1","+10","[1824.7999999523163]","1","2","","","14970","122","8","1","win","go","0"
"pit-trial","241","1424560","0.0-127.0","battery-v0.2","","""event"",""trial"",""time""
""fullscreenenter"",""1"",""3223""
","
","
","""event"",""trial"",""time""
""fullscreenenter"",""1"",""3223""
","
","","","833.6999999284744","","","21","14970","6161","m","elianto","#3366ff99"," "," ","1","+10","[1689.0999999046326]","1","2","","","14970","123","9","1","win","go","0"
"pit-trial","242","1429436","0.0-128.0","battery-v0.2","","""event"",""trial"",""time""
""fullscreenenter"",""1"",""3223""
","
","
","""event"",""trial"",""time""
""fullscreenenter"",""1"",""3223""
","
","","","-1","","","21","14970","6161","y","elianto","#f73b6a7A","-1","-1","1","-10","[]","0","2","","","14970","124","7","4","lose","no-go","1"
"pit-trial","243","1433264","0.0-129.0","battery-v0.2","","""event"",""trial"",""time""
""fullscreenenter"",""1"",""3223""
","
","
","""event"",""trial"",""time""
""fullscreenenter"",""1"",""3223""
","
","","","960.7999999523163","","","21","14970","6161","h","elianto","#f73b6a7A"," "," ","1","-10","[1815.3999999761581]","1","2","","","14970","125","6","3","lose","go","1"
"pit-trial","244","1437048","0.0-130.0","battery-v0.2","","""event"",""trial"",""time""
""fullscreenenter"",""1"",""3223""
","
","
","""event"",""trial"",""time""
""fullscreenenter"",""1"",""3223""
","
","","","925.2999999523163","","","21","14970","6161","r","elianto","#3366ff99"," "," ","1","+10","[1778.8999999761581]","1","2","","","14970","126","8","1","win","go","0"
"pit-trial","245","1440913","0.0-131.0","battery-v0.2","","""event"",""trial"",""time""
""fullscreenenter"",""1"",""3223""
","
","
","""event"",""trial"",""time""
""fullscreenenter"",""1"",""3223""
","
","","","997.5999999046326","","","21","14970","6161","m","elianto","#3366ff99"," "," ","1","+10","[1852.1999999284744]","1","2","","","14970","127","9","1","win","go","0"
"pit-trial","246","1445782","0.0-132.0","battery-v0.2","","""event"",""trial"",""time""
""fullscreenenter"",""1"",""3223""
","
","
","""event"",""trial"",""time""
""fullscreenenter"",""1"",""3223""
","
","","","-1","","","21","14970","6161","y","elianto","#f73b6a7A","-1","-1","1","0","[]","0","2","","","14970","128","7","4","lose","no-go","0"
"pit-trial","247","1449569","0.0-133.0","battery-v0.2","","""event"",""trial"",""time""
""fullscreenenter"",""1"",""3223""
","
","
","""event"",""trial"",""time""
""fullscreenenter"",""1"",""3223""
","
","","","929.8999999761581","","","21","14970","6161","h","elianto","#f73b6a7A"," "," ","1","0","[1781.1000000238419]","1","2","","","14970","129","6","3","lose","go","0"
"pit-trial","248","1454430","0.0-134.0","battery-v0.2","","""event"",""trial"",""time""
""fullscreenenter"",""1"",""3223""
","
","
","""event"",""trial"",""time""
""fullscreenenter"",""1"",""3223""
","
","","","-1","","","21","14970","6161","y","elianto","#f73b6a7A","-1","-1","1","-10","[]","0","2","","","14970","130","7","4","lose","no-go","1"
"pit-trial","249","1458416","0.0-135.0","battery-v0.2","","""event"",""trial"",""time""
""fullscreenenter"",""1"",""3223""
","
","
","""event"",""trial"",""time""
""fullscreenenter"",""1"",""3223""
","
","","","1127.1999999284744","","","21","14970","6161","m","elianto","#3366ff99"," "," ","1","+10","[1981.3999999761581]","1","2","","","14970","131","9","1","win","go","0"
"pit-trial","250","1462901","0.0-136.0","battery-v0.2","","""event"",""trial"",""time""
""fullscreenenter"",""1"",""3223""
","
","
","""event"",""trial"",""time""
""fullscreenenter"",""1"",""3223""
","
","","","1621.3999999761581","","","21","14970","6161","r","elianto","#3366ff99"," "," ","1","+10","[2475.600000023842]","1","2","","","14970","132","8","1","win","go","0"
"pit-trial","251","1466944","0.0-137.0","battery-v0.2","","""event"",""trial"",""time""
""fullscreenenter"",""1"",""3223""
","
","
","""event"",""trial"",""time""
""fullscreenenter"",""1"",""3223""
","
","","","1186","","","21","14970","6161","r","elianto","#3366ff99"," "," ","1","0","[2036.1000000238419]","1","2","","","14970","133","8","1","win","go","1"
"pit-trial","252","1470708","0.0-138.0","battery-v0.2","","""event"",""trial"",""time""
""fullscreenenter"",""1"",""3223""
","
","
","""event"",""trial"",""time""
""fullscreenenter"",""1"",""3223""
","
","","","898.1000000238419","","","21","14970","6161","m","elianto","#3366ff99"," "," ","1","0","[1753]","1","2","","","14970","134","9","1","win","go","1"
"pit-trial","253","1475577","0.0-139.0","battery-v0.2","","""event"",""trial"",""time""
""fullscreenenter"",""1"",""3223""
","
","
","""event"",""trial"",""time""
""fullscreenenter"",""1"",""3223""
","
","","","-1","","","21","14970","6161","y","elianto","#f73b6a7A","-1","-1","1","0","[]","0","2","","","14970","135","7","4","lose","no-go","0"
"pit-trial","254","1479386","0.0-140.0","battery-v0.2","","""event"",""trial"",""time""
""fullscreenenter"",""1"",""3223""
","
","
","""event"",""trial"",""time""
""fullscreenenter"",""1"",""3223""
","
","","","950.0999999046326","","","21","14970","6161","h","elianto","#f73b6a7A"," "," ","1","0","[1800.3999999761581]","1","2","","","14970","136","6","3","lose","go","0"
"pit-trial","255","1484133","0.0-141.0","battery-v0.2","","""event"",""trial"",""time""
""fullscreenenter"",""1"",""3223""
","
","
","""event"",""trial"",""time""
""fullscreenenter"",""1"",""3223""
","
","","","1885.1000000238419","","","21","14970","6161","m","elianto","#3366ff99"," "," ","1","0","[2739.0999999046326]","1","2","","","14970","137","9","1","win","go","1"
"pit-trial","256","1488997","0.0-142.0","battery-v0.2","","""event"",""trial"",""time""
""fullscreenenter"",""1"",""3223""
","
","
","""event"",""trial"",""time""
""fullscreenenter"",""1"",""3223""
","
","","","-1","","","21","14970","6161","y","elianto","#f73b6a7A","-1","-1","1","0","[]","0","2","","","14970","138","7","4","lose","no-go","0"
"pit-trial","257","1493254","0.0-143.0","battery-v0.2","","""event"",""trial"",""time""
""fullscreenenter"",""1"",""3223""
","
","
","""event"",""trial"",""time""
""fullscreenenter"",""1"",""3223""
","
","","","1387.0999999046326","","","21","14970","6161","h","elianto","#f73b6a7A"," "," ","1","0","[2240.4000000953674]","1","2","","","14970","139","6","3","lose","go","0"
"pit-trial","258","1497260","0.0-144.0","battery-v0.2","","""event"",""trial"",""time""
""fullscreenenter"",""1"",""3223""
","
","
","""event"",""trial"",""time""
""fullscreenenter"",""1"",""3223""
","
","","","1135.7000000476837","","","21","14970","6161","r","elianto","#3366ff99"," "," ","1","+10","[1989.5]","1","2","","","14970","140","8","1","win","go","0"
"pit-instructions","259","1543838","0.0-145.0","battery-v0.2","","""event"",""trial"",""time""
""fullscreenenter"",""1"",""3223""
","
","
","""event"",""trial"",""time""
""fullscreenenter"",""1"",""3223""
","
","","[{""page_index"":0,""viewing_time"":37372.5},{""page_index"":1,""viewing_time"":9198.899999976158}]","46573.5","","","","","","","","","","","","","","","","","","","","","","","",""
"pit-trial","260","1548303","0.0-146.0","battery-v0.2","","""event"",""trial"",""time""
""fullscreenenter"",""1"",""3223""
","
","
","""event"",""trial"",""time""
""fullscreenenter"",""1"",""3223""
","
","","","1600.7000000476837","","","21","14970","6161","u","elianto","#f73b6a7A","-1"," ","0","-10","[2452]","1","3","","","14970","141","0","4","lose","no-go","0"
"pit-trial","261","1552590","0.0-147.0","battery-v0.2","","""event"",""trial"",""time""
""fullscreenenter"",""1"",""3223""
","
","
","""event"",""trial"",""time""
""fullscreenenter"",""1"",""3223""
","
","","","1420.8000000715256","","","21","14970","6161","l","elianto","#3366ff99"," "," ","1","+10","[2271.3000000715256]","1","3","","","14970","142","1","1","win","go","0"
"pit-trial","262","1556517","0.0-148.0","battery-v0.2","","""event"",""trial"",""time""
""fullscreenenter"",""1"",""3223""
","
","
","""event"",""trial"",""time""
""fullscreenenter"",""1"",""3223""
","
","","","1060.8000000715256","","","21","14970","6161","g","elianto","#f73b6a7A"," "," ","1","0","[1913.1000000238419]","1","3","","","14970","143","3","3","lose","go","0"
"pit-trial","263","1560762","0.0-149.0","battery-v0.2","","""event"",""trial"",""time""
""fullscreenenter"",""1"",""3223""
","
","
","""event"",""trial"",""time""
""fullscreenenter"",""1"",""3223""
","
","","","1373","","","21","14970","6161","a","elianto","#f73b6a7A","-1"," ","0","0","[2228]","1","3","","","14970","144","2","4","lose","no-go","1"
"pit-trial","264","1565638","0.0-150.0","battery-v0.2","","""event"",""trial"",""time""
""fullscreenenter"",""1"",""3223""
","
","
","""event"",""trial"",""time""
""fullscreenenter"",""1"",""3223""
","
","","","-1","","","21","14970","6161","u","elianto","#f73b6a7A","-1","-1","1","0","[]","0","3","","","14970","145","0","4","lose","no-go","0"
"pit-trial","265","1569761","0.0-151.0","battery-v0.2","","""event"",""trial"",""time""
""fullscreenenter"",""1"",""3223""
","
","
","""event"",""trial"",""time""
""fullscreenenter"",""1"",""3223""
","
","","","1261.5","","","21","14970","6161","g","elianto","#f73b6a7A"," "," ","1","-10","[2118.7000000476837]","1","3","","","14970","146","3","3","lose","go","1"
"pit-trial","266","1573728","0.0-152.0","battery-v0.2","","""event"",""trial"",""time""
