"trial_type","trial_index","time_elapsed","internal_node_id","task_version","subject_id","interactions","blur_events","focus_events","fullscreenenter_events","fullscreenexit_events","success","view_history","rt","responses","num_errors","age","subject","participantId","rune","rune_set","hex","correct","choice","accuracy","outcome","keys","total_keys","block","practice","value","sub","trial","stimulus","robot","valence","action","sham"
"pavlovia","0","12","0.0-0.0","battery-v0.2","","""event"",""trial"",""time""
""fullscreenenter"",""1"",""2628""
","
","
","""event"",""trial"",""time""
""fullscreenenter"",""1"",""2628""
","
","","","","","","","","","","","","","","","","","","","","","","","","","","",""
"fullscreen","1","3628","0.0-1.0","battery-v0.2","","""event"",""trial"",""time""
""fullscreenenter"",""1"",""2628""
","
","
","""event"",""trial"",""time""
""fullscreenenter"",""1"",""2628""
","
","true","","","","","","","","","","","","","","","","","","","","","","","","","",""
"pit-instructions","2","11407","0.0-2.0-0.0","battery-v0.2","","""event"",""trial"",""time""
""fullscreenenter"",""1"",""2628""
","
","
","""event"",""trial"",""time""
""fullscreenenter"",""1"",""2628""
","
","","[{""page_index"":0,""viewing_time"":7773.800000190735}]","7774.10000038147","","","","","","","","","","","","","","","","","","","","","","","",""
"pit-comprehension","3","13816","0.0-2.0-1.0-0.0","battery-v0.2","","""event"",""trial"",""time""
""fullscreenenter"",""1"",""2628""
","
","
","""event"",""trial"",""time""
""fullscreenenter"",""1"",""2628""
","
","","","2405.5","[""shark""]","0","15","10106","3596","","","","","","","","","","","","","","","","","","",""
"pit-instructions","4","15918","0.0-2.0-1.0-1.0","battery-v0.2","","""event"",""trial"",""time""
""fullscreenenter"",""1"",""2628""
","
","
","""event"",""trial"",""time""
""fullscreenenter"",""1"",""2628""
","
","","[{""page_index"":0,""viewing_time"":2089.2000002861023}]","2089.5","","","","","","","","","","","","","","","","","","","","","","","",""
"pit-comprehension","5","18215","0.0-2.0-2.0-0.0","battery-v0.2","","""event"",""trial"",""time""
""fullscreenenter"",""1"",""2628""
","
","
","""event"",""trial"",""time""
""fullscreenenter"",""1"",""2628""
","
","","","2292.9000000953674","[""tiger""]","0","15","10106","3596","","","","","","","","","","","","","","","","","","",""
"pit-instructions","6","19222","0.0-2.0-2.0-1.0","battery-v0.2","","""event"",""trial"",""time""
""fullscreenenter"",""1"",""2628""
","
","
","""event"",""trial"",""time""
""fullscreenenter"",""1"",""2628""
","
","","[{""page_index"":0,""viewing_time"":1003.2999997138977}]","1003.7999997138977","","","","","","","","","","","","","","","","","","","","","","","",""
"pit-instructions","7","110341","0.0-2.0-3.0","battery-v0.2","","""event"",""trial"",""time""
""fullscreenenter"",""1"",""2628""
","
","
","""event"",""trial"",""time""
""fullscreenenter"",""1"",""2628""
","
","","[{""page_index"":0,""viewing_time"":7892.400000095367},{""page_index"":1,""viewing_time"":6040},{""page_index"":2,""viewing_time"":7439.800000190735},{""page_index"":3,""viewing_time"":5223.900000095367},{""page_index"":4,""viewing_time"":5183.89999961853},{""page_index"":5,""viewing_time"":5520},{""page_index"":6,""viewing_time"":6439.900000095367},{""page_index"":7,""viewing_time"":6703.900000095367},{""page_index"":8,""viewing_time"":6623.800000190735},{""page_index"":9,""viewing_time"":7920.099999904633},{""page_index"":10,""viewing_time"":7943.799999713898},{""page_index"":11,""viewing_time"":6935.900000095367},{""page_index"":12,""viewing_time"":6464.400000095367},{""page_index"":13,""viewing_time"":4783.5}]","91115.60000038147","","","","","","","","","","","","","","","","","","","","","","","",""
"pit-trial","8","113417","0.0-2.0-4.0-0.0","battery-v0.2","","""event"",""trial"",""time""
""fullscreenenter"",""1"",""2628""
","
","
","""event"",""trial"",""time""
""fullscreenenter"",""1"",""2628""
","
","","","216.89999961853027","","","15","10106","3596","&#9784;","elianto","#FFFFF080"," "," ","1","&#10004","[1069]","1","0","0","","","","","","","",""
"pit-trial","9","116857","0.0-2.0-4.1-0.1","battery-v0.2","","""event"",""trial"",""time""
""fullscreenenter"",""1"",""2628""
","
","
","""event"",""trial"",""time""
""fullscreenenter"",""1"",""2628""
","
","","","563.4000000953674","","","15","10106","3596","&#9784;","elianto","#FFFFF080"," "," ","1","&#10004","[111.09999990463257,1415.3000001907349]","2","0","0","","","","","","","",""
"pit-trial","10","120142","0.0-2.0-4.2-0.2","battery-v0.2","","""event"",""trial"",""time""
""fullscreenenter"",""1"",""2628""
","
","
","""event"",""trial"",""time""
""fullscreenenter"",""1"",""2628""
","
","","","402","","","15","10106","3596","&#9784;","elianto","#FFFFF080"," "," ","1","&#10004","[1264.6999998092651]","1","0","0","","","","","","","",""
"pit-trial","11","123522","0.0-2.0-4.3-0.3","battery-v0.2","","""event"",""trial"",""time""
""fullscreenenter"",""1"",""2628""
","
","
","""event"",""trial"",""time""
""fullscreenenter"",""1"",""2628""
","
","","","502","","","15","10106","3596","&#9784;","elianto","#FFFFF080"," "," ","1","&#10004","[1363.8999996185303]","1","0","0","","","","","","","",""
"pit-trial","12","127002","0.0-2.0-4.4-0.4","battery-v0.2","","""event"",""trial"",""time""
""fullscreenenter"",""1"",""2628""
","
","
","""event"",""trial"",""time""
""fullscreenenter"",""1"",""2628""
","
","","","609.5999999046326","","","15","10106","3596","&#9784;","elianto","#FFFFF080"," "," ","1","&#10004","[1463.3000001907349]","1","0","0","","","","","","","",""
"pit-instructions","13","149589","0.0-2.0-5.0","battery-v0.2","","""event"",""trial"",""time""
""fullscreenenter"",""1"",""2628""
","
","
","""event"",""trial"",""time""
""fullscreenenter"",""1"",""2628""
","
","","[{""page_index"":0,""viewing_time"":7166.300000190735},{""page_index"":1,""viewing_time"":5688},{""page_index"":2,""viewing_time"":4591.900000095367},{""page_index"":3,""viewing_time"":5136}]","22582.599999904633","","","","","","","","","","","","","","","","","","","","","","","",""
"pit-trial","14","154451","0.0-2.0-6.0-0.0","battery-v0.2","","""event"",""trial"",""time""
""fullscreenenter"",""1"",""2628""
","
","
","""event"",""trial"",""time""
""fullscreenenter"",""1"",""2628""
","
","","","-1","","","15","10106","3596","&#9854;","elianto","#FFFFF080","-1","-1","1","&#10004","[]","0","0","1","","","","","","","",""
"pit-trial","15","159136","0.0-2.0-6.1-0.1","battery-v0.2","","""event"",""trial"",""time""
""fullscreenenter"",""1"",""2628""
","
","
","""event"",""trial"",""time""
""fullscreenenter"",""1"",""2628""
","
","","","1817","","","15","10106","3596","&#9854;","elianto","#FFFFF080","-1"," ","0","&#10060","[2668.9000000953674]","1","0","1","","","","","","","",""
"pit-trial","16","164021","0.0-2.0-6.2-0.2","battery-v0.2","","""event"",""trial"",""time""
""fullscreenenter"",""1"",""2628""
","
","
","""event"",""trial"",""time""
""fullscreenenter"",""1"",""2628""
","
","","","-1","","","15","10106","3596","&#9854;","elianto","#FFFFF080","-1","-1","1","&#10004","[]","0","0","1","","","","","","","",""
"pit-trial","17","168906","0.0-2.0-6.3-0.3","battery-v0.2","","""event"",""trial"",""time""
""fullscreenenter"",""1"",""2628""
","
","
","""event"",""trial"",""time""
""fullscreenenter"",""1"",""2628""
","
","","","-1","","","15","10106","3596","&#9854;","elianto","#FFFFF080","-1","-1","1","&#10004","[]","0","0","1","","","","","","","",""
"pit-trial","18","173786","0.0-2.0-6.4-0.4","battery-v0.2","","""event"",""trial"",""time""
""fullscreenenter"",""1"",""2628""
","
","
","""event"",""trial"",""time""
""fullscreenenter"",""1"",""2628""
","
","","","-1","","","15","10106","3596","&#9854;","elianto","#FFFFF080","-1","-1","1","&#10004","[]","0","0","1","","","","","","","",""
"pit-instructions","19","295971","0.0-2.0-7.0","battery-v0.2","","""event"",""trial"",""time""
""fullscreenenter"",""1"",""2628""
","
","
","""event"",""trial"",""time""
""fullscreenenter"",""1"",""2628""
","
","","[{""page_index"":0,""viewing_time"":7933.10000038147},{""page_index"":1,""viewing_time"":6415.299999713898},{""page_index"":2,""viewing_time"":5752},{""page_index"":3,""viewing_time"":6432},{""page_index"":4,""viewing_time"":5504},{""page_index"":5,""viewing_time"":6047.900000095367},{""page_index"":6,""viewing_time"":4968.099999904633},{""page_index"":7,""viewing_time"":9799.300000190735},{""page_index"":8,""viewing_time"":8000.5},{""page_index"":9,""viewing_time"":7255.799999713898},{""page_index"":10,""viewing_time"":6127.900000095367},{""page_index"":11,""viewing_time"":5247.700000286102},{""page_index"":12,""viewing_time"":7912.199999809265},{""page_index"":13,""viewing_time"":6967.800000190735},{""page_index"":14,""viewing_time"":6935.799999713898},{""page_index"":15,""viewing_time"":6376.200000286102},{""page_index"":16,""viewing_time"":6279.799999713898},{""page_index"":17,""viewing_time"":8223.900000095367}]","122179.7000002861","","","","","","","","","","","","","","","","","","","","","","","",""
"pit-trial","20","299451","0.0-2.0-8.0-0.0","battery-v0.2","","""event"",""trial"",""time""
""fullscreenenter"",""1"",""2628""
","
","
","""event"",""trial"",""time""
""fullscreenenter"",""1"",""2628""
","
","","","609.7000002861023","","","15","10106","3596","&#9776;","elianto","#3366ff99"," "," ","1","+10","[1460]","1","0","1","","","","","","","",""
"pit-trial","21","302678","0.0-2.0-8.0-1.0","battery-v0.2","","""event"",""trial"",""time""
""fullscreenenter"",""1"",""2628""
","
","
","""event"",""trial"",""time""
""fullscreenenter"",""1"",""2628""
","
","","","358.69999980926514","","","15","10106","3596","&#9776;","elianto","#3366ff99"," "," ","1","+10","[1212]","1","0","1","","","","","","","",""
"pit-trial","22","305936","0.0-2.0-8.0-2.0","battery-v0.2","","""event"",""trial"",""time""
""fullscreenenter"",""1"",""2628""
","
","
","""event"",""trial"",""time""
""fullscreenenter"",""1"",""2628""
","
","","","398.7000002861023","","","15","10106","3596","&#9776;","elianto","#3366ff99"," "," ","1","+10","[1249.7000002861023]","1","0","1","","","","","","","",""
"pit-trial","23","309136","0.0-2.0-8.0-3.0","battery-v0.2","","""event"",""trial"",""time""
""fullscreenenter"",""1"",""2628""
","
","
","""event"",""trial"",""time""
""fullscreenenter"",""1"",""2628""
","
","","","331.5","","","15","10106","3596","&#9776;","elianto","#3366ff99"," "," ","1","0","[1183.2999997138977]","1","0","1","","","","","","","",""
"pit-trial","24","312346","0.0-2.0-8.0-4.0","battery-v0.2","","""event"",""trial"",""time""
""fullscreenenter"",""1"",""2628""
","
","
","""event"",""trial"",""time""
""fullscreenenter"",""1"",""2628""
","
","","","347.19999980926514","","","15","10106","3596","&#9776;","elianto","#3366ff99"," "," ","1","+10","[1199.2999997138977]","1","0","1","","","","","","","",""
"pit-trial","25","315546","0.0-2.0-8.1-0.1","battery-v0.2","","""event"",""trial"",""time""
""fullscreenenter"",""1"",""2628""
","
","
","""event"",""trial"",""time""
""fullscreenenter"",""1"",""2628""
","
","","","322.59999990463257","","","15","10106","3596","&#9776;","elianto","#3366ff99"," "," ","1","+10","[1181.8000001907349]","1","0","1","","","","","","","",""
"pit-trial","26","318712","0.0-2.0-8.1-1.1","battery-v0.2","","""event"",""trial"",""time""
""fullscreenenter"",""1"",""2628""
","
","
","""event"",""trial"",""time""
""fullscreenenter"",""1"",""2628""
","
","","","298.30000019073486","","","15","10106","3596","&#9776;","elianto","#3366ff99"," "," ","1","+10","[1157.0999999046326]","1","0","1","","","","","","","",""
"pit-trial","27","321876","0.0-2.0-8.1-2.1","battery-v0.2","","""event"",""trial"",""time""
""fullscreenenter"",""1"",""2628""
","
","
","""event"",""trial"",""time""
""fullscreenenter"",""1"",""2628""
","
","","","283.80000019073486","","","15","10106","3596","&#9776;","elianto","#3366ff99"," "," ","1","+10","[1143.4000000953674]","1","0","1","","","","","","","",""
"pit-trial","28","325195","0.0-2.0-8.1-3.1","battery-v0.2","","""event"",""trial"",""time""
""fullscreenenter"",""1"",""2628""
","
","
","""event"",""trial"",""time""
""fullscreenenter"",""1"",""2628""
","
","","","453.40000009536743","","","15","10106","3596","&#9776;","elianto","#3366ff99"," "," ","1","0","[1316.5]","1","0","1","","","","","","","",""
"pit-trial","29","328334","0.0-2.0-8.1-4.1","battery-v0.2","","""event"",""trial"",""time""
""fullscreenenter"",""1"",""2628""
","
","
","""event"",""trial"",""time""
""fullscreenenter"",""1"",""2628""
","
","","","273.5","","","15","10106","3596","&#9776;","elianto","#3366ff99"," "," ","1","+10","[1124.4000000953674]","1","0","1","","","","","","","",""
"pit-trial","30","331387","0.0-2.0-8.2-0.2","battery-v0.2","","""event"",""trial"",""time""
""fullscreenenter"",""1"",""2628""
","
","
","""event"",""trial"",""time""
""fullscreenenter"",""1"",""2628""
","
","","","198.40000009536743","","","15","10106","3596","&#9776;","elianto","#3366ff99"," "," ","1","+10","[1049.4000000953674]","1","0","1","","","","","","","",""
"pit-trial","31","334571","0.0-2.0-8.2-1.2","battery-v0.2","","""event"",""trial"",""time""
""fullscreenenter"",""1"",""2628""
","
","
","""event"",""trial"",""time""
""fullscreenenter"",""1"",""2628""
","
","","","328.59999990463257","","","15","10106","3596","&#9776;","elianto","#3366ff99"," "," ","1","+10","[1179.5]","1","0","1","","","","","","","",""
"pit-trial","32","337676","0.0-2.0-8.2-2.2","battery-v0.2","","""event"",""trial"",""time""
""fullscreenenter"",""1"",""2628""
","
","
","""event"",""trial"",""time""
""fullscreenenter"",""1"",""2628""
","
","","","250.90000009536743","","","15","10106","3596","&#9776;","elianto","#3366ff99"," "," ","1","+10","[1101.2999997138977]","1","0","1","","","","","","","",""
"pit-trial","33","340757","0.0-2.0-8.2-3.2","battery-v0.2","","""event"",""trial"",""time""
""fullscreenenter"",""1"",""2628""
","
","
","""event"",""trial"",""time""
""fullscreenenter"",""1"",""2628""
","
","","","216.7000002861023","","","15","10106","3596","&#9776;","elianto","#3366ff99"," "," ","1","0","[1067.7000002861023]","1","0","1","","","","","","","",""
"pit-trial","34","343883","0.0-2.0-8.2-4.2","battery-v0.2","","""event"",""trial"",""time""
""fullscreenenter"",""1"",""2628""
","
","
","""event"",""trial"",""time""
""fullscreenenter"",""1"",""2628""
","
","","","271.40000009536743","","","15","10106","3596","&#9776;","elianto","#3366ff99"," "," ","1","+10","[1123.1999998092651]","1","0","1","","","","","","","",""
"call-function","35","343886","0.0-2.0-9.0","battery-v0.2","","""event"",""trial"",""time""
""fullscreenenter"",""1"",""2628""
","
","
","""event"",""trial"",""time""
""fullscreenenter"",""1"",""2628""
","
","","","","","","","","","","","","","","","","","","","","","","","","","","",""
"pit-instructions","36","384426","0.0-2.0-10.0","battery-v0.2","","""event"",""trial"",""time""
""fullscreenenter"",""1"",""2628""
","
","
","""event"",""trial"",""time""
""fullscreenenter"",""1"",""2628""
","
","","[{""page_index"":0,""viewing_time"":6347.400000095367},{""page_index"":1,""viewing_time"":7984},{""page_index"":2,""viewing_time"":9503.900000095367},{""page_index"":3,""viewing_time"":9239.900000095367},{""page_index"":4,""viewing_time"":7463.699999809265}]","40539.300000190735","","","","","","","","","","","","","","","","","","","","","","","",""
"pit-trial","37","389316","0.0-2.0-11.0-0.0","battery-v0.2","","""event"",""trial"",""time""
""fullscreenenter"",""1"",""2628""
","
","
","""event"",""trial"",""time""
""fullscreenenter"",""1"",""2628""
","
","","","-1","","","15","10106","3596","&#9761;","elianto","#3366ff99","-1","-1","1","+10","[]","0","0","2","","","","","","","",""
"pit-trial","38","394201","0.0-2.0-11.0-1.0","battery-v0.2","","""event"",""trial"",""time""
""fullscreenenter"",""1"",""2628""
","
","
","""event"",""trial"",""time""
""fullscreenenter"",""1"",""2628""
","
","","","-1","","","15","10106","3596","&#9761;","elianto","#3366ff99","-1","-1","1","+10","[]","0","0","2","","","","","","","",""
"pit-trial","39","399065","0.0-2.0-11.0-2.0","battery-v0.2","","""event"",""trial"",""time""
""fullscreenenter"",""1"",""2628""
","
","
","""event"",""trial"",""time""
""fullscreenenter"",""1"",""2628""
","
","","","-1","","","15","10106","3596","&#9761;","elianto","#3366ff99","-1","-1","1","+10","[]","0","0","2","","","","","","","",""
"pit-trial","40","403940","0.0-2.0-11.0-3.0","battery-v0.2","","""event"",""trial"",""time""
""fullscreenenter"",""1"",""2628""
","
","
","""event"",""trial"",""time""
""fullscreenenter"",""1"",""2628""
","
","","","-1","","","15","10106","3596","&#9761;","elianto","#3366ff99","-1","-1","1","0","[]","0","0","2","","","","","","","",""
"pit-trial","41","408830","0.0-2.0-11.0-4.0","battery-v0.2","","""event"",""trial"",""time""
""fullscreenenter"",""1"",""2628""
","
","
","""event"",""trial"",""time""
""fullscreenenter"",""1"",""2628""
","
","","","-1","","","15","10106","3596","&#9761;","elianto","#3366ff99","-1","-1","1","+10","[]","0","0","2","","","","","","","",""
"pit-trial","42","413715","0.0-2.0-11.1-0.1","battery-v0.2","","""event"",""trial"",""time""
""fullscreenenter"",""1"",""2628""
","
","
","""event"",""trial"",""time""
""fullscreenenter"",""1"",""2628""
","
","","","-1","","","15","10106","3596","&#9761;","elianto","#3366ff99","-1","-1","1","+10","[]","0","0","2","","","","","","","",""
"pit-trial","43","418569","0.0-2.0-11.1-1.1","battery-v0.2","","""event"",""trial"",""time""
""fullscreenenter"",""1"",""2628""
","
","
","""event"",""trial"",""time""
""fullscreenenter"",""1"",""2628""
","
","","","-1","","","15","10106","3596","&#9761;","elianto","#3366ff99","-1","-1","1","+10","[]","0","0","2","","","","","","","",""
"pit-trial","44","423425","0.0-2.0-11.1-2.1","battery-v0.2","","""event"",""trial"",""time""
""fullscreenenter"",""1"",""2628""
","
","
","""event"",""trial"",""time""
""fullscreenenter"",""1"",""2628""
","
","","","-1","","","15","10106","3596","&#9761;","elianto","#3366ff99","-1","-1","1","+10","[]","0","0","2","","","","","","","",""
"pit-trial","45","428279","0.0-2.0-11.1-3.1","battery-v0.2","","""event"",""trial"",""time""
""fullscreenenter"",""1"",""2628""
","
","
","""event"",""trial"",""time""
""fullscreenenter"",""1"",""2628""
","
","","","-1","","","15","10106","3596","&#9761;","elianto","#3366ff99","-1","-1","1","0","[]","0","0","2","","","","","","","",""
"pit-trial","46","433133","0.0-2.0-11.1-4.1","battery-v0.2","","""event"",""trial"",""time""
""fullscreenenter"",""1"",""2628""
","
","
","""event"",""trial"",""time""
""fullscreenenter"",""1"",""2628""
","
","","","-1","","","15","10106","3596","&#9761;","elianto","#3366ff99","-1","-1","1","+10","[]","0","0","2","","","","","","","",""
"pit-trial","47","437989","0.0-2.0-11.2-0.2","battery-v0.2","","""event"",""trial"",""time""
""fullscreenenter"",""1"",""2628""
","
","
","""event"",""trial"",""time""
""fullscreenenter"",""1"",""2628""
","
","","","-1","","","15","10106","3596","&#9761;","elianto","#3366ff99","-1","-1","1","+10","[]","0","0","2","","","","","","","",""
"pit-trial","48","442844","0.0-2.0-11.2-1.2","battery-v0.2","","""event"",""trial"",""time""
""fullscreenenter"",""1"",""2628""
","
","
","""event"",""trial"",""time""
""fullscreenenter"",""1"",""2628""
","
","","","-1","","","15","10106","3596","&#9761;","elianto","#3366ff99","-1","-1","1","+10","[]","0","0","2","","","","","","","",""
"pit-trial","49","447698","0.0-2.0-11.2-2.2","battery-v0.2","","""event"",""trial"",""time""
""fullscreenenter"",""1"",""2628""
","
","
","""event"",""trial"",""time""
""fullscreenenter"",""1"",""2628""
","
","","","-1","","","15","10106","3596","&#9761;","elianto","#3366ff99","-1","-1","1","+10","[]","0","0","2","","","","","","","",""
"pit-trial","50","452554","0.0-2.0-11.2-3.2","battery-v0.2","","""event"",""trial"",""time""
""fullscreenenter"",""1"",""2628""
","
","
","""event"",""trial"",""time""
""fullscreenenter"",""1"",""2628""
","
","","","-1","","","15","10106","3596","&#9761;","elianto","#3366ff99","-1","-1","1","0","[]","0","0","2","","","","","","","",""
"pit-trial","51","457410","0.0-2.0-11.2-4.2","battery-v0.2","","""event"",""trial"",""time""
""fullscreenenter"",""1"",""2628""
","
","
","""event"",""trial"",""time""
""fullscreenenter"",""1"",""2628""
","
","","","-1","","","15","10106","3596","&#9761;","elianto","#3366ff99","-1","-1","1","+10","[]","0","0","2","","","","","","","",""
"pit-trial","52","462265","0.0-2.0-11.3-0.3","battery-v0.2","","""event"",""trial"",""time""
""fullscreenenter"",""1"",""2628""
","
","
","""event"",""trial"",""time""
""fullscreenenter"",""1"",""2628""
","
","","","-1","","","15","10106","3596","&#9761;","elianto","#3366ff99","-1","-1","1","+10","[]","0","0","2","","","","","","","",""
"pit-trial","53","467119","0.0-2.0-11.3-1.3","battery-v0.2","","""event"",""trial"",""time""
""fullscreenenter"",""1"",""2628""
","
","
","""event"",""trial"",""time""
""fullscreenenter"",""1"",""2628""
","
","","","-1","","","15","10106","3596","&#9761;","elianto","#3366ff99","-1","-1","1","+10","[]","0","0","2","","","","","","","",""
"pit-trial","54","471974","0.0-2.0-11.3-2.3","battery-v0.2","","""event"",""trial"",""time""
""fullscreenenter"",""1"",""2628""
","
","
","""event"",""trial"",""time""
""fullscreenenter"",""1"",""2628""
","
","","","-1","","","15","10106","3596","&#9761;","elianto","#3366ff99","-1","-1","1","+10","[]","0","0","2","","","","","","","",""
"pit-trial","55","476831","0.0-2.0-11.3-3.3","battery-v0.2","","""event"",""trial"",""time""
""fullscreenenter"",""1"",""2628""
","
","
","""event"",""trial"",""time""
""fullscreenenter"",""1"",""2628""
","
","","","-1","","","15","10106","3596","&#9761;","elianto","#3366ff99","-1","-1","1","0","[]","0","0","2","","","","","","","",""
"pit-trial","56","481686","0.0-2.0-11.3-4.3","battery-v0.2","","""event"",""trial"",""time""
""fullscreenenter"",""1"",""2628""
","
","
","""event"",""trial"",""time""
""fullscreenenter"",""1"",""2628""
","
","","","-1","","","15","10106","3596","&#9761;","elianto","#3366ff99","-1","-1","1","+10","[]","0","0","2","","","","","","","",""
"call-function","57","481688","0.0-2.0-12.0","battery-v0.2","","""event"",""trial"",""time""
""fullscreenenter"",""1"",""2628""
","
","
","""event"",""trial"",""time""
""fullscreenenter"",""1"",""2628""
","
","","","","","","","","","","","","","","","","","","","","","","","","","","",""
"pit-instructions","58","512569","0.0-2.0-13.0","battery-v0.2","","""event"",""trial"",""time""
""fullscreenenter"",""1"",""2628""
","
","
","""event"",""trial"",""time""
""fullscreenenter"",""1"",""2628""
","
","","[{""page_index"":0,""viewing_time"":5111.599999904633},{""page_index"":1,""viewing_time"":7311.799999713898},{""page_index"":2,""viewing_time"":3112},{""page_index"":3,""viewing_time"":10919.900000095367},{""page_index"":4,""viewing_time"":4424}]","30879.5","","","","","","","","","","","","","","","","","","","","","","","",""
"pit-trial","59","517444","0.0-2.0-14.0-0.0","battery-v0.2","","""event"",""trial"",""time""
""fullscreenenter"",""1"",""2628""
","
","
","""event"",""trial"",""time""
""fullscreenenter"",""1"",""2628""
","
","","","-1","","","15","10106","3596","&#9826;","elianto","#f73b6a7A","-1","-1","1","0","[]","0","0","3","","","","","","","",""
"pit-trial","60","522314","0.0-2.0-14.0-1.0","battery-v0.2","","""event"",""trial"",""time""
""fullscreenenter"",""1"",""2628""
","
","
","""event"",""trial"",""time""
""fullscreenenter"",""1"",""2628""
","
","","","-1","","","15","10106","3596","&#9826;","elianto","#f73b6a7A","-1","-1","1","0","[]","0","0","3","","","","","","","",""
"pit-trial","61","527194","0.0-2.0-14.0-2.0","battery-v0.2","","""event"",""trial"",""time""
""fullscreenenter"",""1"",""2628""
","
","
","""event"",""trial"",""time""
""fullscreenenter"",""1"",""2628""
","
","","","-1","","","15","10106","3596","&#9826;","elianto","#f73b6a7A","-1","-1","1","0","[]","0","0","3","","","","","","","",""
"pit-trial","62","532074","0.0-2.0-14.0-3.0","battery-v0.2","","""event"",""trial"",""time""
""fullscreenenter"",""1"",""2628""
","
","
","""event"",""trial"",""time""
""fullscreenenter"",""1"",""2628""
","
","","","-1","","","15","10106","3596","&#9826;","elianto","#f73b6a7A","-1","-1","1","-10","[]","0","0","3","","","","","","","",""
"pit-trial","63","536954","0.0-2.0-14.0-4.0","battery-v0.2","","""event"",""trial"",""time""
""fullscreenenter"",""1"",""2628""
","
","
","""event"",""trial"",""time""
""fullscreenenter"",""1"",""2628""
","
","","","-1","","","15","10106","3596","&#9826;","elianto","#f73b6a7A","-1","-1","1","0","[]","0","0","3","","","","","","","",""
"pit-trial","64","541829","0.0-2.0-14.1-0.1","battery-v0.2","","""event"",""trial"",""time""
""fullscreenenter"",""1"",""2628""
","
","
","""event"",""trial"",""time""
""fullscreenenter"",""1"",""2628""
","
","","","-1","","","15","10106","3596","&#9826;","elianto","#f73b6a7A","-1","-1","1","0","[]","0","0","3","","","","","","","",""
"pit-trial","65","546683","0.0-2.0-14.1-1.1","battery-v0.2","","""event"",""trial"",""time""
""fullscreenenter"",""1"",""2628""
","
","
","""event"",""trial"",""time""
""fullscreenenter"",""1"",""2628""
","
","","","-1","","","15","10106","3596","&#9826;","elianto","#f73b6a7A","-1","-1","1","0","[]","0","0","3","","","","","","","",""
"pit-trial","66","551537","0.0-2.0-14.1-2.1","battery-v0.2","","""event"",""trial"",""time""
""fullscreenenter"",""1"",""2628""
","
","
","""event"",""trial"",""time""
""fullscreenenter"",""1"",""2628""
","
","","","-1","","","15","10106","3596","&#9826;","elianto","#f73b6a7A","-1","-1","1","0","[]","0","0","3","","","","","","","",""
"pit-trial","67","556392","0.0-2.0-14.1-3.1","battery-v0.2","","""event"",""trial"",""time""
""fullscreenenter"",""1"",""2628""
","
","
","""event"",""trial"",""time""
""fullscreenenter"",""1"",""2628""
","
","","","-1","","","15","10106","3596","&#9826;","elianto","#f73b6a7A","-1","-1","1","-10","[]","0","0","3","","","","","","","",""
"pit-trial","68","561246","0.0-2.0-14.1-4.1","battery-v0.2","","""event"",""trial"",""time""
""fullscreenenter"",""1"",""2628""
","
","
","""event"",""trial"",""time""
""fullscreenenter"",""1"",""2628""
","
","","","-1","","","15","10106","3596","&#9826;","elianto","#f73b6a7A","-1","-1","1","0","[]","0","0","3","","","","","","","",""
"pit-trial","69","566102","0.0-2.0-14.2-0.2","battery-v0.2","","""event"",""trial"",""time""
""fullscreenenter"",""1"",""2628""
","
","
","""event"",""trial"",""time""
""fullscreenenter"",""1"",""2628""
","
","","","-1","","","15","10106","3596","&#9826;","elianto","#f73b6a7A","-1","-1","1","0","[]","0","0","3","","","","","","","",""
"pit-trial","70","570957","0.0-2.0-14.2-1.2","battery-v0.2","","""event"",""trial"",""time""
""fullscreenenter"",""1"",""2628""
","
","
","""event"",""trial"",""time""
""fullscreenenter"",""1"",""2628""
","
","","","-1","","","15","10106","3596","&#9826;","elianto","#f73b6a7A","-1","-1","1","0","[]","0","0","3","","","","","","","",""
"pit-trial","71","575812","0.0-2.0-14.2-2.2","battery-v0.2","","""event"",""trial"",""time""
""fullscreenenter"",""1"",""2628""
","
","
","""event"",""trial"",""time""
""fullscreenenter"",""1"",""2628""
","
","","","-1","","","15","10106","3596","&#9826;","elianto","#f73b6a7A","-1","-1","1","0","[]","0","0","3","","","","","","","",""
"pit-trial","72","580667","0.0-2.0-14.2-3.2","battery-v0.2","","""event"",""trial"",""time""
""fullscreenenter"",""1"",""2628""
","
","
","""event"",""trial"",""time""
""fullscreenenter"",""1"",""2628""
","
","","","-1","","","15","10106","3596","&#9826;","elianto","#f73b6a7A","-1","-1","1","-10","[]","0","0","3","","","","","","","",""
"pit-trial","73","585522","0.0-2.0-14.2-4.2","battery-v0.2","","""event"",""trial"",""time""
""fullscreenenter"",""1"",""2628""
","
","
","""event"",""trial"",""time""
""fullscreenenter"",""1"",""2628""
","
","","","-1","","","15","10106","3596","&#9826;","elianto","#f73b6a7A","-1","-1","1","0","[]","0","0","3","","","","","","","",""
"pit-trial","74","590377","0.0-2.0-14.3-0.3","battery-v0.2","","""event"",""trial"",""time""
""fullscreenenter"",""1"",""2628""
","
","
","""event"",""trial"",""time""
""fullscreenenter"",""1"",""2628""
","
","","","-1","","","15","10106","3596","&#9826;","elianto","#f73b6a7A","-1","-1","1","0","[]","0","0","3","","","","","","","",""
"pit-trial","75","595233","0.0-2.0-14.3-1.3","battery-v0.2","","""event"",""trial"",""time""
""fullscreenenter"",""1"",""2628""
","
","
","""event"",""trial"",""time""
""fullscreenenter"",""1"",""2628""
","
","","","-1","","","15","10106","3596","&#9826;","elianto","#f73b6a7A","-1","-1","1","0","[]","0","0","3","","","","","","","",""
"pit-trial","76","600087","0.0-2.0-14.3-2.3","battery-v0.2","","""event"",""trial"",""time""
""fullscreenenter"",""1"",""2628""
","
","
","""event"",""trial"",""time""
""fullscreenenter"",""1"",""2628""
","
","","","-1","","","15","10106","3596","&#9826;","elianto","#f73b6a7A","-1","-1","1","0","[]","0","0","3","","","","","","","",""
"pit-trial","77","604942","0.0-2.0-14.3-3.3","battery-v0.2","","""event"",""trial"",""time""
""fullscreenenter"",""1"",""2628""
","
","
","""event"",""trial"",""time""
""fullscreenenter"",""1"",""2628""
","
","","","-1","","","15","10106","3596","&#9826;","elianto","#f73b6a7A","-1","-1","1","-10","[]","0","0","3","","","","","","","",""
"pit-trial","78","609797","0.0-2.0-14.3-4.3","battery-v0.2","","""event"",""trial"",""time""
""fullscreenenter"",""1"",""2628""
","
","
","""event"",""trial"",""time""
""fullscreenenter"",""1"",""2628""
","
","","","-1","","","15","10106","3596","&#9826;","elianto","#f73b6a7A","-1","-1","1","0","[]","0","0","3","","","","","","","",""
"call-function","79","609800","0.0-2.0-15.0","battery-v0.2","","""event"",""trial"",""time""
""fullscreenenter"",""1"",""2628""
","
","
","""event"",""trial"",""time""
""fullscreenenter"",""1"",""2628""
","
","","","","","","","","","","","","","","","","","","","","","","","","","","",""
"pit-instructions","80","633351","0.0-2.0-16.0","battery-v0.2","","""event"",""trial"",""time""
""fullscreenenter"",""1"",""2628""
","
","
","""event"",""trial"",""time""
""fullscreenenter"",""1"",""2628""
","
","","[{""page_index"":0,""viewing_time"":6446.599999904633},{""page_index"":1,""viewing_time"":8063.699999809265},{""page_index"":2,""viewing_time"":4104},{""page_index"":3,""viewing_time"":4936}]","23550.5","","","","","","","","","","","","","","","","","","","","","","","",""
"pit-trial","81","636661","0.0-2.0-17.0-0.0","battery-v0.2","","""event"",""trial"",""time""
""fullscreenenter"",""1"",""2628""
","
","
","""event"",""trial"",""time""
""fullscreenenter"",""1"",""2628""
","
","","","445","","","15","10106","3596","&#9789;","elianto","#f73b6a7A"," "," ","1","0","[1302.2999997138977]","1","0","4","","","","","","","",""
"pit-trial","82","639818","0.0-2.0-17.0-1.0","battery-v0.2","","""event"",""trial"",""time""
""fullscreenenter"",""1"",""2628""
","
","
","""event"",""trial"",""time""
""fullscreenenter"",""1"",""2628""
","
","","","272","","","15","10106","3596","&#9789;","elianto","#f73b6a7A"," "," ","1","0","[1135.9000000953674]","1","0","4","","","","","","","",""
"pit-trial","83","642940","0.0-2.0-17.0-2.0","battery-v0.2","","""event"",""trial"",""time""
""fullscreenenter"",""1"",""2628""
","
","
","""event"",""trial"",""time""
""fullscreenenter"",""1"",""2628""
","
","","","246.7000002861023","","","15","10106","3596","&#9789;","elianto","#f73b6a7A"," "," ","1","0","[1106.7999997138977]","1","0","4","","","","","","","",""
"pit-trial","84","646088","0.0-2.0-17.0-3.0","battery-v0.2","","""event"",""trial"",""time""
""fullscreenenter"",""1"",""2628""
","
","
","""event"",""trial"",""time""
""fullscreenenter"",""1"",""2628""
","
","","","286","","","15","10106","3596","&#9789;","elianto","#f73b6a7A"," "," ","1","-10","[1136.5]","1","0","4","","","","","","","",""
"pit-trial","85","649178","0.0-2.0-17.0-4.0","battery-v0.2","","""event"",""trial"",""time""
""fullscreenenter"",""1"",""2628""
","
","
","""event"",""trial"",""time""
""fullscreenenter"",""1"",""2628""
","
","","","231.90000009536743","","","15","10106","3596","&#9789;","elianto","#f73b6a7A"," "," ","1","0","[1084.2000002861023]","1","0","4","","","","","","","",""
"pit-trial","86","652298","0.0-2.0-17.1-0.1","battery-v0.2","","""event"",""trial"",""time""
""fullscreenenter"",""1"",""2628""
","
","
","""event"",""trial"",""time""
""fullscreenenter"",""1"",""2628""
","
","","","241.5","","","15","10106","3596","&#9789;","elianto","#f73b6a7A"," "," ","1","0","[1097.5]","1","0","4","","","","","","","",""
"pit-trial","87","655608","0.0-2.0-17.1-1.1","battery-v0.2","","""event"",""trial"",""time""
""fullscreenenter"",""1"",""2628""
","
","
","""event"",""trial"",""time""
""fullscreenenter"",""1"",""2628""
","
","","","438.90000009536743","","","15","10106","3596","&#9789;","elianto","#f73b6a7A"," "," ","1","0","[1298.6999998092651]","1","0","4","","","","","","","",""
"pit-trial","88","658883","0.0-2.0-17.1-2.1","battery-v0.2","","""event"",""trial"",""time""
""fullscreenenter"",""1"",""2628""
","
","
","""event"",""trial"",""time""
""fullscreenenter"",""1"",""2628""
","
","","","402.6000003814697","","","15","10106","3596","&#9789;","elianto","#f73b6a7A"," "," ","1","0","[1252.7000002861023]","1","0","4","","","","","","","",""
"pit-trial","89","662088","0.0-2.0-17.1-3.1","battery-v0.2","","""event"",""trial"",""time""
""fullscreenenter"",""1"",""2628""
","
","
","""event"",""trial"",""time""
""fullscreenenter"",""1"",""2628""
","
","","","336.30000019073486","","","15","10106","3596","&#9789;","elianto","#f73b6a7A"," "," ","1","-10","[1193.6000003814697]","1","0","4","","","","","","","",""
"pit-trial","90","665165","0.0-2.0-17.1-4.1","battery-v0.2","","""event"",""trial"",""time""
""fullscreenenter"",""1"",""2628""
","
","
","""event"",""trial"",""time""
""fullscreenenter"",""1"",""2628""
","
","","","220.30000019073486","","","15","10106","3596","&#9789;","elianto","#f73b6a7A"," "," ","1","0","[1073.5999999046326]","1","0","4","","","","","","","",""
"pit-trial","91","668377","0.0-2.0-17.2-0.2","battery-v0.2","","""event"",""trial"",""time""
""fullscreenenter"",""1"",""2628""
","
","
","""event"",""trial"",""time""
""fullscreenenter"",""1"",""2628""
","
","","","355.40000009536743","","","15","10106","3596","&#9789;","elianto","#f73b6a7A"," "," ","1","0","[1207]","1","0","4","","","","","","","",""
"pit-trial","92","671592","0.0-2.0-17.2-1.2","battery-v0.2","","""event"",""trial"",""time""
""fullscreenenter"",""1"",""2628""
","
","
","""event"",""trial"",""time""
""fullscreenenter"",""1"",""2628""
","
","","","360.69999980926514","","","15","10106","3596","&#9789;","elianto","#f73b6a7A"," "," ","1","0","[1211.1999998092651]","1","0","4","","","","","","","",""
"pit-trial","93","674665","0.0-2.0-17.2-2.2","battery-v0.2","","""event"",""trial"",""time""
""fullscreenenter"",""1"",""2628""
","
","
","""event"",""trial"",""time""
""fullscreenenter"",""1"",""2628""
","
","","","217.69999980926514","","","15","10106","3596","&#9789;","elianto","#f73b6a7A"," "," ","1","0","[1069.0999999046326]","1","0","4","","","","","","","",""
"pit-trial","94","678016","0.0-2.0-17.2-3.2","battery-v0.2","","""event"",""trial"",""time""
""fullscreenenter"",""1"",""2628""
","
","
","""event"",""trial"",""time""
""fullscreenenter"",""1"",""2628""
","
","","","496.59999990463257","","","15","10106","3596","&#9789;","elianto","#f73b6a7A"," "," ","1","-10","[1347.5999999046326]","1","0","4","","","","","","","",""
"pit-trial","95","681440","0.0-2.0-17.2-4.2","battery-v0.2","","""event"",""trial"",""time""
""fullscreenenter"",""1"",""2628""
","
","
","""event"",""trial"",""time""
""fullscreenenter"",""1"",""2628""
","
","","","569.5","","","15","10106","3596","&#9789;","elianto","#f73b6a7A"," "," ","1","0","[1420.2999997138977]","1","0","4","","","","","","","",""
"pit-trial","96","684855","0.0-2.0-17.3-0.3","battery-v0.2","","""event"",""trial"",""time""
""fullscreenenter"",""1"",""2628""
""fullscreenexit"",""97"",""687001""
","
","
","""event"",""trial"",""time""
""fullscreenenter"",""1"",""2628""
","""event"",""trial"",""time""
""fullscreenexit"",""97"",""687001""
","","","560.5","","","15","10106","3596","&#9789;","elianto","#f73b6a7A"," "," ","1","0","[1410.9000000953674]","1","0","4","","","","","","","",""
"pit-trial","97","688256","0.0-2.0-17.3-1.3","battery-v0.2","","""event"",""trial"",""time""
""fullscreenenter"",""1"",""2628""
""fullscreenexit"",""97"",""687001""
","
","
","""event"",""trial"",""time""
""fullscreenenter"",""1"",""2628""
","""event"",""trial"",""time""
""fullscreenexit"",""97"",""687001""
","","","546.4000000953674","","","15","10106","3596","&#9789;","elianto","#f73b6a7A"," "," ","1","0","[1396.7000002861023]","1","0","4","","","","","","","",""
"pit-trial","98","691351","0.0-2.0-17.3-2.3","battery-v0.2","","""event"",""trial"",""time""
""fullscreenenter"",""1"",""2628""
""fullscreenexit"",""97"",""687001""
","
","
","""event"",""trial"",""time""
""fullscreenenter"",""1"",""2628""
","""event"",""trial"",""time""
""fullscreenexit"",""97"",""687001""
","","","243.19999980926514","","","15","10106","3596","&#9789;","elianto","#f73b6a7A"," "," ","1","0","[1093.3000001907349]","1","0","4","","","","","","","",""
"pit-trial","99","694769","0.0-2.0-17.3-3.3","battery-v0.2","","""event"",""trial"",""time""
""fullscreenenter"",""1"",""2628""
""fullscreenexit"",""97"",""687001""
","
","
","""event"",""trial"",""time""
""fullscreenenter"",""1"",""2628""
","""event"",""trial"",""time""
""fullscreenexit"",""97"",""687001""
","","","562.8000001907349","","","15","10106","3596","&#9789;","elianto","#f73b6a7A"," "," ","1","-10","[1413.1999998092651]","1","0","4","","","","","","","",""
"pit-trial","100","697931","0.0-2.0-17.3-4.3","battery-v0.2","","""event"",""trial"",""time""
""fullscreenenter"",""1"",""2628""
""fullscreenexit"",""97"",""687001""
","
","
","""event"",""trial"",""time""
""fullscreenenter"",""1"",""2628""
","""event"",""trial"",""time""
""fullscreenexit"",""97"",""687001""
","","","303.30000019073486","","","15","10106","3596","&#9789;","elianto","#f73b6a7A"," "," ","1","0","[1155.2000002861023]","1","0","4","","","","","","","",""
"call-function","101","697934","0.0-2.0-18.0","battery-v0.2","","""event"",""trial"",""time""
""fullscreenenter"",""1"",""2628""
""fullscreenexit"",""97"",""687001""
""blur"",""102"",""700570""
""focus"",""102"",""716760""
","""event"",""trial"",""time""
""blur"",""102"",""700570""
","""event"",""trial"",""time""
""focus"",""102"",""716760""
","""event"",""trial"",""time""
""fullscreenenter"",""1"",""2628""
","""event"",""trial"",""time""
""fullscreenexit"",""97"",""687001""
","","","","","","","","","","","","","","","","","","","","","","","","","","",""
"pit-instructions","102","778046","0.0-2.0-19.0","battery-v0.2","","""event"",""trial"",""time""
""fullscreenenter"",""1"",""2628""
""fullscreenexit"",""97"",""687001""
""blur"",""102"",""700570""
""focus"",""102"",""716760""
","""event"",""trial"",""time""
""blur"",""102"",""700570""
","""event"",""trial"",""time""
""focus"",""102"",""716760""
","""event"",""trial"",""time""
""fullscreenenter"",""1"",""2628""
","""event"",""trial"",""time""
""fullscreenexit"",""97"",""687001""
","","[{""page_index"":0,""viewing_time"":19744.099999904633},{""page_index"":1,""viewing_time"":5519.5},{""page_index"":2,""viewing_time"":13175.800000190735},{""page_index"":3,""viewing_time"":7136},{""page_index"":4,""viewing_time"":8071.900000095367},{""page_index"":5,""viewing_time"":8215.900000095367},{""page_index"":6,""viewing_time"":8519.799999713898},{""page_index"":7,""viewing_time"":5695.800000190735},{""page_index"":8,""viewing_time"":4032.199999809265}]","80111.40000009537","","","","","","","","","","","","","","","","","","","","","","","",""
"pit-comprehension","103","782558","0.0-2.0-20.0-0.0","battery-v0.2","","""event"",""trial"",""time""
""fullscreenenter"",""1"",""2628""
""fullscreenexit"",""97"",""687001""
""blur"",""102"",""700570""
""focus"",""102"",""716760""
","""event"",""trial"",""time""
""blur"",""102"",""700570""
","""event"",""trial"",""time""
""focus"",""102"",""716760""
","""event"",""trial"",""time""
""fullscreenenter"",""1"",""2628""
","""event"",""trial"",""time""
""fullscreenexit"",""97"",""687001""
","","","4508.599999904633","[""SPACE""]","0","15","10106","3596","","","","","","","","","","","","","","","","","","",""
"pit-instructions","104","785878","0.0-2.0-20.0-1.0","battery-v0.2","","""event"",""trial"",""time""
""fullscreenenter"",""1"",""2628""
""fullscreenexit"",""97"",""687001""
""blur"",""102"",""700570""
""focus"",""102"",""716760""
","""event"",""trial"",""time""
""blur"",""102"",""700570""
","""event"",""trial"",""time""
""focus"",""102"",""716760""
","""event"",""trial"",""time""
""fullscreenenter"",""1"",""2628""
","""event"",""trial"",""time""
""fullscreenexit"",""97"",""687001""
","","[{""page_index"":0,""viewing_time"":3269.300000190735}]","3269.5999999046326","","","","","","","","","","","","","","","","","","","","","","","",""
"pit-comprehension","105","790598","0.0-2.0-21.0-0.0","battery-v0.2","","""event"",""trial"",""time""
""fullscreenenter"",""1"",""2628""
""fullscreenexit"",""97"",""687001""
""blur"",""102"",""700570""
""focus"",""102"",""716760""
","""event"",""trial"",""time""
""blur"",""102"",""700570""
","""event"",""trial"",""time""
""focus"",""102"",""716760""
","""event"",""trial"",""time""
""fullscreenenter"",""1"",""2628""
","""event"",""trial"",""time""
""fullscreenexit"",""97"",""687001""
","","","4716.400000095367","[""10""]","0","15","10106","3596","","","","","","","","","","","","","","","","","","",""
"pit-instructions","106","792597","0.0-2.0-21.0-1.0","battery-v0.2","","""event"",""trial"",""time""
""fullscreenenter"",""1"",""2628""
""fullscreenexit"",""97"",""687001""
""blur"",""102"",""700570""
""focus"",""102"",""716760""
","""event"",""trial"",""time""
""blur"",""102"",""700570""
","""event"",""trial"",""time""
""focus"",""102"",""716760""
","""event"",""trial"",""time""
""fullscreenenter"",""1"",""2628""
","""event"",""trial"",""time""
""fullscreenexit"",""97"",""687001""
","","[{""page_index"":0,""viewing_time"":1951.6999998092651}]","1952","","","","","","","","","","","","","","","","","","","","","","","",""
"pit-comprehension","107","799734","0.0-2.0-22.0-0.0","battery-v0.2","","""event"",""trial"",""time""
""fullscreenenter"",""1"",""2628""
""fullscreenexit"",""97"",""687001""
""blur"",""102"",""700570""
""focus"",""102"",""716760""
","""event"",""trial"",""time""
""blur"",""102"",""700570""
","""event"",""trial"",""time""
""focus"",""102"",""716760""
","""event"",""trial"",""time""
""fullscreenenter"",""1"",""2628""
","""event"",""trial"",""time""
""fullscreenexit"",""97"",""687001""
","","","7133.299999713898","[""0""]","0","15","10106","3596","","","","","","","","","","","","","","","","","","",""
"pit-instructions","108","801574","0.0-2.0-22.0-1.0","battery-v0.2","","""event"",""trial"",""time""
""fullscreenenter"",""1"",""2628""
""fullscreenexit"",""97"",""687001""
""blur"",""102"",""700570""
""focus"",""102"",""716760""
","""event"",""trial"",""time""
""blur"",""102"",""700570""
","""event"",""trial"",""time""
""focus"",""102"",""716760""
","""event"",""trial"",""time""
""fullscreenenter"",""1"",""2628""
","""event"",""trial"",""time""
""fullscreenexit"",""97"",""687001""
","","[{""page_index"":0,""viewing_time"":1790.4000000953674}]","1790.5999999046326","","","","","","","","","","","","","","","","","","","","","","","",""
"pit-comprehension","109","810222","0.0-2.0-23.0-0.0","battery-v0.2","","""event"",""trial"",""time""
""fullscreenenter"",""1"",""2628""
""fullscreenexit"",""97"",""687001""
""blur"",""102"",""700570""
""focus"",""102"",""716760""
","""event"",""trial"",""time""
""blur"",""102"",""700570""
","""event"",""trial"",""time""
""focus"",""102"",""716760""
","""event"",""trial"",""time""
""fullscreenenter"",""1"",""2628""
","""event"",""trial"",""time""
""fullscreenexit"",""97"",""687001""
","","","8645.39999961853","[""True""]","0","15","10106","3596","","","","","","","","","","","","","","","","","","",""
"pit-instructions","110","812405","0.0-2.0-23.0-1.0","battery-v0.2","","""event"",""trial"",""time""
""fullscreenenter"",""1"",""2628""
""fullscreenexit"",""97"",""687001""
""blur"",""102"",""700570""
""focus"",""102"",""716760""
","""event"",""trial"",""time""
""blur"",""102"",""700570""
","""event"",""trial"",""time""
""focus"",""102"",""716760""
","""event"",""trial"",""time""
""fullscreenenter"",""1"",""2628""
","""event"",""trial"",""time""
""fullscreenexit"",""97"",""687001""
","","[{""page_index"":0,""viewing_time"":2136.4000000953674}]","2136.7000002861023","","","","","","","","","","","","","","","","","","","","","","","",""
"pit-comprehension","111","820045","0.0-2.0-24.0-0.0","battery-v0.2","","""event"",""trial"",""time""
""fullscreenenter"",""1"",""2628""
""fullscreenexit"",""97"",""687001""
""blur"",""102"",""700570""
""focus"",""102"",""716760""
","""event"",""trial"",""time""
""blur"",""102"",""700570""
","""event"",""trial"",""time""
""focus"",""102"",""716760""
","""event"",""trial"",""time""
""fullscreenenter"",""1"",""2628""
","""event"",""trial"",""time""
""fullscreenexit"",""97"",""687001""
","","","7637.5","[""True""]","0","15","10106","3596","","","","","","","","","","","","","","","","","","",""
"pit-instructions","112","821901","0.0-2.0-24.0-1.0","battery-v0.2","","""event"",""trial"",""time""
""fullscreenenter"",""1"",""2628""
""fullscreenexit"",""97"",""687001""
""blur"",""102"",""700570""
""focus"",""102"",""716760""
","""event"",""trial"",""time""
""blur"",""102"",""700570""
","""event"",""trial"",""time""
""focus"",""102"",""716760""
","""event"",""trial"",""time""
""fullscreenenter"",""1"",""2628""
","""event"",""trial"",""time""
""fullscreenexit"",""97"",""687001""
","","[{""page_index"":0,""viewing_time"":1807.3999996185303}]","1807.5999999046326","","","","","","","","","","","","","","","","","","","","","","","",""
"pit-comprehension","113","828341","0.0-2.0-25.0-0.0","battery-v0.2","","""event"",""trial"",""time""
""fullscreenenter"",""1"",""2628""
""fullscreenexit"",""97"",""687001""
""blur"",""102"",""700570""
""focus"",""102"",""716760""
","""event"",""trial"",""time""
""blur"",""102"",""700570""
","""event"",""trial"",""time""
""focus"",""102"",""716760""
","""event"",""trial"",""time""
""fullscreenenter"",""1"",""2628""
","""event"",""trial"",""time""
""fullscreenexit"",""97"",""687001""
","","","6437.5","[""True""]","0","15","10106","3596","","","","","","","","","","","","","","","","","","",""
"pit-instructions","114","829965","0.0-2.0-25.0-1.0","battery-v0.2","","""event"",""trial"",""time""
""fullscreenenter"",""1"",""2628""
""fullscreenexit"",""97"",""687001""
""blur"",""102"",""700570""
""focus"",""102"",""716760""
","""event"",""trial"",""time""
""blur"",""102"",""700570""
","""event"",""trial"",""time""
""focus"",""102"",""716760""
","""event"",""trial"",""time""
""fullscreenenter"",""1"",""2628""
","""event"",""trial"",""time""
""fullscreenexit"",""97"",""687001""
","","[{""page_index"":0,""viewing_time"":1569.9000000953674}]","1570.0999999046326","","","","","","","","","","","","","","","","","","","","","","","",""
"pit-comprehension","115","836869","0.0-2.0-26.0-0.0","battery-v0.2","","""event"",""trial"",""time""
""fullscreenenter"",""1"",""2628""
""fullscreenexit"",""97"",""687001""
""blur"",""102"",""700570""
""focus"",""102"",""716760""
","""event"",""trial"",""time""
""blur"",""102"",""700570""
","""event"",""trial"",""time""
""focus"",""102"",""716760""
","""event"",""trial"",""time""
""fullscreenenter"",""1"",""2628""
","""event"",""trial"",""time""
""fullscreenexit"",""97"",""687001""
","","","6901.400000095367","[""False""]","0","15","10106","3596","","","","","","","","","","","","","","","","","","",""
"pit-instructions","116","838901","0.0-2.0-26.0-1.0","battery-v0.2","","""event"",""trial"",""time""
""fullscreenenter"",""1"",""2628""
""fullscreenexit"",""97"",""687001""
""blur"",""102"",""700570""
""focus"",""102"",""716760""
","""event"",""trial"",""time""
""blur"",""102"",""700570""
","""event"",""trial"",""time""
""focus"",""102"",""716760""
","""event"",""trial"",""time""
""fullscreenenter"",""1"",""2628""
","""event"",""trial"",""time""
""fullscreenexit"",""97"",""687001""
","","[{""page_index"":0,""viewing_time"":1981.6999998092651}]","1981.8999996185303","","","","","","","","","","","","","","","","","","","","","","","",""
"pit-instructions","117","856036","0.0-3.0","battery-v0.2","","""event"",""trial"",""time""
""fullscreenenter"",""1"",""2628""
""fullscreenexit"",""97"",""687001""
""blur"",""102"",""700570""
""focus"",""102"",""716760""
","""event"",""trial"",""time""
""blur"",""102"",""700570""
","""event"",""trial"",""time""
""focus"",""102"",""716760""
","""event"",""trial"",""time""
""fullscreenenter"",""1"",""2628""
","""event"",""trial"",""time""
""fullscreenexit"",""97"",""687001""
","","[{""page_index"":0,""viewing_time"":3949.6000003814697},{""page_index"":1,""viewing_time"":5239.89999961853},{""page_index"":2,""viewing_time"":7944}]","17133.700000286102","","","","","","","","","","","","","","","","","","","","","","","",""
"pit-trial","118","860915","0.0-4.0","battery-v0.2","","""event"",""trial"",""time""
""fullscreenenter"",""1"",""2628""
""fullscreenexit"",""97"",""687001""
""blur"",""102"",""700570""
""focus"",""102"",""716760""
","""event"",""trial"",""time""
""blur"",""102"",""700570""
","""event"",""trial"",""time""
""focus"",""102"",""716760""
","""event"",""trial"",""time""
""fullscreenenter"",""1"",""2628""
","""event"",""trial"",""time""
""fullscreenexit"",""97"",""687001""
","","","-1","","","15","10106","3596","&#9733;","elianto","#3366ff99","-1","-1","1","+10","[]","0","1","","","10106","1","2","2","win","no-go","0"
"pit-trial","119","864472","0.0-5.0","battery-v0.2","","""event"",""trial"",""time""
""fullscreenenter"",""1"",""2628""
""fullscreenexit"",""97"",""687001""
""blur"",""102"",""700570""
""focus"",""102"",""716760""
","""event"",""trial"",""time""
""blur"",""102"",""700570""
","""event"",""trial"",""time""
""focus"",""102"",""716760""
","""event"",""trial"",""time""
""fullscreenenter"",""1"",""2628""
","""event"",""trial"",""time""
""fullscreenexit"",""97"",""687001""
","","","690.0999999046326","","","15","10106","3596","&#9752;","elianto","#f73b6a7A"," "," ","1","0","[1550.2999997138977]","1","1","","","10106","2","3","3","lose","go","0"
"pit-trial","120","868310","0.0-6.0","battery-v0.2","","""event"",""trial"",""time""
""fullscreenenter"",""1"",""2628""
""fullscreenexit"",""97"",""687001""
""blur"",""102"",""700570""
""focus"",""102"",""716760""
","""event"",""trial"",""time""
""blur"",""102"",""700570""
","""event"",""trial"",""time""
""focus"",""102"",""716760""
","""event"",""trial"",""time""
""fullscreenenter"",""1"",""2628""
","""event"",""trial"",""time""
""fullscreenexit"",""97"",""687001""
","","","980.2999997138977","","","15","10106","3596","&#9730;","elianto","#3366ff99"," "," ","1","0","[1833.7999997138977]","1","1","","","10106","3","1","1","win","go","1"
"pit-trial","121","873180","0.0-7.0","battery-v0.2","","""event"",""trial"",""time""
""fullscreenenter"",""1"",""2628""
""fullscreenexit"",""97"",""687001""
""blur"",""102"",""700570""
""focus"",""102"",""716760""
","""event"",""trial"",""time""
""blur"",""102"",""700570""
","""event"",""trial"",""time""
""focus"",""102"",""716760""
","""event"",""trial"",""time""
""fullscreenenter"",""1"",""2628""
","""event"",""trial"",""time""
""fullscreenexit"",""97"",""687001""
","","","-1","","","15","10106","3596","&#9728;","elianto","#f73b6a7A","-1","-1","1","0","[]","0","1","","","10106","4","0","4","lose","no-go","0"
"pit-trial","122","877175","0.0-8.0","battery-v0.2","","""event"",""trial"",""time""
""fullscreenenter"",""1"",""2628""
""fullscreenexit"",""97"",""687001""
""blur"",""102"",""700570""
""focus"",""102"",""716760""
","""event"",""trial"",""time""
""blur"",""102"",""700570""
","""event"",""trial"",""time""
""focus"",""102"",""716760""
","""event"",""trial"",""time""
""fullscreenenter"",""1"",""2628""
","""event"",""trial"",""time""
""fullscreenexit"",""97"",""687001""
","","","1127.3000001907349","","","15","10106","3596","&#9752;","elianto","#f73b6a7A"," "," ","1","-10","[1989.6999998092651]","1","1","","","10106","5","3","3","lose","go","1"
"pit-trial","123","882054","0.0-9.0","battery-v0.2","","""event"",""trial"",""time""
""fullscreenenter"",""1"",""2628""
""fullscreenexit"",""97"",""687001""
""blur"",""102"",""700570""
""focus"",""102"",""716760""
","""event"",""trial"",""time""
""blur"",""102"",""700570""
","""event"",""trial"",""time""
""focus"",""102"",""716760""
","""event"",""trial"",""time""
""fullscreenenter"",""1"",""2628""
","""event"",""trial"",""time""
""fullscreenexit"",""97"",""687001""
","","","-1","","","15","10106","3596","&#9728;","elianto","#f73b6a7A","-1","-1","1","0","[]","0","1","","","10106","6","0","4","lose","no-go","0"
"pit-trial","124","885604","0.0-10.0","battery-v0.2","","""event"",""trial"",""time""
""fullscreenenter"",""1"",""2628""
""fullscreenexit"",""97"",""687001""
""blur"",""102"",""700570""
""focus"",""102"",""716760""
","""event"",""trial"",""time""
""blur"",""102"",""700570""
","""event"",""trial"",""time""
""focus"",""102"",""716760""
","""event"",""trial"",""time""
""fullscreenenter"",""1"",""2628""
","""event"",""trial"",""time""
""fullscreenexit"",""97"",""687001""
","","","682.8000001907349","","","15","10106","3596","&#9733;","elianto","#3366ff99","-1"," ","0","0","[1538.3000001907349]","1","1","","","10106","7","2","2","win","no-go","0"
"pit-trial","125","889651","0.0-11.0","battery-v0.2","","""event"",""trial"",""time""
""fullscreenenter"",""1"",""2628""
""fullscreenexit"",""97"",""687001""
""blur"",""102"",""700570""
""focus"",""102"",""716760""
","""event"",""trial"",""time""
""blur"",""102"",""700570""
","""event"",""trial"",""time""
""focus"",""102"",""716760""
","""event"",""trial"",""time""
""fullscreenenter"",""1"",""2628""
","""event"",""trial"",""time""
""fullscreenexit"",""97"",""687001""
","","","1193.3000001907349","","","15","10106","3596","&#9730;","elianto","#3366ff99"," "," ","1","+10","[2044.3000001907349]","1","1","","","10106","8","1","1","win","go","0"
"pit-trial","126","893243","0.0-12.0","battery-v0.2","","""event"",""trial"",""time""
""fullscreenenter"",""1"",""2628""
""fullscreenexit"",""97"",""687001""
""blur"",""102"",""700570""
""focus"",""102"",""716760""
","""event"",""trial"",""time""
""blur"",""102"",""700570""
","""event"",""trial"",""time""
""focus"",""102"",""716760""
","""event"",""trial"",""time""
""fullscreenenter"",""1"",""2628""
","""event"",""trial"",""time""
""fullscreenexit"",""97"",""687001""
","","","736.9000000953674","","","15","10106","3596","&#9730;","elianto","#3366ff99"," "," ","1","0","[1588.0999999046326]","1","1","","","10106","9","1","1","win","go","1"
"pit-trial","127","896843","0.0-13.0","battery-v0.2","","""event"",""trial"",""time""
""fullscreenenter"",""1"",""2628""
""fullscreenexit"",""97"",""687001""
""blur"",""102"",""700570""
""focus"",""102"",""716760""
","""event"",""trial"",""time""
""blur"",""102"",""700570""
","""event"",""trial"",""time""
""focus"",""102"",""716760""
","""event"",""trial"",""time""
""fullscreenenter"",""1"",""2628""
","""event"",""trial"",""time""
""fullscreenexit"",""97"",""687001""
","","","745.3000001907349","","","15","10106","3596","&#9733;","elianto","#3366ff99","-1"," ","0","0","[1596.7000002861023]","1","1","","","10106","10","2","2","win","no-go","0"
"pit-trial","128","901698","0.0-14.0","battery-v0.2","","""event"",""trial"",""time""
""fullscreenenter"",""1"",""2628""
""fullscreenexit"",""97"",""687001""
""blur"",""102"",""700570""
""focus"",""102"",""716760""
","""event"",""trial"",""time""
""blur"",""102"",""700570""
","""event"",""trial"",""time""
""focus"",""102"",""716760""
","""event"",""trial"",""time""
""fullscreenenter"",""1"",""2628""
","""event"",""trial"",""time""
""fullscreenexit"",""97"",""687001""
","","","-1","","","15","10106","3596","&#9728;","elianto","#f73b6a7A","-1","-1","1","0","[]","0","1","","","10106","11","0","4","lose","no-go","0"
"pit-trial","129","906553","0.0-15.0","battery-v0.2","","""event"",""trial"",""time""
""fullscreenenter"",""1"",""2628""
""fullscreenexit"",""97"",""687001""
""blur"",""102"",""700570""
""focus"",""102"",""716760""
","""event"",""trial"",""time""
""blur"",""102"",""700570""
","""event"",""trial"",""time""
""focus"",""102"",""716760""
","""event"",""trial"",""time""
""fullscreenenter"",""1"",""2628""
","""event"",""trial"",""time""
""fullscreenexit"",""97"",""687001""
","","","-1","","","15","10106","3596","&#9752;","elianto","#f73b6a7A"," ","-1","0","0","[]","0","1","","","10106","12","3","3","lose","go","1"
"pit-trial","130","911407","0.0-16.0","battery-v0.2","","""event"",""trial"",""time""
""fullscreenenter"",""1"",""2628""
""fullscreenexit"",""97"",""687001""
""blur"",""102"",""700570""
""focus"",""102"",""716760""
","""event"",""trial"",""time""
""blur"",""102"",""700570""
","""event"",""trial"",""time""
""focus"",""102"",""716760""
","""event"",""trial"",""time""
""fullscreenenter"",""1"",""2628""
","""event"",""trial"",""time""
""fullscreenexit"",""97"",""687001""
","","","-1","","","15","10106","3596","&#9728;","elianto","#f73b6a7A","-1","-1","1","0","[]","0","1","","","10106","13","0","4","lose","no-go","0"
"pit-trial","131","916261","0.0-17.0","battery-v0.2","","""event"",""trial"",""time""
""fullscreenenter"",""1"",""2628""
""fullscreenexit"",""97"",""687001""
""blur"",""102"",""700570""
""focus"",""102"",""716760""
","""event"",""trial"",""time""
""blur"",""102"",""700570""
","""event"",""trial"",""time""
""focus"",""102"",""716760""
","""event"",""trial"",""time""
""fullscreenenter"",""1"",""2628""
","""event"",""trial"",""time""
""fullscreenexit"",""97"",""687001""
","","","-1","","","15","10106","3596","&#9733;","elianto","#3366ff99","-1","-1","1","+10","[]","0","1","","","10106","14","2","2","win","no-go","0"
"pit-trial","132","921117","0.0-18.0","battery-v0.2","","""event"",""trial"",""time""
""fullscreenenter"",""1"",""2628""
""fullscreenexit"",""97"",""687001""
""blur"",""102"",""700570""
""focus"",""102"",""716760""
","""event"",""trial"",""time""
""blur"",""102"",""700570""
","""event"",""trial"",""time""
""focus"",""102"",""716760""
","""event"",""trial"",""time""
""fullscreenenter"",""1"",""2628""
","""event"",""trial"",""time""
""fullscreenexit"",""97"",""687001""
","","","-1","","","15","10106","3596","&#9752;","elianto","#f73b6a7A"," ","-1","0","-10","[]","0","1","","","10106","15","3","3","lose","go","0"
"pit-trial","133","925579","0.0-19.0","battery-v0.2","","""event"",""trial"",""time""
""fullscreenenter"",""1"",""2628""
""fullscreenexit"",""97"",""687001""
""blur"",""102"",""700570""
""focus"",""102"",""716760""
","""event"",""trial"",""time""
""blur"",""102"",""700570""
","""event"",""trial"",""time""
""focus"",""102"",""716760""
","""event"",""trial"",""time""
""fullscreenenter"",""1"",""2628""
","""event"",""trial"",""time""
""fullscreenexit"",""97"",""687001""
","","","1607.0999999046326","","","15","10106","3596","&#9730;","elianto","#3366ff99"," "," ","1","0","[2458.699999809265]","1","1","","","10106","16","1","1","win","go","1"
"pit-trial","134","930433","0.0-20.0","battery-v0.2","","""event"",""trial"",""time""
""fullscreenenter"",""1"",""2628""
""fullscreenexit"",""97"",""687001""
""blur"",""102"",""700570""
""focus"",""102"",""716760""
","""event"",""trial"",""time""
""blur"",""102"",""700570""
","""event"",""trial"",""time""
""focus"",""102"",""716760""
","""event"",""trial"",""time""
""fullscreenenter"",""1"",""2628""
","""event"",""trial"",""time""
""fullscreenexit"",""97"",""687001""
","","","-1","","","15","10106","3596","&#9730;","elianto","#3366ff99"," ","-1","0","0","[]","0","1","","","10106","17","1","1","win","go","0"
"pit-trial","135","935289","0.0-21.0","battery-v0.2","","""event"",""trial"",""time""
""fullscreenenter"",""1"",""2628""
""fullscreenexit"",""97"",""687001""
""blur"",""102"",""700570""
""focus"",""102"",""716760""
","""event"",""trial"",""time""
""blur"",""102"",""700570""
","""event"",""trial"",""time""
""focus"",""102"",""716760""
","""event"",""trial"",""time""
""fullscreenenter"",""1"",""2628""
","""event"",""trial"",""time""
""fullscreenexit"",""97"",""687001""
","","","-1","","","15","10106","3596","&#9733;","elianto","#3366ff99","-1","-1","1","+10","[]","0","1","","","10106","18","2","2","win","no-go","0"
"pit-trial","136","940164","0.0-22.0","battery-v0.2","","""event"",""trial"",""time""
""fullscreenenter"",""1"",""2628""
""fullscreenexit"",""97"",""687001""
""blur"",""102"",""700570""
""focus"",""102"",""716760""
","""event"",""trial"",""time""
""blur"",""102"",""700570""
","""event"",""trial"",""time""
""focus"",""102"",""716760""
","""event"",""trial"",""time""
""fullscreenenter"",""1"",""2628""
","""event"",""trial"",""time""
""fullscreenexit"",""97"",""687001""
","","","-1","","","15","10106","3596","&#9728;","elianto","#f73b6a7A","-1","-1","1","-10","[]","0","1","","","10106","19","0","4","lose","no-go","1"
"pit-trial","137","945018","0.0-23.0","battery-v0.2","","""event"",""trial"",""time""
""fullscreenenter"",""1"",""2628""
""fullscreenexit"",""97"",""687001""
""blur"",""102"",""700570""
""focus"",""102"",""716760""
","""event"",""trial"",""time""
""blur"",""102"",""700570""
","""event"",""trial"",""time""
""focus"",""102"",""716760""
","""event"",""trial"",""time""
""fullscreenenter"",""1"",""2628""
","""event"",""trial"",""time""
""fullscreenexit"",""97"",""687001""
","","","-1","","","15","10106","3596","&#9752;","elianto","#f73b6a7A"," ","-1","0","0","[]","0","1","","","10106","20","3","3","lose","go","1"
"pit-instructions","138","958915","0.0-24.0","battery-v0.2","","""event"",""trial"",""time""
""fullscreenenter"",""1"",""2628""
""fullscreenexit"",""97"",""687001""
""blur"",""102"",""700570""
""focus"",""102"",""716760""
","""event"",""trial"",""time""
""blur"",""102"",""700570""
","""event"",""trial"",""time""
""focus"",""102"",""716760""
","""event"",""trial"",""time""
""fullscreenenter"",""1"",""2628""
","""event"",""trial"",""time""
""fullscreenexit"",""97"",""687001""
","","[{""page_index"":0,""viewing_time"":7126.200000286102},{""page_index"":1,""viewing_time"":6767.799999713898}]","13894.200000286102","","","","","","","","","","","","","","","","","","","","","","","",""
"pit-trial","139","963439","0.0-25.0","battery-v0.2","","""event"",""trial"",""time""
""fullscreenenter"",""1"",""2628""
""fullscreenexit"",""97"",""687001""
""blur"",""102"",""700570""
""focus"",""102"",""716760""
","""event"",""trial"",""time""
""blur"",""102"",""700570""
","""event"",""trial"",""time""
""focus"",""102"",""716760""
","""event"",""trial"",""time""
""fullscreenenter"",""1"",""2628""
","""event"",""trial"",""time""
""fullscreenexit"",""97"",""687001""
","","","1655.6999998092651","","","15","10106","3596","b","elianto","#f73b6a7A"," "," ","1","0","[2516.300000190735]","1","2","","","10106","21","3","3","lose","go","0"
"pit-trial","140","968304","0.0-26.0","battery-v0.2","","""event"",""trial"",""time""
""fullscreenenter"",""1"",""2628""
""fullscreenexit"",""97"",""687001""
""blur"",""102"",""700570""
""focus"",""102"",""716760""
","""event"",""trial"",""time""
""blur"",""102"",""700570""
","""event"",""trial"",""time""
""focus"",""102"",""716760""
","""event"",""trial"",""time""
""fullscreenenter"",""1"",""2628""
","""event"",""trial"",""time""
""fullscreenexit"",""97"",""687001""
","","","-1","","","15","10106","3596","f","elianto","#3366ff99"," ","-1","0","+10","[]","0","2","","","10106","22","1","1","win","go","1"
"pit-trial","141","973184","0.0-27.0","battery-v0.2","","""event"",""trial"",""time""
""fullscreenenter"",""1"",""2628""
""fullscreenexit"",""97"",""687001""
""blur"",""102"",""700570""
""focus"",""102"",""716760""
","""event"",""trial"",""time""
""blur"",""102"",""700570""
","""event"",""trial"",""time""
""focus"",""102"",""716760""
","""event"",""trial"",""time""
""fullscreenenter"",""1"",""2628""
","""event"",""trial"",""time""
""fullscreenexit"",""97"",""687001""
","","","-1","","","15","10106","3596","t","elianto","#f73b6a7A","-1","-1","1","-10","[]","0","2","","","10106","23","2","4","lose","no-go","1"
"pit-trial","142","978054","0.0-28.0","battery-v0.2","","""event"",""trial"",""time""
""fullscreenenter"",""1"",""2628""
""fullscreenexit"",""97"",""687001""
""blur"",""102"",""700570""
""focus"",""102"",""716760""
","""event"",""trial"",""time""
""blur"",""102"",""700570""
","""event"",""trial"",""time""
""focus"",""102"",""716760""
","""event"",""trial"",""time""
""fullscreenenter"",""1"",""2628""
","""event"",""trial"",""time""
""fullscreenexit"",""97"",""687001""
","","","-1","","","15","10106","3596","n","elianto","#f73b6a7A","-1","-1","1","0","[]","0","2","","","10106","24","0","4","lose","no-go","0"
"pit-trial","143","982654","0.0-29.0","battery-v0.2","","""event"",""trial"",""time""
""fullscreenenter"",""1"",""2628""
""fullscreenexit"",""97"",""687001""
""blur"",""102"",""700570""
""focus"",""102"",""716760""
","""event"",""trial"",""time""
""blur"",""102"",""700570""
","""event"",""trial"",""time""
""focus"",""102"",""716760""
","""event"",""trial"",""time""
""fullscreenenter"",""1"",""2628""
","""event"",""trial"",""time""
""fullscreenexit"",""97"",""687001""
","","","1738.8000001907349","","","15","10106","3596","b","elianto","#f73b6a7A"," "," ","1","0","[2593]","1","2","","","10106","25","3","3","lose","go","0"
"pit-trial","144","986323","0.0-30.0","battery-v0.2","","""event"",""trial"",""time""
""fullscreenenter"",""1"",""2628""
""fullscreenexit"",""97"",""687001""
""blur"",""102"",""700570""
""focus"",""102"",""716760""
","""event"",""trial"",""time""
""blur"",""102"",""700570""
","""event"",""trial"",""time""
""focus"",""102"",""716760""
","""event"",""trial"",""time""
""fullscreenenter"",""1"",""2628""
","""event"",""trial"",""time""
""fullscreenexit"",""97"",""687001""
","","","810.6999998092651","","","15","10106","3596","f","elianto","#3366ff99"," "," ","1","+10","[1665.5999999046326]","1","2","","","10106","26","1","1","win","go","0"
"pit-trial","145","991178","0.0-31.0","battery-v0.2","","""event"",""trial"",""time""
""fullscreenenter"",""1"",""2628""
""fullscreenexit"",""97"",""687001""
""blur"",""102"",""700570""
""focus"",""102"",""716760""
","""event"",""trial"",""time""
""blur"",""102"",""700570""
","""event"",""trial"",""time""
""focus"",""102"",""716760""
","""event"",""trial"",""time""
""fullscreenenter"",""1"",""2628""
","""event"",""trial"",""time""
""fullscreenexit"",""97"",""687001""
","","","-1","","","15","10106","3596","t","elianto","#f73b6a7A","-1","-1","1","0","[3180.0999999046326]","1","2","","","10106","27","2","4","lose","no-go","0"
"pit-trial","146","996032","0.0-32.0","battery-v0.2","","""event"",""trial"",""time""
""fullscreenenter"",""1"",""2628""
""fullscreenexit"",""97"",""687001""
""blur"",""102"",""700570""
""focus"",""102"",""716760""
","""event"",""trial"",""time""
""blur"",""102"",""700570""
","""event"",""trial"",""time""
""focus"",""102"",""716760""
","""event"",""trial"",""time""
""fullscreenenter"",""1"",""2628""
","""event"",""trial"",""time""
""fullscreenexit"",""97"",""687001""
","","","-1","","","15","10106","3596","n","elianto","#f73b6a7A","-1","-1","1","0","[]","0","2","","","10106","28","0","4","lose","no-go","0"
"pit-trial","147","1000125","0.0-33.0","battery-v0.2","","""event"",""trial"",""time""
""fullscreenenter"",""1"",""2628""
""fullscreenexit"",""97"",""687001""
""blur"",""102"",""700570""
""focus"",""102"",""716760""
","""event"",""trial"",""time""
""blur"",""102"",""700570""
","""event"",""trial"",""time""
""focus"",""102"",""716760""
","""event"",""trial"",""time""
""fullscreenenter"",""1"",""2628""
","""event"",""trial"",""time""
""fullscreenexit"",""97"",""687001""
","","","1236.8999996185303","","","15","10106","3596","f","elianto","#3366ff99"," "," ","1","+10","[2087.2999997138977]","1","2","","","10106","29","1","1","win","go","0"
"pit-trial","148","1004979","0.0-34.0","battery-v0.2","","""event"",""trial"",""time""
""fullscreenenter"",""1"",""2628""
""fullscreenexit"",""97"",""687001""
""blur"",""102"",""700570""
""focus"",""102"",""716760""
","""event"",""trial"",""time""
""blur"",""102"",""700570""
","""event"",""trial"",""time""
""focus"",""102"",""716760""
","""event"",""trial"",""time""
""fullscreenenter"",""1"",""2628""
","""event"",""trial"",""time""
""fullscreenexit"",""97"",""687001""
","","","-1","","","15","10106","3596","t","elianto","#f73b6a7A","-1","-1","1","0","[]","0","2","","","10106","30","2","4","lose","no-go","0"
"pit-trial","149","1009834","0.0-35.0","battery-v0.2","","""event"",""trial"",""time""
""fullscreenenter"",""1"",""2628""
""fullscreenexit"",""97"",""687001""
""blur"",""102"",""700570""
""focus"",""102"",""716760""
","""event"",""trial"",""time""
""blur"",""102"",""700570""
","""event"",""trial"",""time""
""focus"",""102"",""716760""
","""event"",""trial"",""time""
""fullscreenenter"",""1"",""2628""
","""event"",""trial"",""time""
""fullscreenexit"",""97"",""687001""
","","","-1","","","15","10106","3596","n","elianto","#f73b6a7A","-1","-1","1","0","[]","0","2","","","10106","31","0","4","lose","no-go","0"
"pit-trial","150","1013940","0.0-36.0","battery-v0.2","","""event"",""trial"",""time""
""fullscreenenter"",""1"",""2628""
""fullscreenexit"",""97"",""687001""
""blur"",""102"",""700570""
""focus"",""102"",""716760""
","""event"",""trial"",""time""
""blur"",""102"",""700570""
","""event"",""trial"",""time""
""focus"",""102"",""716760""
","""event"",""trial"",""time""
""fullscreenenter"",""1"",""2628""
","""event"",""trial"",""time""
""fullscreenexit"",""97"",""687001""
","","","1250.5","","","15","10106","3596","b","elianto","#f73b6a7A"," "," ","1","0","[2102.199999809265]","1","2","","","10106","32","3","3","lose","go","0"
"pit-trial","151","1018797","0.0-37.0","battery-v0.2","","""event"",""trial"",""time""
""fullscreenenter"",""1"",""2628""
""fullscreenexit"",""97"",""687001""
""blur"",""102"",""700570""
""focus"",""102"",""716760""
","""event"",""trial"",""time""
""blur"",""102"",""700570""
","""event"",""trial"",""time""
""focus"",""102"",""716760""
","""event"",""trial"",""time""
""fullscreenenter"",""1"",""2628""
","""event"",""trial"",""time""
""fullscreenexit"",""97"",""687001""
","","","-1","","","15","10106","3596","n","elianto","#f73b6a7A","-1","-1","1","0","[]","0","2","","","10106","33","0","4","lose","no-go","0"
"pit-trial","152","1022669","0.0-38.0","battery-v0.2","","""event"",""trial"",""time""
""fullscreenenter"",""1"",""2628""
""fullscreenexit"",""97"",""687001""
""blur"",""102"",""700570""
""focus"",""102"",""716760""
","""event"",""trial"",""time""
""blur"",""102"",""700570""
","""event"",""trial"",""time""
""focus"",""102"",""716760""
","""event"",""trial"",""time""
""fullscreenenter"",""1"",""2628""
","""event"",""trial"",""time""
""fullscreenexit"",""97"",""687001""
","","","1015.6999998092651","","","15","10106","3596","f","elianto","#3366ff99"," "," ","1","+10","[1867.2999997138977]","1","2","","","10106","34","1","1","win","go","0"
"pit-trial","153","1027524","0.0-39.0","battery-v0.2","","""event"",""trial"",""time""
""fullscreenenter"",""1"",""2628""
""fullscreenexit"",""97"",""687001""
""blur"",""102"",""700570""
""focus"",""102"",""716760""
","""event"",""trial"",""time""
""blur"",""102"",""700570""
","""event"",""trial"",""time""
""focus"",""102"",""716760""
","""event"",""trial"",""time""
""fullscreenenter"",""1"",""2628""
","""event"",""trial"",""time""
""fullscreenexit"",""97"",""687001""
","","","-1","","","15","10106","3596","t","elianto","#f73b6a7A","-1","-1","1","0","[]","0","2","","","10106","35","2","4","lose","no-go","0"
"pit-trial","154","1031123","0.0-40.0","battery-v0.2","","""event"",""trial"",""time""
""fullscreenenter"",""1"",""2628""
""fullscreenexit"",""97"",""687001""
""blur"",""102"",""700570""
""focus"",""102"",""716760""
","""event"",""trial"",""time""
""blur"",""102"",""700570""
","""event"",""trial"",""time""
""focus"",""102"",""716760""
","""event"",""trial"",""time""
""fullscreenenter"",""1"",""2628""
","""event"",""trial"",""time""
""fullscreenexit"",""97"",""687001""
","","","744.9000000953674","","","15","10106","3596","b","elianto","#f73b6a7A"," "," ","1","-10","[1595.6000003814697]","1","2","","","10106","36","3","3","lose","go","1"
"pit-trial","155","1035979","0.0-41.0","battery-v0.2","","""event"",""trial"",""time""
""fullscreenenter"",""1"",""2628""
""fullscreenexit"",""97"",""687001""
""blur"",""102"",""700570""
""focus"",""102"",""716760""
","""event"",""trial"",""time""
""blur"",""102"",""700570""
","""event"",""trial"",""time""
""focus"",""102"",""716760""
","""event"",""trial"",""time""
""fullscreenenter"",""1"",""2628""
","""event"",""trial"",""time""
""fullscreenexit"",""97"",""687001""
","","","-1","","","15","10106","3596","t","elianto","#f73b6a7A","-1","-1","1","0","[]","0","2","","","10106","37","2","4","lose","no-go","0"
"pit-trial","156","1039732","0.0-42.0","battery-v0.2","","""event"",""trial"",""time""
""fullscreenenter"",""1"",""2628""
""fullscreenexit"",""97"",""687001""
""blur"",""102"",""700570""
""focus"",""102"",""716760""
","""event"",""trial"",""time""
""blur"",""102"",""700570""
","""event"",""trial"",""time""
""focus"",""102"",""716760""
","""event"",""trial"",""time""
""fullscreenenter"",""1"",""2628""
","""event"",""trial"",""time""
""fullscreenexit"",""97"",""687001""
","","","897.6999998092651","","","15","10106","3596","b","elianto","#f73b6a7A"," "," ","1","-10","[1748.9000000953674]","1","2","","","10106","38","3","3","lose","go","1"
"pit-trial","157","1044587","0.0-43.0","battery-v0.2","","""event"",""trial"",""time""
""fullscreenenter"",""1"",""2628""
""fullscreenexit"",""97"",""687001""
""blur"",""102"",""700570""
""focus"",""102"",""716760""
","""event"",""trial"",""time""
""blur"",""102"",""700570""
","""event"",""trial"",""time""
""focus"",""102"",""716760""
","""event"",""trial"",""time""
""fullscreenenter"",""1"",""2628""
","""event"",""trial"",""time""
""fullscreenexit"",""97"",""687001""
","","","-1","","","15","10106","3596","n","elianto","#f73b6a7A","-1","-1","1","-10","[]","0","2","","","10106","39","0","4","lose","no-go","1"
"pit-trial","158","1048260","0.0-44.0","battery-v0.2","","""event"",""trial"",""time""
""fullscreenenter"",""1"",""2628""
""fullscreenexit"",""97"",""687001""
""blur"",""102"",""700570""
""focus"",""102"",""716760""
","""event"",""trial"",""time""
""blur"",""102"",""700570""
","""event"",""trial"",""time""
""focus"",""102"",""716760""
","""event"",""trial"",""time""
""fullscreenenter"",""1"",""2628""
","""event"",""trial"",""time""
""fullscreenexit"",""97"",""687001""
","","","819.5","","","15","10106","3596","f","elianto","#3366ff99"," "," ","1","0","[1669.5999999046326]","1","2","","","10106","40","1","1","win","go","1"
"pit-trial","159","1053115","0.0-45.0","battery-v0.2","","""event"",""trial"",""time""
""fullscreenenter"",""1"",""2628""
""fullscreenexit"",""97"",""687001""
""blur"",""102"",""700570""
""focus"",""102"",""716760""
","""event"",""trial"",""time""
""blur"",""102"",""700570""
","""event"",""trial"",""time""
""focus"",""102"",""716760""
","""event"",""trial"",""time""
""fullscreenenter"",""1"",""2628""
","""event"",""trial"",""time""
""fullscreenexit"",""97"",""687001""
","","","-1","","","15","10106","3596","t","elianto","#f73b6a7A","-1","-1","1","0","[]","0","2","","","10106","41","2","4","lose","no-go","0"
"pit-trial","160","1057316","0.0-46.0","battery-v0.2","","""event"",""trial"",""time""
""fullscreenenter"",""1"",""2628""
""fullscreenexit"",""97"",""687001""
""blur"",""102"",""700570""
""focus"",""102"",""716760""
","""event"",""trial"",""time""
""blur"",""102"",""700570""
","""event"",""trial"",""time""
""focus"",""102"",""716760""
","""event"",""trial"",""time""
""fullscreenenter"",""1"",""2628""
","""event"",""trial"",""time""
""fullscreenexit"",""97"",""687001""
","","","1345.8000001907349","","","15","10106","3596","f","elianto","#3366ff99"," "," ","1","+10","[2196.300000190735]","1","2","","","10106","42","1","1","win","go","0"
"pit-trial","161","1062171","0.0-47.0","battery-v0.2","","""event"",""trial"",""time""
""fullscreenenter"",""1"",""2628""
""fullscreenexit"",""97"",""687001""
""blur"",""102"",""700570""
""focus"",""102"",""716760""
","""event"",""trial"",""time""
""blur"",""102"",""700570""
","""event"",""trial"",""time""
""focus"",""102"",""716760""
","""event"",""trial"",""time""
""fullscreenenter"",""1"",""2628""
","""event"",""trial"",""time""
""fullscreenexit"",""97"",""687001""
","","","-1","","","15","10106","3596","n","elianto","#f73b6a7A","-1","-1","1","0","[]","0","2","","","10106","43","0","4","lose","no-go","0"
"pit-trial","162","1066020","0.0-48.0","battery-v0.2","","""event"",""trial"",""time""
""fullscreenenter"",""1"",""2628""
""fullscreenexit"",""97"",""687001""
""blur"",""102"",""700570""
""focus"",""102"",""716760""
","""event"",""trial"",""time""
""blur"",""102"",""700570""
","""event"",""trial"",""time""
""focus"",""102"",""716760""
","""event"",""trial"",""time""
""fullscreenenter"",""1"",""2628""
","""event"",""trial"",""time""
""fullscreenexit"",""97"",""687001""
","","","994.8000001907349","","","15","10106","3596","b","elianto","#f73b6a7A"," "," ","1","0","[1844.9000000953674]","1","2","","","10106","44","3","3","lose","go","0"
"pit-trial","163","1069787","0.0-49.0","battery-v0.2","","""event"",""trial"",""time""
""fullscreenenter"",""1"",""2628""
""fullscreenexit"",""97"",""687001""
""blur"",""102"",""700570""
""focus"",""102"",""716760""
","""event"",""trial"",""time""
""blur"",""102"",""700570""
","""event"",""trial"",""time""
""focus"",""102"",""716760""
","""event"",""trial"",""time""
""fullscreenenter"",""1"",""2628""
","""event"",""trial"",""time""
""fullscreenexit"",""97"",""687001""
","","","912.4000000953674","","","15","10106","3596","c","elianto","#3366ff99","-1"," ","0","0","[1763.7999997138977]","1","2","","","10106","45","4","2","win","no-go","0"
"pit-trial","164","1073737","0.0-50.0","battery-v0.2","","""event"",""trial"",""time""
""fullscreenenter"",""1"",""2628""
""fullscreenexit"",""97"",""687001""
""blur"",""102"",""700570""
""focus"",""102"",""716760""
","""event"",""trial"",""time""
""blur"",""102"",""700570""
","""event"",""trial"",""time""
""focus"",""102"",""716760""
","""event"",""trial"",""time""
""fullscreenenter"",""1"",""2628""
","""event"",""trial"",""time""
""fullscreenexit"",""97"",""687001""
","","","1090","","","15","10106","3596","b","elianto","#f73b6a7A"," "," ","1","-10","[1941.4000000953674]","1","2","","","10106","46","3","3","lose","go","1"
"pit-trial","165","1078598","0.0-51.0","battery-v0.2","","""event"",""trial"",""time""
""fullscreenenter"",""1"",""2628""
""fullscreenexit"",""97"",""687001""
""blur"",""102"",""700570""
""focus"",""102"",""716760""
","""event"",""trial"",""time""
""blur"",""102"",""700570""
","""event"",""trial"",""time""
""focus"",""102"",""716760""
","""event"",""trial"",""time""
""fullscreenenter"",""1"",""2628""
","""event"",""trial"",""time""
""fullscreenexit"",""97"",""687001""
","","","-1","","","15","10106","3596","n","elianto","#f73b6a7A","-1","-1","1","0","[3846.300000190735]","1","2","","","10106","47","0","4","lose","no-go","0"
"pit-trial","166","1083453","0.0-52.0","battery-v0.2","","""event"",""trial"",""time""
""fullscreenenter"",""1"",""2628""
""fullscreenexit"",""97"",""687001""
""blur"",""102"",""700570""
""focus"",""102"",""716760""
","""event"",""trial"",""time""
""blur"",""102"",""700570""
","""event"",""trial"",""time""
""focus"",""102"",""716760""
","""event"",""trial"",""time""
""fullscreenenter"",""1"",""2628""
","""event"",""trial"",""time""
""fullscreenexit"",""97"",""687001""
","","","-1","","","15","10106","3596","t","elianto","#f73b6a7A","-1","-1","1","0","[]","0","2","","","10106","48","2","4","lose","no-go","0"
"pit-trial","167","1087075","0.0-53.0","battery-v0.2","","""event"",""trial"",""time""
""fullscreenenter"",""1"",""2628""
""fullscreenexit"",""97"",""687001""
""blur"",""102"",""700570""
""focus"",""102"",""716760""
","""event"",""trial"",""time""
""blur"",""102"",""700570""
","""event"",""trial"",""time""
""focus"",""102"",""716760""
","""event"",""trial"",""time""
""fullscreenenter"",""1"",""2628""
","""event"",""trial"",""time""
""fullscreenexit"",""97"",""687001""
","","","766.5","","","15","10106","3596","c","elianto","#3366ff99","-1"," ","0","0","[1618]","1","2","","","10106","49","4","2","win","no-go","0"
"pit-trial","168","1091929","0.0-54.0","battery-v0.2","","""event"",""trial"",""time""
""fullscreenenter"",""1"",""2628""
""fullscreenexit"",""97"",""687001""
""blur"",""102"",""700570""
""focus"",""102"",""716760""
","""event"",""trial"",""time""
""blur"",""102"",""700570""
","""event"",""trial"",""time""
""focus"",""102"",""716760""
","""event"",""trial"",""time""
""fullscreenenter"",""1"",""2628""
","""event"",""trial"",""time""
""fullscreenexit"",""97"",""687001""
","","","-1","","","15","10106","3596","n","elianto","#f73b6a7A","-1","-1","1","0","[]","0","2","","","10106","50","0","4","lose","no-go","0"
"pit-trial","169","1096784","0.0-55.0","battery-v0.2","","""event"",""trial"",""time""
""fullscreenenter"",""1"",""2628""
""fullscreenexit"",""97"",""687001""
""blur"",""102"",""700570""
""focus"",""102"",""716760""
","""event"",""trial"",""time""
""blur"",""102"",""700570""
","""event"",""trial"",""time""
""focus"",""102"",""716760""
","""event"",""trial"",""time""
""fullscreenenter"",""1"",""2628""
","""event"",""trial"",""time""
""fullscreenexit"",""97"",""687001""
","","","-1","","","15","10106","3596","b","elianto","#f73b6a7A"," ","-1","0","-10","[]","0","2","","","10106","51","3","3","lose","go","0"
"pit-trial","170","1100476","0.0-56.0","battery-v0.2","","""event"",""trial"",""time""
""fullscreenenter"",""1"",""2628""
""fullscreenexit"",""97"",""687001""
""blur"",""102"",""700570""
""focus"",""102"",""716760""
","""event"",""trial"",""time""
""blur"",""102"",""700570""
","""event"",""trial"",""time""
""focus"",""102"",""716760""
","""event"",""trial"",""time""
""fullscreenenter"",""1"",""2628""
","""event"",""trial"",""time""
""fullscreenexit"",""97"",""687001""
","","","837","","","15","10106","3596","f","elianto","#3366ff99"," "," ","1","0","[1688]","1","2","","","10106","52","1","1","win","go","1"
"pit-trial","171","1105331","0.0-57.0","battery-v0.2","","""event"",""trial"",""time""
""fullscreenenter"",""1"",""2628""
""fullscreenexit"",""97"",""687001""
""blur"",""102"",""700570""
""focus"",""102"",""716760""
","""event"",""trial"",""time""
""blur"",""102"",""700570""
","""event"",""trial"",""time""
""focus"",""102"",""716760""
","""event"",""trial"",""time""
""fullscreenenter"",""1"",""2628""
","""event"",""trial"",""time""
""fullscreenexit"",""97"",""687001""
","","","-1","","","15","10106","3596","c","elianto","#3366ff99","-1","-1","1","+10","[]","0","2","","","10106","53","4","2","win","no-go","0"
"pit-trial","172","1110186","0.0-58.0","battery-v0.2","","""event"",""trial"",""time""
""fullscreenenter"",""1"",""2628""
""fullscreenexit"",""97"",""687001""
""blur"",""102"",""700570""
""focus"",""102"",""716760""
","""event"",""trial"",""time""
""blur"",""102"",""700570""
","""event"",""trial"",""time""
""focus"",""102"",""716760""
","""event"",""trial"",""time""
""fullscreenenter"",""1"",""2628""
","""event"",""trial"",""time""
""fullscreenexit"",""97"",""687001""
","","","-1","","","15","10106","3596","n","elianto","#f73b6a7A","-1","-1","1","0","[]","0","2","","","10106","54","0","4","lose","no-go","0"
"pit-trial","173","1115040","0.0-59.0","battery-v0.2","","""event"",""trial"",""time""
""fullscreenenter"",""1"",""2628""
""fullscreenexit"",""97"",""687001""
""blur"",""102"",""700570""
""focus"",""102"",""716760""
","""event"",""trial"",""time""
""blur"",""102"",""700570""
","""event"",""trial"",""time""
""focus"",""102"",""716760""
","""event"",""trial"",""time""
""fullscreenenter"",""1"",""2628""
","""event"",""trial"",""time""
""fullscreenexit"",""97"",""687001""
","","","-1","","","15","10106","3596","f","elianto","#3366ff99"," ","-1","0","0","[]","0","2","","","10106","55","1","1","win","go","0"
"pit-trial","174","1119895","0.0-60.0","battery-v0.2","","""event"",""trial"",""time""
""fullscreenenter"",""1"",""2628""
""fullscreenexit"",""97"",""687001""
""blur"",""102"",""700570""
""focus"",""102"",""716760""
","""event"",""trial"",""time""
""blur"",""102"",""700570""
","""event"",""trial"",""time""
""focus"",""102"",""716760""
","""event"",""trial"",""time""
""fullscreenenter"",""1"",""2628""
","""event"",""trial"",""time""
""fullscreenexit"",""97"",""687001""
","","","-1","","","15","10106","3596","t","elianto","#f73b6a7A","-1","-1","1","0","[]","0","2","","","10106","56","2","4","lose","no-go","0"
"pit-trial","175","1124749","0.0-61.0","battery-v0.2","","""event"",""trial"",""time""
""fullscreenenter"",""1"",""2628""
""fullscreenexit"",""97"",""687001""
""blur"",""102"",""700570""
""focus"",""102"",""716760""
","""event"",""trial"",""time""
""blur"",""102"",""700570""
","""event"",""trial"",""time""
""focus"",""102"",""716760""
","""event"",""trial"",""time""
""fullscreenenter"",""1"",""2628""
","""event"",""trial"",""time""
""fullscreenexit"",""97"",""687001""
","","","-1","","","15","10106","3596","b","elianto","#f73b6a7A"," ","-1","0","-10","[3024.199999809265]","1","2","","","10106","57","3","3","lose","go","0"
"pit-trial","176","1128666","0.0-62.0","battery-v0.2","","""event"",""trial"",""time""
""fullscreenenter"",""1"",""2628""
""fullscreenexit"",""97"",""687001""
""blur"",""102"",""700570""
""focus"",""102"",""716760""
","""event"",""trial"",""time""
""blur"",""102"",""700570""
","""event"",""trial"",""time""
""focus"",""102"",""716760""
","""event"",""trial"",""time""
""fullscreenenter"",""1"",""2628""
","""event"",""trial"",""time""
""fullscreenexit"",""97"",""687001""
","","","1062.1999998092651","","","15","10106","3596","f","elianto","#3366ff99"," "," ","1","+10","[1913.5]","1","2","","","10106","58","1","1","win","go","0"
"pit-trial","177","1133521","0.0-63.0","battery-v0.2","","""event"",""trial"",""time""
""fullscreenenter"",""1"",""2628""
""fullscreenexit"",""97"",""687001""
""blur"",""102"",""700570""
""focus"",""102"",""716760""
","""event"",""trial"",""time""
""blur"",""102"",""700570""
","""event"",""trial"",""time""
""focus"",""102"",""716760""
","""event"",""trial"",""time""
""fullscreenenter"",""1"",""2628""
","""event"",""trial"",""time""
""fullscreenexit"",""97"",""687001""
","","","-1","","","15","10106","3596","n","elianto","#f73b6a7A","-1","-1","1","0","[]","0","2","","","10106","59","0","4","lose","no-go","0"
"pit-trial","178","1138375","0.0-64.0","battery-v0.2","","""event"",""trial"",""time""
""fullscreenenter"",""1"",""2628""
""fullscreenexit"",""97"",""687001""
""blur"",""102"",""700570""
""focus"",""102"",""716760""
","""event"",""trial"",""time""
""blur"",""102"",""700570""
","""event"",""trial"",""time""
""focus"",""102"",""716760""
","""event"",""trial"",""time""
""fullscreenenter"",""1"",""2628""
","""event"",""trial"",""time""
""fullscreenexit"",""97"",""687001""
","","","-1","","","15","10106","3596","c","elianto","#3366ff99","-1","-1","1","+10","[]","0","2","","","10106","60","4","2","win","no-go","0"
"pit-trial","179","1142395","0.0-65.0","battery-v0.2","","""event"",""trial"",""time""
""fullscreenenter"",""1"",""2628""
""fullscreenexit"",""97"",""687001""
""blur"",""102"",""700570""
""focus"",""102"",""716760""
","""event"",""trial"",""time""
""blur"",""102"",""700570""
","""event"",""trial"",""time""
""focus"",""102"",""716760""
","""event"",""trial"",""time""
""fullscreenenter"",""1"",""2628""
","""event"",""trial"",""time""
""fullscreenexit"",""97"",""687001""
","","","1164.5999999046326","","","15","10106","3596","b","elianto","#f73b6a7A"," "," ","1","0","[2015.6999998092651]","1","2","","","10106","61","3","3","lose","go","0"
"pit-trial","180","1147250","0.0-66.0","battery-v0.2","","""event"",""trial"",""time""
""fullscreenenter"",""1"",""2628""
""fullscreenexit"",""97"",""687001""
""blur"",""102"",""700570""
""focus"",""102"",""716760""
","""event"",""trial"",""time""
""blur"",""102"",""700570""
","""event"",""trial"",""time""
""focus"",""102"",""716760""
","""event"",""trial"",""time""
""fullscreenenter"",""1"",""2628""
","""event"",""trial"",""time""
""fullscreenexit"",""97"",""687001""
","","","-1","","","15","10106","3596","c","elianto","#3366ff99","-1","-1","1","+10","[]","0","2","","","10106","62","4","2","win","no-go","0"
"pit-trial","181","1151787","0.0-67.0","battery-v0.2","","""event"",""trial"",""time""
""fullscreenenter"",""1"",""2628""
""fullscreenexit"",""97"",""687001""
""blur"",""102"",""700570""
""focus"",""102"",""716760""
","""event"",""trial"",""time""
""blur"",""102"",""700570""
","""event"",""trial"",""time""
""focus"",""102"",""716760""
","""event"",""trial"",""time""
""fullscreenenter"",""1"",""2628""
","""event"",""trial"",""time""
""fullscreenexit"",""97"",""687001""
","","","1681","","","15","10106","3596","f","elianto","#3366ff99"," "," ","1","0","[2532.199999809265]","1","2","","","10106","63","1","1","win","go","1"
"pit-trial","182","1156641","0.0-68.0","battery-v0.2","","""event"",""trial"",""time""
""fullscreenenter"",""1"",""2628""
""fullscreenexit"",""97"",""687001""
""blur"",""102"",""700570""
""focus"",""102"",""716760""
","""event"",""trial"",""time""
""blur"",""102"",""700570""
","""event"",""trial"",""time""
""focus"",""102"",""716760""
","""event"",""trial"",""time""
""fullscreenenter"",""1"",""2628""
","""event"",""trial"",""time""
""fullscreenexit"",""97"",""687001""
","","","-1","","","15","10106","3596","t","elianto","#f73b6a7A","-1","-1","1","0","[]","0","2","","","10106","64","2","4","lose","no-go","0"
"pit-trial","183","1160434","0.0-69.0","battery-v0.2","","""event"",""trial"",""time""
""fullscreenenter"",""1"",""2628""
""fullscreenexit"",""97"",""687001""
""blur"",""102"",""700570""
""focus"",""102"",""716760""
","""event"",""trial"",""time""
""blur"",""102"",""700570""
","""event"",""trial"",""time""
""focus"",""102"",""716760""
","""event"",""trial"",""time""
""fullscreenenter"",""1"",""2628""
","""event"",""trial"",""time""
""fullscreenexit"",""97"",""687001""
","","","939.3000001907349","","","15","10106","3596","f","elianto","#3366ff99"," "," ","1","0","[1790.2000002861023]","1","2","","","10106","65","1","1","win","go","1"
"pit-trial","184","1165289","0.0-70.0","battery-v0.2","","""event"",""trial"",""time""
""fullscreenenter"",""1"",""2628""
""fullscreenexit"",""97"",""687001""
""blur"",""102"",""700570""
""focus"",""102"",""716760""
","""event"",""trial"",""time""
""blur"",""102"",""700570""
","""event"",""trial"",""time""
""focus"",""102"",""716760""
","""event"",""trial"",""time""
""fullscreenenter"",""1"",""2628""
","""event"",""trial"",""time""
""fullscreenexit"",""97"",""687001""
","","","-1","","","15","10106","3596","t","elianto","#f73b6a7A","-1","-1","1","0","[]","0","2","","","10106","66","2","4","lose","no-go","0"
"pit-trial","185","1170143","0.0-71.0","battery-v0.2","","""event"",""trial"",""time""
""fullscreenenter"",""1"",""2628""
""fullscreenexit"",""97"",""687001""
""blur"",""102"",""700570""
""focus"",""102"",""716760""
","""event"",""trial"",""time""
""blur"",""102"",""700570""
","""event"",""trial"",""time""
""focus"",""102"",""716760""
","""event"",""trial"",""time""
""fullscreenenter"",""1"",""2628""
","""event"",""trial"",""time""
""fullscreenexit"",""97"",""687001""
","","","-1","","","15","10106","3596","c","elianto","#3366ff99","-1","-1","1","0","[]","0","2","","","10106","67","4","2","win","no-go","1"
"pit-trial","186","1174323","0.0-72.0","battery-v0.2","","""event"",""trial"",""time""
""fullscreenenter"",""1"",""2628""
""fullscreenexit"",""97"",""687001""
""blur"",""102"",""700570""
""focus"",""102"",""716760""
","""event"",""trial"",""time""
""blur"",""102"",""700570""
","""event"",""trial"",""time""
""focus"",""102"",""716760""
","""event"",""trial"",""time""
""fullscreenenter"",""1"",""2628""
","""event"",""trial"",""time""
""fullscreenexit"",""97"",""687001""
","","","1324.3000001907349","","","15","10106","3596","b","elianto","#f73b6a7A"," "," ","1","0","[2176.0999999046326]","1","2","","","10106","68","3","3","lose","go","0"
"pit-trial","187","1178032","0.0-73.0","battery-v0.2","","""event"",""trial"",""time""
""fullscreenenter"",""1"",""2628""
""fullscreenexit"",""97"",""687001""
""blur"",""102"",""700570""
""focus"",""102"",""716760""
","""event"",""trial"",""time""
""blur"",""102"",""700570""
","""event"",""trial"",""time""
""focus"",""102"",""716760""
","""event"",""trial"",""time""
""fullscreenenter"",""1"",""2628""
","""event"",""trial"",""time""
""fullscreenexit"",""97"",""687001""
","","","849.8000001907349","","","15","10106","3596","b","elianto","#f73b6a7A"," "," ","1","0","[1700.3000001907349]","1","2","","","10106","69","3","3","lose","go","0"
"pit-trial","188","1182893","0.0-74.0","battery-v0.2","","""event"",""trial"",""time""
""fullscreenenter"",""1"",""2628""
""fullscreenexit"",""97"",""687001""
""blur"",""102"",""700570""
""focus"",""102"",""716760""
","""event"",""trial"",""time""
""blur"",""102"",""700570""
","""event"",""trial"",""time""
""focus"",""102"",""716760""
","""event"",""trial"",""time""
""fullscreenenter"",""1"",""2628""
","""event"",""trial"",""time""
""fullscreenexit"",""97"",""687001""
","","","-1","","","15","10106","3596","f","elianto","#3366ff99"," ","-1","0","+10","[]","0","2","","","10106","70","1","1","win","go","1"
"pit-trial","189","1187749","0.0-75.0","battery-v0.2","","""event"",""trial"",""time""
""fullscreenenter"",""1"",""2628""
""fullscreenexit"",""97"",""687001""
""blur"",""102"",""700570""
""focus"",""102"",""716760""
","""event"",""trial"",""time""
""blur"",""102"",""700570""
","""event"",""trial"",""time""
""focus"",""102"",""716760""
","""event"",""trial"",""time""
""fullscreenenter"",""1"",""2628""
","""event"",""trial"",""time""
""fullscreenexit"",""97"",""687001""
","","","-1","","","15","10106","3596","c","elianto","#3366ff99","-1","-1","1","0","[]","0","2","","","10106","71","4","2","win","no-go","1"
"pit-trial","190","1192049","0.0-76.0","battery-v0.2","","""event"",""trial"",""time""
""fullscreenenter"",""1"",""2628""
""fullscreenexit"",""97"",""687001""
""blur"",""102"",""700570""
""focus"",""102"",""716760""
","""event"",""trial"",""time""
""blur"",""102"",""700570""
","""event"",""trial"",""time""
""focus"",""102"",""716760""
","""event"",""trial"",""time""
""fullscreenenter"",""1"",""2628""
","""event"",""trial"",""time""
""fullscreenexit"",""97"",""687001""
","","","1444.4000000953674","","","15","10106","3596","z","elianto","#3366ff99"," "," ","1","+10","[2296.199999809265]","1","2","","","10106","72","5","1","win","go","0"
"pit-trial","191","1196917","0.0-77.0","battery-v0.2","","""event"",""trial"",""time""
""fullscreenenter"",""1"",""2628""
""fullscreenexit"",""97"",""687001""
""blur"",""102"",""700570""
""focus"",""102"",""716760""
","""event"",""trial"",""time""
""blur"",""102"",""700570""
","""event"",""trial"",""time""
""focus"",""102"",""716760""
","""event"",""trial"",""time""
""fullscreenenter"",""1"",""2628""
","""event"",""trial"",""time""
""fullscreenexit"",""97"",""687001""
","","","-1","","","15","10106","3596","c","elianto","#3366ff99","-1","-1","1","+10","[]","0","2","","","10106","73","4","2","win","no-go","0"
"pit-trial","192","1201772","0.0-78.0","battery-v0.2","","""event"",""trial"",""time""
""fullscreenenter"",""1"",""2628""
""fullscreenexit"",""97"",""687001""
""blur"",""102"",""700570""
""focus"",""102"",""716760""
","""event"",""trial"",""time""
""blur"",""102"",""700570""
","""event"",""trial"",""time""
""focus"",""102"",""716760""
","""event"",""trial"",""time""
""fullscreenenter"",""1"",""2628""
","""event"",""trial"",""time""
""fullscreenexit"",""97"",""687001""
","","","-1","","","15","10106","3596","f","elianto","#3366ff99"," ","-1","0","0","[]","0","2","","","10106","74","1","1","win","go","0"
"pit-trial","193","1205471","0.0-79.0","battery-v0.2","","""event"",""trial"",""time""
""fullscreenenter"",""1"",""2628""
""fullscreenexit"",""97"",""687001""
""blur"",""102"",""700570""
""focus"",""102"",""716760""
","""event"",""trial"",""time""
""blur"",""102"",""700570""
","""event"",""trial"",""time""
""focus"",""102"",""716760""
","""event"",""trial"",""time""
""fullscreenenter"",""1"",""2628""
","""event"",""trial"",""time""
""fullscreenexit"",""97"",""687001""
","","","838.0999999046326","","","15","10106","3596","b","elianto","#f73b6a7A"," "," ","1","-10","[1688.7000002861023]","1","2","","","10106","75","3","3","lose","go","1"
"pit-trial","194","1209250","0.0-80.0","battery-v0.2","","""event"",""trial"",""time""
""fullscreenenter"",""1"",""2628""
""fullscreenexit"",""97"",""687001""
""blur"",""102"",""700570""
""focus"",""102"",""716760""
","""event"",""trial"",""time""
""blur"",""102"",""700570""
","""event"",""trial"",""time""
""focus"",""102"",""716760""
","""event"",""trial"",""time""
""fullscreenenter"",""1"",""2628""
","""event"",""trial"",""time""
""fullscreenexit"",""97"",""687001""
","","","923.4000000953674","","","15","10106","3596","z","elianto","#3366ff99"," "," ","1","+10","[398.19999980926514,1774.0999999046326]","2","2","","","10106","76","5","1","win","go","0"
"pit-trial","195","1214104","0.0-81.0","battery-v0.2","","""event"",""trial"",""time""
""fullscreenenter"",""1"",""2628""
