"trial_type","trial_index","time_elapsed","internal_node_id","task_version","subject_id","interactions","blur_events","focus_events","fullscreenenter_events","fullscreenexit_events","success","view_history","rt","responses","num_errors","age","subject","participantId","rune","rune_set","hex","correct","choice","accuracy","outcome","keys","total_keys","block","practice","value","sub","trial","stimulus","robot","valence","action","sham"
"pavlovia","0","20","0.0-0.0","battery-v0.2","","""event"",""trial"",""time""
""fullscreenenter"",""1"",""2831""
","
","
","""event"",""trial"",""time""
""fullscreenenter"",""1"",""2831""
","
","","","","","","","","","","","","","","","","","","","","","","","","","","",""
"fullscreen","1","3818","0.0-1.0","battery-v0.2","","""event"",""trial"",""time""
""fullscreenenter"",""1"",""2831""
","
","
","""event"",""trial"",""time""
""fullscreenenter"",""1"",""2831""
","
","true","","","","","","","","","","","","","","","","","","","","","","","","","",""
"pit-instructions","2","9013","0.0-2.0-0.0","battery-v0.2","","""event"",""trial"",""time""
""fullscreenenter"",""1"",""2831""
","
","
","""event"",""trial"",""time""
""fullscreenenter"",""1"",""2831""
","
","","[{""page_index"":0,""viewing_time"":5189.70000000298}]","5190.20000000298","","","","","","","","","","","","","","","","","","","","","","","",""
"pit-comprehension","3","11658","0.0-2.0-1.0-0.0","battery-v0.2","","""event"",""trial"",""time""
""fullscreenenter"",""1"",""2831""
","
","
","""event"",""trial"",""time""
""fullscreenenter"",""1"",""2831""
","
","","","2639.89999999851","[""shark""]","0","25","15127","6064","","","","","","","","","","","","","","","","","","",""
"pit-instructions","4","14992","0.0-2.0-1.0-1.0","battery-v0.2","","""event"",""trial"",""time""
""fullscreenenter"",""1"",""2831""
","
","
","""event"",""trial"",""time""
""fullscreenenter"",""1"",""2831""
","
","","[{""page_index"":0,""viewing_time"":3325.5}]","3325.89999999851","","","","","","","","","","","","","","","","","","","","","","","",""
"pit-comprehension","5","18285","0.0-2.0-2.0-0.0","battery-v0.2","","""event"",""trial"",""time""
""fullscreenenter"",""1"",""2831""
","
","
","""event"",""trial"",""time""
""fullscreenenter"",""1"",""2831""
","
","","","3288.4000000059605","[""tiger""]","0","25","15127","6064","","","","","","","","","","","","","","","","","","",""
"pit-instructions","6","21851","0.0-2.0-2.0-1.0","battery-v0.2","","""event"",""trial"",""time""
""fullscreenenter"",""1"",""2831""
","
","
","""event"",""trial"",""time""
""fullscreenenter"",""1"",""2831""
","
","","[{""page_index"":0,""viewing_time"":3561.60000000149}]","3562","","","","","","","","","","","","","","","","","","","","","","","",""
"pit-instructions","7","128508","0.0-2.0-3.0","battery-v0.2","","""event"",""trial"",""time""
""fullscreenenter"",""1"",""2831""
","
","
","""event"",""trial"",""time""
""fullscreenenter"",""1"",""2831""
","
","","[{""page_index"":0,""viewing_time"":9709.09999999404},{""page_index"":1,""viewing_time"":9075.80000000447},{""page_index"":2,""viewing_time"":7045.60000000149},{""page_index"":3,""viewing_time"":6812.39999999851},{""page_index"":4,""viewing_time"":7427.5},{""page_index"":5,""viewing_time"":7732.10000000149},{""page_index"":6,""viewing_time"":8135.79999999702},{""page_index"":7,""viewing_time"":7630.39999999851},{""page_index"":8,""viewing_time"":6081},{""page_index"":9,""viewing_time"":8690.60000000149},{""page_index"":10,""viewing_time"":7496.20000000298},{""page_index"":11,""viewing_time"":7840.5999999940395},{""page_index"":12,""viewing_time"":6169.10000000149},{""page_index"":13,""viewing_time"":6808.60000000149}]","106655.19999999553","","","","","","","","","","","","","","","","","","","","","","","",""
"pit-trial","8","131944","0.0-2.0-4.0-0.0","battery-v0.2","","""event"",""trial"",""time""
""fullscreenenter"",""1"",""2831""
","
","
","""event"",""trial"",""time""
""fullscreenenter"",""1"",""2831""
","
","","","581.7000000029802","","","25","15127","6064","&#9784;","elianto","#FFFFF080"," "," ","1","&#10004","[1432.1999999955297]","1","0","0","","","","","","","",""
"pit-trial","9","135757","0.0-2.0-4.1-0.1","battery-v0.2","","""event"",""trial"",""time""
""fullscreenenter"",""1"",""2831""
","
","
","""event"",""trial"",""time""
""fullscreenenter"",""1"",""2831""
","
","","","956.3000000044703","","","25","15127","6064","&#9784;","elianto","#FFFFF080"," "," ","1","&#10004","[1807.6000000014901]","1","0","0","","","","","","","",""
"pit-trial","10","139660","0.0-2.0-4.2-0.2","battery-v0.2","","""event"",""trial"",""time""
""fullscreenenter"",""1"",""2831""
","
","
","""event"",""trial"",""time""
""fullscreenenter"",""1"",""2831""
","
","","","1048.1999999955297","","","25","15127","6064","&#9784;","elianto","#FFFFF080"," "," ","1","&#10004","[1898.5]","1","0","0","","","","","","","",""
"pit-trial","11","143584","0.0-2.0-4.3-0.3","battery-v0.2","","""event"",""trial"",""time""
""fullscreenenter"",""1"",""2831""
","
","
","""event"",""trial"",""time""
""fullscreenenter"",""1"",""2831""
","
","","","1068.7000000029802","","","25","15127","6064","&#9784;","elianto","#FFFFF080"," "," ","1","&#10004","[1920.6000000014901]","1","0","0","","","","","","","",""
"pit-trial","12","147327","0.0-2.0-4.4-0.4","battery-v0.2","","""event"",""trial"",""time""
""fullscreenenter"",""1"",""2831""
","
","
","""event"",""trial"",""time""
""fullscreenenter"",""1"",""2831""
","
","","","889.1000000014901","","","25","15127","6064","&#9784;","elianto","#FFFFF080"," "," ","1","&#10004","[1739.2999999970198]","1","0","0","","","","","","","",""
"pit-instructions","13","170504","0.0-2.0-5.0","battery-v0.2","","""event"",""trial"",""time""
""fullscreenenter"",""1"",""2831""
","
","
","""event"",""trial"",""time""
""fullscreenenter"",""1"",""2831""
","
","","[{""page_index"":0,""viewing_time"":5713.5999999940395},{""page_index"":1,""viewing_time"":5892.4000000059605},{""page_index"":2,""viewing_time"":5640.79999999702},{""page_index"":3,""viewing_time"":5926.20000000298}]","23173.19999999553","","","","","","","","","","","","","","","","","","","","","","","",""
"pit-trial","14","175359","0.0-2.0-6.0-0.0","battery-v0.2","","""event"",""trial"",""time""
""fullscreenenter"",""1"",""2831""
","
","
","""event"",""trial"",""time""
""fullscreenenter"",""1"",""2831""
","
","","","-1","","","25","15127","6064","&#9854;","elianto","#FFFFF080","-1","-1","1","&#10004","[]","0","0","1","","","","","","","",""
"pit-trial","15","180215","0.0-2.0-6.1-0.1","battery-v0.2","","""event"",""trial"",""time""
""fullscreenenter"",""1"",""2831""
","
","
","""event"",""trial"",""time""
""fullscreenenter"",""1"",""2831""
","
","","","-1","","","25","15127","6064","&#9854;","elianto","#FFFFF080","-1","-1","1","&#10004","[]","0","0","1","","","","","","","",""
"pit-trial","16","185070","0.0-2.0-6.2-0.2","battery-v0.2","","""event"",""trial"",""time""
""fullscreenenter"",""1"",""2831""
","
","
","""event"",""trial"",""time""
""fullscreenenter"",""1"",""2831""
","
","","","-1","","","25","15127","6064","&#9854;","elianto","#FFFFF080","-1","-1","1","&#10004","[]","0","0","1","","","","","","","",""
"pit-trial","17","189926","0.0-2.0-6.3-0.3","battery-v0.2","","""event"",""trial"",""time""
""fullscreenenter"",""1"",""2831""
","
","
","""event"",""trial"",""time""
""fullscreenenter"",""1"",""2831""
","
","","","-1","","","25","15127","6064","&#9854;","elianto","#FFFFF080","-1","-1","1","&#10004","[]","0","0","1","","","","","","","",""
"pit-trial","18","194781","0.0-2.0-6.4-0.4","battery-v0.2","","""event"",""trial"",""time""
""fullscreenenter"",""1"",""2831""
","
","
","""event"",""trial"",""time""
""fullscreenenter"",""1"",""2831""
","
","","","-1","","","25","15127","6064","&#9854;","elianto","#FFFFF080","-1","-1","1","&#10004","[]","0","0","1","","","","","","","",""
"pit-instructions","19","323314","0.0-2.0-7.0","battery-v0.2","","""event"",""trial"",""time""
""fullscreenenter"",""1"",""2831""
","
","
","""event"",""trial"",""time""
""fullscreenenter"",""1"",""2831""
","
","","[{""page_index"":0,""viewing_time"":5980.5},{""page_index"":1,""viewing_time"":7339.30000000447},{""page_index"":2,""viewing_time"":7031.79999999702},{""page_index"":3,""viewing_time"":7330.60000000149},{""page_index"":4,""viewing_time"":7925.79999999702},{""page_index"":5,""viewing_time"":6265.30000000447},{""page_index"":6,""viewing_time"":5160.10000000149},{""page_index"":7,""viewing_time"":8542.29999999702},{""page_index"":8,""viewing_time"":7246},{""page_index"":9,""viewing_time"":6481.5},{""page_index"":10,""viewing_time"":7466.89999999851},{""page_index"":11,""viewing_time"":5324.5},{""page_index"":12,""viewing_time"":7175.89999999851},{""page_index"":13,""viewing_time"":8638.40000000596},{""page_index"":14,""viewing_time"":7801.39999999851},{""page_index"":15,""viewing_time"":7297.19999999553},{""page_index"":16,""viewing_time"":7626},{""page_index"":17,""viewing_time"":7897.70000000298}]","128531.5","","","","","","","","","","","","","","","","","","","","","","","",""
"pit-trial","20","326967","0.0-2.0-8.0-0.0","battery-v0.2","","""event"",""trial"",""time""
""fullscreenenter"",""1"",""2831""
","
","
","""event"",""trial"",""time""
""fullscreenenter"",""1"",""2831""
","
","","","796.7999999970198","","","25","15127","6064","&#9776;","elianto","#3366ff99"," "," ","1","+10","[1648.6000000014901]","1","0","1","","","","","","","",""
"pit-trial","21","330708","0.0-2.0-8.0-1.0","battery-v0.2","","""event"",""trial"",""time""
""fullscreenenter"",""1"",""2831""
","
","
","""event"",""trial"",""time""
""fullscreenenter"",""1"",""2831""
","
","","","886.3999999985099","","","25","15127","6064","&#9776;","elianto","#3366ff99"," "," ","1","+10","[1737.6999999955297]","1","0","1","","","","","","","",""
"pit-trial","22","334393","0.0-2.0-8.0-2.0","battery-v0.2","","""event"",""trial"",""time""
""fullscreenenter"",""1"",""2831""
","
","
","""event"",""trial"",""time""
""fullscreenenter"",""1"",""2831""
","
","","","830.8999999985099","","","25","15127","6064","&#9776;","elianto","#3366ff99"," "," ","1","+10","[1681.7999999970198]","1","0","1","","","","","","","",""
"pit-trial","23","337901","0.0-2.0-8.0-3.0","battery-v0.2","","""event"",""trial"",""time""
""fullscreenenter"",""1"",""2831""
","
","
","""event"",""trial"",""time""
""fullscreenenter"",""1"",""2831""
","
","","","655.3000000044703","","","25","15127","6064","&#9776;","elianto","#3366ff99"," "," ","1","0","[1505.6000000014901]","1","0","1","","","","","","","",""
"pit-trial","24","341450","0.0-2.0-8.0-4.0","battery-v0.2","","""event"",""trial"",""time""
""fullscreenenter"",""1"",""2831""
","
","
","""event"",""trial"",""time""
""fullscreenenter"",""1"",""2831""
","
","","","695.1000000014901","","","25","15127","6064","&#9776;","elianto","#3366ff99"," "," ","1","+10","[1545.6000000014901]","1","0","1","","","","","","","",""
"pit-trial","25","345021","0.0-2.0-8.1-0.1","battery-v0.2","","""event"",""trial"",""time""
""fullscreenenter"",""1"",""2831""
","
","
","""event"",""trial"",""time""
""fullscreenenter"",""1"",""2831""
","
","","","717.3000000044703","","","25","15127","6064","&#9776;","elianto","#3366ff99"," "," ","1","+10","[1568]","1","0","1","","","","","","","",""
"pit-trial","26","348563","0.0-2.0-8.1-1.1","battery-v0.2","","""event"",""trial"",""time""
""fullscreenenter"",""1"",""2831""
","
","
","""event"",""trial"",""time""
""fullscreenenter"",""1"",""2831""
","
","","","687.1000000014901","","","25","15127","6064","&#9776;","elianto","#3366ff99"," "," ","1","+10","[1538]","1","0","1","","","","","","","",""
"pit-trial","27","352046","0.0-2.0-8.1-2.1","battery-v0.2","","""event"",""trial"",""time""
""fullscreenenter"",""1"",""2831""
","
","
","""event"",""trial"",""time""
""fullscreenenter"",""1"",""2831""
","
","","","627.6999999955297","","","25","15127","6064","&#9776;","elianto","#3366ff99"," "," ","1","+10","[1479.2999999970198]","1","0","1","","","","","","","",""
"pit-trial","28","355675","0.0-2.0-8.1-3.1","battery-v0.2","","""event"",""trial"",""time""
""fullscreenenter"",""1"",""2831""
","
","
","""event"",""trial"",""time""
""fullscreenenter"",""1"",""2831""
","
","","","775.3999999985099","","","25","15127","6064","&#9776;","elianto","#3366ff99"," "," ","1","0","[1625.6999999955297]","1","0","1","","","","","","","",""
"pit-trial","29","359205","0.0-2.0-8.1-4.1","battery-v0.2","","""event"",""trial"",""time""
""fullscreenenter"",""1"",""2831""
","
","
","""event"",""trial"",""time""
""fullscreenenter"",""1"",""2831""
","
","","","675.6999999955297","","","25","15127","6064","&#9776;","elianto","#3366ff99"," "," ","1","+10","[1526.6000000014901]","1","0","1","","","","","","","",""
"pit-trial","30","362689","0.0-2.0-8.2-0.2","battery-v0.2","","""event"",""trial"",""time""
""fullscreenenter"",""1"",""2831""
","
","
","""event"",""trial"",""time""
""fullscreenenter"",""1"",""2831""
","
","","","629.7000000029802","","","25","15127","6064","&#9776;","elianto","#3366ff99"," "," ","1","+10","[1480.5]","1","0","1","","","","","","","",""
"pit-trial","31","366197","0.0-2.0-8.2-1.2","battery-v0.2","","""event"",""trial"",""time""
""fullscreenenter"",""1"",""2831""
","
","
","""event"",""trial"",""time""
""fullscreenenter"",""1"",""2831""
","
","","","652.3999999985099","","","25","15127","6064","&#9776;","elianto","#3366ff99"," "," ","1","+10","[1503.8999999985099]","1","0","1","","","","","","","",""
"pit-trial","32","369651","0.0-2.0-8.2-2.2","battery-v0.2","","""event"",""trial"",""time""
""fullscreenenter"",""1"",""2831""
","
","
","""event"",""trial"",""time""
""fullscreenenter"",""1"",""2831""
","
","","","600.0999999940395","","","25","15127","6064","&#9776;","elianto","#3366ff99"," "," ","1","+10","[1450.3999999985099]","1","0","1","","","","","","","",""
"pit-trial","33","373184","0.0-2.0-8.2-3.2","battery-v0.2","","""event"",""trial"",""time""
""fullscreenenter"",""1"",""2831""
","
","
","""event"",""trial"",""time""
""fullscreenenter"",""1"",""2831""
","
","","","679.1000000014901","","","25","15127","6064","&#9776;","elianto","#3366ff99"," "," ","1","0","[1530]","1","0","1","","","","","","","",""
"pit-trial","34","376650","0.0-2.0-8.2-4.2","battery-v0.2","","""event"",""trial"",""time""
""fullscreenenter"",""1"",""2831""
","
","
","""event"",""trial"",""time""
""fullscreenenter"",""1"",""2831""
","
","","","611.8000000044703","","","25","15127","6064","&#9776;","elianto","#3366ff99"," "," ","1","+10","[1462.4000000059605]","1","0","1","","","","","","","",""
"call-function","35","376652","0.0-2.0-9.0","battery-v0.2","","""event"",""trial"",""time""
""fullscreenenter"",""1"",""2831""
","
","
","""event"",""trial"",""time""
""fullscreenenter"",""1"",""2831""
","
","","","","","","","","","","","","","","","","","","","","","","","","","","",""
"pit-instructions","36","418150","0.0-2.0-10.0","battery-v0.2","","""event"",""trial"",""time""
""fullscreenenter"",""1"",""2831""
","
","
","""event"",""trial"",""time""
""fullscreenenter"",""1"",""2831""
","
","","[{""page_index"":0,""viewing_time"":6700.29999999702},{""page_index"":1,""viewing_time"":7563.60000000149},{""page_index"":2,""viewing_time"":9696.30000000447},{""page_index"":3,""viewing_time"":9345.79999999702},{""page_index"":4,""viewing_time"":8191.39999999851}]","41497.79999999702","","","","","","","","","","","","","","","","","","","","","","","",""
"pit-trial","37","421654","0.0-2.0-11.0-0.0","battery-v0.2","","""event"",""trial"",""time""
""fullscreenenter"",""1"",""2831""
","
","
","""event"",""trial"",""time""
""fullscreenenter"",""1"",""2831""
","
","","","649.7000000029802","","","25","15127","6064","&#9761;","elianto","#3366ff99","-1"," ","0","0","[1500]","1","0","2","","","","","","","",""
"pit-trial","38","425188","0.0-2.0-11.0-1.0","battery-v0.2","","""event"",""trial"",""time""
""fullscreenenter"",""1"",""2831""
","
","
","""event"",""trial"",""time""
""fullscreenenter"",""1"",""2831""
","
","","","681.2000000029802","","","25","15127","6064","&#9761;","elianto","#3366ff99","-1"," ","0","0","[1531.8000000044703]","1","0","2","","","","","","","",""
"pit-trial","39","428633","0.0-2.0-11.0-2.0","battery-v0.2","","""event"",""trial"",""time""
""fullscreenenter"",""1"",""2831""
","
","
","""event"",""trial"",""time""
""fullscreenenter"",""1"",""2831""
","
","","","590.3999999985099","","","25","15127","6064","&#9761;","elianto","#3366ff99","-1"," ","0","0","[1441.6999999955297]","1","0","2","","","","","","","",""
"pit-trial","40","433488","0.0-2.0-11.0-3.0","battery-v0.2","","""event"",""trial"",""time""
""fullscreenenter"",""1"",""2831""
","
","
","""event"",""trial"",""time""
""fullscreenenter"",""1"",""2831""
","
","","","-1","","","25","15127","6064","&#9761;","elianto","#3366ff99","-1","-1","1","0","[]","0","0","2","","","","","","","",""
"pit-trial","41","438343","0.0-2.0-11.0-4.0","battery-v0.2","","""event"",""trial"",""time""
""fullscreenenter"",""1"",""2831""
","
","
","""event"",""trial"",""time""
""fullscreenenter"",""1"",""2831""
","
","","","-1","","","25","15127","6064","&#9761;","elianto","#3366ff99","-1","-1","1","+10","[]","0","0","2","","","","","","","",""
"pit-trial","42","443198","0.0-2.0-11.1-0.1","battery-v0.2","","""event"",""trial"",""time""
""fullscreenenter"",""1"",""2831""
","
","
","""event"",""trial"",""time""
""fullscreenenter"",""1"",""2831""
","
","","","-1","","","25","15127","6064","&#9761;","elianto","#3366ff99","-1","-1","1","+10","[]","0","0","2","","","","","","","",""
"pit-trial","43","446907","0.0-2.0-11.1-1.1","battery-v0.2","","""event"",""trial"",""time""
""fullscreenenter"",""1"",""2831""
","
","
","""event"",""trial"",""time""
""fullscreenenter"",""1"",""2831""
","
","","","856","","","25","15127","6064","&#9761;","elianto","#3366ff99","-1"," ","0","0","[1707]","1","0","2","","","","","","","",""
"pit-trial","44","450577","0.0-2.0-11.1-2.1","battery-v0.2","","""event"",""trial"",""time""
""fullscreenenter"",""1"",""2831""
","
","
","""event"",""trial"",""time""
""fullscreenenter"",""1"",""2831""
","
","","","817.3000000044703","","","25","15127","6064","&#9761;","elianto","#3366ff99","-1"," ","0","0","[1667.3999999985099]","1","0","2","","","","","","","",""
"pit-trial","45","455432","0.0-2.0-11.1-3.1","battery-v0.2","","""event"",""trial"",""time""
""fullscreenenter"",""1"",""2831""
","
","
","""event"",""trial"",""time""
""fullscreenenter"",""1"",""2831""
","
","","","-1","","","25","15127","6064","&#9761;","elianto","#3366ff99","-1","-1","1","0","[]","0","0","2","","","","","","","",""
"pit-trial","46","460287","0.0-2.0-11.1-4.1","battery-v0.2","","""event"",""trial"",""time""
""fullscreenenter"",""1"",""2831""
","
","
","""event"",""trial"",""time""
""fullscreenenter"",""1"",""2831""
","
","","","-1","","","25","15127","6064","&#9761;","elianto","#3366ff99","-1","-1","1","+10","[]","0","0","2","","","","","","","",""
"pit-trial","47","465142","0.0-2.0-11.2-0.2","battery-v0.2","","""event"",""trial"",""time""
""fullscreenenter"",""1"",""2831""
","
","
","""event"",""trial"",""time""
""fullscreenenter"",""1"",""2831""
","
","","","-1","","","25","15127","6064","&#9761;","elianto","#3366ff99","-1","-1","1","+10","[]","0","0","2","","","","","","","",""
"pit-trial","48","469997","0.0-2.0-11.2-1.2","battery-v0.2","","""event"",""trial"",""time""
""fullscreenenter"",""1"",""2831""
","
","
","""event"",""trial"",""time""
""fullscreenenter"",""1"",""2831""
","
","","","-1","","","25","15127","6064","&#9761;","elianto","#3366ff99","-1","-1","1","+10","[]","0","0","2","","","","","","","",""
"pit-trial","49","473657","0.0-2.0-11.2-2.2","battery-v0.2","","""event"",""trial"",""time""
""fullscreenenter"",""1"",""2831""
","
","
","""event"",""trial"",""time""
""fullscreenenter"",""1"",""2831""
","
","","","808","","","25","15127","6064","&#9761;","elianto","#3366ff99","-1"," ","0","0","[1658.6999999955297]","1","0","2","","","","","","","",""
"pit-trial","50","477147","0.0-2.0-11.2-3.2","battery-v0.2","","""event"",""trial"",""time""
""fullscreenenter"",""1"",""2831""
","
","
","""event"",""trial"",""time""
""fullscreenenter"",""1"",""2831""
","
","","","634.8999999985099","","","25","15127","6064","&#9761;","elianto","#3366ff99","-1"," ","0","+10","[1486.7000000029802]","1","0","2","","","","","","","",""
"pit-trial","51","480661","0.0-2.0-11.2-4.2","battery-v0.2","","""event"",""trial"",""time""
""fullscreenenter"",""1"",""2831""
","
","
","""event"",""trial"",""time""
""fullscreenenter"",""1"",""2831""
","
","","","659.3999999985099","","","25","15127","6064","&#9761;","elianto","#3366ff99","-1"," ","0","0","[1510]","1","0","2","","","","","","","",""
"pit-trial","52","484188","0.0-2.0-11.3-0.3","battery-v0.2","","""event"",""trial"",""time""
""fullscreenenter"",""1"",""2831""
","
","
","""event"",""trial"",""time""
""fullscreenenter"",""1"",""2831""
","
","","","671.8999999985099","","","25","15127","6064","&#9761;","elianto","#3366ff99","-1"," ","0","0","[1523]","1","0","2","","","","","","","",""
"pit-trial","53","489042","0.0-2.0-11.3-1.3","battery-v0.2","","""event"",""trial"",""time""
""fullscreenenter"",""1"",""2831""
","
","
","""event"",""trial"",""time""
""fullscreenenter"",""1"",""2831""
","
","","","-1","","","25","15127","6064","&#9761;","elianto","#3366ff99","-1","-1","1","+10","[]","0","0","2","","","","","","","",""
"pit-trial","54","493897","0.0-2.0-11.3-2.3","battery-v0.2","","""event"",""trial"",""time""
""fullscreenenter"",""1"",""2831""
","
","
","""event"",""trial"",""time""
""fullscreenenter"",""1"",""2831""
","
","","","-1","","","25","15127","6064","&#9761;","elianto","#3366ff99","-1","-1","1","+10","[]","0","0","2","","","","","","","",""
"pit-trial","55","498752","0.0-2.0-11.3-3.3","battery-v0.2","","""event"",""trial"",""time""
""fullscreenenter"",""1"",""2831""
","
","
","""event"",""trial"",""time""
""fullscreenenter"",""1"",""2831""
","
","","","-1","","","25","15127","6064","&#9761;","elianto","#3366ff99","-1","-1","1","0","[]","0","0","2","","","","","","","",""
"pit-trial","56","503607","0.0-2.0-11.3-4.3","battery-v0.2","","""event"",""trial"",""time""
""fullscreenenter"",""1"",""2831""
","
","
","""event"",""trial"",""time""
""fullscreenenter"",""1"",""2831""
","
","","","-1","","","25","15127","6064","&#9761;","elianto","#3366ff99","-1","-1","1","+10","[]","0","0","2","","","","","","","",""
"call-function","57","503608","0.0-2.0-12.0","battery-v0.2","","""event"",""trial"",""time""
""fullscreenenter"",""1"",""2831""
","
","
","""event"",""trial"",""time""
""fullscreenenter"",""1"",""2831""
","
","","","","","","","","","","","","","","","","","","","","","","","","","","",""
"pit-instructions","58","537892","0.0-2.0-13.0","battery-v0.2","","""event"",""trial"",""time""
""fullscreenenter"",""1"",""2831""
","
","
","""event"",""trial"",""time""
""fullscreenenter"",""1"",""2831""
","
","","[{""page_index"":0,""viewing_time"":5706.5},{""page_index"":1,""viewing_time"":7647.70000000298},{""page_index"":2,""viewing_time"":3728.89999999851},{""page_index"":3,""viewing_time"":11597.89999999851},{""page_index"":4,""viewing_time"":5602.20000000298}]","34283.5","","","","","","","","","","","","","","","","","","","","","","","",""
"pit-trial","59","541457","0.0-2.0-14.0-0.0","battery-v0.2","","""event"",""trial"",""time""
""fullscreenenter"",""1"",""2831""
","
","
","""event"",""trial"",""time""
""fullscreenenter"",""1"",""2831""
","
","","","710.2999999970198","","","25","15127","6064","&#9826;","elianto","#f73b6a7A","-1"," ","0","-10","[1561.2999999970198]","1","0","3","","","","","","","",""
"pit-trial","60","544953","0.0-2.0-14.0-1.0","battery-v0.2","","""event"",""trial"",""time""
""fullscreenenter"",""1"",""2831""
","
","
","""event"",""trial"",""time""
""fullscreenenter"",""1"",""2831""
","
","","","640.8999999985099","","","25","15127","6064","&#9826;","elianto","#f73b6a7A","-1"," ","0","-10","[1492.1999999955297]","1","0","3","","","","","","","",""
"pit-trial","61","548477","0.0-2.0-14.0-2.0","battery-v0.2","","""event"",""trial"",""time""
""fullscreenenter"",""1"",""2831""
","
","
","""event"",""trial"",""time""
""fullscreenenter"",""1"",""2831""
","
","","","670","","","25","15127","6064","&#9826;","elianto","#f73b6a7A","-1"," ","0","-10","[1522]","1","0","3","","","","","","","",""
"pit-trial","62","553332","0.0-2.0-14.0-3.0","battery-v0.2","","""event"",""trial"",""time""
""fullscreenenter"",""1"",""2831""
","
","
","""event"",""trial"",""time""
""fullscreenenter"",""1"",""2831""
","
","","","-1","","","25","15127","6064","&#9826;","elianto","#f73b6a7A","-1","-1","1","-10","[]","0","0","3","","","","","","","",""
"pit-trial","63","558188","0.0-2.0-14.0-4.0","battery-v0.2","","""event"",""trial"",""time""
""fullscreenenter"",""1"",""2831""
","
","
","""event"",""trial"",""time""
""fullscreenenter"",""1"",""2831""
","
","","","-1","","","25","15127","6064","&#9826;","elianto","#f73b6a7A","-1","-1","1","0","[]","0","0","3","","","","","","","",""
"pit-trial","64","563042","0.0-2.0-14.1-0.1","battery-v0.2","","""event"",""trial"",""time""
""fullscreenenter"",""1"",""2831""
","
","
","""event"",""trial"",""time""
""fullscreenenter"",""1"",""2831""
","
","","","-1","","","25","15127","6064","&#9826;","elianto","#f73b6a7A","-1","-1","1","0","[]","0","0","3","","","","","","","",""
"pit-trial","65","567896","0.0-2.0-14.1-1.1","battery-v0.2","","""event"",""trial"",""time""
""fullscreenenter"",""1"",""2831""
","
","
","""event"",""trial"",""time""
""fullscreenenter"",""1"",""2831""
","
","","","-1","","","25","15127","6064","&#9826;","elianto","#f73b6a7A","-1","-1","1","0","[]","0","0","3","","","","","","","",""
"pit-trial","66","572749","0.0-2.0-14.1-2.1","battery-v0.2","","""event"",""trial"",""time""
""fullscreenenter"",""1"",""2831""
","
","
","""event"",""trial"",""time""
""fullscreenenter"",""1"",""2831""
","
","","","-1","","","25","15127","6064","&#9826;","elianto","#f73b6a7A","-1","-1","1","0","[]","0","0","3","","","","","","","",""
"pit-trial","67","577605","0.0-2.0-14.1-3.1","battery-v0.2","","""event"",""trial"",""time""
""fullscreenenter"",""1"",""2831""
","
","
","""event"",""trial"",""time""
""fullscreenenter"",""1"",""2831""
","
","","","-1","","","25","15127","6064","&#9826;","elianto","#f73b6a7A","-1","-1","1","-10","[]","0","0","3","","","","","","","",""
"pit-trial","68","582460","0.0-2.0-14.1-4.1","battery-v0.2","","""event"",""trial"",""time""
""fullscreenenter"",""1"",""2831""
","
","
","""event"",""trial"",""time""
""fullscreenenter"",""1"",""2831""
","
","","","-1","","","25","15127","6064","&#9826;","elianto","#f73b6a7A","-1","-1","1","0","[]","0","0","3","","","","","","","",""
"pit-trial","69","587316","0.0-2.0-14.2-0.2","battery-v0.2","","""event"",""trial"",""time""
""fullscreenenter"",""1"",""2831""
","
","
","""event"",""trial"",""time""
""fullscreenenter"",""1"",""2831""
","
","","","-1","","","25","15127","6064","&#9826;","elianto","#f73b6a7A","-1","-1","1","0","[]","0","0","3","","","","","","","",""
"pit-trial","70","592169","0.0-2.0-14.2-1.2","battery-v0.2","","""event"",""trial"",""time""
""fullscreenenter"",""1"",""2831""
","
","
","""event"",""trial"",""time""
""fullscreenenter"",""1"",""2831""
","
","","","-1","","","25","15127","6064","&#9826;","elianto","#f73b6a7A","-1","-1","1","0","[]","0","0","3","","","","","","","",""
"pit-trial","71","597024","0.0-2.0-14.2-2.2","battery-v0.2","","""event"",""trial"",""time""
""fullscreenenter"",""1"",""2831""
","
","
","""event"",""trial"",""time""
""fullscreenenter"",""1"",""2831""
","
","","","-1","","","25","15127","6064","&#9826;","elianto","#f73b6a7A","-1","-1","1","0","[]","0","0","3","","","","","","","",""
"pit-trial","72","601877","0.0-2.0-14.2-3.2","battery-v0.2","","""event"",""trial"",""time""
""fullscreenenter"",""1"",""2831""
","
","
","""event"",""trial"",""time""
""fullscreenenter"",""1"",""2831""
","
","","","-1","","","25","15127","6064","&#9826;","elianto","#f73b6a7A","-1","-1","1","-10","[]","0","0","3","","","","","","","",""
"pit-trial","73","606733","0.0-2.0-14.2-4.2","battery-v0.2","","""event"",""trial"",""time""
""fullscreenenter"",""1"",""2831""
","
","
","""event"",""trial"",""time""
""fullscreenenter"",""1"",""2831""
","
","","","-1","","","25","15127","6064","&#9826;","elianto","#f73b6a7A","-1","-1","1","0","[]","0","0","3","","","","","","","",""
"pit-trial","74","611588","0.0-2.0-14.3-0.3","battery-v0.2","","""event"",""trial"",""time""
""fullscreenenter"",""1"",""2831""
","
","
","""event"",""trial"",""time""
""fullscreenenter"",""1"",""2831""
","
","","","-1","","","25","15127","6064","&#9826;","elianto","#f73b6a7A","-1","-1","1","0","[]","0","0","3","","","","","","","",""
"pit-trial","75","616443","0.0-2.0-14.3-1.3","battery-v0.2","","""event"",""trial"",""time""
""fullscreenenter"",""1"",""2831""
","
","
","""event"",""trial"",""time""
""fullscreenenter"",""1"",""2831""
","
","","","-1","","","25","15127","6064","&#9826;","elianto","#f73b6a7A","-1","-1","1","0","[]","0","0","3","","","","","","","",""
"pit-trial","76","621298","0.0-2.0-14.3-2.3","battery-v0.2","","""event"",""trial"",""time""
""fullscreenenter"",""1"",""2831""
","
","
","""event"",""trial"",""time""
""fullscreenenter"",""1"",""2831""
","
","","","-1","","","25","15127","6064","&#9826;","elianto","#f73b6a7A","-1","-1","1","0","[]","0","0","3","","","","","","","",""
"pit-trial","77","626153","0.0-2.0-14.3-3.3","battery-v0.2","","""event"",""trial"",""time""
""fullscreenenter"",""1"",""2831""
","
","
","""event"",""trial"",""time""
""fullscreenenter"",""1"",""2831""
","
","","","-1","","","25","15127","6064","&#9826;","elianto","#f73b6a7A","-1","-1","1","-10","[]","0","0","3","","","","","","","",""
"pit-trial","78","631007","0.0-2.0-14.3-4.3","battery-v0.2","","""event"",""trial"",""time""
""fullscreenenter"",""1"",""2831""
","
","
","""event"",""trial"",""time""
""fullscreenenter"",""1"",""2831""
","
","","","-1","","","25","15127","6064","&#9826;","elianto","#f73b6a7A","-1","-1","1","0","[]","0","0","3","","","","","","","",""
"call-function","79","631009","0.0-2.0-15.0","battery-v0.2","","""event"",""trial"",""time""
""fullscreenenter"",""1"",""2831""
","
","
","""event"",""trial"",""time""
""fullscreenenter"",""1"",""2831""
","
","","","","","","","","","","","","","","","","","","","","","","","","","","",""
"pit-instructions","80","657984","0.0-2.0-16.0","battery-v0.2","","""event"",""trial"",""time""
""fullscreenenter"",""1"",""2831""
","
","
","""event"",""trial"",""time""
""fullscreenenter"",""1"",""2831""
","
","","[{""page_index"":0,""viewing_time"":7325.10000000149},{""page_index"":1,""viewing_time"":8875.89999999851},{""page_index"":2,""viewing_time"":5188.60000000149},{""page_index"":3,""viewing_time"":5584.60000000149}]","26974.40000000596","","","","","","","","","","","","","","","","","","","","","","","",""
"pit-trial","81","661474","0.0-2.0-17.0-0.0","battery-v0.2","","""event"",""trial"",""time""
""fullscreenenter"",""1"",""2831""
","
","
","""event"",""trial"",""time""
""fullscreenenter"",""1"",""2831""
","
","","","636.6000000014901","","","25","15127","6064","&#9789;","elianto","#f73b6a7A"," "," ","1","0","[1486.8999999985099]","1","0","4","","","","","","","",""
"pit-trial","82","665099","0.0-2.0-17.0-1.0","battery-v0.2","","""event"",""trial"",""time""
""fullscreenenter"",""1"",""2831""
","
","
","""event"",""trial"",""time""
""fullscreenenter"",""1"",""2831""
","
","","","770.7999999970198","","","25","15127","6064","&#9789;","elianto","#f73b6a7A"," "," ","1","0","[1622.5999999940395]","1","0","4","","","","","","","",""
"pit-trial","83","668614","0.0-2.0-17.0-2.0","battery-v0.2","","""event"",""trial"",""time""
""fullscreenenter"",""1"",""2831""
","
","
","""event"",""trial"",""time""
""fullscreenenter"",""1"",""2831""
","
","","","659.3999999985099","","","25","15127","6064","&#9789;","elianto","#f73b6a7A"," "," ","1","0","[1510.3999999985099]","1","0","4","","","","","","","",""
"pit-trial","84","672136","0.0-2.0-17.0-3.0","battery-v0.2","","""event"",""trial"",""time""
""fullscreenenter"",""1"",""2831""
","
","
","""event"",""trial"",""time""
""fullscreenenter"",""1"",""2831""
","
","","","667.7000000029802","","","25","15127","6064","&#9789;","elianto","#f73b6a7A"," "," ","1","-10","[1518.8999999985099]","1","0","4","","","","","","","",""
"pit-trial","85","675610","0.0-2.0-17.0-4.0","battery-v0.2","","""event"",""trial"",""time""
""fullscreenenter"",""1"",""2831""
","
","
","""event"",""trial"",""time""
""fullscreenenter"",""1"",""2831""
","
","","","619.3000000044703","","","25","15127","6064","&#9789;","elianto","#f73b6a7A"," "," ","1","0","[1470.5]","1","0","4","","","","","","","",""
"pit-trial","86","679062","0.0-2.0-17.1-0.1","battery-v0.2","","""event"",""trial"",""time""
""fullscreenenter"",""1"",""2831""
","
","
","""event"",""trial"",""time""
""fullscreenenter"",""1"",""2831""
","
","","","596.2000000029802","","","25","15127","6064","&#9789;","elianto","#f73b6a7A"," "," ","1","0","[1446.7999999970198]","1","0","4","","","","","","","",""
"pit-trial","87","682569","0.0-2.0-17.1-1.1","battery-v0.2","","""event"",""trial"",""time""
""fullscreenenter"",""1"",""2831""
","
","
","""event"",""trial"",""time""
""fullscreenenter"",""1"",""2831""
","
","","","652.5","","","25","15127","6064","&#9789;","elianto","#f73b6a7A"," "," ","1","0","[1504]","1","0","4","","","","","","","",""
"pit-trial","88","686042","0.0-2.0-17.1-2.1","battery-v0.2","","""event"",""trial"",""time""
""fullscreenenter"",""1"",""2831""
","
","
","""event"",""trial"",""time""
""fullscreenenter"",""1"",""2831""
","
","","","618.7999999970198","","","25","15127","6064","&#9789;","elianto","#f73b6a7A"," "," ","1","0","[1470.1999999955297]","1","0","4","","","","","","","",""
"pit-trial","89","689533","0.0-2.0-17.1-3.1","battery-v0.2","","""event"",""trial"",""time""
""fullscreenenter"",""1"",""2831""
","
","
","""event"",""trial"",""time""
""fullscreenenter"",""1"",""2831""
","
","","","636.2999999970198","","","25","15127","6064","&#9789;","elianto","#f73b6a7A"," "," ","1","-10","[1487]","1","0","4","","","","","","","",""
"pit-trial","90","692938","0.0-2.0-17.1-4.1","battery-v0.2","","""event"",""trial"",""time""
""fullscreenenter"",""1"",""2831""
","
","
","""event"",""trial"",""time""
""fullscreenenter"",""1"",""2831""
","
","","","551.3999999985099","","","25","15127","6064","&#9789;","elianto","#f73b6a7A"," "," ","1","0","[1402.6999999955297]","1","0","4","","","","","","","",""
"pit-trial","91","696360","0.0-2.0-17.2-0.2","battery-v0.2","","""event"",""trial"",""time""
""fullscreenenter"",""1"",""2831""
","
","
","""event"",""trial"",""time""
""fullscreenenter"",""1"",""2831""
","
","","","568.7999999970198","","","25","15127","6064","&#9789;","elianto","#f73b6a7A"," "," ","1","0","[1419.1999999955297]","1","0","4","","","","","","","",""
"pit-trial","92","699916","0.0-2.0-17.2-1.2","battery-v0.2","","""event"",""trial"",""time""
""fullscreenenter"",""1"",""2831""
","
","
","""event"",""trial"",""time""
""fullscreenenter"",""1"",""2831""
","
","","","702.6000000014901","","","25","15127","6064","&#9789;","elianto","#f73b6a7A"," "," ","1","0","[1553]","1","0","4","","","","","","","",""
"pit-trial","93","703427","0.0-2.0-17.2-2.2","battery-v0.2","","""event"",""trial"",""time""
""fullscreenenter"",""1"",""2831""
","
","
","""event"",""trial"",""time""
""fullscreenenter"",""1"",""2831""
","
","","","657.8999999985099","","","25","15127","6064","&#9789;","elianto","#f73b6a7A"," "," ","1","0","[1508.1000000014901]","1","0","4","","","","","","","",""
"pit-trial","94","706858","0.0-2.0-17.2-3.2","battery-v0.2","","""event"",""trial"",""time""
""fullscreenenter"",""1"",""2831""
","
","
","""event"",""trial"",""time""
""fullscreenenter"",""1"",""2831""
","
","","","577.6000000014901","","","25","15127","6064","&#9789;","elianto","#f73b6a7A"," "," ","1","-10","[1428.7000000029802]","1","0","4","","","","","","","",""
"pit-trial","95","710347","0.0-2.0-17.2-4.2","battery-v0.2","","""event"",""trial"",""time""
""fullscreenenter"",""1"",""2831""
","
","
","""event"",""trial"",""time""
""fullscreenenter"",""1"",""2831""
","
","","","635.7999999970198","","","25","15127","6064","&#9789;","elianto","#f73b6a7A"," "," ","1","0","[1486.3999999985099]","1","0","4","","","","","","","",""
"pit-trial","96","713785","0.0-2.0-17.3-0.3","battery-v0.2","","""event"",""trial"",""time""
""fullscreenenter"",""1"",""2831""
","
","
","""event"",""trial"",""time""
""fullscreenenter"",""1"",""2831""
","
","","","584.3999999985099","","","25","15127","6064","&#9789;","elianto","#f73b6a7A"," "," ","1","0","[1435.6000000014901]","1","0","4","","","","","","","",""
"pit-trial","97","717226","0.0-2.0-17.3-1.3","battery-v0.2","","""event"",""trial"",""time""
""fullscreenenter"",""1"",""2831""
","
","
","""event"",""trial"",""time""
""fullscreenenter"",""1"",""2831""
","
","","","586.6999999955297","","","25","15127","6064","&#9789;","elianto","#f73b6a7A"," "," ","1","0","[1437.5]","1","0","4","","","","","","","",""
"pit-trial","98","720667","0.0-2.0-17.3-2.3","battery-v0.2","","""event"",""trial"",""time""
""fullscreenenter"",""1"",""2831""
","
","
","""event"",""trial"",""time""
""fullscreenenter"",""1"",""2831""
","
","","","586.6000000014901","","","25","15127","6064","&#9789;","elianto","#f73b6a7A"," "," ","1","0","[1438.1000000014901]","1","0","4","","","","","","","",""
"pit-trial","99","724179","0.0-2.0-17.3-3.3","battery-v0.2","","""event"",""trial"",""time""
""fullscreenenter"",""1"",""2831""
","
","
","""event"",""trial"",""time""
""fullscreenenter"",""1"",""2831""
","
","","","656.6000000014901","","","25","15127","6064","&#9789;","elianto","#f73b6a7A"," "," ","1","-10","[1507.8000000044703]","1","0","4","","","","","","","",""
"pit-trial","100","727618","0.0-2.0-17.3-4.3","battery-v0.2","","""event"",""trial"",""time""
""fullscreenenter"",""1"",""2831""
","
","
","""event"",""trial"",""time""
""fullscreenenter"",""1"",""2831""
","
","","","584.7000000029802","","","25","15127","6064","&#9789;","elianto","#f73b6a7A"," "," ","1","0","[1436.1000000014901]","1","0","4","","","","","","","",""
"call-function","101","727620","0.0-2.0-18.0","battery-v0.2","","""event"",""trial"",""time""
""fullscreenenter"",""1"",""2831""
","
","
","""event"",""trial"",""time""
""fullscreenenter"",""1"",""2831""
","
","","","","","","","","","","","","","","","","","","","","","","","","","","",""
"pit-instructions","102","799245","0.0-2.0-19.0","battery-v0.2","","""event"",""trial"",""time""
""fullscreenenter"",""1"",""2831""
","
","
","""event"",""trial"",""time""
""fullscreenenter"",""1"",""2831""
","
","","[{""page_index"":0,""viewing_time"":6632.5},{""page_index"":1,""viewing_time"":6524.89999999851},{""page_index"":2,""viewing_time"":14226.29999999702},{""page_index"":3,""viewing_time"":7834.5},{""page_index"":4,""viewing_time"":8863.5},{""page_index"":5,""viewing_time"":8002.60000000149},{""page_index"":6,""viewing_time"":8594.70000000298},{""page_index"":7,""viewing_time"":6375.69999999553},{""page_index"":8,""viewing_time"":4570}]","71625.10000000149","","","","","","","","","","","","","","","","","","","","","","","",""
"pit-comprehension","103","804834","0.0-2.0-20.0-0.0","battery-v0.2","","""event"",""trial"",""time""
""fullscreenenter"",""1"",""2831""
","
","
","""event"",""trial"",""time""
""fullscreenenter"",""1"",""2831""
","
","","","5584.39999999851","[""SPACE""]","0","25","15127","6064","","","","","","","","","","","","","","","","","","",""
"pit-instructions","104","809758","0.0-2.0-20.0-1.0","battery-v0.2","","""event"",""trial"",""time""
""fullscreenenter"",""1"",""2831""
","
","
","""event"",""trial"",""time""
""fullscreenenter"",""1"",""2831""
","
","","[{""page_index"":0,""viewing_time"":4887.89999999851}]","4888.19999999553","","","","","","","","","","","","","","","","","","","","","","","",""
"pit-comprehension","105","817349","0.0-2.0-21.0-0.0","battery-v0.2","","""event"",""trial"",""time""
""fullscreenenter"",""1"",""2831""
","
","
","""event"",""trial"",""time""
""fullscreenenter"",""1"",""2831""
","
","","","7587.29999999702","[""10""]","0","25","15127","6064","","","","","","","","","","","","","","","","","","",""
"pit-instructions","106","823031","0.0-2.0-21.0-1.0","battery-v0.2","","""event"",""trial"",""time""
""fullscreenenter"",""1"",""2831""
","
","
","""event"",""trial"",""time""
""fullscreenenter"",""1"",""2831""
","
","","[{""page_index"":0,""viewing_time"":5650.60000000149}]","5651","","","","","","","","","","","","","","","","","","","","","","","",""
"pit-comprehension","107","830717","0.0-2.0-22.0-0.0","battery-v0.2","","""event"",""trial"",""time""
""fullscreenenter"",""1"",""2831""
","
","
","""event"",""trial"",""time""
""fullscreenenter"",""1"",""2831""
","
","","","7681.89999999851","[""0""]","0","25","15127","6064","","","","","","","","","","","","","","","","","","",""
"pit-instructions","108","835851","0.0-2.0-22.0-1.0","battery-v0.2","","""event"",""trial"",""time""
""fullscreenenter"",""1"",""2831""
","
","
","""event"",""trial"",""time""
""fullscreenenter"",""1"",""2831""
","
","","[{""page_index"":0,""viewing_time"":5099}]","5099.39999999851","","","","","","","","","","","","","","","","","","","","","","","",""
"pit-comprehension","109","850391","0.0-2.0-23.0-0.0","battery-v0.2","","""event"",""trial"",""time""
""fullscreenenter"",""1"",""2831""
","
","
","""event"",""trial"",""time""
""fullscreenenter"",""1"",""2831""
","
","","","14536.60000000149","[""True""]","0","25","15127","6064","","","","","","","","","","","","","","","","","","",""
"pit-instructions","110","852533","0.0-2.0-23.0-1.0","battery-v0.2","","""event"",""trial"",""time""
""fullscreenenter"",""1"",""2831""
","
","
","""event"",""trial"",""time""
""fullscreenenter"",""1"",""2831""
","
","","[{""page_index"":0,""viewing_time"":2109.2000000029802}]","2109.5","","","","","","","","","","","","","","","","","","","","","","","",""
"pit-comprehension","111","860647","0.0-2.0-24.0-0.0","battery-v0.2","","""event"",""trial"",""time""
""fullscreenenter"",""1"",""2831""
","
","
","""event"",""trial"",""time""
""fullscreenenter"",""1"",""2831""
","
","","","8111.29999999702","[""True""]","0","25","15127","6064","","","","","","","","","","","","","","","","","","",""
"pit-instructions","112","864323","0.0-2.0-24.0-1.0","battery-v0.2","","""event"",""trial"",""time""
""fullscreenenter"",""1"",""2831""
","
","
","""event"",""trial"",""time""
""fullscreenenter"",""1"",""2831""
","
","","[{""page_index"":0,""viewing_time"":3640.5}]","3640.7999999970198","","","","","","","","","","","","","","","","","","","","","","","",""
"pit-comprehension","113","871271","0.0-2.0-25.0-0.0","battery-v0.2","","""event"",""trial"",""time""
""fullscreenenter"",""1"",""2831""
","
","
","""event"",""trial"",""time""
""fullscreenenter"",""1"",""2831""
","
","","","6944.89999999851","[""True""]","0","25","15127","6064","","","","","","","","","","","","","","","","","","",""
"pit-instructions","114","873270","0.0-2.0-25.0-1.0","battery-v0.2","","""event"",""trial"",""time""
""fullscreenenter"",""1"",""2831""
","
","
","""event"",""trial"",""time""
""fullscreenenter"",""1"",""2831""
","
","","[{""page_index"":0,""viewing_time"":1965.5}]","1965.8000000044703","","","","","","","","","","","","","","","","","","","","","","","",""
"pit-comprehension","115","878757","0.0-2.0-26.0-0.0","battery-v0.2","","""event"",""trial"",""time""
""fullscreenenter"",""1"",""2831""
","
","
","""event"",""trial"",""time""
""fullscreenenter"",""1"",""2831""
","
","","","5483.60000000149","[""False""]","0","25","15127","6064","","","","","","","","","","","","","","","","","","",""
"pit-instructions","116","880886","0.0-2.0-26.0-1.0","battery-v0.2","","""event"",""trial"",""time""
""fullscreenenter"",""1"",""2831""
","
","
","""event"",""trial"",""time""
""fullscreenenter"",""1"",""2831""
","
","","[{""page_index"":0,""viewing_time"":2094.5}]","2094.89999999851","","","","","","","","","","","","","","","","","","","","","","","",""
"pit-instructions","117","899936","0.0-3.0","battery-v0.2","","""event"",""trial"",""time""
""fullscreenenter"",""1"",""2831""
","
","
","""event"",""trial"",""time""
""fullscreenenter"",""1"",""2831""
","
","","[{""page_index"":0,""viewing_time"":3920.89999999851},{""page_index"":1,""viewing_time"":7314.70000000298},{""page_index"":2,""viewing_time"":7812}]","19047.89999999851","","","","","","","","","","","","","","","","","","","","","","","",""
"pit-trial","118","903739","0.0-4.0","battery-v0.2","","""event"",""trial"",""time""
""fullscreenenter"",""1"",""2831""
","
","
","""event"",""trial"",""time""
""fullscreenenter"",""1"",""2831""
","
","","","944.6000000014901","","","25","15127","6064","&#9728;","elianto","#f73b6a7A","-1"," ","0","-10","[1795.1999999955297]","1","1","","","15127","1","0","4","lose","no-go","0"
"pit-trial","119","907337","0.0-5.0","battery-v0.2","","""event"",""trial"",""time""
""fullscreenenter"",""1"",""2831""
","
","
","""event"",""trial"",""time""
""fullscreenenter"",""1"",""2831""
","
","","","744.3999999985099","","","25","15127","6064","&#9733;","elianto","#3366ff99","-1"," ","0","0","[1595]","1","1","","","15127","2","2","2","win","no-go","0"
"pit-trial","120","911067","0.0-6.0","battery-v0.2","","""event"",""trial"",""time""
""fullscreenenter"",""1"",""2831""
","
","
","""event"",""trial"",""time""
""fullscreenenter"",""1"",""2831""
","
","","","875.7999999970198","","","25","15127","6064","&#9730;","elianto","#3366ff99"," "," ","1","+10","[1727.2000000029802]","1","1","","","15127","3","1","1","win","go","0"
"pit-trial","121","914774","0.0-7.0","battery-v0.2","","""event"",""trial"",""time""
""fullscreenenter"",""1"",""2831""
","
","
","""event"",""trial"",""time""
""fullscreenenter"",""1"",""2831""
","
","","","853.6000000014901","","","25","15127","6064","&#9752;","elianto","#f73b6a7A"," "," ","1","0","[1704.3999999985099]","1","1","","","15127","4","3","3","lose","go","0"
"pit-trial","122","918533","0.0-8.0","battery-v0.2","","""event"",""trial"",""time""
""fullscreenenter"",""1"",""2831""
","
","
","""event"",""trial"",""time""
""fullscreenenter"",""1"",""2831""
","
","","","904.1999999955297","","","25","15127","6064","&#9752;","elianto","#f73b6a7A"," "," ","1","0","[1755.5999999940395]","1","1","","","15127","5","3","3","lose","go","0"
"pit-trial","123","922320","0.0-9.0","battery-v0.2","","""event"",""trial"",""time""
""fullscreenenter"",""1"",""2831""
","
","
","""event"",""trial"",""time""
""fullscreenenter"",""1"",""2831""
","
","","","933.6000000014901","","","25","15127","6064","&#9733;","elianto","#3366ff99","-1"," ","0","0","[1783.8999999985099]","1","1","","","15127","6","2","2","win","no-go","0"
"pit-trial","124","926073","0.0-10.0","battery-v0.2","","""event"",""trial"",""time""
""fullscreenenter"",""1"",""2831""
","
","
","""event"",""trial"",""time""
""fullscreenenter"",""1"",""2831""
","
","","","898.7000000029802","","","25","15127","6064","&#9730;","elianto","#3366ff99"," "," ","1","+10","[1749.7000000029802]","1","1","","","15127","7","1","1","win","go","0"
"pit-trial","125","929856","0.0-11.0","battery-v0.2","","""event"",""trial"",""time""
""fullscreenenter"",""1"",""2831""
","
","
","""event"",""trial"",""time""
""fullscreenenter"",""1"",""2831""
","
","","","929","","","25","15127","6064","&#9728;","elianto","#f73b6a7A","-1"," ","0","-10","[1779.2999999970198]","1","1","","","15127","8","0","4","lose","no-go","0"
"pit-trial","126","933437","0.0-12.0","battery-v0.2","","""event"",""trial"",""time""
""fullscreenenter"",""1"",""2831""
","
","
","""event"",""trial"",""time""
""fullscreenenter"",""1"",""2831""
","
","","","726.0999999940395","","","25","15127","6064","&#9733;","elianto","#3366ff99","-1"," ","0","+10","[1576.6999999955297]","1","1","","","15127","9","2","2","win","no-go","1"
"pit-trial","127","937052","0.0-13.0","battery-v0.2","","""event"",""trial"",""time""
""fullscreenenter"",""1"",""2831""
","
","
","""event"",""trial"",""time""
""fullscreenenter"",""1"",""2831""
","
","","","760.3999999985099","","","25","15127","6064","&#9730;","elianto","#3366ff99"," "," ","1","0","[1611.1000000014901]","1","1","","","15127","10","1","1","win","go","1"
"pit-trial","128","940874","0.0-14.0","battery-v0.2","","""event"",""trial"",""time""
""fullscreenenter"",""1"",""2831""
","
","
","""event"",""trial"",""time""
""fullscreenenter"",""1"",""2831""
","
","","","967.5","","","25","15127","6064","&#9728;","elianto","#f73b6a7A","-1"," ","0","0","[1818.3999999985099]","1","1","","","15127","11","0","4","lose","no-go","1"
"pit-trial","129","944541","0.0-15.0","battery-v0.2","","""event"",""trial"",""time""
""fullscreenenter"",""1"",""2831""
","
","
","""event"",""trial"",""time""
""fullscreenenter"",""1"",""2831""
","
","","","814.3999999985099","","","25","15127","6064","&#9752;","elianto","#f73b6a7A"," "," ","1","-10","[1664.3999999985099]","1","1","","","15127","12","3","3","lose","go","1"
"pit-trial","130","948075","0.0-16.0","battery-v0.2","","""event"",""trial"",""time""
""fullscreenenter"",""1"",""2831""
","
","
","""event"",""trial"",""time""
""fullscreenenter"",""1"",""2831""
","
","","","678.6000000014901","","","25","15127","6064","&#9730;","elianto","#3366ff99"," "," ","1","+10","[1529.7000000029802]","1","1","","","15127","13","1","1","win","go","0"
"pit-trial","131","952930","0.0-17.0","battery-v0.2","","""event"",""trial"",""time""
""fullscreenenter"",""1"",""2831""
","
","
","""event"",""trial"",""time""
""fullscreenenter"",""1"",""2831""
","
","","","-1","","","25","15127","6064","&#9728;","elianto","#f73b6a7A","-1","-1","1","0","[]","0","1","","","15127","14","0","4","lose","no-go","0"
"pit-trial","132","956479","0.0-18.0","battery-v0.2","","""event"",""trial"",""time""
""fullscreenenter"",""1"",""2831""
","
","
","""event"",""trial"",""time""
""fullscreenenter"",""1"",""2831""
","
","","","695.2000000029802","","","25","15127","6064","&#9733;","elianto","#3366ff99","-1"," ","0","+10","[1546.6000000014901]","1","1","","","15127","15","2","2","win","no-go","1"
"pit-trial","133","960261","0.0-19.0","battery-v0.2","","""event"",""trial"",""time""
""fullscreenenter"",""1"",""2831""
","
","
","""event"",""trial"",""time""
""fullscreenenter"",""1"",""2831""
","
","","","927","","","25","15127","6064","&#9752;","elianto","#f73b6a7A"," "," ","1","0","[1778.1000000014901]","1","1","","","15127","16","3","3","lose","go","0"
"pit-trial","134","963956","0.0-20.0","battery-v0.2","","""event"",""trial"",""time""
""fullscreenenter"",""1"",""2831""
","
","
","""event"",""trial"",""time""
""fullscreenenter"",""1"",""2831""
","
","","","841.6000000014901","","","25","15127","6064","&#9752;","elianto","#f73b6a7A"," "," ","1","0","[1691.8999999985099]","1","1","","","15127","17","3","3","lose","go","0"
"pit-trial","135","968812","0.0-21.0","battery-v0.2","","""event"",""trial"",""time""
""fullscreenenter"",""1"",""2831""
","
","
","""event"",""trial"",""time""
""fullscreenenter"",""1"",""2831""
","
","","","-1","","","25","15127","6064","&#9728;","elianto","#f73b6a7A","-1","-1","1","0","[]","0","1","","","15127","18","0","4","lose","no-go","0"
"pit-trial","136","972424","0.0-22.0","battery-v0.2","","""event"",""trial"",""time""
""fullscreenenter"",""1"",""2831""
","
","
","""event"",""trial"",""time""
""fullscreenenter"",""1"",""2831""
","
","","","757","","","25","15127","6064","&#9733;","elianto","#3366ff99","-1"," ","0","0","[1608.2000000029802]","1","1","","","15127","19","2","2","win","no-go","0"
"pit-trial","137","975930","0.0-23.0","battery-v0.2","","""event"",""trial"",""time""
""fullscreenenter"",""1"",""2831""
","
","
","""event"",""trial"",""time""
""fullscreenenter"",""1"",""2831""
","
","","","651.1999999955297","","","25","15127","6064","&#9730;","elianto","#3366ff99"," "," ","1","+10","[1502]","1","1","","","15127","20","1","1","win","go","0"
"pit-instructions","138","990515","0.0-24.0","battery-v0.2","","""event"",""trial"",""time""
""fullscreenenter"",""1"",""2831""
","
","
","""event"",""trial"",""time""
""fullscreenenter"",""1"",""2831""
","
","","[{""page_index"":0,""viewing_time"":6289.29999999702},{""page_index"":1,""viewing_time"":8294.20000000298}]","14583.89999999851","","","","","","","","","","","","","","","","","","","","","","","",""
"pit-trial","139","994016","0.0-25.0","battery-v0.2","","""event"",""trial"",""time""
""fullscreenenter"",""1"",""2831""
","
","
","""event"",""trial"",""time""
""fullscreenenter"",""1"",""2831""
","
","","","645.0999999940395","","","25","15127","6064","f","elianto","#3366ff99","-1"," ","0","+10","[1496.0999999940395]","1","2","","","15127","21","1","2","win","no-go","1"
"pit-trial","140","997568","0.0-26.0","battery-v0.2","","""event"",""trial"",""time""
""fullscreenenter"",""1"",""2831""
","
","
","""event"",""trial"",""time""
""fullscreenenter"",""1"",""2831""
","
","","","697.6999999955297","","","25","15127","6064","t","elianto","#f73b6a7A"," "," ","1","0","[1548.6999999955297]","1","2","","","15127","22","2","3","lose","go","0"
"pit-trial","141","1001126","0.0-27.0","battery-v0.2","","""event"",""trial"",""time""
""fullscreenenter"",""1"",""2831""
","
","
","""event"",""trial"",""time""
""fullscreenenter"",""1"",""2831""
","
","","","704.3000000044703","","","25","15127","6064","n","elianto","#f73b6a7A"," "," ","1","0","[1555.1000000014901]","1","2","","","15127","23","0","3","lose","go","0"
"pit-trial","142","1004668","0.0-28.0","battery-v0.2","","""event"",""trial"",""time""
""fullscreenenter"",""1"",""2831""
","
","
","""event"",""trial"",""time""
""fullscreenenter"",""1"",""2831""
","
","","","688.3999999985099","","","25","15127","6064","b","elianto","#f73b6a7A","-1"," ","0","-10","[1539.3999999985099]","1","2","","","15127","24","3","4","lose","no-go","0"
"pit-trial","143","1009523","0.0-29.0","battery-v0.2","","""event"",""trial"",""time""
""fullscreenenter"",""1"",""2831""
","
","
","""event"",""trial"",""time""
""fullscreenenter"",""1"",""2831""
","
","","","-1","","","25","15127","6064","b","elianto","#f73b6a7A","-1","-1","1","0","[]","0","2","","","15127","25","3","4","lose","no-go","0"
"pit-trial","144","1013107","0.0-30.0","battery-v0.2","","""event"",""trial"",""time""
""fullscreenenter"",""1"",""2831""
","
","
","""event"",""trial"",""time""
""fullscreenenter"",""1"",""2831""
","
","","","729.2999999970198","","","25","15127","6064","f","elianto","#3366ff99","-1"," ","0","0","[1580.5]","1","2","","","15127","26","1","2","win","no-go","0"
"pit-trial","145","1017137","0.0-31.0","battery-v0.2","","""event"",""trial"",""time""
""fullscreenenter"",""1"",""2831""
","
","
","""event"",""trial"",""time""
""fullscreenenter"",""1"",""2831""
","
","","","1176.5","","","25","15127","6064","n","elianto","#f73b6a7A"," "," ","1","0","[2027.7000000029802]","1","2","","","15127","27","0","3","lose","go","0"
"pit-trial","146","1020901","0.0-32.0","battery-v0.2","","""event"",""trial"",""time""
""fullscreenenter"",""1"",""2831""
","
","
","""event"",""trial"",""time""
""fullscreenenter"",""1"",""2831""
","
","","","908","","","25","15127","6064","t","elianto","#f73b6a7A"," "," ","1","0","[1760]","1","2","","","15127","28","2","3","lose","go","0"
"pit-trial","147","1024503","0.0-33.0","battery-v0.2","","""event"",""trial"",""time""
""fullscreenenter"",""1"",""2831""
","
","
","""event"",""trial"",""time""
""fullscreenenter"",""1"",""2831""
","
","","","747","","","25","15127","6064","f","elianto","#3366ff99","-1"," ","0","0","[1598]","1","2","","","15127","29","1","2","win","no-go","0"
"pit-trial","148","1029356","0.0-34.0","battery-v0.2","","""event"",""trial"",""time""
""fullscreenenter"",""1"",""2831""
","
","
","""event"",""trial"",""time""
""fullscreenenter"",""1"",""2831""
","
","","","-1","","","25","15127","6064","b","elianto","#f73b6a7A","-1","-1","1","0","[]","0","2","","","15127","30","3","4","lose","no-go","0"
"pit-trial","149","1032991","0.0-35.0","battery-v0.2","","""event"",""trial"",""time""
""fullscreenenter"",""1"",""2831""
","
","
","""event"",""trial"",""time""
""fullscreenenter"",""1"",""2831""
","
","","","781.3999999985099","","","25","15127","6064","t","elianto","#f73b6a7A"," "," ","1","0","[1632.5]","1","2","","","15127","31","2","3","lose","go","0"
"pit-trial","150","1036791","0.0-36.0","battery-v0.2","","""event"",""trial"",""time""
""fullscreenenter"",""1"",""2831""
","
","
","""event"",""trial"",""time""
""fullscreenenter"",""1"",""2831""
","
","","","945.5","","","25","15127","6064","n","elianto","#f73b6a7A"," "," ","1","-10","[1796.3999999985099]","1","2","","","15127","32","0","3","lose","go","1"
"pit-trial","151","1040446","0.0-37.0","battery-v0.2","","""event"",""trial"",""time""
""fullscreenenter"",""1"",""2831""
","
","
","""event"",""trial"",""time""
""fullscreenenter"",""1"",""2831""
","
","","","801.6000000014901","","","25","15127","6064","t","elianto","#f73b6a7A"," "," ","1","0","[1652]","1","2","","","15127","33","2","3","lose","go","0"
"pit-trial","152","1045302","0.0-38.0","battery-v0.2","","""event"",""trial"",""time""
""fullscreenenter"",""1"",""2831""
","
","
","""event"",""trial"",""time""
""fullscreenenter"",""1"",""2831""
","
","","","-1","","","25","15127","6064","n","elianto","#f73b6a7A"," ","-1","0","-10","[]","0","2","","","15127","34","0","3","lose","go","0"
"pit-trial","153","1050157","0.0-39.0","battery-v0.2","","""event"",""trial"",""time""
""fullscreenenter"",""1"",""2831""
","
","
","""event"",""trial"",""time""
""fullscreenenter"",""1"",""2831""
","
","","","-1","","","25","15127","6064","b","elianto","#f73b6a7A","-1","-1","1","0","[]","0","2","","","15127","35","3","4","lose","no-go","0"
"pit-trial","154","1053728","0.0-40.0","battery-v0.2","","""event"",""trial"",""time""
""fullscreenenter"",""1"",""2831""
","
","
","""event"",""trial"",""time""
""fullscreenenter"",""1"",""2831""
","
","","","717.8999999985099","","","25","15127","6064","f","elianto","#3366ff99","-1"," ","0","0","[1568.7000000029802]","1","2","","","15127","36","1","2","win","no-go","0"
"pit-trial","155","1057525","0.0-41.0","battery-v0.2","","""event"",""trial"",""time""
""fullscreenenter"",""1"",""2831""
","
","
","""event"",""trial"",""time""
""fullscreenenter"",""1"",""2831""
","
","","","941.2000000029802","","","25","15127","6064","f","elianto","#3366ff99","-1"," ","0","0","[1792.6000000014901]","1","2","","","15127","37","1","2","win","no-go","0"
"pit-trial","156","1061011","0.0-42.0","battery-v0.2","","""event"",""trial"",""time""
""fullscreenenter"",""1"",""2831""
","
","
","""event"",""trial"",""time""
""fullscreenenter"",""1"",""2831""
","
","","","632.2000000029802","","","25","15127","6064","t","elianto","#f73b6a7A"," "," ","1","0","[1482.7000000029802]","1","2","","","15127","38","2","3","lose","go","0"
"pit-trial","157","1064543","0.0-43.0","battery-v0.2","","""event"",""trial"",""time""
""fullscreenenter"",""1"",""2831""
","
","
","""event"",""trial"",""time""
""fullscreenenter"",""1"",""2831""
","
","","","676.5","","","25","15127","6064","n","elianto","#f73b6a7A"," "," ","1","-10","[1528.2999999970198]","1","2","","","15127","39","0","3","lose","go","1"
"pit-trial","158","1069397","0.0-44.0","battery-v0.2","","""event"",""trial"",""time""
""fullscreenenter"",""1"",""2831""
","
","
","""event"",""trial"",""time""
""fullscreenenter"",""1"",""2831""
","
","","","-1","","","25","15127","6064","b","elianto","#f73b6a7A","-1","-1","1","0","[]","0","2","","","15127","40","3","4","lose","no-go","0"
"pit-trial","159","1072943","0.0-45.0","battery-v0.2","","""event"",""trial"",""time""
""fullscreenenter"",""1"",""2831""
","
","
","""event"",""trial"",""time""
""fullscreenenter"",""1"",""2831""
","
","","","691.1999999955297","","","25","15127","6064","t","elianto","#f73b6a7A"," "," ","1","0","[1541.7999999970198]","1","2","","","15127","41","2","3","lose","go","0"
"pit-trial","160","1076456","0.0-46.0","battery-v0.2","","""event"",""trial"",""time""
""fullscreenenter"",""1"",""2831""
","
","
","""event"",""trial"",""time""
""fullscreenenter"",""1"",""2831""
","
","","","658.6000000014901","","","25","15127","6064","n","elianto","#f73b6a7A"," "," ","1","0","[1509.7999999970198]","1","2","","","15127","42","0","3","lose","go","0"
"pit-trial","161","1081310","0.0-47.0","battery-v0.2","","""event"",""trial"",""time""
""fullscreenenter"",""1"",""2831""
","
","
","""event"",""trial"",""time""
""fullscreenenter"",""1"",""2831""
","
","","","-1","","","25","15127","6064","f","elianto","#3366ff99","-1","-1","1","+10","[]","0","2","","","15127","43","1","2","win","no-go","0"
"pit-trial","162","1086165","0.0-48.0","battery-v0.2","","""event"",""trial"",""time""
""fullscreenenter"",""1"",""2831""
","
","
","""event"",""trial"",""time""
""fullscreenenter"",""1"",""2831""
","
","","","-1","","","25","15127","6064","b","elianto","#f73b6a7A","-1","-1","1","0","[]","0","2","","","15127","44","3","4","lose","no-go","0"
"pit-trial","163","1089782","0.0-49.0","battery-v0.2","","""event"",""trial"",""time""
""fullscreenenter"",""1"",""2831""
","
","
","""event"",""trial"",""time""
""fullscreenenter"",""1"",""2831""
","
","","","761.8999999985099","","","25","15127","6064","n","elianto","#f73b6a7A"," "," ","1","-10","[1613]","1","2","","","15127","45","0","3","lose","go","1"
"pit-trial","164","1094637","0.0-50.0","battery-v0.2","","""event"",""trial"",""time""
""fullscreenenter"",""1"",""2831""
","
","
","""event"",""trial"",""time""
""fullscreenenter"",""1"",""2831""
","
","","","-1","","","25","15127","6064","b","elianto","#f73b6a7A","-1","-1","1","-10","[]","0","2","","","15127","46","3","4","lose","no-go","1"
"pit-trial","165","1099491","0.0-51.0","battery-v0.2","","""event"",""trial"",""time""
""fullscreenenter"",""1"",""2831""
","
","
","""event"",""trial"",""time""
""fullscreenenter"",""1"",""2831""
","
","","","-1","","","25","15127","6064","f","elianto","#3366ff99","-1","-1","1","+10","[]","0","2","","","15127","47","1","2","win","no-go","0"
"pit-trial","166","1103019","0.0-52.0","battery-v0.2","","""event"",""trial"",""time""
""fullscreenenter"",""1"",""2831""
","
","
","""event"",""trial"",""time""
""fullscreenenter"",""1"",""2831""
","
","","","672.8999999985099","","","25","15127","6064","t","elianto","#f73b6a7A"," "," ","1","0","[1523.8999999985099]","1","2","","","15127","48","2","3","lose","go","0"
"pit-trial","167","1107875","0.0-53.0","battery-v0.2","","""event"",""trial"",""time""
""fullscreenenter"",""1"",""2831""
","
","
","""event"",""trial"",""time""
""fullscreenenter"",""1"",""2831""
","
","","","-1","","","25","15127","6064","b","elianto","#f73b6a7A","-1","-1","1","0","[]","0","2","","","15127","49","3","4","lose","no-go","0"
"pit-trial","168","1112729","0.0-54.0","battery-v0.2","","""event"",""trial"",""time""
""fullscreenenter"",""1"",""2831""
","
","
","""event"",""trial"",""time""
""fullscreenenter"",""1"",""2831""
","
","","","-1","","","25","15127","6064","f","elianto","#3366ff99","-1","-1","1","+10","[]","0","2","","","15127","50","1","2","win","no-go","0"
"pit-trial","169","1116297","0.0-55.0","battery-v0.2","","""event"",""trial"",""time""
""fullscreenenter"",""1"",""2831""
","
","
","""event"",""trial"",""time""
""fullscreenenter"",""1"",""2831""
","
","","","715.2999999970198","","","25","15127","6064","n","elianto","#f73b6a7A"," "," ","1","0","[1566.1000000014901]","1","2","","","15127","51","0","3","lose","go","0"
"pit-trial","170","1119929","0.0-56.0","battery-v0.2","","""event"",""trial"",""time""
""fullscreenenter"",""1"",""2831""
","
","
","""event"",""trial"",""time""
""fullscreenenter"",""1"",""2831""
","
","","","777","","","25","15127","6064","t","elianto","#f73b6a7A"," "," ","1","-10","[1628.1000000014901]","1","2","","","15127","52","2","3","lose","go","1"
"pit-trial","171","1123443","0.0-57.0","battery-v0.2","","""event"",""trial"",""time""
""fullscreenenter"",""1"",""2831""
","
","
","""event"",""trial"",""time""
""fullscreenenter"",""1"",""2831""
","
","","","658.6000000014901","","","25","15127","6064","t","elianto","#f73b6a7A"," "," ","1","0","[1509.5]","1","2","","","15127","53","2","3","lose","go","0"
"pit-trial","172","1128298","0.0-58.0","battery-v0.2","","""event"",""trial"",""time""
""fullscreenenter"",""1"",""2831""
","
","
","""event"",""trial"",""time""
""fullscreenenter"",""1"",""2831""
","
","","","-1","","","25","15127","6064","f","elianto","#3366ff99","-1","-1","1","0","[]","0","2","","","15127","54","1","2","win","no-go","1"
"pit-trial","173","1132036","0.0-59.0","battery-v0.2","","""event"",""trial"",""time""
""fullscreenenter"",""1"",""2831""
","
","
","""event"",""trial"",""time""
""fullscreenenter"",""1"",""2831""
","
","","","884.8999999985099","","","25","15127","6064","n","elianto","#f73b6a7A"," "," ","1","0","[1735.0999999940395]","1","2","","","15127","55","0","3","lose","go","0"
"pit-trial","174","1136891","0.0-60.0","battery-v0.2","","""event"",""trial"",""time""
""fullscreenenter"",""1"",""2831""
","
","
","""event"",""trial"",""time""
""fullscreenenter"",""1"",""2831""
","
","","","-1","","","25","15127","6064","b","elianto","#f73b6a7A","-1","-1","1","0","[]","0","2","","","15127","56","3","4","lose","no-go","0"
"pit-trial","175","1140458","0.0-61.0","battery-v0.2","","""event"",""trial"",""time""
""fullscreenenter"",""1"",""2831""
","
","
","""event"",""trial"",""time""
""fullscreenenter"",""1"",""2831""
","
","","","712.0999999940395","","","25","15127","6064","n","elianto","#f73b6a7A"," "," ","1","0","[1563.3999999985099]","1","2","","","15127","57","0","3","lose","go","0"
"pit-trial","176","1144052","0.0-62.0","battery-v0.2","","""event"",""trial"",""time""
""fullscreenenter"",""1"",""2831""
","
","
","""event"",""trial"",""time""
""fullscreenenter"",""1"",""2831""
","
","","","739.3999999985099","","","25","15127","6064","t","elianto","#f73b6a7A"," "," ","1","0","[1590.6000000014901]","1","2","","","15127","58","2","3","lose","go","0"
"pit-trial","177","1148904","0.0-63.0","battery-v0.2","","""event"",""trial"",""time""
""fullscreenenter"",""1"",""2831""
","
","
","""event"",""trial"",""time""
""fullscreenenter"",""1"",""2831""
","
","","","-1","","","25","15127","6064","b","elianto","#f73b6a7A","-1","-1","1","0","[]","0","2","","","15127","59","3","4","lose","no-go","0"
"pit-trial","178","1153028","0.0-64.0","battery-v0.2","","""event"",""trial"",""time""
""fullscreenenter"",""1"",""2831""
","
","
","""event"",""trial"",""time""
""fullscreenenter"",""1"",""2831""
","
","","","1269.8999999985099","","","25","15127","6064","c","elianto","#3366ff99"," "," ","1","0","[2121.10000000149]","1","2","","","15127","60","4","1","win","go","1"
"pit-trial","179","1156729","0.0-65.0","battery-v0.2","","""event"",""trial"",""time""
""fullscreenenter"",""1"",""2831""
","
","
","""event"",""trial"",""time""
""fullscreenenter"",""1"",""2831""
","
","","","846.5999999940395","","","25","15127","6064","t","elianto","#f73b6a7A"," "," ","1","0","[1697.0999999940395]","1","2","","","15127","61","2","3","lose","go","0"
"pit-trial","180","1161584","0.0-66.0","battery-v0.2","","""event"",""trial"",""time""
""fullscreenenter"",""1"",""2831""
","
","
","""event"",""trial"",""time""
""fullscreenenter"",""1"",""2831""
","
","","","-1","","","25","15127","6064","b","elianto","#f73b6a7A","-1","-1","1","-10","[]","0","2","","","15127","62","3","4","lose","no-go","1"
"pit-trial","181","1165361","0.0-67.0","battery-v0.2","","""event"",""trial"",""time""
""fullscreenenter"",""1"",""2831""
","
","
","""event"",""trial"",""time""
""fullscreenenter"",""1"",""2831""
","
","","","922.7000000029802","","","25","15127","6064","c","elianto","#3366ff99"," "," ","1","+10","[1773.6000000014901]","1","2","","","15127","63","4","1","win","go","0"
"pit-trial","182","1170216","0.0-68.0","battery-v0.2","","""event"",""trial"",""time""
""fullscreenenter"",""1"",""2831""
","
","
","""event"",""trial"",""time""
""fullscreenenter"",""1"",""2831""
","
","","","-1","","","25","15127","6064","f","elianto","#3366ff99","-1","-1","1","+10","[]","0","2","","","15127","64","1","2","win","no-go","0"
"pit-trial","183","1175071","0.0-69.0","battery-v0.2","","""event"",""trial"",""time""
""fullscreenenter"",""1"",""2831""
","
","
","""event"",""trial"",""time""
""fullscreenenter"",""1"",""2831""
","
","","","-1","","","25","15127","6064","f","elianto","#3366ff99","-1","-1","1","+10","[]","0","2","","","15127","65","1","2","win","no-go","0"
"pit-trial","184","1179926","0.0-70.0","battery-v0.2","","""event"",""trial"",""time""
""fullscreenenter"",""1"",""2831""
","
","
","""event"",""trial"",""time""
""fullscreenenter"",""1"",""2831""
","
","","","-1","","","25","15127","6064","b","elianto","#f73b6a7A","-1","-1","1","0","[]","0","2","","","15127","66","3","4","lose","no-go","0"
"pit-trial","185","1183416","0.0-71.0","battery-v0.2","","""event"",""trial"",""time""
""fullscreenenter"",""1"",""2831""
","
","
","""event"",""trial"",""time""
""fullscreenenter"",""1"",""2831""
","
","","","635","","","25","15127","6064","c","elianto","#3366ff99"," "," ","1","0","[1486.5]","1","2","","","15127","67","4","1","win","go","1"
"pit-trial","186","1187373","0.0-72.0","battery-v0.2","","""event"",""trial"",""time""
""fullscreenenter"",""1"",""2831""
","
","
","""event"",""trial"",""time""
""fullscreenenter"",""1"",""2831""
","
","","","1102","","","25","15127","6064","z","elianto","#3366ff99","-1"," ","0","0","[1953.3999999985099]","1","2","","","15127","68","5","2","win","no-go","0"
"pit-trial","187","1191108","0.0-73.0","battery-v0.2","","""event"",""trial"",""time""
""fullscreenenter"",""1"",""2831""
","
","
","""event"",""trial"",""time""
""fullscreenenter"",""1"",""2831""
","
","","","879.6000000014901","","","25","15127","6064","t","elianto","#f73b6a7A"," "," ","1","-10","[1730.8999999985099]","1","2","","","15127","69","2","3","lose","go","1"
"pit-trial","188","1194810","0.0-74.0","battery-v0.2","","""event"",""trial"",""time""
""fullscreenenter"",""1"",""2831""
","
","
","""event"",""trial"",""time""
""fullscreenenter"",""1"",""2831""
","
","","","847.3999999985099","","","25","15127","6064","c","elianto","#3366ff99"," "," ","1","+10","[1698.7000000029802]","1","2","","","15127","70","4","1","win","go","0"
"pit-trial","189","1199665","0.0-75.0","battery-v0.2","","""event"",""trial"",""time""
""fullscreenenter"",""1"",""2831""
","
","
","""event"",""trial"",""time""
""fullscreenenter"",""1"",""2831""
","
","","","-1","","","25","15127","6064","z","elianto","#3366ff99","-1","-1","1","+10","[]","0","2","","","15127","71","5","2","win","no-go","0"
"pit-trial","190","1204520","0.0-76.0","battery-v0.2","","""event"",""trial"",""time""
""fullscreenenter"",""1"",""2831""
","
","
","""event"",""trial"",""time""
""fullscreenenter"",""1"",""2831""
","
","","","-1","","","25","15127","6064","f","elianto","#3366ff99","-1","-1","1","+10","[]","0","2","","","15127","72","1","2","win","no-go","0"
"pit-trial","191","1209374","0.0-77.0","battery-v0.2","","""event"",""trial"",""time""
""fullscreenenter"",""1"",""2831""
","
","
","""event"",""trial"",""time""
""fullscreenenter"",""1"",""2831""
","
","","","-1","","","25","15127","6064","f","elianto","#3366ff99","-1","-1","1","+10","[]","0","2","","","15127","73","1","2","win","no-go","0"
"pit-trial","192","1214230","0.0-78.0","battery-v0.2","","""event"",""trial"",""time""
""fullscreenenter"",""1"",""2831""
","
","
","""event"",""trial"",""time""
""fullscreenenter"",""1"",""2831""
","
","","","-1","","","25","15127","6064","z","elianto","#3366ff99","-1","-1","1","+10","[]","0","2","","","15127","74","5","2","win","no-go","0"
"pit-trial","193","1219086","0.0-79.0","battery-v0.2","","""event"",""trial"",""time""
""fullscreenenter"",""1"",""2831""
","
","
","""event"",""trial"",""time""
""fullscreenenter"",""1"",""2831""
","
","","","-1","","","25","15127","6064","b","elianto","#f73b6a7A","-1","-1","1","0","[]","0","2","","","15127","75","3","4","lose","no-go","0"
"pit-trial","194","1222762","0.0-80.0","battery-v0.2","","""event"",""trial"",""time""
""fullscreenenter"",""1"",""2831""
","
","
","""event"",""trial"",""time""
""fullscreenenter"",""1"",""2831""
","
","","","822","","","25","15127","6064","c","elianto","#3366ff99"," "," ","1","+10","[1672.5]","1","2","","","15127","76","4","1","win","go","0"
"pit-trial","195","1227616","0.0-81.0","battery-v0.2","","""event"",""trial"",""time""
""fullscreenenter"",""1"",""2831""
","
","
","""event"",""trial"",""time""
""fullscreenenter"",""1"",""2831""
","
","","","-1","","","25","15127","6064","z","elianto","#3366ff99","-1","-1","1","+10","[]","0","2","","","15127","77","5","2","win","no-go","0"
"pit-trial","196","1232471","0.0-82.0","battery-v0.2","","""event"",""trial"",""time""
""fullscreenenter"",""1"",""2831""
","
","
","""event"",""trial"",""time""
""fullscreenenter"",""1"",""2831""
","
","","","-1","","","25","15127","6064","b","elianto","#f73b6a7A","-1","-1","1","0","[]","0","2","","","15127","78","3","4","lose","no-go","0"
"pit-trial","197","1236012","0.0-83.0","battery-v0.2","","""event"",""trial"",""time""
""fullscreenenter"",""1"",""2831""
","
","
","""event"",""trial"",""time""
""fullscreenenter"",""1"",""2831""
","
","","","687.6000000014901","","","25","15127","6064","c","elianto","#3366ff99"," "," ","1","+10","[1538.6000000014901]","1","2","","","15127","79","4","1","win","go","0"
"pit-trial","198","1239635","0.0-84.0","battery-v0.2","","""event"",""trial"",""time""
""fullscreenenter"",""1"",""2831""
","
","
","""event"",""trial"",""time""
""fullscreenenter"",""1"",""2831""
","
","","","768.3999999985099","","","25","15127","6064","c","elianto","#3366ff99"," "," ","1","+10","[1619.7999999970198]","1","2","","","15127","80","4","1","win","go","0"
"pit-trial","199","1244490","0.0-85.0","battery-v0.2","","""event"",""trial"",""time""
""fullscreenenter"",""1"",""2831""
","
","
","""event"",""trial"",""time""
""fullscreenenter"",""1"",""2831""
","
","","","-1","","","25","15127","6064","z","elianto","#3366ff99","-1","-1","1","+10","[]","0","2","","","15127","81","5","2","win","no-go","0"
"pit-trial","200","1248369","0.0-86.0","battery-v0.2","","""event"",""trial"",""time""
""fullscreenenter"",""1"",""2831""
","
","
","""event"",""trial"",""time""
""fullscreenenter"",""1"",""2831""
","
","","","1024.1000000014901","","","25","15127","6064","y","elianto","#f73b6a7A","-1"," ","0","-10","[1875.7999999970198]","1","2","","","15127","82","7","4","lose","no-go","0"
"pit-trial","201","1253224","0.0-87.0","battery-v0.2","","""event"",""trial"",""time""
""fullscreenenter"",""1"",""2831""
","
","
","""event"",""trial"",""time""
""fullscreenenter"",""1"",""2831""
","
","","","-1","","","25","15127","6064","b","elianto","#f73b6a7A","-1","-1","1","0","[]","0","2","","","15127","83","3","4","lose","no-go","0"
"pit-trial","202","1256681","0.0-88.0","battery-v0.2","","""event"",""trial"",""time""
""fullscreenenter"",""1"",""2831""
","
","
","""event"",""trial"",""time""
""fullscreenenter"",""1"",""2831""
","
","","","602.6999999955297","","","25","15127","6064","c","elianto","#3366ff99"," "," ","1","+10","[1453.2999999970198]","1","2","","","15127","84","4","1","win","go","0"
"pit-trial","203","1261536","0.0-89.0","battery-v0.2","","""event"",""trial"",""time""
""fullscreenenter"",""1"",""2831""
","
","
","""event"",""trial"",""time""
""fullscreenenter"",""1"",""2831""
","
","","","-1","","","25","15127","6064","y","elianto","#f73b6a7A","-1","-1","1","0","[]","0","2","","","15127","85","7","4","lose","no-go","0"
"pit-trial","204","1265061","0.0-90.0","battery-v0.2","","""event"",""trial"",""time""
""fullscreenenter"",""1"",""2831""
","
","
","""event"",""trial"",""time""
""fullscreenenter"",""1"",""2831""
","
","","","671.3999999985099","","","25","15127","6064","c","elianto","#3366ff99"," "," ","1","+10","[1521.8999999985099]","1","2","","","15127","86","4","1","win","go","0"
"pit-trial","205","1269917","0.0-91.0","battery-v0.2","","""event"",""trial"",""time""
""fullscreenenter"",""1"",""2831""
","
","
","""event"",""trial"",""time""
""fullscreenenter"",""1"",""2831""
","
","","","-1","","","25","15127","6064","z","elianto","#3366ff99","-1","-1","1","+10","[]","0","2","","","15127","87","5","2","win","no-go","0"
"pit-trial","206","1273785","0.0-92.0","battery-v0.2","","""event"",""trial"",""time""
""fullscreenenter"",""1"",""2831""
","
","
","""event"",""trial"",""time""
""fullscreenenter"",""1"",""2831""
","
","","","1013.3999999985099","","","25","15127","6064","h","elianto","#f73b6a7A"," "," ","1","0","[1865.1000000014901]","1","2","","","15127","88","6","3","lose","go","0"
"pit-trial","207","1278641","0.0-93.0","battery-v0.2","","""event"",""trial"",""time""
""fullscreenenter"",""1"",""2831""
","
","
","""event"",""trial"",""time""
""fullscreenenter"",""1"",""2831""
","
","","","-1","","","25","15127","6064","y","elianto","#f73b6a7A","-1","-1","1","0","[]","0","2","","","15127","89","7","4","lose","no-go","0"
"pit-trial","208","1282284","0.0-94.0","battery-v0.2","","""event"",""trial"",""time""
""fullscreenenter"",""1"",""2831""
","
","
","""event"",""trial"",""time""
""fullscreenenter"",""1"",""2831""
","
","","","789.6000000014901","","","25","15127","6064","h","elianto","#f73b6a7A"," "," ","1","0","[1640.3000000044703]","1","2","","","15127","90","6","3","lose","go","0"
"pit-trial","209","1285739","0.0-95.0","battery-v0.2","","""event"",""trial"",""time""
""fullscreenenter"",""1"",""2831""
","
","
","""event"",""trial"",""time""
""fullscreenenter"",""1"",""2831""
","
","","","601.6999999955297","","","25","15127","6064","c","elianto","#3366ff99"," "," ","1","0","[1452.6999999955297]","1","2","","","15127","91","4","1","win","go","1"
"pit-trial","210","1290595","0.0-96.0","battery-v0.2","","""event"",""trial"",""time""
""fullscreenenter"",""1"",""2831""
","
","
","""event"",""trial"",""time""
""fullscreenenter"",""1"",""2831""
","
","","","-1","","","25","15127","6064","z","elianto","#3366ff99","-1","-1","1","0","[]","0","2","","","15127","92","5","2","win","no-go","1"
"pit-trial","211","1294232","0.0-97.0","battery-v0.2","","""event"",""trial"",""time""
""fullscreenenter"",""1"",""2831""
","
","
","""event"",""trial"",""time""
""fullscreenenter"",""1"",""2831""
","
","","","781.6999999955297","","","25","15127","6064","h","elianto","#f73b6a7A"," "," ","1","0","[1632.0999999940395]","1","2","","","15127","93","6","3","lose","go","0"
"pit-trial","212","1299099","0.0-98.0","battery-v0.2","","""event"",""trial"",""time""
""fullscreenenter"",""1"",""2831""
","
","
","""event"",""trial"",""time""
""fullscreenenter"",""1"",""2831""
","
","","","-1","","","25","15127","6064","z","elianto","#3366ff99","-1","-1","1","+10","[]","0","2","","","15127","94","5","2","win","no-go","0"
"pit-trial","213","1303131","0.0-99.0","battery-v0.2","","""event"",""trial"",""time""
""fullscreenenter"",""1"",""2831""
","
","
","""event"",""trial"",""time""
""fullscreenenter"",""1"",""2831""
","
","","","1170.8000000044703","","","25","15127","6064","r","elianto","#3366ff99"," "," ","1","+10","[2021.2000000029802]","1","2","","","15127","95","8","1","win","go","0"
"pit-trial","214","1307992","0.0-100.0","battery-v0.2","","""event"",""trial"",""time""
""fullscreenenter"",""1"",""2831""
","
","
","""event"",""trial"",""time""
""fullscreenenter"",""1"",""2831""
","
","","","-1","","","25","15127","6064","y","elianto","#f73b6a7A","-1","-1","1","0","[]","0","2","","","15127","96","7","4","lose","no-go","0"
"pit-trial","215","1311689","0.0-101.0","battery-v0.2","","""event"",""trial"",""time""
""fullscreenenter"",""1"",""2831""
","
","
","""event"",""trial"",""time""
""fullscreenenter"",""1"",""2831""
","
","","","838.3999999985099","","","25","15127","6064","h","elianto","#f73b6a7A"," "," ","1","0","[1689.2999999970198]","1","2","","","15127","97","6","3","lose","go","0"
"pit-trial","216","1316548","0.0-102.0","battery-v0.2","","""event"",""trial"",""time""
""fullscreenenter"",""1"",""2831""
","
","
","""event"",""trial"",""time""
""fullscreenenter"",""1"",""2831""
","
","","","-1","","","25","15127","6064","y","elianto","#f73b6a7A","-1","-1","1","0","[]","0","2","","","15127","98","7","4","lose","no-go","0"
"pit-trial","217","1320337","0.0-103.0","battery-v0.2","","""event"",""trial"",""time""
""fullscreenenter"",""1"",""2831""
","
","
","""event"",""trial"",""time""
""fullscreenenter"",""1"",""2831""
","
","","","933.5","","","25","15127","6064","r","elianto","#3366ff99"," "," ","1","+10","[1783.8999999985099]","1","2","","","15127","99","8","1","win","go","0"
"pit-trial","218","1325194","0.0-104.0","battery-v0.2","","""event"",""trial"",""time""
""fullscreenenter"",""1"",""2831""
","
","
","""event"",""trial"",""time""
""fullscreenenter"",""1"",""2831""
","
","","","-1","","","25","15127","6064","z","elianto","#3366ff99","-1","-1","1","0","[]","0","2","","","15127","100","5","2","win","no-go","1"
"pit-trial","219","1330050","0.0-105.0","battery-v0.2","","""event"",""trial"",""time""
""fullscreenenter"",""1"",""2831""
","
","
","""event"",""trial"",""time""
""fullscreenenter"",""1"",""2831""
","
","","","-1","","","25","15127","6064","y","elianto","#f73b6a7A","-1","-1","1","0","[]","0","2","","","15127","101","7","4","lose","no-go","0"
"pit-trial","220","1333588","0.0-106.0","battery-v0.2","","""event"",""trial"",""time""
""fullscreenenter"",""1"",""2831""
","
","
","""event"",""trial"",""time""
""fullscreenenter"",""1"",""2831""
","
","","","683.8000000044703","","","25","15127","6064","r","elianto","#3366ff99"," "," ","1","0","[1534.2000000029802]","1","2","","","15127","102","8","1","win","go","1"
"pit-trial","221","1337376","0.0-107.0","battery-v0.2","","""event"",""trial"",""time""
""fullscreenenter"",""1"",""2831""
","
","
","""event"",""trial"",""time""
""fullscreenenter"",""1"",""2831""
","
","","","932.2999999970198","","","25","15127","6064","m","elianto","#3366ff99"," "," ","1","+10","[1783.7999999970198]","1","2","","","15127","103","9","1","win","go","0"
"pit-trial","222","1342232","0.0-108.0","battery-v0.2","","""event"",""trial"",""time""
""fullscreenenter"",""1"",""2831""
","
","
","""event"",""trial"",""time""
""fullscreenenter"",""1"",""2831""
","
","","","-1","","","25","15127","6064","z","elianto","#3366ff99","-1","-1","1","+10","[]","0","2","","","15127","104","5","2","win","no-go","0"
"pit-trial","223","1345956","0.0-109.0","battery-v0.2","","""event"",""trial"",""time""
""fullscreenenter"",""1"",""2831""
","
","
","""event"",""trial"",""time""
""fullscreenenter"",""1"",""2831""
","
","","","868.8999999985099","","","25","15127","6064","m","elianto","#3366ff99"," "," ","1","+10","[1720.8000000044703]","1","2","","","15127","105","9","1","win","go","0"
"pit-trial","224","1349867","0.0-110.0","battery-v0.2","","""event"",""trial"",""time""
""fullscreenenter"",""1"",""2831""
","
","
","""event"",""trial"",""time""
""fullscreenenter"",""1"",""2831""
","
","","","1055.8999999985099","","","25","15127","6064","h","elianto","#f73b6a7A"," "," ","1","0","[1907]","1","2","","","15127","106","6","3","lose","go","0"
"pit-trial","225","1353455","0.0-111.0","battery-v0.2","","""event"",""trial"",""time""
""fullscreenenter"",""1"",""2831""
","
","
","""event"",""trial"",""time""
""fullscreenenter"",""1"",""2831""
","
","","","732.7000000029802","","","25","15127","6064","r","elianto","#3366ff99"," "," ","1","+10","[1583.7000000029802]","1","2","","","15127","107","8","1","win","go","0"
"pit-trial","226","1356990","0.0-112.0","battery-v0.2","","""event"",""trial"",""time""
""fullscreenenter"",""1"",""2831""
","
","
","""event"",""trial"",""time""
""fullscreenenter"",""1"",""2831""
","
","","","680.5","","","25","15127","6064","c","elianto","#3366ff99"," "," ","1","0","[1531.1999999955297]","1","2","","","15127","108","4","1","win","go","1"
"pit-trial","227","1360605","0.0-113.0","battery-v0.2","","""event"",""trial"",""time""
""fullscreenenter"",""1"",""2831""
","
","
","""event"",""trial"",""time""
""fullscreenenter"",""1"",""2831""
","
","","","759","","","25","15127","6064","h","elianto","#f73b6a7A"," "," ","1","-10","[1610.7999999970198]","1","2","","","15127","109","6","3","lose","go","1"
"pit-trial","228","1364435","0.0-114.0","battery-v0.2","","""event"",""trial"",""time""
""fullscreenenter"",""1"",""2831""
","
","
","""event"",""trial"",""time""
""fullscreenenter"",""1"",""2831""
","
","","","974.7000000029802","","","25","15127","6064","m","elianto","#3366ff99"," "," ","1","+10","[1826.1999999955297]","1","2","","","15127","110","9","1","win","go","0"
"pit-trial","229","1367952","0.0-115.0","battery-v0.2","","""event"",""trial"",""time""
""fullscreenenter"",""1"",""2831""
","
","
","""event"",""trial"",""time""
""fullscreenenter"",""1"",""2831""
","
","","","662.6000000014901","","","25","15127","6064","r","elianto","#3366ff99"," "," ","1","+10","[1513.2999999970198]","1","2","","","15127","111","8","1","win","go","0"
"pit-trial","230","1372808","0.0-116.0","battery-v0.2","","""event"",""trial"",""time""
""fullscreenenter"",""1"",""2831""
","
","
","""event"",""trial"",""time""
""fullscreenenter"",""1"",""2831""
","
","","","-1","","","25","15127","6064","z","elianto","#3366ff99","-1","-1","1","+10","[]","0","2","","","15127","112","5","2","win","no-go","0"
"pit-trial","231","1376367","0.0-117.0","battery-v0.2","","""event"",""trial"",""time""
""fullscreenenter"",""1"",""2831""
","
","
","""event"",""trial"",""time""
""fullscreenenter"",""1"",""2831""
","
","","","705.7000000029802","","","25","15127","6064","m","elianto","#3366ff99"," "," ","1","0","[1556.2000000029802]","1","2","","","15127","113","9","1","win","go","1"
"pit-trial","232","1381222","0.0-118.0","battery-v0.2","","""event"",""trial"",""time""
""fullscreenenter"",""1"",""2831""
","
","
","""event"",""trial"",""time""
""fullscreenenter"",""1"",""2831""
","
","","","-1","","","25","15127","6064","z","elianto","#3366ff99","-1","-1","1","+10","[]","0","2","","","15127","114","5","2","win","no-go","0"
"pit-trial","233","1384798","0.0-119.0","battery-v0.2","","""event"",""trial"",""time""
""fullscreenenter"",""1"",""2831""
","
","
","""event"",""trial"",""time""
""fullscreenenter"",""1"",""2831""
","
","","","722.8999999985099","","","25","15127","6064","r","elianto","#3366ff99"," "," ","1","+10","[1573.7000000029802]","1","2","","","15127","115","8","1","win","go","0"
"pit-trial","234","1388412","0.0-120.0","battery-v0.2","","""event"",""trial"",""time""
""fullscreenenter"",""1"",""2831""
","
","
","""event"",""trial"",""time""
""fullscreenenter"",""1"",""2831""
","
","","","759.6000000014901","","","25","15127","6064","h","elianto","#f73b6a7A"," "," ","1","-10","[1610.6000000014901]","1","2","","","15127","116","6","3","lose","go","1"
"pit-trial","235","1393268","0.0-121.0","battery-v0.2","","""event"",""trial"",""time""
""fullscreenenter"",""1"",""2831""
","
","
","""event"",""trial"",""time""
""fullscreenenter"",""1"",""2831""
","
","","","-1","","","25","15127","6064","z","elianto","#3366ff99","-1","-1","1","0","[]","0","2","","","15127","117","5","2","win","no-go","1"
"pit-trial","236","1396889","0.0-122.0","battery-v0.2","","""event"",""trial"",""time""
""fullscreenenter"",""1"",""2831""
","
","
","""event"",""trial"",""time""
""fullscreenenter"",""1"",""2831""
","
","","","766.5","","","25","15127","6064","r","elianto","#3366ff99"," "," ","1","+10","[1617.6000000014901]","1","2","","","15127","118","8","1","win","go","0"
"pit-trial","237","1400492","0.0-123.0","battery-v0.2","","""event"",""trial"",""time""
""fullscreenenter"",""1"",""2831""
","
","
","""event"",""trial"",""time""
""fullscreenenter"",""1"",""2831""
","
","","","747.5","","","25","15127","6064","m","elianto","#3366ff99"," "," ","1","+10","[1599.3999999985099]","1","2","","","15127","119","9","1","win","go","0"
"pit-trial","238","1404161","0.0-124.0","battery-v0.2","","""event"",""trial"",""time""
""fullscreenenter"",""1"",""2831""
","
","
","""event"",""trial"",""time""
""fullscreenenter"",""1"",""2831""
","
","","","814.6999999955297","","","25","15127","6064","h","elianto","#f73b6a7A"," "," ","1","-10","[1666.2999999970198]","1","2","","","15127","120","6","3","lose","go","1"
"pit-trial","239","1407705","0.0-125.0","battery-v0.2","","""event"",""trial"",""time""
""fullscreenenter"",""1"",""2831""
","
","
","""event"",""trial"",""time""
""fullscreenenter"",""1"",""2831""
","
","","","690.1000000014901","","","25","15127","6064","r","elianto","#3366ff99"," "," ","1","+10","[1540.7000000029802]","1","2","","","15127","121","8","1","win","go","0"
"pit-trial","240","1412559","0.0-126.0","battery-v0.2","","""event"",""trial"",""time""
""fullscreenenter"",""1"",""2831""
","
","
","""event"",""trial"",""time""
""fullscreenenter"",""1"",""2831""
","
","","","-1","","","25","15127","6064","y","elianto","#f73b6a7A","-1","-1","1","0","[]","0","2","","","15127","122","7","4","lose","no-go","0"
"pit-trial","241","1416101","0.0-127.0","battery-v0.2","","""event"",""trial"",""time""
""fullscreenenter"",""1"",""2831""
","
","
","""event"",""trial"",""time""
""fullscreenenter"",""1"",""2831""
","
","","","688.2000000029802","","","25","15127","6064","h","elianto","#f73b6a7A"," "," ","1","0","[1539]","1","2","","","15127","123","6","3","lose","go","0"
"pit-trial","242","1419788","0.0-128.0","battery-v0.2","","""event"",""trial"",""time""
""fullscreenenter"",""1"",""2831""
","
","
","""event"",""trial"",""time""
""fullscreenenter"",""1"",""2831""
","
","","","831.1000000014901","","","25","15127","6064","m","elianto","#3366ff99"," "," ","1","0","[1682.6999999955297]","1","2","","","15127","124","9","1","win","go","1"
"pit-trial","243","1424644","0.0-129.0","battery-v0.2","","""event"",""trial"",""time""
""fullscreenenter"",""1"",""2831""
","
","
","""event"",""trial"",""time""
""fullscreenenter"",""1"",""2831""
","
","","","-1","","","25","15127","6064","y","elianto","#f73b6a7A","-1","-1","1","0","[]","0","2","","","15127","125","7","4","lose","no-go","0"
"pit-trial","244","1428328","0.0-130.0","battery-v0.2","","""event"",""trial"",""time""
""fullscreenenter"",""1"",""2831""
","
","
","""event"",""trial"",""time""
""fullscreenenter"",""1"",""2831""
","
","","","830","","","25","15127","6064","m","elianto","#3366ff99"," "," ","1","+10","[1680.1999999955297]","1","2","","","15127","126","9","1","win","go","0"
"pit-trial","245","1431832","0.0-131.0","battery-v0.2","","""event"",""trial"",""time""
""fullscreenenter"",""1"",""2831""
","
","
","""event"",""trial"",""time""
""fullscreenenter"",""1"",""2831""
","
","","","648.9000000059605","","","25","15127","6064","h","elianto","#f73b6a7A"," "," ","1","0","[1500.7000000029802]","1","2","","","15127","127","6","3","lose","go","0"
"pit-trial","246","1435332","0.0-132.0","battery-v0.2","","""event"",""trial"",""time""
""fullscreenenter"",""1"",""2831""
","
","
","""event"",""trial"",""time""
""fullscreenenter"",""1"",""2831""
","
","","","642.2999999970198","","","25","15127","6064","r","elianto","#3366ff99"," "," ","1","+10","[1495.8999999985099]","1","2","","","15127","128","8","1","win","go","0"
"pit-trial","247","1438873","0.0-133.0","battery-v0.2","","""event"",""trial"",""time""
""fullscreenenter"",""1"",""2831""
","
","
","""event"",""trial"",""time""
""fullscreenenter"",""1"",""2831""
","
","","","685.2000000029802","","","25","15127","6064","m","elianto","#3366ff99"," "," ","1","+10","[1536.6000000014901]","1","2","","","15127","129","9","1","win","go","0"
"pit-trial","248","1442669","0.0-134.0","battery-v0.2","","""event"",""trial"",""time""
""fullscreenenter"",""1"",""2831""
","
","
","""event"",""trial"",""time""
""fullscreenenter"",""1"",""2831""
","
","","","940.2999999970198","","","25","15127","6064","h","elianto","#f73b6a7A"," "," ","1","0","[1792.2999999970198]","1","2","","","15127","130","6","3","lose","go","0"
"pit-trial","249","1447524","0.0-135.0","battery-v0.2","","""event"",""trial"",""time""
""fullscreenenter"",""1"",""2831""
","
","
","""event"",""trial"",""time""
""fullscreenenter"",""1"",""2831""
","
","","","-1","","","25","15127","6064","y","elianto","#f73b6a7A","-1","-1","1","-10","[]","0","2","","","15127","131","7","4","lose","no-go","1"
"pit-trial","250","1450959","0.0-136.0","battery-v0.2","","""event"",""trial"",""time""
""fullscreenenter"",""1"",""2831""
","
","
","""event"",""trial"",""time""
""fullscreenenter"",""1"",""2831""
","
","","","580.7999999970198","","","25","15127","6064","r","elianto","#3366ff99"," "," ","1","+10","[1431.0999999940395]","1","2","","","15127","132","8","1","win","go","0"
"pit-trial","251","1454403","0.0-137.0","battery-v0.2","","""event"",""trial"",""time""
""fullscreenenter"",""1"",""2831""
","
","
","""event"",""trial"",""time""
""fullscreenenter"",""1"",""2831""
","
","","","590.3999999985099","","","25","15127","6064","h","elianto","#f73b6a7A"," "," ","1","-10","[1441.2999999970198]","1","2","","","15127","133","6","3","lose","go","1"
"pit-trial","252","1457992","0.0-138.0","battery-v0.2","","""event"",""trial"",""time""
""fullscreenenter"",""1"",""2831""
","
","
","""event"",""trial"",""time""
""fullscreenenter"",""1"",""2831""
","
","","","734.8999999985099","","","25","15127","6064","r","elianto","#3366ff99"," "," ","1","+10","[1585.8000000044703]","1","2","","","15127","134","8","1","win","go","0"
"pit-trial","253","1462848","0.0-139.0","battery-v0.2","","""event"",""trial"",""time""
""fullscreenenter"",""1"",""2831""
","
","
","""event"",""trial"",""time""
""fullscreenenter"",""1"",""2831""
","
","","","-1","","","25","15127","6064","y","elianto","#f73b6a7A","-1","-1","1","0","[]","0","2","","","15127","135","7","4","lose","no-go","0"
"pit-trial","254","1466407","0.0-140.0","battery-v0.2","","""event"",""trial"",""time""
""fullscreenenter"",""1"",""2831""
","
","
","""event"",""trial"",""time""
""fullscreenenter"",""1"",""2831""
","
","","","705.3999999985099","","","25","15127","6064","m","elianto","#3366ff99"," "," ","1","+10","[1555.5999999940395]","1","2","","","15127","136","9","1","win","go","0"
"pit-trial","255","1469903","0.0-141.0","battery-v0.2","","""event"",""trial"",""time""
""fullscreenenter"",""1"",""2831""
","
","
","""event"",""trial"",""time""
""fullscreenenter"",""1"",""2831""
","
","","","642.1999999955297","","","25","15127","6064","r","elianto","#3366ff99"," "," ","1","0","[1492.8999999985099]","1","2","","","15127","137","8","1","win","go","1"
"pit-trial","256","1473482","0.0-142.0","battery-v0.2","","""event"",""trial"",""time""
""fullscreenenter"",""1"",""2831""
","
","
","""event"",""trial"",""time""
""fullscreenenter"",""1"",""2831""
","
","","","723.1000000014901","","","25","15127","6064","h","elianto","#f73b6a7A"," "," ","1","0","[1574.8000000044703]","1","2","","","15127","138","6","3","lose","go","0"
"pit-trial","257","1478337","0.0-143.0","battery-v0.2","","""event"",""trial"",""time""
""fullscreenenter"",""1"",""2831""
","
","
","""event"",""trial"",""time""
""fullscreenenter"",""1"",""2831""
","
","","","-1","","","25","15127","6064","y","elianto","#f73b6a7A","-1","-1","1","0","[]","0","2","","","15127","139","7","4","lose","no-go","0"
"pit-trial","258","1481830","0.0-144.0","battery-v0.2","","""event"",""trial"",""time""
""fullscreenenter"",""1"",""2831""
","
","
","""event"",""trial"",""time""
""fullscreenenter"",""1"",""2831""
","
","","","637.5","","","25","15127","6064","m","elianto","#3366ff99"," "," ","1","+10","[1489.1999999955297]","1","2","","","15127","140","9","1","win","go","0"
"pit-instructions","259","1510114","0.0-145.0","battery-v0.2","","""event"",""trial"",""time""
""fullscreenenter"",""1"",""2831""
","
","
","""event"",""trial"",""time""
""fullscreenenter"",""1"",""2831""
","
","","[{""page_index"":0,""viewing_time"":16481.39999999851},{""page_index"":1,""viewing_time"":11801.39999999851}]","28283.09999999404","","","","","","","","","","","","","","","","","","","","","","","",""
"pit-trial","260","1513931","0.0-146.0","battery-v0.2","","""event"",""trial"",""time""
""fullscreenenter"",""1"",""2831""
","
","
","""event"",""trial"",""time""
""fullscreenenter"",""1"",""2831""
","
","","","958.6000000014901","","","25","15127","6064","u","elianto","#f73b6a7A","-1"," ","0","-10","[1808.8000000044703]","1","3","","","15127","141","0","4","lose","no-go","0"
"pit-trial","261","1517542","0.0-147.0","battery-v0.2","","""event"",""trial"",""time""
""fullscreenenter"",""1"",""2831""
","
","
","""event"",""trial"",""time""
""fullscreenenter"",""1"",""2831""
","
","","","756.2999999970198","","","25","15127","6064","l","elianto","#3366ff99"," "," ","1","+10","[1606.7999999970198]","1","3","","","15127","142","1","1","win","go","0"
"pit-trial","262","1521092","0.0-148.0","battery-v0.2","","""event"",""trial"",""time""
""fullscreenenter"",""1"",""2831""
","
","
","""event"",""trial"",""time""
""fullscreenenter"",""1"",""2831""
","
","","","697.3000000044703","","","25","15127","6064","a","elianto","#f73b6a7A","-1"," ","0","-10","[1547.7000000029802]","1","3","","","15127","143","2","4","lose","no-go","0"
"pit-trial","263","1524666","0.0-149.0","battery-v0.2","","""event"",""trial"",""time""
""fullscreenenter"",""1"",""2831""
","
","
","""event"",""trial"",""time""
""fullscreenenter"",""1"",""2831""
","
","","","720.7999999970198","","","25","15127","6064","g","elianto","#f73b6a7A"," "," ","1","0","[1571.3999999985099]","1","3","","","15127","144","3","3","lose","go","0"
"pit-trial","264","1528015","0.0-150.0","battery-v0.2","","""event"",""trial"",""time""
""fullscreenenter"",""1"",""2831""
","
","
","""event"",""trial"",""time""
""fullscreenenter"",""1"",""2831""
","
","","","494.30000000447035","","","25","15127","6064","l","elianto","#3366ff99"," "," ","1","0","[1345.7000000029802]","1","3","","","15127","145","1","1","win","go","1"
"pit-trial","265","1532870","0.0-151.0","battery-v0.2","","""event"",""trial"",""time""
""fullscreenenter"",""1"",""2831""
","
","
","""event"",""trial"",""time""
