"trial_type","trial_index","time_elapsed","internal_node_id","task_version","subject_id","interactions","blur_events","focus_events","fullscreenenter_events","fullscreenexit_events","success","view_history","rt","responses","num_errors","age","subject","participantId","rune","rune_set","hex","correct","choice","accuracy","outcome","keys","total_keys","block","practice","value","sub","trial","stimulus","robot","valence","action","sham"
"pavlovia","0","3","0.0-0.0","battery-v0.2","","""event"",""trial"",""time""
""fullscreenenter"",""1"",""3634""
","
","
","""event"",""trial"",""time""
""fullscreenenter"",""1"",""3634""
","
","","","","","","","","","","","","","","","","","","","","","","","","","","",""
"fullscreen","1","4627","0.0-1.0","battery-v0.2","","""event"",""trial"",""time""
""fullscreenenter"",""1"",""3634""
""blur"",""2"",""8912""
""focus"",""2"",""10879""
","""event"",""trial"",""time""
""blur"",""2"",""8912""
","""event"",""trial"",""time""
""focus"",""2"",""10879""
","""event"",""trial"",""time""
""fullscreenenter"",""1"",""3634""
","
","true","","","","","","","","","","","","","","","","","","","","","","","","","",""
"pit-instructions","2","11640","0.0-2.0-0.0","battery-v0.2","","""event"",""trial"",""time""
""fullscreenenter"",""1"",""3634""
""blur"",""2"",""8912""
""focus"",""2"",""10879""
","""event"",""trial"",""time""
""blur"",""2"",""8912""
","""event"",""trial"",""time""
""focus"",""2"",""10879""
","""event"",""trial"",""time""
""fullscreenenter"",""1"",""3634""
","
","","[{""page_index"":0,""viewing_time"":7008.599999904633}]","7009.200000047684","","","","","","","","","","","","","","","","","","","","","","","",""
"pit-comprehension","3","14765","0.0-2.0-1.0-0.0","battery-v0.2","","""event"",""trial"",""time""
""fullscreenenter"",""1"",""3634""
""blur"",""2"",""8912""
""focus"",""2"",""10879""
","""event"",""trial"",""time""
""blur"",""2"",""8912""
","""event"",""trial"",""time""
""focus"",""2"",""10879""
","""event"",""trial"",""time""
""fullscreenenter"",""1"",""3634""
","
","","","3120.5999999046326","[""shark""]","0","22","16960","6462","","","","","","","","","","","","","","","","","","",""
"pit-instructions","4","16125","0.0-2.0-1.0-1.0","battery-v0.2","","""event"",""trial"",""time""
""fullscreenenter"",""1"",""3634""
""blur"",""2"",""8912""
""focus"",""2"",""10879""
","""event"",""trial"",""time""
""blur"",""2"",""8912""
","""event"",""trial"",""time""
""focus"",""2"",""10879""
","""event"",""trial"",""time""
""fullscreenenter"",""1"",""3634""
","
","","[{""page_index"":0,""viewing_time"":1350.7999999523163}]","1351.2999999523163","","","","","","","","","","","","","","","","","","","","","","","",""
"pit-comprehension","5","19691","0.0-2.0-2.0-0.0","battery-v0.2","","""event"",""trial"",""time""
""fullscreenenter"",""1"",""3634""
""blur"",""2"",""8912""
""focus"",""2"",""10879""
","""event"",""trial"",""time""
""blur"",""2"",""8912""
","""event"",""trial"",""time""
""focus"",""2"",""10879""
","""event"",""trial"",""time""
""fullscreenenter"",""1"",""3634""
","
","","","3561.5","[""tiger""]","0","22","16960","6462","","","","","","","","","","","","","","","","","","",""
"pit-instructions","6","21245","0.0-2.0-2.0-1.0","battery-v0.2","","""event"",""trial"",""time""
""fullscreenenter"",""1"",""3634""
""blur"",""2"",""8912""
""focus"",""2"",""10879""
","""event"",""trial"",""time""
""blur"",""2"",""8912""
","""event"",""trial"",""time""
""focus"",""2"",""10879""
","""event"",""trial"",""time""
""fullscreenenter"",""1"",""3634""
","
","","[{""page_index"":0,""viewing_time"":1552.5}]","1553.1000001430511","","","","","","","","","","","","","","","","","","","","","","","",""
"pit-instructions","7","143861","0.0-2.0-3.0","battery-v0.2","","""event"",""trial"",""time""
""fullscreenenter"",""1"",""3634""
""blur"",""2"",""8912""
""focus"",""2"",""10879""
","""event"",""trial"",""time""
""blur"",""2"",""8912""
","""event"",""trial"",""time""
""focus"",""2"",""10879""
","""event"",""trial"",""time""
""fullscreenenter"",""1"",""3634""
","
","","[{""page_index"":0,""viewing_time"":7893.700000047684},{""page_index"":1,""viewing_time"":8579.200000047684},{""page_index"":2,""viewing_time"":6188.399999856949},{""page_index"":3,""viewing_time"":10851.800000190735},{""page_index"":4,""viewing_time"":8777.799999952316},{""page_index"":5,""viewing_time"":8438.599999904633},{""page_index"":6,""viewing_time"":9941.400000095367},{""page_index"":7,""viewing_time"":7842.200000047684},{""page_index"":8,""viewing_time"":11338.599999904633},{""page_index"":9,""viewing_time"":15477.599999904633},{""page_index"":10,""viewing_time"":8121.800000190735},{""page_index"":11,""viewing_time"":6917.099999904633},{""page_index"":12,""viewing_time"":6330.799999952316},{""page_index"":13,""viewing_time"":5928.400000095367}]","122628","","","","","","","","","","","","","","","","","","","","","","","",""
"pit-trial","8","146836","0.0-2.0-4.0-0.0","battery-v0.2","","""event"",""trial"",""time""
""fullscreenenter"",""1"",""3634""
""blur"",""2"",""8912""
""focus"",""2"",""10879""
","""event"",""trial"",""time""
""blur"",""2"",""8912""
","""event"",""trial"",""time""
""focus"",""2"",""10879""
","""event"",""trial"",""time""
""fullscreenenter"",""1"",""3634""
","
","","","121.19999980926514","","","22","16960","6462","&#9784;","elianto","#FFFFF080"," "," ","1","&#10004","[972.4000000953674,1899.0999999046326]","2","0","0","","","","","","","",""
"pit-trial","9","149876","0.0-2.0-4.1-0.1","battery-v0.2","","""event"",""trial"",""time""
""fullscreenenter"",""1"",""3634""
""blur"",""2"",""8912""
""focus"",""2"",""10879""
","""event"",""trial"",""time""
""blur"",""2"",""8912""
","""event"",""trial"",""time""
""focus"",""2"",""10879""
","""event"",""trial"",""time""
""fullscreenenter"",""1"",""3634""
","
","","","183.70000004768372","","","22","16960","6462","&#9784;","elianto","#FFFFF080"," "," ","1","&#10004","[1034.2000000476837,1936.2000000476837]","2","0","0","","","","","","","",""
"pit-trial","10","152899","0.0-2.0-4.2-0.2","battery-v0.2","","""event"",""trial"",""time""
""fullscreenenter"",""1"",""3634""
""blur"",""2"",""8912""
""focus"",""2"",""10879""
","""event"",""trial"",""time""
""blur"",""2"",""8912""
","""event"",""trial"",""time""
""focus"",""2"",""10879""
","""event"",""trial"",""time""
""fullscreenenter"",""1"",""3634""
","
","","","168.89999985694885","","","22","16960","6462","&#9784;","elianto","#FFFFF080"," "," ","1","&#10004","[1019.5]","1","0","0","","","","","","","",""
"pit-trial","11","155817","0.0-2.0-4.3-0.3","battery-v0.2","","""event"",""trial"",""time""
""fullscreenenter"",""1"",""3634""
""blur"",""2"",""8912""
""focus"",""2"",""10879""
","""event"",""trial"",""time""
""blur"",""2"",""8912""
","""event"",""trial"",""time""
""focus"",""2"",""10879""
","""event"",""trial"",""time""
""fullscreenenter"",""1"",""3634""
","
","","","61.30000019073486","","","22","16960","6462","&#9784;","elianto","#FFFFF080"," "," ","1","&#10004","[912.2999999523163,1843.2000000476837]","2","0","0","","","","","","","",""
"pit-trial","12","159012","0.0-2.0-4.4-0.4","battery-v0.2","","""event"",""trial"",""time""
""fullscreenenter"",""1"",""3634""
""blur"",""2"",""8912""
""focus"",""2"",""10879""
","""event"",""trial"",""time""
""blur"",""2"",""8912""
","""event"",""trial"",""time""
""focus"",""2"",""10879""
","""event"",""trial"",""time""
""fullscreenenter"",""1"",""3634""
","
","","","339.7999999523163","","","22","16960","6462","&#9784;","elianto","#FFFFF080"," "," ","1","&#10004","[1191.2000000476837,2947]","2","0","0","","","","","","","",""
"pit-instructions","13","187816","0.0-2.0-5.0","battery-v0.2","","""event"",""trial"",""time""
""fullscreenenter"",""1"",""3634""
""blur"",""2"",""8912""
""focus"",""2"",""10879""
","""event"",""trial"",""time""
""blur"",""2"",""8912""
","""event"",""trial"",""time""
""focus"",""2"",""10879""
","""event"",""trial"",""time""
""fullscreenenter"",""1"",""3634""
","
","","[{""page_index"":0,""viewing_time"":4739.399999856949},{""page_index"":1,""viewing_time"":13140.200000047684},{""page_index"":2,""viewing_time"":5129},{""page_index"":3,""viewing_time"":5792.900000095367}]","28802.199999809265","","","","","","","","","","","","","","","","","","","","","","","",""
"pit-trial","14","192672","0.0-2.0-6.0-0.0","battery-v0.2","","""event"",""trial"",""time""
""fullscreenenter"",""1"",""3634""
""blur"",""2"",""8912""
""focus"",""2"",""10879""
","""event"",""trial"",""time""
""blur"",""2"",""8912""
","""event"",""trial"",""time""
""focus"",""2"",""10879""
","""event"",""trial"",""time""
""fullscreenenter"",""1"",""3634""
","
","","","-1","","","22","16960","6462","&#9854;","elianto","#FFFFF080","-1","-1","1","&#10004","[]","0","0","1","","","","","","","",""
"pit-trial","15","197528","0.0-2.0-6.1-0.1","battery-v0.2","","""event"",""trial"",""time""
""fullscreenenter"",""1"",""3634""
""blur"",""2"",""8912""
""focus"",""2"",""10879""
","""event"",""trial"",""time""
""blur"",""2"",""8912""
","""event"",""trial"",""time""
""focus"",""2"",""10879""
","""event"",""trial"",""time""
""fullscreenenter"",""1"",""3634""
","
","","","-1","","","22","16960","6462","&#9854;","elianto","#FFFFF080","-1","-1","1","&#10004","[]","0","0","1","","","","","","","",""
"pit-trial","16","202382","0.0-2.0-6.2-0.2","battery-v0.2","","""event"",""trial"",""time""
""fullscreenenter"",""1"",""3634""
""blur"",""2"",""8912""
""focus"",""2"",""10879""
","""event"",""trial"",""time""
""blur"",""2"",""8912""
","""event"",""trial"",""time""
""focus"",""2"",""10879""
","""event"",""trial"",""time""
""fullscreenenter"",""1"",""3634""
","
","","","-1","","","22","16960","6462","&#9854;","elianto","#FFFFF080","-1","-1","1","&#10004","[]","0","0","1","","","","","","","",""
"pit-trial","17","207237","0.0-2.0-6.3-0.3","battery-v0.2","","""event"",""trial"",""time""
""fullscreenenter"",""1"",""3634""
""blur"",""2"",""8912""
""focus"",""2"",""10879""
","""event"",""trial"",""time""
""blur"",""2"",""8912""
","""event"",""trial"",""time""
""focus"",""2"",""10879""
","""event"",""trial"",""time""
""fullscreenenter"",""1"",""3634""
","
","","","-1","","","22","16960","6462","&#9854;","elianto","#FFFFF080","-1","-1","1","&#10004","[]","0","0","1","","","","","","","",""
"pit-trial","18","212093","0.0-2.0-6.4-0.4","battery-v0.2","","""event"",""trial"",""time""
""fullscreenenter"",""1"",""3634""
""blur"",""2"",""8912""
""focus"",""2"",""10879""
""blur"",""19"",""215743""
""focus"",""19"",""215920""
","""event"",""trial"",""time""
""blur"",""2"",""8912""
""blur"",""19"",""215743""
","""event"",""trial"",""time""
""focus"",""2"",""10879""
""focus"",""19"",""215920""
","""event"",""trial"",""time""
""fullscreenenter"",""1"",""3634""
","
","","","-1","","","22","16960","6462","&#9854;","elianto","#FFFFF080","-1","-1","1","&#10004","[]","0","0","1","","","","","","","",""
"pit-instructions","19","363930","0.0-2.0-7.0","battery-v0.2","","""event"",""trial"",""time""
""fullscreenenter"",""1"",""3634""
""blur"",""2"",""8912""
""focus"",""2"",""10879""
""blur"",""19"",""215743""
""focus"",""19"",""215920""
","""event"",""trial"",""time""
""blur"",""2"",""8912""
""blur"",""19"",""215743""
","""event"",""trial"",""time""
""focus"",""2"",""10879""
""focus"",""19"",""215920""
","""event"",""trial"",""time""
""fullscreenenter"",""1"",""3634""
","
","","[{""page_index"":0,""viewing_time"":8021.400000095367},{""page_index"":1,""viewing_time"":7467.199999809265},{""page_index"":2,""viewing_time"":15525.700000047684},{""page_index"":3,""viewing_time"":7988.799999952316},{""page_index"":4,""viewing_time"":12397.200000047684},{""page_index"":5,""viewing_time"":6611.5},{""page_index"":6,""viewing_time"":4980.100000143051},{""page_index"":7,""viewing_time"":9867},{""page_index"":8,""viewing_time"":7818.299999952316},{""page_index"":9,""viewing_time"":6854.700000047684},{""page_index"":10,""viewing_time"":7695.399999856949},{""page_index"":11,""viewing_time"":4136.200000047684},{""page_index"":12,""viewing_time"":6186.599999904633},{""page_index"":13,""viewing_time"":7713.600000143051},{""page_index"":14,""viewing_time"":8528.099999904633},{""page_index"":15,""viewing_time"":11186.799999952316},{""page_index"":16,""viewing_time"":8930.600000143051},{""page_index"":17,""viewing_time"":9925.200000047684}]","151834.90000009537","","","","","","","","","","","","","","","","","","","","","","","",""
"pit-trial","20","368786","0.0-2.0-8.0-0.0","battery-v0.2","","""event"",""trial"",""time""
""fullscreenenter"",""1"",""3634""
""blur"",""2"",""8912""
""focus"",""2"",""10879""
""blur"",""19"",""215743""
""focus"",""19"",""215920""
","""event"",""trial"",""time""
""blur"",""2"",""8912""
""blur"",""19"",""215743""
","""event"",""trial"",""time""
""focus"",""2"",""10879""
""focus"",""19"",""215920""
","""event"",""trial"",""time""
""fullscreenenter"",""1"",""3634""
","
","","","-1","","","22","16960","6462","&#9776;","elianto","#3366ff99"," ","-1","0","0","[]","0","0","1","","","","","","","",""
"pit-trial","21","371746","0.0-2.0-8.0-1.0","battery-v0.2","","""event"",""trial"",""time""
""fullscreenenter"",""1"",""3634""
""blur"",""2"",""8912""
""focus"",""2"",""10879""
""blur"",""19"",""215743""
""focus"",""19"",""215920""
","""event"",""trial"",""time""
""blur"",""2"",""8912""
""blur"",""19"",""215743""
","""event"",""trial"",""time""
""focus"",""2"",""10879""
""focus"",""19"",""215920""
","""event"",""trial"",""time""
""fullscreenenter"",""1"",""3634""
","
","","","105.90000009536743","","","22","16960","6462","&#9776;","elianto","#3366ff99"," "," ","1","+10","[956.2000000476837,2026.2000000476837]","2","0","1","","","","","","","",""
"pit-trial","22","374700","0.0-2.0-8.0-2.0","battery-v0.2","","""event"",""trial"",""time""
""fullscreenenter"",""1"",""3634""
""blur"",""2"",""8912""
""focus"",""2"",""10879""
""blur"",""19"",""215743""
""focus"",""19"",""215920""
","""event"",""trial"",""time""
""blur"",""2"",""8912""
""blur"",""19"",""215743""
","""event"",""trial"",""time""
""focus"",""2"",""10879""
""focus"",""19"",""215920""
","""event"",""trial"",""time""
""fullscreenenter"",""1"",""3634""
","
","","","101.60000014305115","","","22","16960","6462","&#9776;","elianto","#3366ff99"," "," ","1","+10","[952.2000000476837]","1","0","1","","","","","","","",""
"pit-trial","23","377563","0.0-2.0-8.0-3.0","battery-v0.2","","""event"",""trial"",""time""
""fullscreenenter"",""1"",""3634""
""blur"",""2"",""8912""
""focus"",""2"",""10879""
""blur"",""19"",""215743""
""focus"",""19"",""215920""
","""event"",""trial"",""time""
""blur"",""2"",""8912""
""blur"",""19"",""215743""
","""event"",""trial"",""time""
""focus"",""2"",""10879""
""focus"",""19"",""215920""
","""event"",""trial"",""time""
""fullscreenenter"",""1"",""3634""
","
","","","8.900000095367432","","","22","16960","6462","&#9776;","elianto","#3366ff99"," "," ","1","0","[859.8999998569489,2395.899999856949]","2","0","1","","","","","","","",""
"pit-trial","24","382417","0.0-2.0-8.0-4.0","battery-v0.2","","""event"",""trial"",""time""
""fullscreenenter"",""1"",""3634""
""blur"",""2"",""8912""
""focus"",""2"",""10879""
""blur"",""19"",""215743""
""focus"",""19"",""215920""
","""event"",""trial"",""time""
""blur"",""2"",""8912""
""blur"",""19"",""215743""
","""event"",""trial"",""time""
""focus"",""2"",""10879""
""focus"",""19"",""215920""
","""event"",""trial"",""time""
""fullscreenenter"",""1"",""3634""
","
","","","-1","","","22","16960","6462","&#9776;","elianto","#3366ff99"," ","-1","0","0","[]","0","0","1","","","","","","","",""
"pit-trial","25","385388","0.0-2.0-8.1-0.1","battery-v0.2","","""event"",""trial"",""time""
""fullscreenenter"",""1"",""3634""
""blur"",""2"",""8912""
""focus"",""2"",""10879""
""blur"",""19"",""215743""
""focus"",""19"",""215920""
","""event"",""trial"",""time""
""blur"",""2"",""8912""
""blur"",""19"",""215743""
","""event"",""trial"",""time""
""focus"",""2"",""10879""
""focus"",""19"",""215920""
","""event"",""trial"",""time""
""fullscreenenter"",""1"",""3634""
","
","","","114.20000004768372","","","22","16960","6462","&#9776;","elianto","#3366ff99"," "," ","1","+10","[965.2999999523163]","1","0","1","","","","","","","",""
"pit-trial","26","388896","0.0-2.0-8.1-1.1","battery-v0.2","","""event"",""trial"",""time""
""fullscreenenter"",""1"",""3634""
""blur"",""2"",""8912""
""focus"",""2"",""10879""
""blur"",""19"",""215743""
""focus"",""19"",""215920""
","""event"",""trial"",""time""
""blur"",""2"",""8912""
""blur"",""19"",""215743""
","""event"",""trial"",""time""
""focus"",""2"",""10879""
""focus"",""19"",""215920""
","""event"",""trial"",""time""
""fullscreenenter"",""1"",""3634""
","
","","","653.5","","","22","16960","6462","&#9776;","elianto","#3366ff99"," "," ","1","+10","[770.9000000953674,1504.6000001430511,2231.5]","3","0","1","","","","","","","",""
"pit-trial","27","391867","0.0-2.0-8.1-2.1","battery-v0.2","","""event"",""trial"",""time""
""fullscreenenter"",""1"",""3634""
""blur"",""2"",""8912""
""focus"",""2"",""10879""
""blur"",""19"",""215743""
""focus"",""19"",""215920""
","""event"",""trial"",""time""
""blur"",""2"",""8912""
""blur"",""19"",""215743""
","""event"",""trial"",""time""
""focus"",""2"",""10879""
""focus"",""19"",""215920""
","""event"",""trial"",""time""
""fullscreenenter"",""1"",""3634""
","
","","","117.09999990463257","","","22","16960","6462","&#9776;","elianto","#3366ff99"," "," ","1","+10","[968.0999999046326]","1","0","1","","","","","","","",""
"pit-trial","28","394792","0.0-2.0-8.1-3.1","battery-v0.2","","""event"",""trial"",""time""
""fullscreenenter"",""1"",""3634""
""blur"",""2"",""8912""
""focus"",""2"",""10879""
""blur"",""19"",""215743""
""focus"",""19"",""215920""
","""event"",""trial"",""time""
""blur"",""2"",""8912""
""blur"",""19"",""215743""
","""event"",""trial"",""time""
""focus"",""2"",""10879""
""focus"",""19"",""215920""
","""event"",""trial"",""time""
""fullscreenenter"",""1"",""3634""
","
","","","72.60000014305115","","","22","16960","6462","&#9776;","elianto","#3366ff99"," "," ","1","0","[922.9000000953674]","1","0","1","","","","","","","",""
"pit-trial","29","397723","0.0-2.0-8.1-4.1","battery-v0.2","","""event"",""trial"",""time""
""fullscreenenter"",""1"",""3634""
""blur"",""2"",""8912""
""focus"",""2"",""10879""
""blur"",""19"",""215743""
""focus"",""19"",""215920""
","""event"",""trial"",""time""
""blur"",""2"",""8912""
""blur"",""19"",""215743""
","""event"",""trial"",""time""
""focus"",""2"",""10879""
""focus"",""19"",""215920""
","""event"",""trial"",""time""
""fullscreenenter"",""1"",""3634""
","
","","","76.90000009536743","","","22","16960","6462","&#9776;","elianto","#3366ff99"," "," ","1","+10","[927.5,2435.7999999523163]","2","0","1","","","","","","","",""
"pit-trial","30","400647","0.0-2.0-8.2-0.2","battery-v0.2","","""event"",""trial"",""time""
""fullscreenenter"",""1"",""3634""
""blur"",""2"",""8912""
""focus"",""2"",""10879""
""blur"",""19"",""215743""
""focus"",""19"",""215920""
","""event"",""trial"",""time""
""blur"",""2"",""8912""
""blur"",""19"",""215743""
","""event"",""trial"",""time""
""focus"",""2"",""10879""
""focus"",""19"",""215920""
","""event"",""trial"",""time""
""fullscreenenter"",""1"",""3634""
","
","","","67.80000019073486","","","22","16960","6462","&#9776;","elianto","#3366ff99"," "," ","1","+10","[918.5]","1","0","1","","","","","","","",""
"pit-trial","31","405502","0.0-2.0-8.2-1.2","battery-v0.2","","""event"",""trial"",""time""
""fullscreenenter"",""1"",""3634""
""blur"",""2"",""8912""
""focus"",""2"",""10879""
""blur"",""19"",""215743""
""focus"",""19"",""215920""
","""event"",""trial"",""time""
""blur"",""2"",""8912""
""blur"",""19"",""215743""
","""event"",""trial"",""time""
""focus"",""2"",""10879""
""focus"",""19"",""215920""
","""event"",""trial"",""time""
""fullscreenenter"",""1"",""3634""
","
","","","-1","","","22","16960","6462","&#9776;","elianto","#3366ff99"," ","-1","0","0","[3718.5]","1","0","1","","","","","","","",""
"pit-trial","32","408415","0.0-2.0-8.2-2.2","battery-v0.2","","""event"",""trial"",""time""
""fullscreenenter"",""1"",""3634""
""blur"",""2"",""8912""
""focus"",""2"",""10879""
""blur"",""19"",""215743""
""focus"",""19"",""215920""
","""event"",""trial"",""time""
""blur"",""2"",""8912""
""blur"",""19"",""215743""
","""event"",""trial"",""time""
""focus"",""2"",""10879""
""focus"",""19"",""215920""
","""event"",""trial"",""time""
""fullscreenenter"",""1"",""3634""
","
","","","58.700000047683716","","","22","16960","6462","&#9776;","elianto","#3366ff99"," "," ","1","+10","[202.5,909.5,1545.2000000476837]","3","0","1","","","","","","","",""
"pit-trial","33","411398","0.0-2.0-8.2-3.2","battery-v0.2","","""event"",""trial"",""time""
""fullscreenenter"",""1"",""3634""
""blur"",""2"",""8912""
""focus"",""2"",""10879""
""blur"",""19"",""215743""
""focus"",""19"",""215920""
","""event"",""trial"",""time""
""blur"",""2"",""8912""
""blur"",""19"",""215743""
","""event"",""trial"",""time""
""focus"",""2"",""10879""
""focus"",""19"",""215920""
","""event"",""trial"",""time""
""fullscreenenter"",""1"",""3634""
","
","","","124.79999995231628","","","22","16960","6462","&#9776;","elianto","#3366ff99"," "," ","1","0","[975,2797.0999999046326]","2","0","1","","","","","","","",""
"pit-trial","34","414895","0.0-2.0-8.2-4.2","battery-v0.2","","""event"",""trial"",""time""
""fullscreenenter"",""1"",""3634""
""blur"",""2"",""8912""
""focus"",""2"",""10879""
""blur"",""19"",""215743""
""focus"",""19"",""215920""
","""event"",""trial"",""time""
""blur"",""2"",""8912""
""blur"",""19"",""215743""
","""event"",""trial"",""time""
""focus"",""2"",""10879""
""focus"",""19"",""215920""
","""event"",""trial"",""time""
""fullscreenenter"",""1"",""3634""
","
","","","642.7000000476837","","","22","16960","6462","&#9776;","elianto","#3366ff99"," "," ","1","+10","[847.0999999046326,1493.7000000476837,2165.5999999046326,2806.7000000476837]","4","0","1","","","","","","","",""
"call-function","35","414899","0.0-2.0-9.0","battery-v0.2","","""event"",""trial"",""time""
""fullscreenenter"",""1"",""3634""
""blur"",""2"",""8912""
""focus"",""2"",""10879""
""blur"",""19"",""215743""
""focus"",""19"",""215920""
","""event"",""trial"",""time""
""blur"",""2"",""8912""
""blur"",""19"",""215743""
","""event"",""trial"",""time""
""focus"",""2"",""10879""
""focus"",""19"",""215920""
","""event"",""trial"",""time""
""fullscreenenter"",""1"",""3634""
","
","","","","","","","","","","","","","","","","","","","","","","","","","","",""
"pit-instructions","36","455312","0.0-2.0-10.0","battery-v0.2","","""event"",""trial"",""time""
""fullscreenenter"",""1"",""3634""
""blur"",""2"",""8912""
""focus"",""2"",""10879""
""blur"",""19"",""215743""
""focus"",""19"",""215920""
","""event"",""trial"",""time""
""blur"",""2"",""8912""
""blur"",""19"",""215743""
","""event"",""trial"",""time""
""focus"",""2"",""10879""
""focus"",""19"",""215920""
","""event"",""trial"",""time""
""fullscreenenter"",""1"",""3634""
","
","","[{""page_index"":0,""viewing_time"":5830.700000047684},{""page_index"":1,""viewing_time"":7881.5},{""page_index"":2,""viewing_time"":9978.200000047684},{""page_index"":3,""viewing_time"":9345.099999904633},{""page_index"":4,""viewing_time"":7376.799999952316}]","40412.799999952316","","","","","","","","","","","","","","","","","","","","","","","",""
"pit-trial","37","460167","0.0-2.0-11.0-0.0","battery-v0.2","","""event"",""trial"",""time""
""fullscreenenter"",""1"",""3634""
""blur"",""2"",""8912""
""focus"",""2"",""10879""
""blur"",""19"",""215743""
""focus"",""19"",""215920""
","""event"",""trial"",""time""
""blur"",""2"",""8912""
""blur"",""19"",""215743""
","""event"",""trial"",""time""
""focus"",""2"",""10879""
""focus"",""19"",""215920""
","""event"",""trial"",""time""
""fullscreenenter"",""1"",""3634""
","
","","","-1","","","22","16960","6462","&#9761;","elianto","#3366ff99","-1","-1","1","+10","[]","0","0","2","","","","","","","",""
"pit-trial","38","465021","0.0-2.0-11.0-1.0","battery-v0.2","","""event"",""trial"",""time""
""fullscreenenter"",""1"",""3634""
""blur"",""2"",""8912""
""focus"",""2"",""10879""
""blur"",""19"",""215743""
""focus"",""19"",""215920""
","""event"",""trial"",""time""
""blur"",""2"",""8912""
""blur"",""19"",""215743""
","""event"",""trial"",""time""
""focus"",""2"",""10879""
""focus"",""19"",""215920""
","""event"",""trial"",""time""
""fullscreenenter"",""1"",""3634""
","
","","","-1","","","22","16960","6462","&#9761;","elianto","#3366ff99","-1","-1","1","+10","[]","0","0","2","","","","","","","",""
"pit-trial","39","469875","0.0-2.0-11.0-2.0","battery-v0.2","","""event"",""trial"",""time""
""fullscreenenter"",""1"",""3634""
""blur"",""2"",""8912""
""focus"",""2"",""10879""
""blur"",""19"",""215743""
""focus"",""19"",""215920""
","""event"",""trial"",""time""
""blur"",""2"",""8912""
""blur"",""19"",""215743""
","""event"",""trial"",""time""
""focus"",""2"",""10879""
""focus"",""19"",""215920""
","""event"",""trial"",""time""
""fullscreenenter"",""1"",""3634""
","
","","","-1","","","22","16960","6462","&#9761;","elianto","#3366ff99","-1","-1","1","+10","[]","0","0","2","","","","","","","",""
"pit-trial","40","472810","0.0-2.0-11.0-3.0","battery-v0.2","","""event"",""trial"",""time""
""fullscreenenter"",""1"",""3634""
""blur"",""2"",""8912""
""focus"",""2"",""10879""
""blur"",""19"",""215743""
""focus"",""19"",""215920""
","""event"",""trial"",""time""
""blur"",""2"",""8912""
""blur"",""19"",""215743""
","""event"",""trial"",""time""
""focus"",""2"",""10879""
""focus"",""19"",""215920""
","""event"",""trial"",""time""
""fullscreenenter"",""1"",""3634""
","
","","","81.29999995231628","","","22","16960","6462","&#9761;","elianto","#3366ff99","-1"," ","0","+10","[931.5]","1","0","2","","","","","","","",""
"pit-trial","41","477665","0.0-2.0-11.0-4.0","battery-v0.2","","""event"",""trial"",""time""
""fullscreenenter"",""1"",""3634""
""blur"",""2"",""8912""
""focus"",""2"",""10879""
""blur"",""19"",""215743""
""focus"",""19"",""215920""
","""event"",""trial"",""time""
""blur"",""2"",""8912""
""blur"",""19"",""215743""
","""event"",""trial"",""time""
""focus"",""2"",""10879""
""focus"",""19"",""215920""
","""event"",""trial"",""time""
""fullscreenenter"",""1"",""3634""
","
","","","-1","","","22","16960","6462","&#9761;","elianto","#3366ff99","-1","-1","1","+10","[]","0","0","2","","","","","","","",""
"pit-trial","42","482521","0.0-2.0-11.1-0.1","battery-v0.2","","""event"",""trial"",""time""
""fullscreenenter"",""1"",""3634""
""blur"",""2"",""8912""
""focus"",""2"",""10879""
""blur"",""19"",""215743""
""focus"",""19"",""215920""
","""event"",""trial"",""time""
""blur"",""2"",""8912""
""blur"",""19"",""215743""
","""event"",""trial"",""time""
""focus"",""2"",""10879""
""focus"",""19"",""215920""
","""event"",""trial"",""time""
""fullscreenenter"",""1"",""3634""
","
","","","-1","","","22","16960","6462","&#9761;","elianto","#3366ff99","-1","-1","1","+10","[]","0","0","2","","","","","","","",""
"pit-trial","43","487376","0.0-2.0-11.1-1.1","battery-v0.2","","""event"",""trial"",""time""
""fullscreenenter"",""1"",""3634""
""blur"",""2"",""8912""
""focus"",""2"",""10879""
""blur"",""19"",""215743""
""focus"",""19"",""215920""
","""event"",""trial"",""time""
""blur"",""2"",""8912""
""blur"",""19"",""215743""
","""event"",""trial"",""time""
""focus"",""2"",""10879""
""focus"",""19"",""215920""
","""event"",""trial"",""time""
""fullscreenenter"",""1"",""3634""
","
","","","-1","","","22","16960","6462","&#9761;","elianto","#3366ff99","-1","-1","1","+10","[]","0","0","2","","","","","","","",""
"pit-trial","44","492231","0.0-2.0-11.1-2.1","battery-v0.2","","""event"",""trial"",""time""
""fullscreenenter"",""1"",""3634""
""blur"",""2"",""8912""
""focus"",""2"",""10879""
""blur"",""19"",""215743""
""focus"",""19"",""215920""
","""event"",""trial"",""time""
""blur"",""2"",""8912""
""blur"",""19"",""215743""
","""event"",""trial"",""time""
""focus"",""2"",""10879""
""focus"",""19"",""215920""
","""event"",""trial"",""time""
""fullscreenenter"",""1"",""3634""
","
","","","-1","","","22","16960","6462","&#9761;","elianto","#3366ff99","-1","-1","1","+10","[830]","1","0","2","","","","","","","",""
"pit-trial","45","497086","0.0-2.0-11.1-3.1","battery-v0.2","","""event"",""trial"",""time""
""fullscreenenter"",""1"",""3634""
""blur"",""2"",""8912""
""focus"",""2"",""10879""
""blur"",""19"",""215743""
""focus"",""19"",""215920""
","""event"",""trial"",""time""
""blur"",""2"",""8912""
""blur"",""19"",""215743""
","""event"",""trial"",""time""
""focus"",""2"",""10879""
""focus"",""19"",""215920""
","""event"",""trial"",""time""
""fullscreenenter"",""1"",""3634""
","
","","","-1","","","22","16960","6462","&#9761;","elianto","#3366ff99","-1","-1","1","0","[]","0","0","2","","","","","","","",""
"pit-trial","46","500250","0.0-2.0-11.1-4.1","battery-v0.2","","""event"",""trial"",""time""
""fullscreenenter"",""1"",""3634""
""blur"",""2"",""8912""
""focus"",""2"",""10879""
""blur"",""19"",""215743""
""focus"",""19"",""215920""
","""event"",""trial"",""time""
""blur"",""2"",""8912""
""blur"",""19"",""215743""
","""event"",""trial"",""time""
""focus"",""2"",""10879""
""focus"",""19"",""215920""
","""event"",""trial"",""time""
""fullscreenenter"",""1"",""3634""
","
","","","311.90000009536743","","","22","16960","6462","&#9761;","elianto","#3366ff99","-1"," ","0","0","[1162.3999998569489]","1","0","2","","","","","","","",""
"pit-trial","47","505104","0.0-2.0-11.2-0.2","battery-v0.2","","""event"",""trial"",""time""
""fullscreenenter"",""1"",""3634""
""blur"",""2"",""8912""
""focus"",""2"",""10879""
""blur"",""19"",""215743""
""focus"",""19"",""215920""
","""event"",""trial"",""time""
""blur"",""2"",""8912""
""blur"",""19"",""215743""
","""event"",""trial"",""time""
""focus"",""2"",""10879""
""focus"",""19"",""215920""
","""event"",""trial"",""time""
""fullscreenenter"",""1"",""3634""
","
","","","-1","","","22","16960","6462","&#9761;","elianto","#3366ff99","-1","-1","1","+10","[]","0","0","2","","","","","","","",""
"pit-trial","48","508093","0.0-2.0-11.2-1.2","battery-v0.2","","""event"",""trial"",""time""
""fullscreenenter"",""1"",""3634""
""blur"",""2"",""8912""
""focus"",""2"",""10879""
""blur"",""19"",""215743""
""focus"",""19"",""215920""
","""event"",""trial"",""time""
""blur"",""2"",""8912""
""blur"",""19"",""215743""
","""event"",""trial"",""time""
""focus"",""2"",""10879""
""focus"",""19"",""215920""
","""event"",""trial"",""time""
""fullscreenenter"",""1"",""3634""
","
","","","134.5","","","22","16960","6462","&#9761;","elianto","#3366ff99","-1"," ","0","0","[985.6000001430511]","1","0","2","","","","","","","",""
"pit-trial","49","512946","0.0-2.0-11.2-2.2","battery-v0.2","","""event"",""trial"",""time""
""fullscreenenter"",""1"",""3634""
""blur"",""2"",""8912""
""focus"",""2"",""10879""
""blur"",""19"",""215743""
""focus"",""19"",""215920""
","""event"",""trial"",""time""
""blur"",""2"",""8912""
""blur"",""19"",""215743""
","""event"",""trial"",""time""
""focus"",""2"",""10879""
""focus"",""19"",""215920""
","""event"",""trial"",""time""
""fullscreenenter"",""1"",""3634""
","
","","","-1","","","22","16960","6462","&#9761;","elianto","#3366ff99","-1","-1","1","+10","[847.5]","1","0","2","","","","","","","",""
"pit-trial","50","515929","0.0-2.0-11.2-3.2","battery-v0.2","","""event"",""trial"",""time""
""fullscreenenter"",""1"",""3634""
""blur"",""2"",""8912""
""focus"",""2"",""10879""
""blur"",""19"",""215743""
""focus"",""19"",""215920""
","""event"",""trial"",""time""
""blur"",""2"",""8912""
""blur"",""19"",""215743""
","""event"",""trial"",""time""
""focus"",""2"",""10879""
""focus"",""19"",""215920""
","""event"",""trial"",""time""
""fullscreenenter"",""1"",""3634""
","
","","","129.39999985694885","","","22","16960","6462","&#9761;","elianto","#3366ff99","-1"," ","0","+10","[979.5]","1","0","2","","","","","","","",""
"pit-trial","51","520784","0.0-2.0-11.2-4.2","battery-v0.2","","""event"",""trial"",""time""
""fullscreenenter"",""1"",""3634""
""blur"",""2"",""8912""
""focus"",""2"",""10879""
""blur"",""19"",""215743""
""focus"",""19"",""215920""
","""event"",""trial"",""time""
""blur"",""2"",""8912""
""blur"",""19"",""215743""
","""event"",""trial"",""time""
""focus"",""2"",""10879""
""focus"",""19"",""215920""
","""event"",""trial"",""time""
""fullscreenenter"",""1"",""3634""
","
","","","-1","","","22","16960","6462","&#9761;","elianto","#3366ff99","-1","-1","1","+10","[802.5999999046326]","1","0","2","","","","","","","",""
"pit-trial","52","525641","0.0-2.0-11.3-0.3","battery-v0.2","","""event"",""trial"",""time""
""fullscreenenter"",""1"",""3634""
""blur"",""2"",""8912""
""focus"",""2"",""10879""
""blur"",""19"",""215743""
""focus"",""19"",""215920""
","""event"",""trial"",""time""
""blur"",""2"",""8912""
""blur"",""19"",""215743""
","""event"",""trial"",""time""
""focus"",""2"",""10879""
""focus"",""19"",""215920""
","""event"",""trial"",""time""
""fullscreenenter"",""1"",""3634""
","
","","","-1","","","22","16960","6462","&#9761;","elianto","#3366ff99","-1","-1","1","+10","[820.7000000476837,3572.7999999523163]","2","0","2","","","","","","","",""
"pit-trial","53","528776","0.0-2.0-11.3-1.3","battery-v0.2","","""event"",""trial"",""time""
""fullscreenenter"",""1"",""3634""
""blur"",""2"",""8912""
""focus"",""2"",""10879""
""blur"",""19"",""215743""
""focus"",""19"",""215920""
","""event"",""trial"",""time""
""blur"",""2"",""8912""
""blur"",""19"",""215743""
","""event"",""trial"",""time""
""focus"",""2"",""10879""
""focus"",""19"",""215920""
","""event"",""trial"",""time""
""fullscreenenter"",""1"",""3634""
","
","","","280","","","22","16960","6462","&#9761;","elianto","#3366ff99","-1"," ","0","0","[569,1131]","2","0","2","","","","","","","",""
"pit-trial","54","533630","0.0-2.0-11.3-2.3","battery-v0.2","","""event"",""trial"",""time""
""fullscreenenter"",""1"",""3634""
""blur"",""2"",""8912""
""focus"",""2"",""10879""
""blur"",""19"",""215743""
""focus"",""19"",""215920""
","""event"",""trial"",""time""
""blur"",""2"",""8912""
""blur"",""19"",""215743""
","""event"",""trial"",""time""
""focus"",""2"",""10879""
""focus"",""19"",""215920""
","""event"",""trial"",""time""
""fullscreenenter"",""1"",""3634""
","
","","","-1","","","22","16960","6462","&#9761;","elianto","#3366ff99","-1","-1","1","+10","[254.20000004768372,838.9000000953674,3621.100000143051]","3","0","2","","","","","","","",""
"pit-trial","55","538486","0.0-2.0-11.3-3.3","battery-v0.2","","""event"",""trial"",""time""
""fullscreenenter"",""1"",""3634""
""blur"",""2"",""8912""
""focus"",""2"",""10879""
""blur"",""19"",""215743""
""focus"",""19"",""215920""
","""event"",""trial"",""time""
""blur"",""2"",""8912""
""blur"",""19"",""215743""
","""event"",""trial"",""time""
""focus"",""2"",""10879""
""focus"",""19"",""215920""
","""event"",""trial"",""time""
""fullscreenenter"",""1"",""3634""
","
","","","-1","","","22","16960","6462","&#9761;","elianto","#3366ff99","-1","-1","1","0","[829.5999999046326,3790.0999999046326]","2","0","2","","","","","","","",""
"pit-trial","56","543341","0.0-2.0-11.3-4.3","battery-v0.2","","""event"",""trial"",""time""
""fullscreenenter"",""1"",""3634""
""blur"",""2"",""8912""
""focus"",""2"",""10879""
""blur"",""19"",""215743""
""focus"",""19"",""215920""
","""event"",""trial"",""time""
""blur"",""2"",""8912""
""blur"",""19"",""215743""
","""event"",""trial"",""time""
""focus"",""2"",""10879""
""focus"",""19"",""215920""
","""event"",""trial"",""time""
""fullscreenenter"",""1"",""3634""
","
","","","-1","","","22","16960","6462","&#9761;","elianto","#3366ff99","-1","-1","1","+10","[674,2901.7999999523163]","2","0","2","","","","","","","",""
"call-function","57","543344","0.0-2.0-12.0","battery-v0.2","","""event"",""trial"",""time""
""fullscreenenter"",""1"",""3634""
""blur"",""2"",""8912""
""focus"",""2"",""10879""
""blur"",""19"",""215743""
""focus"",""19"",""215920""
","""event"",""trial"",""time""
""blur"",""2"",""8912""
""blur"",""19"",""215743""
","""event"",""trial"",""time""
""focus"",""2"",""10879""
""focus"",""19"",""215920""
","""event"",""trial"",""time""
""fullscreenenter"",""1"",""3634""
","
","","","","","","","","","","","","","","","","","","","","","","","","","","",""
"pit-instructions","58","580843","0.0-2.0-13.0","battery-v0.2","","""event"",""trial"",""time""
""fullscreenenter"",""1"",""3634""
""blur"",""2"",""8912""
""focus"",""2"",""10879""
""blur"",""19"",""215743""
""focus"",""19"",""215920""
","""event"",""trial"",""time""
""blur"",""2"",""8912""
""blur"",""19"",""215743""
","""event"",""trial"",""time""
""focus"",""2"",""10879""
""focus"",""19"",""215920""
","""event"",""trial"",""time""
""fullscreenenter"",""1"",""3634""
","
","","[{""page_index"":0,""viewing_time"":7886.100000143051},{""page_index"":1,""viewing_time"":9444},{""page_index"":2,""viewing_time"":3773.5},{""page_index"":3,""viewing_time"":11224.299999952316},{""page_index"":4,""viewing_time"":5169.799999952316}]","37498.200000047684","","","","","","","","","","","","","","","","","","","","","","","",""
"pit-trial","59","585697","0.0-2.0-14.0-0.0","battery-v0.2","","""event"",""trial"",""time""
""fullscreenenter"",""1"",""3634""
""blur"",""2"",""8912""
""focus"",""2"",""10879""
""blur"",""19"",""215743""
""focus"",""19"",""215920""
","""event"",""trial"",""time""
""blur"",""2"",""8912""
""blur"",""19"",""215743""
","""event"",""trial"",""time""
""focus"",""2"",""10879""
""focus"",""19"",""215920""
","""event"",""trial"",""time""
""fullscreenenter"",""1"",""3634""
","
","","","-1","","","22","16960","6462","&#9826;","elianto","#f73b6a7A","-1","-1","1","0","[4194.600000143051]","1","0","3","","","","","","","",""
"pit-trial","60","588557","0.0-2.0-14.0-1.0","battery-v0.2","","""event"",""trial"",""time""
""fullscreenenter"",""1"",""3634""
""blur"",""2"",""8912""
""focus"",""2"",""10879""
""blur"",""19"",""215743""
""focus"",""19"",""215920""
","""event"",""trial"",""time""
""blur"",""2"",""8912""
""blur"",""19"",""215743""
","""event"",""trial"",""time""
""focus"",""2"",""10879""
""focus"",""19"",""215920""
","""event"",""trial"",""time""
""fullscreenenter"",""1"",""3634""
","
","","","4.400000095367432","","","22","16960","6462","&#9826;","elianto","#f73b6a7A","-1"," ","0","-10","[855.2000000476837]","1","0","3","","","","","","","",""
"pit-trial","61","593411","0.0-2.0-14.0-2.0","battery-v0.2","","""event"",""trial"",""time""
""fullscreenenter"",""1"",""3634""
""blur"",""2"",""8912""
""focus"",""2"",""10879""
""blur"",""19"",""215743""
""focus"",""19"",""215920""
","""event"",""trial"",""time""
""blur"",""2"",""8912""
""blur"",""19"",""215743""
","""event"",""trial"",""time""
""focus"",""2"",""10879""
""focus"",""19"",""215920""
","""event"",""trial"",""time""
""fullscreenenter"",""1"",""3634""
","
","","","-1","","","22","16960","6462","&#9826;","elianto","#f73b6a7A","-1","-1","1","0","[3843.699999809265]","1","0","3","","","","","","","",""
"pit-trial","62","598265","0.0-2.0-14.0-3.0","battery-v0.2","","""event"",""trial"",""time""
""fullscreenenter"",""1"",""3634""
""blur"",""2"",""8912""
""focus"",""2"",""10879""
""blur"",""19"",""215743""
""focus"",""19"",""215920""
","""event"",""trial"",""time""
""blur"",""2"",""8912""
""blur"",""19"",""215743""
","""event"",""trial"",""time""
""focus"",""2"",""10879""
""focus"",""19"",""215920""
","""event"",""trial"",""time""
""fullscreenenter"",""1"",""3634""
","
","","","-1","","","22","16960","6462","&#9826;","elianto","#f73b6a7A","-1","-1","1","-10","[4050]","1","0","3","","","","","","","",""
"pit-trial","63","601144","0.0-2.0-14.0-4.0","battery-v0.2","","""event"",""trial"",""time""
""fullscreenenter"",""1"",""3634""
""blur"",""2"",""8912""
""focus"",""2"",""10879""
""blur"",""19"",""215743""
""focus"",""19"",""215920""
","""event"",""trial"",""time""
""blur"",""2"",""8912""
""blur"",""19"",""215743""
","""event"",""trial"",""time""
""focus"",""2"",""10879""
""focus"",""19"",""215920""
","""event"",""trial"",""time""
""fullscreenenter"",""1"",""3634""
","
","","","24.09999990463257","","","22","16960","6462","&#9826;","elianto","#f73b6a7A","-1"," ","0","-10","[78.09999990463257,875]","2","0","3","","","","","","","",""
"pit-trial","64","605998","0.0-2.0-14.1-0.1","battery-v0.2","","""event"",""trial"",""time""
""fullscreenenter"",""1"",""3634""
""blur"",""2"",""8912""
""focus"",""2"",""10879""
""blur"",""19"",""215743""
""focus"",""19"",""215920""
","""event"",""trial"",""time""
""blur"",""2"",""8912""
""blur"",""19"",""215743""
","""event"",""trial"",""time""
""focus"",""2"",""10879""
""focus"",""19"",""215920""
","""event"",""trial"",""time""
""fullscreenenter"",""1"",""3634""
","
","","","-1","","","22","16960","6462","&#9826;","elianto","#f73b6a7A","-1","-1","1","0","[769.2999999523163]","1","0","3","","","","","","","",""
"pit-trial","65","610854","0.0-2.0-14.1-1.1","battery-v0.2","","""event"",""trial"",""time""
""fullscreenenter"",""1"",""3634""
""blur"",""2"",""8912""
""focus"",""2"",""10879""
""blur"",""19"",""215743""
""focus"",""19"",""215920""
","""event"",""trial"",""time""
""blur"",""2"",""8912""
""blur"",""19"",""215743""
","""event"",""trial"",""time""
""focus"",""2"",""10879""
""focus"",""19"",""215920""
","""event"",""trial"",""time""
""fullscreenenter"",""1"",""3634""
","
","","","-1","","","22","16960","6462","&#9826;","elianto","#f73b6a7A","-1","-1","1","0","[]","0","0","3","","","","","","","",""
"pit-trial","66","615709","0.0-2.0-14.1-2.1","battery-v0.2","","""event"",""trial"",""time""
""fullscreenenter"",""1"",""3634""
""blur"",""2"",""8912""
""focus"",""2"",""10879""
""blur"",""19"",""215743""
""focus"",""19"",""215920""
","""event"",""trial"",""time""
""blur"",""2"",""8912""
""blur"",""19"",""215743""
","""event"",""trial"",""time""
""focus"",""2"",""10879""
""focus"",""19"",""215920""
","""event"",""trial"",""time""
""fullscreenenter"",""1"",""3634""
","
","","","-1","","","22","16960","6462","&#9826;","elianto","#f73b6a7A","-1","-1","1","0","[]","0","0","3","","","","","","","",""
"pit-trial","67","618708","0.0-2.0-14.1-3.1","battery-v0.2","","""event"",""trial"",""time""
""fullscreenenter"",""1"",""3634""
""blur"",""2"",""8912""
""focus"",""2"",""10879""
""blur"",""19"",""215743""
""focus"",""19"",""215920""
","""event"",""trial"",""time""
""blur"",""2"",""8912""
""blur"",""19"",""215743""
","""event"",""trial"",""time""
""focus"",""2"",""10879""
""focus"",""19"",""215920""
","""event"",""trial"",""time""
""fullscreenenter"",""1"",""3634""
","
","","","143.79999995231628","","","22","16960","6462","&#9826;","elianto","#f73b6a7A","-1"," ","0","0","[994.9000000953674]","1","0","3","","","","","","","",""
"pit-trial","68","623563","0.0-2.0-14.1-4.1","battery-v0.2","","""event"",""trial"",""time""
""fullscreenenter"",""1"",""3634""
""blur"",""2"",""8912""
""focus"",""2"",""10879""
""blur"",""19"",""215743""
""focus"",""19"",""215920""
","""event"",""trial"",""time""
""blur"",""2"",""8912""
""blur"",""19"",""215743""
","""event"",""trial"",""time""
""focus"",""2"",""10879""
""focus"",""19"",""215920""
","""event"",""trial"",""time""
""fullscreenenter"",""1"",""3634""
","
","","","-1","","","22","16960","6462","&#9826;","elianto","#f73b6a7A","-1","-1","1","0","[]","0","0","3","","","","","","","",""
"pit-trial","69","628418","0.0-2.0-14.2-0.2","battery-v0.2","","""event"",""trial"",""time""
""fullscreenenter"",""1"",""3634""
""blur"",""2"",""8912""
""focus"",""2"",""10879""
""blur"",""19"",""215743""
""focus"",""19"",""215920""
","""event"",""trial"",""time""
""blur"",""2"",""8912""
""blur"",""19"",""215743""
","""event"",""trial"",""time""
""focus"",""2"",""10879""
""focus"",""19"",""215920""
","""event"",""trial"",""time""
""fullscreenenter"",""1"",""3634""
","
","","","-1","","","22","16960","6462","&#9826;","elianto","#f73b6a7A","-1","-1","1","0","[]","0","0","3","","","","","","","",""
"pit-trial","70","633272","0.0-2.0-14.2-1.2","battery-v0.2","","""event"",""trial"",""time""
""fullscreenenter"",""1"",""3634""
""blur"",""2"",""8912""
""focus"",""2"",""10879""
""blur"",""19"",""215743""
""focus"",""19"",""215920""
","""event"",""trial"",""time""
""blur"",""2"",""8912""
""blur"",""19"",""215743""
","""event"",""trial"",""time""
""focus"",""2"",""10879""
""focus"",""19"",""215920""
","""event"",""trial"",""time""
""fullscreenenter"",""1"",""3634""
","
","","","-1","","","22","16960","6462","&#9826;","elianto","#f73b6a7A","-1","-1","1","0","[816.7000000476837]","1","0","3","","","","","","","",""
"pit-trial","71","638126","0.0-2.0-14.2-2.2","battery-v0.2","","""event"",""trial"",""time""
""fullscreenenter"",""1"",""3634""
""blur"",""2"",""8912""
""focus"",""2"",""10879""
""blur"",""19"",""215743""
""focus"",""19"",""215920""
","""event"",""trial"",""time""
""blur"",""2"",""8912""
""blur"",""19"",""215743""
","""event"",""trial"",""time""
""focus"",""2"",""10879""
""focus"",""19"",""215920""
","""event"",""trial"",""time""
""fullscreenenter"",""1"",""3634""
","
","","","-1","","","22","16960","6462","&#9826;","elianto","#f73b6a7A","-1","-1","1","0","[654,3781.5999999046326]","2","0","3","","","","","","","",""
"pit-trial","72","642265","0.0-2.0-14.2-3.2","battery-v0.2","","""event"",""trial"",""time""
""fullscreenenter"",""1"",""3634""
""blur"",""2"",""8912""
""focus"",""2"",""10879""
""blur"",""19"",""215743""
""focus"",""19"",""215920""
","""event"",""trial"",""time""
""blur"",""2"",""8912""
""blur"",""19"",""215743""
","""event"",""trial"",""time""
""focus"",""2"",""10879""
""focus"",""19"",""215920""
","""event"",""trial"",""time""
""fullscreenenter"",""1"",""3634""
","
","","","1284.3999998569489","","","22","16960","6462","&#9826;","elianto","#f73b6a7A","-1"," ","0","0","[609.8999998569489,2134.2999999523163]","2","0","3","","","","","","","",""
"pit-trial","73","645449","0.0-2.0-14.2-4.2","battery-v0.2","","""event"",""trial"",""time""
""fullscreenenter"",""1"",""3634""
""blur"",""2"",""8912""
""focus"",""2"",""10879""
""blur"",""19"",""215743""
""focus"",""19"",""215920""
","""event"",""trial"",""time""
""blur"",""2"",""8912""
""blur"",""19"",""215743""
","""event"",""trial"",""time""
""focus"",""2"",""10879""
""focus"",""19"",""215920""
","""event"",""trial"",""time""
""fullscreenenter"",""1"",""3634""
","
","","","329.59999990463257","","","22","16960","6462","&#9826;","elianto","#f73b6a7A","-1"," ","0","-10","[371.2000000476837,1180.0999999046326]","2","0","3","","","","","","","",""
"pit-trial","74","650303","0.0-2.0-14.3-0.3","battery-v0.2","","""event"",""trial"",""time""
""fullscreenenter"",""1"",""3634""
""blur"",""2"",""8912""
""focus"",""2"",""10879""
""blur"",""19"",""215743""
""focus"",""19"",""215920""
","""event"",""trial"",""time""
""blur"",""2"",""8912""
""blur"",""19"",""215743""
","""event"",""trial"",""time""
""focus"",""2"",""10879""
""focus"",""19"",""215920""
","""event"",""trial"",""time""
""fullscreenenter"",""1"",""3634""
","
","","","-1","","","22","16960","6462","&#9826;","elianto","#f73b6a7A","-1","-1","1","0","[]","0","0","3","","","","","","","",""
"pit-trial","75","655158","0.0-2.0-14.3-1.3","battery-v0.2","","""event"",""trial"",""time""
""fullscreenenter"",""1"",""3634""
""blur"",""2"",""8912""
""focus"",""2"",""10879""
""blur"",""19"",""215743""
""focus"",""19"",""215920""
","""event"",""trial"",""time""
""blur"",""2"",""8912""
""blur"",""19"",""215743""
","""event"",""trial"",""time""
""focus"",""2"",""10879""
""focus"",""19"",""215920""
","""event"",""trial"",""time""
""fullscreenenter"",""1"",""3634""
","
","","","-1","","","22","16960","6462","&#9826;","elianto","#f73b6a7A","-1","-1","1","0","[]","0","0","3","","","","","","","",""
"pit-trial","76","660013","0.0-2.0-14.3-2.3","battery-v0.2","","""event"",""trial"",""time""
""fullscreenenter"",""1"",""3634""
""blur"",""2"",""8912""
""focus"",""2"",""10879""
""blur"",""19"",""215743""
""focus"",""19"",""215920""
","""event"",""trial"",""time""
""blur"",""2"",""8912""
""blur"",""19"",""215743""
","""event"",""trial"",""time""
""focus"",""2"",""10879""
""focus"",""19"",""215920""
","""event"",""trial"",""time""
""fullscreenenter"",""1"",""3634""
","
","","","-1","","","22","16960","6462","&#9826;","elianto","#f73b6a7A","-1","-1","1","0","[]","0","0","3","","","","","","","",""
"pit-trial","77","662984","0.0-2.0-14.3-3.3","battery-v0.2","","""event"",""trial"",""time""
""fullscreenenter"",""1"",""3634""
""blur"",""2"",""8912""
""focus"",""2"",""10879""
""blur"",""19"",""215743""
""focus"",""19"",""215920""
","""event"",""trial"",""time""
""blur"",""2"",""8912""
""blur"",""19"",""215743""
","""event"",""trial"",""time""
""focus"",""2"",""10879""
""focus"",""19"",""215920""
","""event"",""trial"",""time""
""fullscreenenter"",""1"",""3634""
","
","","","116.5","","","22","16960","6462","&#9826;","elianto","#f73b6a7A","-1"," ","0","0","[966.7000000476837]","1","0","3","","","","","","","",""
"pit-trial","78","666043","0.0-2.0-14.3-4.3","battery-v0.2","","""event"",""trial"",""time""
""fullscreenenter"",""1"",""3634""
""blur"",""2"",""8912""
""focus"",""2"",""10879""
""blur"",""19"",""215743""
""focus"",""19"",""215920""
","""event"",""trial"",""time""
""blur"",""2"",""8912""
""blur"",""19"",""215743""
","""event"",""trial"",""time""
""focus"",""2"",""10879""
""focus"",""19"",""215920""
","""event"",""trial"",""time""
""fullscreenenter"",""1"",""3634""
","
","","","204.29999995231628","","","22","16960","6462","&#9826;","elianto","#f73b6a7A","-1"," ","0","-10","[1054.8999998569489]","1","0","3","","","","","","","",""
"call-function","79","666046","0.0-2.0-15.0","battery-v0.2","","""event"",""trial"",""time""
""fullscreenenter"",""1"",""3634""
""blur"",""2"",""8912""
""focus"",""2"",""10879""
""blur"",""19"",""215743""
""focus"",""19"",""215920""
","""event"",""trial"",""time""
""blur"",""2"",""8912""
""blur"",""19"",""215743""
","""event"",""trial"",""time""
""focus"",""2"",""10879""
""focus"",""19"",""215920""
","""event"",""trial"",""time""
""fullscreenenter"",""1"",""3634""
","
","","","","","","","","","","","","","","","","","","","","","","","","","","",""
"pit-instructions","80","705838","0.0-2.0-16.0","battery-v0.2","","""event"",""trial"",""time""
""fullscreenenter"",""1"",""3634""
""blur"",""2"",""8912""
""focus"",""2"",""10879""
""blur"",""19"",""215743""
""focus"",""19"",""215920""
","""event"",""trial"",""time""
""blur"",""2"",""8912""
""blur"",""19"",""215743""
","""event"",""trial"",""time""
""focus"",""2"",""10879""
""focus"",""19"",""215920""
","""event"",""trial"",""time""
""fullscreenenter"",""1"",""3634""
","
","","[{""page_index"":0,""viewing_time"":10516.299999952316},{""page_index"":1,""viewing_time"":13589.799999952316},{""page_index"":2,""viewing_time"":5831.200000047684},{""page_index"":3,""viewing_time"":9853.200000047684}]","39791.09999990463","","","","","","","","","","","","","","","","","","","","","","","",""
"pit-trial","81","710693","0.0-2.0-17.0-0.0","battery-v0.2","","""event"",""trial"",""time""
""fullscreenenter"",""1"",""3634""
""blur"",""2"",""8912""
""focus"",""2"",""10879""
""blur"",""19"",""215743""
""focus"",""19"",""215920""
","""event"",""trial"",""time""
""blur"",""2"",""8912""
""blur"",""19"",""215743""
","""event"",""trial"",""time""
""focus"",""2"",""10879""
""focus"",""19"",""215920""
","""event"",""trial"",""time""
""fullscreenenter"",""1"",""3634""
","
","","","-1","","","22","16960","6462","&#9789;","elianto","#f73b6a7A"," ","-1","0","-10","[2952.4000000953674]","1","0","4","","","","","","","",""
"pit-trial","82","715547","0.0-2.0-17.0-1.0","battery-v0.2","","""event"",""trial"",""time""
""fullscreenenter"",""1"",""3634""
""blur"",""2"",""8912""
""focus"",""2"",""10879""
""blur"",""19"",""215743""
""focus"",""19"",""215920""
","""event"",""trial"",""time""
""blur"",""2"",""8912""
""blur"",""19"",""215743""
","""event"",""trial"",""time""
""focus"",""2"",""10879""
""focus"",""19"",""215920""
","""event"",""trial"",""time""
""fullscreenenter"",""1"",""3634""
","
","","","-1","","","22","16960","6462","&#9789;","elianto","#f73b6a7A"," ","-1","0","-10","[]","0","0","4","","","","","","","",""
"pit-trial","83","718452","0.0-2.0-17.0-2.0","battery-v0.2","","""event"",""trial"",""time""
""fullscreenenter"",""1"",""3634""
""blur"",""2"",""8912""
""focus"",""2"",""10879""
""blur"",""19"",""215743""
""focus"",""19"",""215920""
","""event"",""trial"",""time""
""blur"",""2"",""8912""
""blur"",""19"",""215743""
","""event"",""trial"",""time""
""focus"",""2"",""10879""
""focus"",""19"",""215920""
","""event"",""trial"",""time""
""fullscreenenter"",""1"",""3634""
","
","","","49.700000047683716","","","22","16960","6462","&#9789;","elianto","#f73b6a7A"," "," ","1","0","[900.7000000476837]","1","0","4","","","","","","","",""
"pit-trial","84","721410","0.0-2.0-17.0-3.0","battery-v0.2","","""event"",""trial"",""time""
""fullscreenenter"",""1"",""3634""
""blur"",""2"",""8912""
""focus"",""2"",""10879""
""blur"",""19"",""215743""
""focus"",""19"",""215920""
","""event"",""trial"",""time""
""blur"",""2"",""8912""
""blur"",""19"",""215743""
","""event"",""trial"",""time""
""focus"",""2"",""10879""
""focus"",""19"",""215920""
","""event"",""trial"",""time""
""fullscreenenter"",""1"",""3634""
","
","","","103.69999980926514","","","22","16960","6462","&#9789;","elianto","#f73b6a7A"," "," ","1","-10","[953.7999999523163]","1","0","4","","","","","","","",""
"pit-trial","85","724321","0.0-2.0-17.0-4.0","battery-v0.2","","""event"",""trial"",""time""
""fullscreenenter"",""1"",""3634""
""blur"",""2"",""8912""
""focus"",""2"",""10879""
""blur"",""19"",""215743""
""focus"",""19"",""215920""
","""event"",""trial"",""time""
""blur"",""2"",""8912""
""blur"",""19"",""215743""
","""event"",""trial"",""time""
""focus"",""2"",""10879""
""focus"",""19"",""215920""
","""event"",""trial"",""time""
""fullscreenenter"",""1"",""3634""
","
","","","56.19999980926514","","","22","16960","6462","&#9789;","elianto","#f73b6a7A"," "," ","1","0","[907.1999998092651]","1","0","4","","","","","","","",""
"pit-trial","86","729176","0.0-2.0-17.1-0.1","battery-v0.2","","""event"",""trial"",""time""
""fullscreenenter"",""1"",""3634""
""blur"",""2"",""8912""
""focus"",""2"",""10879""
""blur"",""19"",""215743""
""focus"",""19"",""215920""
","""event"",""trial"",""time""
""blur"",""2"",""8912""
""blur"",""19"",""215743""
","""event"",""trial"",""time""
""focus"",""2"",""10879""
""focus"",""19"",""215920""
","""event"",""trial"",""time""
""fullscreenenter"",""1"",""3634""
","
","","","-1","","","22","16960","6462","&#9789;","elianto","#f73b6a7A"," ","-1","0","-10","[]","0","0","4","","","","","","","",""
"pit-trial","87","734032","0.0-2.0-17.1-1.1","battery-v0.2","","""event"",""trial"",""time""
""fullscreenenter"",""1"",""3634""
""blur"",""2"",""8912""
""focus"",""2"",""10879""
""blur"",""19"",""215743""
""focus"",""19"",""215920""
","""event"",""trial"",""time""
""blur"",""2"",""8912""
""blur"",""19"",""215743""
","""event"",""trial"",""time""
""focus"",""2"",""10879""
""focus"",""19"",""215920""
","""event"",""trial"",""time""
""fullscreenenter"",""1"",""3634""
","
","","","-1","","","22","16960","6462","&#9789;","elianto","#f73b6a7A"," ","-1","0","-10","[789.1999998092651,3091.199999809265]","2","0","4","","","","","","","",""
"pit-trial","88","738886","0.0-2.0-17.1-2.1","battery-v0.2","","""event"",""trial"",""time""
""fullscreenenter"",""1"",""3634""
""blur"",""2"",""8912""
""focus"",""2"",""10879""
""blur"",""19"",""215743""
""focus"",""19"",""215920""
","""event"",""trial"",""time""
""blur"",""2"",""8912""
""blur"",""19"",""215743""
","""event"",""trial"",""time""
""focus"",""2"",""10879""
""focus"",""19"",""215920""
","""event"",""trial"",""time""
""fullscreenenter"",""1"",""3634""
","
","","","-1","","","22","16960","6462","&#9789;","elianto","#f73b6a7A"," ","-1","0","-10","[3572.7000000476837]","1","0","4","","","","","","","",""
"pit-trial","89","741944","0.0-2.0-17.1-3.1","battery-v0.2","","""event"",""trial"",""time""
""fullscreenenter"",""1"",""3634""
""blur"",""2"",""8912""
""focus"",""2"",""10879""
""blur"",""19"",""215743""
""focus"",""19"",""215920""
","""event"",""trial"",""time""
""blur"",""2"",""8912""
""blur"",""19"",""215743""
","""event"",""trial"",""time""
""focus"",""2"",""10879""
""focus"",""19"",""215920""
","""event"",""trial"",""time""
""fullscreenenter"",""1"",""3634""
","
","","","202.79999995231628","","","22","16960","6462","&#9789;","elianto","#f73b6a7A"," "," ","1","-10","[187.29999995231628,730.8999998569489,1053.5999999046326,1904.5999999046326]","4","0","4","","","","","","","",""
"pit-trial","90","746799","0.0-2.0-17.1-4.1","battery-v0.2","","""event"",""trial"",""time""
""fullscreenenter"",""1"",""3634""
""blur"",""2"",""8912""
""focus"",""2"",""10879""
""blur"",""19"",""215743""
""focus"",""19"",""215920""
","""event"",""trial"",""time""
""blur"",""2"",""8912""
""blur"",""19"",""215743""
","""event"",""trial"",""time""
""focus"",""2"",""10879""
""focus"",""19"",""215920""
","""event"",""trial"",""time""
""fullscreenenter"",""1"",""3634""
","
","","","-1","","","22","16960","6462","&#9789;","elianto","#f73b6a7A"," ","-1","0","-10","[141,3135.7999999523163]","2","0","4","","","","","","","",""
"pit-trial","91","751654","0.0-2.0-17.2-0.2","battery-v0.2","","""event"",""trial"",""time""
""fullscreenenter"",""1"",""3634""
""blur"",""2"",""8912""
""focus"",""2"",""10879""
""blur"",""19"",""215743""
""focus"",""19"",""215920""
","""event"",""trial"",""time""
""blur"",""2"",""8912""
""blur"",""19"",""215743""
","""event"",""trial"",""time""
""focus"",""2"",""10879""
""focus"",""19"",""215920""
","""event"",""trial"",""time""
""fullscreenenter"",""1"",""3634""
","
","","","-1","","","22","16960","6462","&#9789;","elianto","#f73b6a7A"," ","-1","0","-10","[786.5]","1","0","4","","","","","","","",""
"pit-trial","92","756509","0.0-2.0-17.2-1.2","battery-v0.2","","""event"",""trial"",""time""
""fullscreenenter"",""1"",""3634""
""blur"",""2"",""8912""
""focus"",""2"",""10879""
""blur"",""19"",""215743""
""focus"",""19"",""215920""
","""event"",""trial"",""time""
""blur"",""2"",""8912""
""blur"",""19"",""215743""
","""event"",""trial"",""time""
""focus"",""2"",""10879""
""focus"",""19"",""215920""
","""event"",""trial"",""time""
""fullscreenenter"",""1"",""3634""
","
","","","-1","","","22","16960","6462","&#9789;","elianto","#f73b6a7A"," ","-1","0","-10","[718.7000000476837]","1","0","4","","","","","","","",""
"pit-trial","93","761364","0.0-2.0-17.2-2.2","battery-v0.2","","""event"",""trial"",""time""
""fullscreenenter"",""1"",""3634""
""blur"",""2"",""8912""
""focus"",""2"",""10879""
""blur"",""19"",""215743""
""focus"",""19"",""215920""
","""event"",""trial"",""time""
""blur"",""2"",""8912""
""blur"",""19"",""215743""
","""event"",""trial"",""time""
""focus"",""2"",""10879""
""focus"",""19"",""215920""
","""event"",""trial"",""time""
""fullscreenenter"",""1"",""3634""
","
","","","-1","","","22","16960","6462","&#9789;","elianto","#f73b6a7A"," ","-1","0","-10","[753.7999999523163]","1","0","4","","","","","","","",""
"pit-trial","94","766219","0.0-2.0-17.2-3.2","battery-v0.2","","""event"",""trial"",""time""
""fullscreenenter"",""1"",""3634""
""blur"",""2"",""8912""
""focus"",""2"",""10879""
""blur"",""19"",""215743""
""focus"",""19"",""215920""
","""event"",""trial"",""time""
""blur"",""2"",""8912""
""blur"",""19"",""215743""
","""event"",""trial"",""time""
""focus"",""2"",""10879""
""focus"",""19"",""215920""
","""event"",""trial"",""time""
""fullscreenenter"",""1"",""3634""
","
","","","-1","","","22","16960","6462","&#9789;","elianto","#f73b6a7A"," ","-1","0","0","[]","0","0","4","","","","","","","",""
"pit-trial","95","771075","0.0-2.0-17.2-4.2","battery-v0.2","","""event"",""trial"",""time""
""fullscreenenter"",""1"",""3634""
""blur"",""2"",""8912""
""focus"",""2"",""10879""
""blur"",""19"",""215743""
""focus"",""19"",""215920""
","""event"",""trial"",""time""
""blur"",""2"",""8912""
""blur"",""19"",""215743""
","""event"",""trial"",""time""
""focus"",""2"",""10879""
""focus"",""19"",""215920""
","""event"",""trial"",""time""
""fullscreenenter"",""1"",""3634""
","
","","","-1","","","22","16960","6462","&#9789;","elianto","#f73b6a7A"," ","-1","0","-10","[]","0","0","4","","","","","","","",""
"pit-trial","96","775931","0.0-2.0-17.3-0.3","battery-v0.2","","""event"",""trial"",""time""
""fullscreenenter"",""1"",""3634""
""blur"",""2"",""8912""
""focus"",""2"",""10879""
""blur"",""19"",""215743""
""focus"",""19"",""215920""
","""event"",""trial"",""time""
""blur"",""2"",""8912""
""blur"",""19"",""215743""
","""event"",""trial"",""time""
""focus"",""2"",""10879""
""focus"",""19"",""215920""
","""event"",""trial"",""time""
""fullscreenenter"",""1"",""3634""
","
","","","-1","","","22","16960","6462","&#9789;","elianto","#f73b6a7A"," ","-1","0","-10","[]","0","0","4","","","","","","","",""
"pit-trial","97","778819","0.0-2.0-17.3-1.3","battery-v0.2","","""event"",""trial"",""time""
""fullscreenenter"",""1"",""3634""
""blur"",""2"",""8912""
""focus"",""2"",""10879""
""blur"",""19"",""215743""
""focus"",""19"",""215920""
","""event"",""trial"",""time""
""blur"",""2"",""8912""
""blur"",""19"",""215743""
","""event"",""trial"",""time""
""focus"",""2"",""10879""
""focus"",""19"",""215920""
","""event"",""trial"",""time""
""fullscreenenter"",""1"",""3634""
","
","","","32.40000009536743","","","22","16960","6462","&#9789;","elianto","#f73b6a7A"," "," ","1","0","[883.3000001907349]","1","0","4","","","","","","","",""
"pit-trial","98","781708","0.0-2.0-17.3-2.3","battery-v0.2","","""event"",""trial"",""time""
""fullscreenenter"",""1"",""3634""
""blur"",""2"",""8912""
""focus"",""2"",""10879""
""blur"",""19"",""215743""
""focus"",""19"",""215920""
","""event"",""trial"",""time""
""blur"",""2"",""8912""
""blur"",""19"",""215743""
","""event"",""trial"",""time""
""focus"",""2"",""10879""
""focus"",""19"",""215920""
","""event"",""trial"",""time""
""fullscreenenter"",""1"",""3634""
","
","","","34.5","","","22","16960","6462","&#9789;","elianto","#f73b6a7A"," "," ","1","0","[885.2999999523163]","1","0","4","","","","","","","",""
"pit-trial","99","786564","0.0-2.0-17.3-3.3","battery-v0.2","","""event"",""trial"",""time""
""fullscreenenter"",""1"",""3634""
""blur"",""2"",""8912""
""focus"",""2"",""10879""
""blur"",""19"",""215743""
""focus"",""19"",""215920""
","""event"",""trial"",""time""
""blur"",""2"",""8912""
""blur"",""19"",""215743""
","""event"",""trial"",""time""
""focus"",""2"",""10879""
""focus"",""19"",""215920""
","""event"",""trial"",""time""
""fullscreenenter"",""1"",""3634""
","
","","","-1","","","22","16960","6462","&#9789;","elianto","#f73b6a7A"," ","-1","0","0","[840.8999998569489]","1","0","4","","","","","","","",""
"pit-trial","100","789638","0.0-2.0-17.3-4.3","battery-v0.2","","""event"",""trial"",""time""
""fullscreenenter"",""1"",""3634""
""blur"",""2"",""8912""
""focus"",""2"",""10879""
""blur"",""19"",""215743""
""focus"",""19"",""215920""
","""event"",""trial"",""time""
""blur"",""2"",""8912""
""blur"",""19"",""215743""
","""event"",""trial"",""time""
""focus"",""2"",""10879""
""focus"",""19"",""215920""
","""event"",""trial"",""time""
""fullscreenenter"",""1"",""3634""
","
","","","218.90000009536743","","","22","16960","6462","&#9789;","elianto","#f73b6a7A"," "," ","1","0","[429.7999999523163,1069.4000000953674,2017.2999999523163]","3","0","4","","","","","","","",""
"call-function","101","789641","0.0-2.0-18.0","battery-v0.2","","""event"",""trial"",""time""
""fullscreenenter"",""1"",""3634""
""blur"",""2"",""8912""
""focus"",""2"",""10879""
""blur"",""19"",""215743""
""focus"",""19"",""215920""
","""event"",""trial"",""time""
""blur"",""2"",""8912""
""blur"",""19"",""215743""
","""event"",""trial"",""time""
""focus"",""2"",""10879""
""focus"",""19"",""215920""
","""event"",""trial"",""time""
""fullscreenenter"",""1"",""3634""
","
","","","","","","","","","","","","","","","","","","","","","","","","","","",""
"pit-instructions","102","867580","0.0-2.0-19.0","battery-v0.2","","""event"",""trial"",""time""
""fullscreenenter"",""1"",""3634""
""blur"",""2"",""8912""
""focus"",""2"",""10879""
""blur"",""19"",""215743""
""focus"",""19"",""215920""
","""event"",""trial"",""time""
""blur"",""2"",""8912""
""blur"",""19"",""215743""
","""event"",""trial"",""time""
""focus"",""2"",""10879""
""focus"",""19"",""215920""
","""event"",""trial"",""time""
""fullscreenenter"",""1"",""3634""
","
","","[{""page_index"":0,""viewing_time"":6884.299999952316},{""page_index"":1,""viewing_time"":5194.5},{""page_index"":2,""viewing_time"":14210.700000047684},{""page_index"":3,""viewing_time"":12101.099999904633},{""page_index"":4,""viewing_time"":12019.800000190735},{""page_index"":5,""viewing_time"":9269.599999904633},{""page_index"":6,""viewing_time"":7002},{""page_index"":7,""viewing_time"":7169.5},{""page_index"":8,""viewing_time"":4085.9000000953674}]","77938.09999990463","","","","","","","","","","","","","","","","","","","","","","","",""
"pit-comprehension","103","872970","0.0-2.0-20.0-0.0","battery-v0.2","","""event"",""trial"",""time""
""fullscreenenter"",""1"",""3634""
""blur"",""2"",""8912""
""focus"",""2"",""10879""
""blur"",""19"",""215743""
""focus"",""19"",""215920""
","""event"",""trial"",""time""
""blur"",""2"",""8912""
""blur"",""19"",""215743""
","""event"",""trial"",""time""
""focus"",""2"",""10879""
""focus"",""19"",""215920""
","""event"",""trial"",""time""
""fullscreenenter"",""1"",""3634""
","
","","","5385.600000143051","[""SPACE""]","0","22","16960","6462","","","","","","","","","","","","","","","","","","",""
"pit-instructions","104","874986","0.0-2.0-20.0-1.0","battery-v0.2","","""event"",""trial"",""time""
""fullscreenenter"",""1"",""3634""
""blur"",""2"",""8912""
""focus"",""2"",""10879""
""blur"",""19"",""215743""
""focus"",""19"",""215920""
","""event"",""trial"",""time""
""blur"",""2"",""8912""
""blur"",""19"",""215743""
","""event"",""trial"",""time""
""focus"",""2"",""10879""
""focus"",""19"",""215920""
","""event"",""trial"",""time""
""fullscreenenter"",""1"",""3634""
","
","","[{""page_index"":0,""viewing_time"":2003.8999998569489}]","2004.1999998092651","","","","","","","","","","","","","","","","","","","","","","","",""
"pit-comprehension","105","882709","0.0-2.0-21.0-0.0","battery-v0.2","","""event"",""trial"",""time""
""fullscreenenter"",""1"",""3634""
""blur"",""2"",""8912""
""focus"",""2"",""10879""
""blur"",""19"",""215743""
""focus"",""19"",""215920""
","""event"",""trial"",""time""
""blur"",""2"",""8912""
""blur"",""19"",""215743""
","""event"",""trial"",""time""
""focus"",""2"",""10879""
""focus"",""19"",""215920""
","""event"",""trial"",""time""
""fullscreenenter"",""1"",""3634""
","
","","","7718.299999952316","[""10""]","0","22","16960","6462","","","","","","","","","","","","","","","","","","",""
"pit-instructions","106","884917","0.0-2.0-21.0-1.0","battery-v0.2","","""event"",""trial"",""time""
""fullscreenenter"",""1"",""3634""
""blur"",""2"",""8912""
""focus"",""2"",""10879""
""blur"",""19"",""215743""
""focus"",""19"",""215920""
","""event"",""trial"",""time""
""blur"",""2"",""8912""
""blur"",""19"",""215743""
","""event"",""trial"",""time""
""focus"",""2"",""10879""
""focus"",""19"",""215920""
","""event"",""trial"",""time""
""fullscreenenter"",""1"",""3634""
","
","","[{""page_index"":0,""viewing_time"":2182.7000000476837}]","2183.2000000476837","","","","","","","","","","","","","","","","","","","","","","","",""
"pit-comprehension","107","892007","0.0-2.0-22.0-0.0","battery-v0.2","","""event"",""trial"",""time""
""fullscreenenter"",""1"",""3634""
""blur"",""2"",""8912""
""focus"",""2"",""10879""
""blur"",""19"",""215743""
""focus"",""19"",""215920""
","""event"",""trial"",""time""
""blur"",""2"",""8912""
""blur"",""19"",""215743""
","""event"",""trial"",""time""
""focus"",""2"",""10879""
""focus"",""19"",""215920""
","""event"",""trial"",""time""
""fullscreenenter"",""1"",""3634""
","
","","","7085.399999856949","[""0""]","0","22","16960","6462","","","","","","","","","","","","","","","","","","",""
"pit-instructions","108","894261","0.0-2.0-22.0-1.0","battery-v0.2","","""event"",""trial"",""time""
""fullscreenenter"",""1"",""3634""
""blur"",""2"",""8912""
""focus"",""2"",""10879""
""blur"",""19"",""215743""
""focus"",""19"",""215920""
","""event"",""trial"",""time""
""blur"",""2"",""8912""
""blur"",""19"",""215743""
","""event"",""trial"",""time""
""focus"",""2"",""10879""
""focus"",""19"",""215920""
","""event"",""trial"",""time""
""fullscreenenter"",""1"",""3634""
","
","","[{""page_index"":0,""viewing_time"":2229.4000000953674}]","2229.7000000476837","","","","","","","","","","","","","","","","","","","","","","","",""
"pit-comprehension","109","903037","0.0-2.0-23.0-0.0","battery-v0.2","","""event"",""trial"",""time""
""fullscreenenter"",""1"",""3634""
""blur"",""2"",""8912""
""focus"",""2"",""10879""
""blur"",""19"",""215743""
""focus"",""19"",""215920""
","""event"",""trial"",""time""
""blur"",""2"",""8912""
""blur"",""19"",""215743""
","""event"",""trial"",""time""
""focus"",""2"",""10879""
""focus"",""19"",""215920""
","""event"",""trial"",""time""
""fullscreenenter"",""1"",""3634""
","
","","","8773.200000047684","[""True""]","0","22","16960","6462","","","","","","","","","","","","","","","","","","",""
"pit-instructions","110","906315","0.0-2.0-23.0-1.0","battery-v0.2","","""event"",""trial"",""time""
""fullscreenenter"",""1"",""3634""
""blur"",""2"",""8912""
""focus"",""2"",""10879""
""blur"",""19"",""215743""
""focus"",""19"",""215920""
","""event"",""trial"",""time""
""blur"",""2"",""8912""
""blur"",""19"",""215743""
","""event"",""trial"",""time""
""focus"",""2"",""10879""
""focus"",""19"",""215920""
","""event"",""trial"",""time""
""fullscreenenter"",""1"",""3634""
","
","","[{""page_index"":0,""viewing_time"":3252}]","3252.4000000953674","","","","","","","","","","","","","","","","","","","","","","","",""
"pit-comprehension","111","913738","0.0-2.0-24.0-0.0","battery-v0.2","","""event"",""trial"",""time""
""fullscreenenter"",""1"",""3634""
""blur"",""2"",""8912""
""focus"",""2"",""10879""
""blur"",""19"",""215743""
""focus"",""19"",""215920""
","""event"",""trial"",""time""
""blur"",""2"",""8912""
""blur"",""19"",""215743""
","""event"",""trial"",""time""
""focus"",""2"",""10879""
""focus"",""19"",""215920""
","""event"",""trial"",""time""
""fullscreenenter"",""1"",""3634""
","
","","","7418.700000047684","[""True""]","0","22","16960","6462","","","","","","","","","","","","","","","","","","",""
"pit-instructions","112","916842","0.0-2.0-24.0-1.0","battery-v0.2","","""event"",""trial"",""time""
""fullscreenenter"",""1"",""3634""
""blur"",""2"",""8912""
""focus"",""2"",""10879""
""blur"",""19"",""215743""
""focus"",""19"",""215920""
","""event"",""trial"",""time""
""blur"",""2"",""8912""
""blur"",""19"",""215743""
","""event"",""trial"",""time""
""focus"",""2"",""10879""
""focus"",""19"",""215920""
","""event"",""trial"",""time""
""fullscreenenter"",""1"",""3634""
","
","","[{""page_index"":0,""viewing_time"":3078.2000000476837}]","3078.600000143051","","","","","","","","","","","","","","","","","","","","","","","",""
"pit-comprehension","113","923232","0.0-2.0-25.0-0.0","battery-v0.2","","""event"",""trial"",""time""
""fullscreenenter"",""1"",""3634""
""blur"",""2"",""8912""
""focus"",""2"",""10879""
""blur"",""19"",""215743""
""focus"",""19"",""215920""
","""event"",""trial"",""time""
""blur"",""2"",""8912""
""blur"",""19"",""215743""
","""event"",""trial"",""time""
""focus"",""2"",""10879""
""focus"",""19"",""215920""
","""event"",""trial"",""time""
""fullscreenenter"",""1"",""3634""
","
","","","6385.900000095367","[""True""]","0","22","16960","6462","","","","","","","","","","","","","","","","","","",""
"pit-instructions","114","925297","0.0-2.0-25.0-1.0","battery-v0.2","","""event"",""trial"",""time""
""fullscreenenter"",""1"",""3634""
""blur"",""2"",""8912""
""focus"",""2"",""10879""
""blur"",""19"",""215743""
""focus"",""19"",""215920""
","""event"",""trial"",""time""
""blur"",""2"",""8912""
""blur"",""19"",""215743""
","""event"",""trial"",""time""
""focus"",""2"",""10879""
""focus"",""19"",""215920""
","""event"",""trial"",""time""
""fullscreenenter"",""1"",""3634""
","
","","[{""page_index"":0,""viewing_time"":2039.7000000476837}]","2039.9000000953674","","","","","","","","","","","","","","","","","","","","","","","",""
"pit-comprehension","115","929999","0.0-2.0-26.0-0.0","battery-v0.2","","""event"",""trial"",""time""
""fullscreenenter"",""1"",""3634""
""blur"",""2"",""8912""
""focus"",""2"",""10879""
""blur"",""19"",""215743""
""focus"",""19"",""215920""
","""event"",""trial"",""time""
""blur"",""2"",""8912""
""blur"",""19"",""215743""
","""event"",""trial"",""time""
""focus"",""2"",""10879""
""focus"",""19"",""215920""
","""event"",""trial"",""time""
""fullscreenenter"",""1"",""3634""
","
","","","4700","[""True""]","1","22","16960","6462","","","","","","","","","","","","","","","","","","",""
"pit-instructions","116","932408","0.0-2.0-26.0-1.0","battery-v0.2","","""event"",""trial"",""time""
""fullscreenenter"",""1"",""3634""
""blur"",""2"",""8912""
""focus"",""2"",""10879""
""blur"",""19"",""215743""
""focus"",""19"",""215920""
","""event"",""trial"",""time""
""blur"",""2"",""8912""
""blur"",""19"",""215743""
","""event"",""trial"",""time""
""focus"",""2"",""10879""
""focus"",""19"",""215920""
","""event"",""trial"",""time""
""fullscreenenter"",""1"",""3634""
","
","","[{""page_index"":0,""viewing_time"":2380.2999999523163}]","2380.7999999523163","","","","","","","","","","","","","","","","","","","","","","","",""
"pit-instructions","117","933485","0.0-2.0-26.0-2.0-0.0","battery-v0.2","","""event"",""trial"",""time""
""fullscreenenter"",""1"",""3634""
""blur"",""2"",""8912""
""focus"",""2"",""10879""
""blur"",""19"",""215743""
""focus"",""19"",""215920""
","""event"",""trial"",""time""
""blur"",""2"",""8912""
""blur"",""19"",""215743""
","""event"",""trial"",""time""
""focus"",""2"",""10879""
""focus"",""19"",""215920""
","""event"",""trial"",""time""
""fullscreenenter"",""1"",""3634""
","
","","[{""page_index"":0,""viewing_time"":1074.6000001430511}]","1074.9000000953674","","","","","","","","","","","","","","","","","","","","","","","",""
"pit-comprehension","118","938072","0.0-2.0-26.1-0.1","battery-v0.2","","""event"",""trial"",""time""
""fullscreenenter"",""1"",""3634""
""blur"",""2"",""8912""
""focus"",""2"",""10879""
""blur"",""19"",""215743""
""focus"",""19"",""215920""
","""event"",""trial"",""time""
""blur"",""2"",""8912""
""blur"",""19"",""215743""
","""event"",""trial"",""time""
""focus"",""2"",""10879""
""focus"",""19"",""215920""
","""event"",""trial"",""time""
""fullscreenenter"",""1"",""3634""
","
","","","4583.700000047684","[""False""]","0","22","16960","6462","","","","","","","","","","","","","","","","","","",""
"pit-instructions","119","940007","0.0-2.0-26.1-1.1","battery-v0.2","","""event"",""trial"",""time""
""fullscreenenter"",""1"",""3634""
""blur"",""2"",""8912""
""focus"",""2"",""10879""
""blur"",""19"",""215743""
""focus"",""19"",""215920""
","""event"",""trial"",""time""
""blur"",""2"",""8912""
""blur"",""19"",""215743""
","""event"",""trial"",""time""
""focus"",""2"",""10879""
""focus"",""19"",""215920""
","""event"",""trial"",""time""
""fullscreenenter"",""1"",""3634""
","
","","[{""page_index"":0,""viewing_time"":1907.7000000476837}]","1908.0999999046326","","","","","","","","","","","","","","","","","","","","","","","",""
"pit-instructions","120","956106","0.0-3.0","battery-v0.2","","""event"",""trial"",""time""
""fullscreenenter"",""1"",""3634""
""blur"",""2"",""8912""
""focus"",""2"",""10879""
""blur"",""19"",""215743""
""focus"",""19"",""215920""
","""event"",""trial"",""time""
""blur"",""2"",""8912""
""blur"",""19"",""215743""
","""event"",""trial"",""time""
""focus"",""2"",""10879""
""focus"",""19"",""215920""
","""event"",""trial"",""time""
""fullscreenenter"",""1"",""3634""
","
","","[{""page_index"":0,""viewing_time"":3798},{""page_index"":1,""viewing_time"":5449.299999952316},{""page_index"":2,""viewing_time"":6848.299999952316}]","16096","","","","","","","","","","","","","","","","","","","","","","","",""
"pit-trial","121","958996","0.0-4.0","battery-v0.2","","""event"",""trial"",""time""
""fullscreenenter"",""1"",""3634""
""blur"",""2"",""8912""
""focus"",""2"",""10879""
""blur"",""19"",""215743""
""focus"",""19"",""215920""
","""event"",""trial"",""time""
""blur"",""2"",""8912""
""blur"",""19"",""215743""
","""event"",""trial"",""time""
""focus"",""2"",""10879""
""focus"",""19"",""215920""
","""event"",""trial"",""time""
""fullscreenenter"",""1"",""3634""
","
","","","31.699999809265137","","","22","16960","6462","&#9752;","elianto","#f73b6a7A"," "," ","1","0","[882.3999998569489,2286]","2","1","","","16960","1","3","3","lose","go","0"
"pit-trial","122","961930","0.0-5.0","battery-v0.2","","""event"",""trial"",""time""
""fullscreenenter"",""1"",""3634""
""blur"",""2"",""8912""
""focus"",""2"",""10879""
""blur"",""19"",""215743""
""focus"",""19"",""215920""
","""event"",""trial"",""time""
""blur"",""2"",""8912""
""blur"",""19"",""215743""
","""event"",""trial"",""time""
""focus"",""2"",""10879""
""focus"",""19"",""215920""
","""event"",""trial"",""time""
""fullscreenenter"",""1"",""3634""
","
","","","80.60000014305115","","","22","16960","6462","&#9733;","elianto","#3366ff99","-1"," ","0","0","[930.5,2296.600000143051]","2","1","","","16960","2","2","2","win","no-go","0"
"pit-trial","123","966786","0.0-6.0","battery-v0.2","","""event"",""trial"",""time""
""fullscreenenter"",""1"",""3634""
""blur"",""2"",""8912""
""focus"",""2"",""10879""
""blur"",""19"",""215743""
""focus"",""19"",""215920""
","""event"",""trial"",""time""
""blur"",""2"",""8912""
""blur"",""19"",""215743""
","""event"",""trial"",""time""
""focus"",""2"",""10879""
""focus"",""19"",""215920""
","""event"",""trial"",""time""
""fullscreenenter"",""1"",""3634""
","
","","","-1","","","22","16960","6462","&#9730;","elianto","#3366ff99"," ","-1","0","0","[]","0","1","","","16960","3","1","1","win","go","0"
"pit-trial","124","971641","0.0-7.0","battery-v0.2","","""event"",""trial"",""time""
""fullscreenenter"",""1"",""3634""
""blur"",""2"",""8912""
""focus"",""2"",""10879""
""blur"",""19"",""215743""
""focus"",""19"",""215920""
","""event"",""trial"",""time""
""blur"",""2"",""8912""
""blur"",""19"",""215743""
","""event"",""trial"",""time""
""focus"",""2"",""10879""
""focus"",""19"",""215920""
","""event"",""trial"",""time""
""fullscreenenter"",""1"",""3634""
","
","","","-1","","","22","16960","6462","&#9728;","elianto","#f73b6a7A","-1","-1","1","0","[812.9000000953674,3107.9000000953674]","2","1","","","16960","4","0","4","lose","no-go","0"
"pit-trial","125","976496","0.0-8.0","battery-v0.2","","""event"",""trial"",""time""
""fullscreenenter"",""1"",""3634""
""blur"",""2"",""8912""
""focus"",""2"",""10879""
""blur"",""19"",""215743""
""focus"",""19"",""215920""
","""event"",""trial"",""time""
""blur"",""2"",""8912""
""blur"",""19"",""215743""
","""event"",""trial"",""time""
""focus"",""2"",""10879""
""focus"",""19"",""215920""
","""event"",""trial"",""time""
""fullscreenenter"",""1"",""3634""
","
","","","-1","","","22","16960","6462","&#9733;","elianto","#3366ff99","-1","-1","1","0","[768.7999999523163,3413.2000000476837]","2","1","","","16960","5","2","2","win","no-go","1"
"pit-trial","126","981350","0.0-9.0","battery-v0.2","","""event"",""trial"",""time""
""fullscreenenter"",""1"",""3634""
""blur"",""2"",""8912""
""focus"",""2"",""10879""
""blur"",""19"",""215743""
""focus"",""19"",""215920""
","""event"",""trial"",""time""
""blur"",""2"",""8912""
""blur"",""19"",""215743""
","""event"",""trial"",""time""
""focus"",""2"",""10879""
""focus"",""19"",""215920""
","""event"",""trial"",""time""
""fullscreenenter"",""1"",""3634""
","
","","","-1","","","22","16960","6462","&#9728;","elianto","#f73b6a7A","-1","-1","1","0","[3623.9000000953674]","1","1","","","16960","6","0","4","lose","no-go","0"
"pit-trial","127","986205","0.0-10.0","battery-v0.2","","""event"",""trial"",""time""
""fullscreenenter"",""1"",""3634""
""blur"",""2"",""8912""
""focus"",""2"",""10879""
""blur"",""19"",""215743""
""focus"",""19"",""215920""
","""event"",""trial"",""time""
""blur"",""2"",""8912""
""blur"",""19"",""215743""
","""event"",""trial"",""time""
""focus"",""2"",""10879""
""focus"",""19"",""215920""
","""event"",""trial"",""time""
""fullscreenenter"",""1"",""3634""
","
","","","-1","","","22","16960","6462","&#9752;","elianto","#f73b6a7A"," ","-1","0","0","[3552]","1","1","","","16960","7","3","3","lose","go","1"
"pit-trial","128","989062","0.0-11.0","battery-v0.2","","""event"",""trial"",""time""
""fullscreenenter"",""1"",""3634""
""blur"",""2"",""8912""
""focus"",""2"",""10879""
""blur"",""19"",""215743""
""focus"",""19"",""215920""
","""event"",""trial"",""time""
""blur"",""2"",""8912""
""blur"",""19"",""215743""
","""event"",""trial"",""time""
""focus"",""2"",""10879""
""focus"",""19"",""215920""
","""event"",""trial"",""time""
""fullscreenenter"",""1"",""3634""
","
","","","2","","","22","16960","6462","&#9730;","elianto","#3366ff99"," "," ","1","+10","[853.2000000476837,2039.2999999523163]","2","1","","","16960","8","1","1","win","go","0"
"pit-trial","129","993917","0.0-12.0","battery-v0.2","","""event"",""trial"",""time""
""fullscreenenter"",""1"",""3634""
""blur"",""2"",""8912""
""focus"",""2"",""10879""
""blur"",""19"",""215743""
""focus"",""19"",""215920""
","""event"",""trial"",""time""
""blur"",""2"",""8912""
""blur"",""19"",""215743""
","""event"",""trial"",""time""
""focus"",""2"",""10879""
""focus"",""19"",""215920""
","""event"",""trial"",""time""
""fullscreenenter"",""1"",""3634""
","
","","","-1","","","22","16960","6462","&#9728;","elianto","#f73b6a7A","-1","-1","1","-10","[3302.199999809265,4850.299999952316]","2","1","","","16960","9","0","4","lose","no-go","1"
"pit-trial","130","996842","0.0-13.0","battery-v0.2","","""event"",""trial"",""time""
""fullscreenenter"",""1"",""3634""
""blur"",""2"",""8912""
""focus"",""2"",""10879""
""blur"",""19"",""215743""
""focus"",""19"",""215920""
","""event"",""trial"",""time""
""blur"",""2"",""8912""
""blur"",""19"",""215743""
","""event"",""trial"",""time""
""focus"",""2"",""10879""
""focus"",""19"",""215920""
","""event"",""trial"",""time""
""fullscreenenter"",""1"",""3634""
","
","","","71.70000004768372","","","22","16960","6462","&#9752;","elianto","#f73b6a7A"," "," ","1","-10","[922.0999999046326,1816.0999999046326]","2","1","","","16960","10","3","3","lose","go","1"
"pit-trial","131","1001616","0.0-14.0","battery-v0.2","","""event"",""trial"",""time""
""fullscreenenter"",""1"",""3634""
""blur"",""2"",""8912""
""focus"",""2"",""10879""
""blur"",""19"",""215743""
""focus"",""19"",""215920""
","""event"",""trial"",""time""
""blur"",""2"",""8912""
""blur"",""19"",""215743""
","""event"",""trial"",""time""
""focus"",""2"",""10879""
""focus"",""19"",""215920""
","""event"",""trial"",""time""
""fullscreenenter"",""1"",""3634""
","
","","","1917.3000001907349","","","22","16960","6462","&#9730;","elianto","#3366ff99"," "," ","1","+10","[687.0999999046326,2768.4000000953674]","2","1","","","16960","11","1","1","win","go","0"
"pit-trial","132","1006470","0.0-15.0","battery-v0.2","","""event"",""trial"",""time""
""fullscreenenter"",""1"",""3634""
""blur"",""2"",""8912""
""focus"",""2"",""10879""
""blur"",""19"",""215743""
""focus"",""19"",""215920""
","""event"",""trial"",""time""
""blur"",""2"",""8912""
""blur"",""19"",""215743""
","""event"",""trial"",""time""
""focus"",""2"",""10879""
""focus"",""19"",""215920""
","""event"",""trial"",""time""
""fullscreenenter"",""1"",""3634""
","
","","","-1","","","22","16960","6462","&#9733;","elianto","#3366ff99","-1","-1","1","+10","[3007.7000000476837]","1","1","","","16960","12","2","2","win","no-go","0"
"pit-trial","133","1009445","0.0-16.0","battery-v0.2","","""event"",""trial"",""time""
""fullscreenenter"",""1"",""3634""
""blur"",""2"",""8912""
""focus"",""2"",""10879""
""blur"",""19"",""215743""
""focus"",""19"",""215920""
","""event"",""trial"",""time""
""blur"",""2"",""8912""
""blur"",""19"",""215743""
","""event"",""trial"",""time""
""focus"",""2"",""10879""
""focus"",""19"",""215920""
","""event"",""trial"",""time""
""fullscreenenter"",""1"",""3634""
","
","","","120.60000014305115","","","22","16960","6462","&#9730;","elianto","#3366ff99"," "," ","1","+10","[971.1000001430511]","1","1","","","16960","13","1","1","win","go","0"
"pit-trial","134","1012421","0.0-17.0","battery-v0.2","","""event"",""trial"",""time""
""fullscreenenter"",""1"",""3634""
""blur"",""2"",""8912""
""focus"",""2"",""10879""
""blur"",""19"",""215743""
""focus"",""19"",""215920""
","""event"",""trial"",""time""
""blur"",""2"",""8912""
""blur"",""19"",""215743""
","""event"",""trial"",""time""
""focus"",""2"",""10879""
""focus"",""19"",""215920""
","""event"",""trial"",""time""
""fullscreenenter"",""1"",""3634""
","
","","","121","","","22","16960","6462","&#9728;","elianto","#f73b6a7A","-1"," ","0","0","[142.79999995231628,971.5999999046326,2125.5]","3","1","","","16960","14","0","4","lose","no-go","1"
"pit-trial","135","1017276","0.0-18.0","battery-v0.2","","""event"",""trial"",""time""
""fullscreenenter"",""1"",""3634""
""blur"",""2"",""8912""
""focus"",""2"",""10879""
""blur"",""19"",""215743""
""focus"",""19"",""215920""
","""event"",""trial"",""time""
""blur"",""2"",""8912""
""blur"",""19"",""215743""
","""event"",""trial"",""time""
""focus"",""2"",""10879""
""focus"",""19"",""215920""
","""event"",""trial"",""time""
""fullscreenenter"",""1"",""3634""
","
","","","-1","","","22","16960","6462","&#9752;","elianto","#f73b6a7A"," ","-1","0","0","[749.4000000953674]","1","1","","","16960","15","3","3","lose","go","1"
"pit-trial","136","1022131","0.0-19.0","battery-v0.2","","""event"",""trial"",""time""
""fullscreenenter"",""1"",""3634""
""blur"",""2"",""8912""
""focus"",""2"",""10879""
""blur"",""19"",""215743""
""focus"",""19"",""215920""
","""event"",""trial"",""time""
""blur"",""2"",""8912""
""blur"",""19"",""215743""
","""event"",""trial"",""time""
""focus"",""2"",""10879""
""focus"",""19"",""215920""
","""event"",""trial"",""time""
""fullscreenenter"",""1"",""3634""
","
","","","-1","","","22","16960","6462","&#9733;","elianto","#3366ff99","-1","-1","1","+10","[838.7000000476837,3883.600000143051]","2","1","","","16960","16","2","2","win","no-go","0"
"pit-trial","137","1026986","0.0-20.0","battery-v0.2","","""event"",""trial"",""time""
""fullscreenenter"",""1"",""3634""
""blur"",""2"",""8912""
""focus"",""2"",""10879""
""blur"",""19"",""215743""
""focus"",""19"",""215920""
","""event"",""trial"",""time""
""blur"",""2"",""8912""
""blur"",""19"",""215743""
","""event"",""trial"",""time""
""focus"",""2"",""10879""
""focus"",""19"",""215920""
","""event"",""trial"",""time""
""fullscreenenter"",""1"",""3634""
","
","","","-1","","","22","16960","6462","&#9733;","elianto","#3366ff99","-1","-1","1","+10","[845.7000000476837]","1","1","","","16960","17","2","2","win","no-go","0"
"pit-trial","138","1029851","0.0-21.0","battery-v0.2","","""event"",""trial"",""time""
""fullscreenenter"",""1"",""3634""
""blur"",""2"",""8912""
""focus"",""2"",""10879""
""blur"",""19"",""215743""
""focus"",""19"",""215920""
","""event"",""trial"",""time""
""blur"",""2"",""8912""
""blur"",""19"",""215743""
","""event"",""trial"",""time""
""focus"",""2"",""10879""
""focus"",""19"",""215920""
","""event"",""trial"",""time""
""fullscreenenter"",""1"",""3634""
","
","","","11","","","22","16960","6462","&#9730;","elianto","#3366ff99"," "," ","1","+10","[861.1999998092651,2295.399999856949]","2","1","","","16960","18","1","1","win","go","0"
"pit-trial","139","1032791","0.0-22.0","battery-v0.2","","""event"",""trial"",""time""
""fullscreenenter"",""1"",""3634""
""blur"",""2"",""8912""
""focus"",""2"",""10879""
""blur"",""19"",""215743""
""focus"",""19"",""215920""
","""event"",""trial"",""time""
""blur"",""2"",""8912""
""blur"",""19"",""215743""
","""event"",""trial"",""time""
""focus"",""2"",""10879""
""focus"",""19"",""215920""
","""event"",""trial"",""time""
""fullscreenenter"",""1"",""3634""
","
","","","84.69999980926514","","","22","16960","6462","&#9752;","elianto","#f73b6a7A"," "," ","1","0","[935.6999998092651,2826.199999809265]","2","1","","","16960","19","3","3","lose","go","0"
"pit-trial","140","1037647","0.0-23.0","battery-v0.2","","""event"",""trial"",""time""
""fullscreenenter"",""1"",""3634""
""blur"",""2"",""8912""
""focus"",""2"",""10879""
""blur"",""19"",""215743""
""focus"",""19"",""215920""
","""event"",""trial"",""time""
""blur"",""2"",""8912""
""blur"",""19"",""215743""
","""event"",""trial"",""time""
""focus"",""2"",""10879""
""focus"",""19"",""215920""
","""event"",""trial"",""time""
""fullscreenenter"",""1"",""3634""
","
","","","-1","","","22","16960","6462","&#9728;","elianto","#f73b6a7A","-1","-1","1","0","[4402.299999952316]","1","1","","","16960","20","0","4","lose","no-go","0"
"pit-instructions","141","1050093","0.0-24.0","battery-v0.2","","""event"",""trial"",""time""
""fullscreenenter"",""1"",""3634""
""blur"",""2"",""8912""
""focus"",""2"",""10879""
""blur"",""19"",""215743""
""focus"",""19"",""215920""
","""event"",""trial"",""time""
""blur"",""2"",""8912""
""blur"",""19"",""215743""
","""event"",""trial"",""time""
""focus"",""2"",""10879""
""focus"",""19"",""215920""
","""event"",""trial"",""time""
""fullscreenenter"",""1"",""3634""
","
","","[{""page_index"":0,""viewing_time"":5695.900000095367},{""page_index"":1,""viewing_time"":6747.399999856949}]","12443.799999952316","","","","","","","","","","","","","","","","","","","","","","","",""
"pit-trial","142","1054947","0.0-25.0","battery-v0.2","","""event"",""trial"",""time""
""fullscreenenter"",""1"",""3634""
""blur"",""2"",""8912""
""focus"",""2"",""10879""
""blur"",""19"",""215743""
""focus"",""19"",""215920""
","""event"",""trial"",""time""
""blur"",""2"",""8912""
""blur"",""19"",""215743""
","""event"",""trial"",""time""
""focus"",""2"",""10879""
""focus"",""19"",""215920""
","""event"",""trial"",""time""
""fullscreenenter"",""1"",""3634""
","
","","","-1","","","22","16960","6462","j","elianto","#f73b6a7A","-1","-1","1","-10","[807.6000001430511]","1","2","","","16960","21","0","4","lose","no-go","1"
"pit-trial","143","1059801","0.0-26.0","battery-v0.2","","""event"",""trial"",""time""
""fullscreenenter"",""1"",""3634""
""blur"",""2"",""8912""
""focus"",""2"",""10879""
""blur"",""19"",""215743""
""focus"",""19"",""215920""
","""event"",""trial"",""time""
""blur"",""2"",""8912""
""blur"",""19"",""215743""
","""event"",""trial"",""time""
""focus"",""2"",""10879""
""focus"",""19"",""215920""
","""event"",""trial"",""time""
""fullscreenenter"",""1"",""3634""
","
","","","-1","","","22","16960","6462","e","elianto","#f73b6a7A","-1","-1","1","0","[4839.800000190735]","1","2","","","16960","22","2","4","lose","no-go","0"
"pit-trial","144","1062722","0.0-27.0","battery-v0.2","","""event"",""trial"",""time""
""fullscreenenter"",""1"",""3634""
""blur"",""2"",""8912""
""focus"",""2"",""10879""
""blur"",""19"",""215743""
""focus"",""19"",""215920""
","""event"",""trial"",""time""
""blur"",""2"",""8912""
""blur"",""19"",""215743""
","""event"",""trial"",""time""
""focus"",""2"",""10879""
""focus"",""19"",""215920""
","""event"",""trial"",""time""
""fullscreenenter"",""1"",""3634""
","
","","","65.70000004768372","","","22","16960","6462","d","elianto","#3366ff99"," "," ","1","0","[916.7000000476837]","1","2","","","16960","23","1","1","win","go","1"
"pit-trial","145","1065625","0.0-28.0","battery-v0.2","","""event"",""trial"",""time""
""fullscreenenter"",""1"",""3634""
""blur"",""2"",""8912""
""focus"",""2"",""10879""
""blur"",""19"",""215743""
""focus"",""19"",""215920""
","""event"",""trial"",""time""
""blur"",""2"",""8912""
""blur"",""19"",""215743""
","""event"",""trial"",""time""
""focus"",""2"",""10879""
""focus"",""19"",""215920""
","""event"",""trial"",""time""
""fullscreenenter"",""1"",""3634""
","
","","","48.700000047683716","","","22","16960","6462","w","elianto","#f73b6a7A"," "," ","1","0","[899.1000001430511]","1","2","","","16960","24","3","3","lose","go","0"
"pit-trial","146","1070481","0.0-29.0","battery-v0.2","","""event"",""trial"",""time""
""fullscreenenter"",""1"",""3634""
""blur"",""2"",""8912""
""focus"",""2"",""10879""
""blur"",""19"",""215743""
""focus"",""19"",""215920""
","""event"",""trial"",""time""
""blur"",""2"",""8912""
""blur"",""19"",""215743""
","""event"",""trial"",""time""
""focus"",""2"",""10879""
""focus"",""19"",""215920""
","""event"",""trial"",""time""
""fullscreenenter"",""1"",""3634""
","
","","","-1","","","22","16960","6462","j","elianto","#f73b6a7A","-1","-1","1","-10","[3585.9000000953674,4337.900000095367]","2","2","","","16960","25","0","4","lose","no-go","1"
"pit-trial","147","1075336","0.0-30.0","battery-v0.2","","""event"",""trial"",""time""
""fullscreenenter"",""1"",""3634""
""blur"",""2"",""8912""
""focus"",""2"",""10879""
""blur"",""19"",""215743""
""focus"",""19"",""215920""
","""event"",""trial"",""time""
""blur"",""2"",""8912""
""blur"",""19"",""215743""
","""event"",""trial"",""time""
""focus"",""2"",""10879""
""focus"",""19"",""215920""
","""event"",""trial"",""time""
""fullscreenenter"",""1"",""3634""
","
","","","-1","","","22","16960","6462","e","elianto","#f73b6a7A","-1","-1","1","0","[178.10000014305115,753,3475]","3","2","","","16960","26","2","4","lose","no-go","0"
"pit-trial","148","1080190","0.0-31.0","battery-v0.2","","""event"",""trial"",""time""
""fullscreenenter"",""1"",""3634""
""blur"",""2"",""8912""
""focus"",""2"",""10879""
""blur"",""19"",""215743""
""focus"",""19"",""215920""
","""event"",""trial"",""time""
""blur"",""2"",""8912""
""blur"",""19"",""215743""
","""event"",""trial"",""time""
""focus"",""2"",""10879""
""focus"",""19"",""215920""
","""event"",""trial"",""time""
""fullscreenenter"",""1"",""3634""
","
","","","-1","","","22","16960","6462","w","elianto","#f73b6a7A"," ","-1","0","0","[645.0999999046326,3834.7999999523163]","2","2","","","16960","27","3","3","lose","go","1"
"pit-trial","149","1083121","0.0-32.0","battery-v0.2","","""event"",""trial"",""time""
""fullscreenenter"",""1"",""3634""
""blur"",""2"",""8912""
""focus"",""2"",""10879""
""blur"",""19"",""215743""
""focus"",""19"",""215920""
","""event"",""trial"",""time""
""blur"",""2"",""8912""
""blur"",""19"",""215743""
","""event"",""trial"",""time""
""focus"",""2"",""10879""
""focus"",""19"",""215920""
","""event"",""trial"",""time""
""fullscreenenter"",""1"",""3634""
","
","","","76.39999985694885","","","22","16960","6462","d","elianto","#3366ff99"," "," ","1","+10","[926.4000000953674,2820.9000000953674]","2","2","","","16960","28","1","1","win","go","0"
"pit-trial","150","1087976","0.0-33.0","battery-v0.2","","""event"",""trial"",""time""
""fullscreenenter"",""1"",""3634""
""blur"",""2"",""8912""
""focus"",""2"",""10879""
""blur"",""19"",""215743""
""focus"",""19"",""215920""
","""event"",""trial"",""time""
""blur"",""2"",""8912""
""blur"",""19"",""215743""
","""event"",""trial"",""time""
""focus"",""2"",""10879""
""focus"",""19"",""215920""
","""event"",""trial"",""time""
""fullscreenenter"",""1"",""3634""
","
","","","-1","","","22","16960","6462","w","elianto","#f73b6a7A"," ","-1","0","0","[842.1000001430511,3694.300000190735]","2","2","","","16960","29","3","3","lose","go","1"
"pit-trial","151","1090893","0.0-34.0","battery-v0.2","","""event"",""trial"",""time""
""fullscreenenter"",""1"",""3634""
""blur"",""2"",""8912""
""focus"",""2"",""10879""
""blur"",""19"",""215743""
""focus"",""19"",""215920""
","""event"",""trial"",""time""
""blur"",""2"",""8912""
""blur"",""19"",""215743""
","""event"",""trial"",""time""
""focus"",""2"",""10879""
""focus"",""19"",""215920""
","""event"",""trial"",""time""
""fullscreenenter"",""1"",""3634""
","
","","","61","","","22","16960","6462","j","elianto","#f73b6a7A","-1"," ","0","-10","[125.19999980926514,911.5]","2","2","","","16960","30","0","4","lose","no-go","0"
"pit-trial","152","1095748","0.0-35.0","battery-v0.2","","""event"",""trial"",""time""
""fullscreenenter"",""1"",""3634""
""blur"",""2"",""8912""
""focus"",""2"",""10879""
""blur"",""19"",""215743""
""focus"",""19"",""215920""
","""event"",""trial"",""time""
""blur"",""2"",""8912""
""blur"",""19"",""215743""
","""event"",""trial"",""time""
""focus"",""2"",""10879""
""focus"",""19"",""215920""
","""event"",""trial"",""time""
""fullscreenenter"",""1"",""3634""
","
","","","-1","","","22","16960","6462","e","elianto","#f73b6a7A","-1","-1","1","-10","[837.5]","1","2","","","16960","31","2","4","lose","no-go","1"
"pit-trial","153","1100603","0.0-36.0","battery-v0.2","","""event"",""trial"",""time""
""fullscreenenter"",""1"",""3634""
""blur"",""2"",""8912""
""focus"",""2"",""10879""
""blur"",""19"",""215743""
""focus"",""19"",""215920""
","""event"",""trial"",""time""
""blur"",""2"",""8912""
""blur"",""19"",""215743""
","""event"",""trial"",""time""
""focus"",""2"",""10879""
""focus"",""19"",""215920""
","""event"",""trial"",""time""
""fullscreenenter"",""1"",""3634""
","
","","","-1","","","22","16960","6462","d","elianto","#3366ff99"," ","-1","0","0","[3674.600000143051]","1","2","","","16960","32","1","1","win","go","0"
"pit-trial","154","1105459","0.0-37.0","battery-v0.2","","""event"",""trial"",""time""
""fullscreenenter"",""1"",""3634""
""blur"",""2"",""8912""
""focus"",""2"",""10879""
""blur"",""19"",""215743""
""focus"",""19"",""215920""
","""event"",""trial"",""time""