"trial_type","trial_index","time_elapsed","internal_node_id","task_version","subject_id","interactions","blur_events","focus_events","fullscreenenter_events","fullscreenexit_events","success","view_history","rt","responses","num_errors","age","subject","participantId","rune","rune_set","hex","correct","choice","accuracy","outcome","keys","total_keys","block","practice","value","sub","trial","stimulus","robot","valence","action","sham"
"pavlovia","0","12","0.0-0.0","battery-v0.2","","""event"",""trial"",""time""
""fullscreenenter"",""1"",""2926""
","
","
","""event"",""trial"",""time""
""fullscreenenter"",""1"",""2926""
","
","","","","","","","","","","","","","","","","","","","","","","","","","","",""
"fullscreen","1","3920","0.0-1.0","battery-v0.2","","""event"",""trial"",""time""
""fullscreenenter"",""1"",""2926""
","
","
","""event"",""trial"",""time""
""fullscreenenter"",""1"",""2926""
","
","true","","","","","","","","","","","","","","","","","","","","","","","","","",""
"pit-instructions","2","8315","0.0-2.0-0.0","battery-v0.2","","""event"",""trial"",""time""
""fullscreenenter"",""1"",""2926""
","
","
","""event"",""trial"",""time""
""fullscreenenter"",""1"",""2926""
","
","","[{""page_index"":0,""viewing_time"":4391}]","4391.400000095367","","","","","","","","","","","","","","","","","","","","","","","",""
"pit-comprehension","3","11046","0.0-2.0-1.0-0.0","battery-v0.2","","""event"",""trial"",""time""
""fullscreenenter"",""1"",""2926""
","
","
","""event"",""trial"",""time""
""fullscreenenter"",""1"",""2926""
","
","","","2727.7000000476837","[""shark""]","0","20","10835","363","","","","","","","","","","","","","","","","","","",""
"pit-instructions","4","12278","0.0-2.0-1.0-1.0","battery-v0.2","","""event"",""trial"",""time""
""fullscreenenter"",""1"",""2926""
","
","
","""event"",""trial"",""time""
""fullscreenenter"",""1"",""2926""
","
","","[{""page_index"":0,""viewing_time"":1219.5}]","1219.9000000953674","","","","","","","","","","","","","","","","","","","","","","","",""
"pit-comprehension","5","14631","0.0-2.0-2.0-0.0","battery-v0.2","","""event"",""trial"",""time""
""fullscreenenter"",""1"",""2926""
","
","
","""event"",""trial"",""time""
""fullscreenenter"",""1"",""2926""
","
","","","2349.699999809265","[""tiger""]","0","20","10835","363","","","","","","","","","","","","","","","","","","",""
"pit-instructions","6","15635","0.0-2.0-2.0-1.0","battery-v0.2","","""event"",""trial"",""time""
""fullscreenenter"",""1"",""2926""
","
","
","""event"",""trial"",""time""
""fullscreenenter"",""1"",""2926""
","
","","[{""page_index"":0,""viewing_time"":1000.2999999523163}]","1000.6000001430511","","","","","","","","","","","","","","","","","","","","","","","",""
"pit-instructions","7","116600","0.0-2.0-3.0","battery-v0.2","","""event"",""trial"",""time""
""fullscreenenter"",""1"",""2926""
","
","
","""event"",""trial"",""time""
""fullscreenenter"",""1"",""2926""
","
","","[{""page_index"":0,""viewing_time"":7600},{""page_index"":1,""viewing_time"":6849.099999904633},{""page_index"":2,""viewing_time"":6503.600000143051},{""page_index"":3,""viewing_time"":5314.099999904633},{""page_index"":4,""viewing_time"":5717.799999952316},{""page_index"":5,""viewing_time"":6114.600000143051},{""page_index"":6,""viewing_time"":7111.799999952316},{""page_index"":7,""viewing_time"":7541.700000047684},{""page_index"":8,""viewing_time"":8103.299999952316},{""page_index"":9,""viewing_time"":12666.700000047684},{""page_index"":10,""viewing_time"":8376.200000047684},{""page_index"":11,""viewing_time"":7457.899999856949},{""page_index"":12,""viewing_time"":6220.299999952316},{""page_index"":13,""viewing_time"":5384.5}]","100962.09999990463","","","","","","","","","","","","","","","","","","","","","","","",""
"pit-trial","8","119950","0.0-2.0-4.0-0.0","battery-v0.2","","""event"",""trial"",""time""
""fullscreenenter"",""1"",""2926""
","
","
","""event"",""trial"",""time""
""fullscreenenter"",""1"",""2926""
","
","","","481.5","","","20","10835","363","&#9784;","elianto","#FFFFF080"," "," ","1","&#10004","[1332.4000000953674]","1","0","0","","","","","","","",""
"pit-trial","9","123228","0.0-2.0-4.1-0.1","battery-v0.2","","""event"",""trial"",""time""
""fullscreenenter"",""1"",""2926""
","
","
","""event"",""trial"",""time""
""fullscreenenter"",""1"",""2926""
","
","","","406.2000000476837","","","20","10835","363","&#9784;","elianto","#FFFFF080"," "," ","1","&#10004","[1267.6000001430511]","1","0","0","","","","","","","",""
"pit-trial","10","126485","0.0-2.0-4.2-0.2","battery-v0.2","","""event"",""trial"",""time""
""fullscreenenter"",""1"",""2926""
","
","
","""event"",""trial"",""time""
""fullscreenenter"",""1"",""2926""
","
","","","390.2999999523163","","","20","10835","363","&#9784;","elianto","#FFFFF080"," "," ","1","&#10004","[1243.6000001430511]","1","0","0","","","","","","","",""
"pit-trial","11","129709","0.0-2.0-4.3-0.3","battery-v0.2","","""event"",""trial"",""time""
""fullscreenenter"",""1"",""2926""
","
","
","""event"",""trial"",""time""
""fullscreenenter"",""1"",""2926""
","
","","","354.7999999523163","","","20","10835","363","&#9784;","elianto","#FFFFF080"," "," ","1","&#10004","[1207.9000000953674]","1","0","0","","","","","","","",""
"pit-trial","12","132991","0.0-2.0-4.4-0.4","battery-v0.2","","""event"",""trial"",""time""
""fullscreenenter"",""1"",""2926""
","
","
","""event"",""trial"",""time""
""fullscreenenter"",""1"",""2926""
","
","","","412.59999990463257","","","20","10835","363","&#9784;","elianto","#FFFFF080"," "," ","1","&#10004","[1269.8000001907349]","1","0","0","","","","","","","",""
"pit-instructions","13","153925","0.0-2.0-5.0","battery-v0.2","","""event"",""trial"",""time""
""fullscreenenter"",""1"",""2926""
","
","
","""event"",""trial"",""time""
""fullscreenenter"",""1"",""2926""
","
","","[{""page_index"":0,""viewing_time"":4697.799999952316},{""page_index"":1,""viewing_time"":5503.200000047684},{""page_index"":2,""viewing_time"":5332.900000095367},{""page_index"":3,""viewing_time"":5396.899999856949}]","20931.200000047684","","","","","","","","","","","","","","","","","","","","","","","",""
"pit-trial","14","158789","0.0-2.0-6.0-0.0","battery-v0.2","","""event"",""trial"",""time""
""fullscreenenter"",""1"",""2926""
","
","
","""event"",""trial"",""time""
""fullscreenenter"",""1"",""2926""
","
","","","-1","","","20","10835","363","&#9854;","elianto","#FFFFF080","-1","-1","1","&#10004","[]","0","0","1","","","","","","","",""
"pit-trial","15","163670","0.0-2.0-6.1-0.1","battery-v0.2","","""event"",""trial"",""time""
""fullscreenenter"",""1"",""2926""
","
","
","""event"",""trial"",""time""
""fullscreenenter"",""1"",""2926""
","
","","","-1","","","20","10835","363","&#9854;","elianto","#FFFFF080","-1","-1","1","&#10004","[]","0","0","1","","","","","","","",""
"pit-trial","16","168539","0.0-2.0-6.2-0.2","battery-v0.2","","""event"",""trial"",""time""
""fullscreenenter"",""1"",""2926""
","
","
","""event"",""trial"",""time""
""fullscreenenter"",""1"",""2926""
","
","","","-1","","","20","10835","363","&#9854;","elianto","#FFFFF080","-1","-1","1","&#10004","[]","0","0","1","","","","","","","",""
"pit-trial","17","173412","0.0-2.0-6.3-0.3","battery-v0.2","","""event"",""trial"",""time""
""fullscreenenter"",""1"",""2926""
","
","
","""event"",""trial"",""time""
""fullscreenenter"",""1"",""2926""
","
","","","-1","","","20","10835","363","&#9854;","elianto","#FFFFF080","-1","-1","1","&#10004","[]","0","0","1","","","","","","","",""
"pit-trial","18","178279","0.0-2.0-6.4-0.4","battery-v0.2","","""event"",""trial"",""time""
""fullscreenenter"",""1"",""2926""
","
","
","""event"",""trial"",""time""
""fullscreenenter"",""1"",""2926""
","
","","","-1","","","20","10835","363","&#9854;","elianto","#FFFFF080","-1","-1","1","&#10004","[]","0","0","1","","","","","","","",""
"pit-instructions","19","300505","0.0-2.0-7.0","battery-v0.2","","""event"",""trial"",""time""
""fullscreenenter"",""1"",""2926""
","
","
","""event"",""trial"",""time""
""fullscreenenter"",""1"",""2926""
","
","","[{""page_index"":0,""viewing_time"":5918.400000095367},{""page_index"":1,""viewing_time"":7379.799999952316},{""page_index"":2,""viewing_time"":7110},{""page_index"":3,""viewing_time"":8236.200000047684},{""page_index"":4,""viewing_time"":5722.200000047684},{""page_index"":5,""viewing_time"":5651.899999856949},{""page_index"":6,""viewing_time"":4564.200000047684},{""page_index"":7,""viewing_time"":7789.5},{""page_index"":8,""viewing_time"":7014.600000143051},{""page_index"":9,""viewing_time"":6713.5},{""page_index"":10,""viewing_time"":6974.299999952316},{""page_index"":11,""viewing_time"":4751.200000047684},{""page_index"":12,""viewing_time"":7986.699999809265},{""page_index"":13,""viewing_time"":7552.200000047684},{""page_index"":14,""viewing_time"":7803.100000143051},{""page_index"":15,""viewing_time"":6796.599999904633},{""page_index"":16,""viewing_time"":6681.200000047684},{""page_index"":17,""viewing_time"":7576.799999952316}]","122222.80000019073","","","","","","","","","","","","","","","","","","","","","","","",""
"pit-trial","20","304004","0.0-2.0-8.0-0.0","battery-v0.2","","""event"",""trial"",""time""
""fullscreenenter"",""1"",""2926""
","
","
","""event"",""trial"",""time""
""fullscreenenter"",""1"",""2926""
","
","","","639.2000000476837","","","20","10835","363","&#9776;","elianto","#3366ff99"," "," ","1","+10","[1493.8000001907349]","1","0","1","","","","","","","",""
"pit-trial","21","307369","0.0-2.0-8.0-1.0","battery-v0.2","","""event"",""trial"",""time""
""fullscreenenter"",""1"",""2926""
","
","
","""event"",""trial"",""time""
""fullscreenenter"",""1"",""2926""
","
","","","508.30000019073486","","","20","10835","363","&#9776;","elianto","#3366ff99"," "," ","1","+10","[1360.5]","1","0","1","","","","","","","",""
"pit-trial","22","310735","0.0-2.0-8.0-2.0","battery-v0.2","","""event"",""trial"",""time""
""fullscreenenter"",""1"",""2926""
","
","
","""event"",""trial"",""time""
""fullscreenenter"",""1"",""2926""
","
","","","500.09999990463257","","","20","10835","363","&#9776;","elianto","#3366ff99"," "," ","1","+10","[1352.1999998092651]","1","0","1","","","","","","","",""
"pit-trial","23","314001","0.0-2.0-8.0-3.0","battery-v0.2","","""event"",""trial"",""time""
""fullscreenenter"",""1"",""2926""
","
","
","""event"",""trial"",""time""
""fullscreenenter"",""1"",""2926""
","
","","","402.2000000476837","","","20","10835","363","&#9776;","elianto","#3366ff99"," "," ","1","0","[1259.2000000476837]","1","0","1","","","","","","","",""
"pit-trial","24","317277","0.0-2.0-8.0-4.0","battery-v0.2","","""event"",""trial"",""time""
""fullscreenenter"",""1"",""2926""
","
","
","""event"",""trial"",""time""
""fullscreenenter"",""1"",""2926""
","
","","","399.5","","","20","10835","363","&#9776;","elianto","#3366ff99"," "," ","1","+10","[1257.8000001907349]","1","0","1","","","","","","","",""
"pit-trial","25","320570","0.0-2.0-8.1-0.1","battery-v0.2","","""event"",""trial"",""time""
""fullscreenenter"",""1"",""2926""
","
","
","""event"",""trial"",""time""
""fullscreenenter"",""1"",""2926""
","
","","","436.2000000476837","","","20","10835","363","&#9776;","elianto","#3366ff99"," "," ","1","+10","[1288.5]","1","0","1","","","","","","","",""
"pit-trial","26","323812","0.0-2.0-8.1-1.1","battery-v0.2","","""event"",""trial"",""time""
""fullscreenenter"",""1"",""2926""
","
","
","""event"",""trial"",""time""
""fullscreenenter"",""1"",""2926""
","
","","","376.10000014305115","","","20","10835","363","&#9776;","elianto","#3366ff99"," "," ","1","+10","[1227.2000000476837]","1","0","1","","","","","","","",""
"pit-trial","27","327021","0.0-2.0-8.1-2.1","battery-v0.2","","""event"",""trial"",""time""
""fullscreenenter"",""1"",""2926""
","
","
","""event"",""trial"",""time""
""fullscreenenter"",""1"",""2926""
","
","","","342.2999999523163","","","20","10835","363","&#9776;","elianto","#3366ff99"," "," ","1","+10","[1195.3999998569489]","1","0","1","","","","","","","",""
"pit-trial","28","330304","0.0-2.0-8.1-3.1","battery-v0.2","","""event"",""trial"",""time""
""fullscreenenter"",""1"",""2926""
","
","
","""event"",""trial"",""time""
""fullscreenenter"",""1"",""2926""
","
","","","419.59999990463257","","","20","10835","363","&#9776;","elianto","#3366ff99"," "," ","1","0","[1275.6999998092651]","1","0","1","","","","","","","",""
"pit-trial","29","333533","0.0-2.0-8.1-4.1","battery-v0.2","","""event"",""trial"",""time""
""fullscreenenter"",""1"",""2926""
","
","
","""event"",""trial"",""time""
""fullscreenenter"",""1"",""2926""
","
","","","376.2000000476837","","","20","10835","363","&#9776;","elianto","#3366ff99"," "," ","1","+10","[1226.6000001430511]","1","0","1","","","","","","","",""
"pit-trial","30","336921","0.0-2.0-8.2-0.2","battery-v0.2","","""event"",""trial"",""time""
""fullscreenenter"",""1"",""2926""
","
","
","""event"",""trial"",""time""
""fullscreenenter"",""1"",""2926""
","
","","","534.7000000476837","","","20","10835","363","&#9776;","elianto","#3366ff99"," "," ","1","+10","[1384.7999999523163]","1","0","1","","","","","","","",""
"pit-trial","31","339993","0.0-2.0-8.2-1.2","battery-v0.2","","""event"",""trial"",""time""
""fullscreenenter"",""1"",""2926""
","
","
","""event"",""trial"",""time""
""fullscreenenter"",""1"",""2926""
","
","","","219.70000004768372","","","20","10835","363","&#9776;","elianto","#3366ff99"," "," ","1","+10","[1070]","1","0","1","","","","","","","",""
"pit-trial","32","343202","0.0-2.0-8.2-2.2","battery-v0.2","","""event"",""trial"",""time""
""fullscreenenter"",""1"",""2926""
","
","
","""event"",""trial"",""time""
""fullscreenenter"",""1"",""2926""
","
","","","355.90000009536743","","","20","10835","363","&#9776;","elianto","#3366ff99"," "," ","1","+10","[1206.5999999046326]","1","0","1","","","","","","","",""
"pit-trial","33","346416","0.0-2.0-8.2-3.2","battery-v0.2","","""event"",""trial"",""time""
""fullscreenenter"",""1"",""2926""
","
","
","""event"",""trial"",""time""
""fullscreenenter"",""1"",""2926""
","
","","","362.19999980926514","","","20","10835","363","&#9776;","elianto","#3366ff99"," "," ","1","0","[1212.2999999523163]","1","0","1","","","","","","","",""
"pit-trial","34","349614","0.0-2.0-8.2-4.2","battery-v0.2","","""event"",""trial"",""time""
""fullscreenenter"",""1"",""2926""
","
","
","""event"",""trial"",""time""
""fullscreenenter"",""1"",""2926""
","
","","","343.7999999523163","","","20","10835","363","&#9776;","elianto","#3366ff99"," "," ","1","+10","[1195.6999998092651]","1","0","1","","","","","","","",""
"call-function","35","349616","0.0-2.0-9.0","battery-v0.2","","""event"",""trial"",""time""
""fullscreenenter"",""1"",""2926""
","
","
","""event"",""trial"",""time""
""fullscreenenter"",""1"",""2926""
","
","","","","","","","","","","","","","","","","","","","","","","","","","","",""
"pit-instructions","36","388909","0.0-2.0-10.0","battery-v0.2","","""event"",""trial"",""time""
""fullscreenenter"",""1"",""2926""
","
","
","""event"",""trial"",""time""
""fullscreenenter"",""1"",""2926""
","
","","[{""page_index"":0,""viewing_time"":5666.600000143051},{""page_index"":1,""viewing_time"":7074.199999809265},{""page_index"":2,""viewing_time"":9447.200000047684},{""page_index"":3,""viewing_time"":9231.700000047684},{""page_index"":4,""viewing_time"":7871.700000047684}]","39291.90000009537","","","","","","","","","","","","","","","","","","","","","","","",""
"pit-trial","37","392252","0.0-2.0-11.0-0.0","battery-v0.2","","""event"",""trial"",""time""
""fullscreenenter"",""1"",""2926""
","
","
","""event"",""trial"",""time""
""fullscreenenter"",""1"",""2926""
","
","","","474.90000009536743","","","20","10835","363","&#9761;","elianto","#3366ff99","-1"," ","0","0","[1334.2999999523163]","1","0","2","","","","","","","",""
"pit-trial","38","397121","0.0-2.0-11.0-1.0","battery-v0.2","","""event"",""trial"",""time""
""fullscreenenter"",""1"",""2926""
","
","
","""event"",""trial"",""time""
""fullscreenenter"",""1"",""2926""
","
","","","-1","","","20","10835","363","&#9761;","elianto","#3366ff99","-1","-1","1","+10","[]","0","0","2","","","","","","","",""
"pit-trial","39","401988","0.0-2.0-11.0-2.0","battery-v0.2","","""event"",""trial"",""time""
""fullscreenenter"",""1"",""2926""
","
","
","""event"",""trial"",""time""
""fullscreenenter"",""1"",""2926""
","
","","","-1","","","20","10835","363","&#9761;","elianto","#3366ff99","-1","-1","1","+10","[]","0","0","2","","","","","","","",""
"pit-trial","40","406849","0.0-2.0-11.0-3.0","battery-v0.2","","""event"",""trial"",""time""
""fullscreenenter"",""1"",""2926""
","
","
","""event"",""trial"",""time""
""fullscreenenter"",""1"",""2926""
","
","","","-1","","","20","10835","363","&#9761;","elianto","#3366ff99","-1","-1","1","0","[]","0","0","2","","","","","","","",""
"pit-trial","41","411713","0.0-2.0-11.0-4.0","battery-v0.2","","""event"",""trial"",""time""
""fullscreenenter"",""1"",""2926""
","
","
","""event"",""trial"",""time""
""fullscreenenter"",""1"",""2926""
","
","","","-1","","","20","10835","363","&#9761;","elianto","#3366ff99","-1","-1","1","+10","[]","0","0","2","","","","","","","",""
"pit-trial","42","416594","0.0-2.0-11.1-0.1","battery-v0.2","","""event"",""trial"",""time""
""fullscreenenter"",""1"",""2926""
","
","
","""event"",""trial"",""time""
""fullscreenenter"",""1"",""2926""
","
","","","-1","","","20","10835","363","&#9761;","elianto","#3366ff99","-1","-1","1","+10","[]","0","0","2","","","","","","","",""
"pit-trial","43","421447","0.0-2.0-11.1-1.1","battery-v0.2","","""event"",""trial"",""time""
""fullscreenenter"",""1"",""2926""
","
","
","""event"",""trial"",""time""
""fullscreenenter"",""1"",""2926""
","
","","","-1","","","20","10835","363","&#9761;","elianto","#3366ff99","-1","-1","1","+10","[]","0","0","2","","","","","","","",""
"pit-trial","44","426300","0.0-2.0-11.1-2.1","battery-v0.2","","""event"",""trial"",""time""
""fullscreenenter"",""1"",""2926""
","
","
","""event"",""trial"",""time""
""fullscreenenter"",""1"",""2926""
","
","","","-1","","","20","10835","363","&#9761;","elianto","#3366ff99","-1","-1","1","+10","[]","0","0","2","","","","","","","",""
"pit-trial","45","431154","0.0-2.0-11.1-3.1","battery-v0.2","","""event"",""trial"",""time""
""fullscreenenter"",""1"",""2926""
","
","
","""event"",""trial"",""time""
""fullscreenenter"",""1"",""2926""
","
","","","-1","","","20","10835","363","&#9761;","elianto","#3366ff99","-1","-1","1","0","[]","0","0","2","","","","","","","",""
"pit-trial","46","436006","0.0-2.0-11.1-4.1","battery-v0.2","","""event"",""trial"",""time""
""fullscreenenter"",""1"",""2926""
","
","
","""event"",""trial"",""time""
""fullscreenenter"",""1"",""2926""
","
","","","-1","","","20","10835","363","&#9761;","elianto","#3366ff99","-1","-1","1","+10","[]","0","0","2","","","","","","","",""
"pit-trial","47","440861","0.0-2.0-11.2-0.2","battery-v0.2","","""event"",""trial"",""time""
""fullscreenenter"",""1"",""2926""
","
","
","""event"",""trial"",""time""
""fullscreenenter"",""1"",""2926""
","
","","","-1","","","20","10835","363","&#9761;","elianto","#3366ff99","-1","-1","1","+10","[]","0","0","2","","","","","","","",""
"pit-trial","48","445714","0.0-2.0-11.2-1.2","battery-v0.2","","""event"",""trial"",""time""
""fullscreenenter"",""1"",""2926""
","
","
","""event"",""trial"",""time""
""fullscreenenter"",""1"",""2926""
","
","","","-1","","","20","10835","363","&#9761;","elianto","#3366ff99","-1","-1","1","+10","[]","0","0","2","","","","","","","",""
"pit-trial","49","450568","0.0-2.0-11.2-2.2","battery-v0.2","","""event"",""trial"",""time""
""fullscreenenter"",""1"",""2926""
","
","
","""event"",""trial"",""time""
""fullscreenenter"",""1"",""2926""
","
","","","-1","","","20","10835","363","&#9761;","elianto","#3366ff99","-1","-1","1","+10","[]","0","0","2","","","","","","","",""
"pit-trial","50","455421","0.0-2.0-11.2-3.2","battery-v0.2","","""event"",""trial"",""time""
""fullscreenenter"",""1"",""2926""
","
","
","""event"",""trial"",""time""
""fullscreenenter"",""1"",""2926""
","
","","","-1","","","20","10835","363","&#9761;","elianto","#3366ff99","-1","-1","1","0","[]","0","0","2","","","","","","","",""
"pit-trial","51","460274","0.0-2.0-11.2-4.2","battery-v0.2","","""event"",""trial"",""time""
""fullscreenenter"",""1"",""2926""
","
","
","""event"",""trial"",""time""
""fullscreenenter"",""1"",""2926""
","
","","","-1","","","20","10835","363","&#9761;","elianto","#3366ff99","-1","-1","1","+10","[]","0","0","2","","","","","","","",""
"pit-trial","52","465127","0.0-2.0-11.3-0.3","battery-v0.2","","""event"",""trial"",""time""
""fullscreenenter"",""1"",""2926""
","
","
","""event"",""trial"",""time""
""fullscreenenter"",""1"",""2926""
","
","","","-1","","","20","10835","363","&#9761;","elianto","#3366ff99","-1","-1","1","+10","[]","0","0","2","","","","","","","",""
"pit-trial","53","469980","0.0-2.0-11.3-1.3","battery-v0.2","","""event"",""trial"",""time""
""fullscreenenter"",""1"",""2926""
","
","
","""event"",""trial"",""time""
""fullscreenenter"",""1"",""2926""
","
","","","-1","","","20","10835","363","&#9761;","elianto","#3366ff99","-1","-1","1","+10","[]","0","0","2","","","","","","","",""
"pit-trial","54","474834","0.0-2.0-11.3-2.3","battery-v0.2","","""event"",""trial"",""time""
""fullscreenenter"",""1"",""2926""
","
","
","""event"",""trial"",""time""
""fullscreenenter"",""1"",""2926""
","
","","","-1","","","20","10835","363","&#9761;","elianto","#3366ff99","-1","-1","1","+10","[]","0","0","2","","","","","","","",""
"pit-trial","55","479688","0.0-2.0-11.3-3.3","battery-v0.2","","""event"",""trial"",""time""
""fullscreenenter"",""1"",""2926""
","
","
","""event"",""trial"",""time""
""fullscreenenter"",""1"",""2926""
","
","","","-1","","","20","10835","363","&#9761;","elianto","#3366ff99","-1","-1","1","0","[]","0","0","2","","","","","","","",""
"pit-trial","56","484541","0.0-2.0-11.3-4.3","battery-v0.2","","""event"",""trial"",""time""
""fullscreenenter"",""1"",""2926""
","
","
","""event"",""trial"",""time""
""fullscreenenter"",""1"",""2926""
","
","","","-1","","","20","10835","363","&#9761;","elianto","#3366ff99","-1","-1","1","+10","[]","0","0","2","","","","","","","",""
"call-function","57","484542","0.0-2.0-12.0","battery-v0.2","","""event"",""trial"",""time""
""fullscreenenter"",""1"",""2926""
","
","
","""event"",""trial"",""time""
""fullscreenenter"",""1"",""2926""
","
","","","","","","","","","","","","","","","","","","","","","","","","","","",""
"pit-instructions","58","519074","0.0-2.0-13.0","battery-v0.2","","""event"",""trial"",""time""
""fullscreenenter"",""1"",""2926""
","
","
","""event"",""trial"",""time""
""fullscreenenter"",""1"",""2926""
","
","","[{""page_index"":0,""viewing_time"":5810.800000190735},{""page_index"":1,""viewing_time"":7449.899999856949},{""page_index"":2,""viewing_time"":5172.5},{""page_index"":3,""viewing_time"":10371.900000095367},{""page_index"":4,""viewing_time"":5725.799999952316}]","34531.200000047684","","","","","","","","","","","","","","","","","","","","","","","",""
"pit-trial","59","523354","0.0-2.0-14.0-0.0","battery-v0.2","","""event"",""trial"",""time""
""fullscreenenter"",""1"",""2926""
","
","
","""event"",""trial"",""time""
""fullscreenenter"",""1"",""2926""
","
","","","1423.0999999046326","","","20","10835","363","&#9826;","elianto","#f73b6a7A","-1"," ","0","-10","[2276.0999999046326]","1","0","3","","","","","","","",""
"pit-trial","60","526924","0.0-2.0-14.0-1.0","battery-v0.2","","""event"",""trial"",""time""
""fullscreenenter"",""1"",""2926""
","
","
","""event"",""trial"",""time""
""fullscreenenter"",""1"",""2926""
","
","","","699.7999999523163","","","20","10835","363","&#9826;","elianto","#f73b6a7A","-1"," ","0","-10","[1553]","1","0","3","","","","","","","",""
"pit-trial","61","531789","0.0-2.0-14.0-2.0","battery-v0.2","","""event"",""trial"",""time""
""fullscreenenter"",""1"",""2926""
","
","
","""event"",""trial"",""time""
""fullscreenenter"",""1"",""2926""
","
","","","-1","","","20","10835","363","&#9826;","elianto","#f73b6a7A","-1","-1","1","0","[]","0","0","3","","","","","","","",""
"pit-trial","62","536652","0.0-2.0-14.0-3.0","battery-v0.2","","""event"",""trial"",""time""
""fullscreenenter"",""1"",""2926""
","
","
","""event"",""trial"",""time""
""fullscreenenter"",""1"",""2926""
","
","","","-1","","","20","10835","363","&#9826;","elianto","#f73b6a7A","-1","-1","1","-10","[]","0","0","3","","","","","","","",""
"pit-trial","63","539907","0.0-2.0-14.0-4.0","battery-v0.2","","""event"",""trial"",""time""
""fullscreenenter"",""1"",""2926""
","
","
","""event"",""trial"",""time""
""fullscreenenter"",""1"",""2926""
","
","","","382.89999985694885","","","20","10835","363","&#9826;","elianto","#f73b6a7A","-1"," ","0","-10","[1246.3999998569489]","1","0","3","","","","","","","",""
"pit-trial","64","543194","0.0-2.0-14.1-0.1","battery-v0.2","","""event"",""trial"",""time""
""fullscreenenter"",""1"",""2926""
","
","
","""event"",""trial"",""time""
""fullscreenenter"",""1"",""2926""
","
","","","424.59999990463257","","","20","10835","363","&#9826;","elianto","#f73b6a7A","-1"," ","0","-10","[1278.7999999523163]","1","0","3","","","","","","","",""
"pit-trial","65","548072","0.0-2.0-14.1-1.1","battery-v0.2","","""event"",""trial"",""time""
""fullscreenenter"",""1"",""2926""
","
","
","""event"",""trial"",""time""
""fullscreenenter"",""1"",""2926""
","
","","","-1","","","20","10835","363","&#9826;","elianto","#f73b6a7A","-1","-1","1","0","[]","0","0","3","","","","","","","",""
"pit-trial","66","552925","0.0-2.0-14.1-2.1","battery-v0.2","","""event"",""trial"",""time""
""fullscreenenter"",""1"",""2926""
","
","
","""event"",""trial"",""time""
""fullscreenenter"",""1"",""2926""
","
","","","-1","","","20","10835","363","&#9826;","elianto","#f73b6a7A","-1","-1","1","0","[]","0","0","3","","","","","","","",""
"pit-trial","67","557778","0.0-2.0-14.1-3.1","battery-v0.2","","""event"",""trial"",""time""
""fullscreenenter"",""1"",""2926""
","
","
","""event"",""trial"",""time""
""fullscreenenter"",""1"",""2926""
","
","","","-1","","","20","10835","363","&#9826;","elianto","#f73b6a7A","-1","-1","1","-10","[]","0","0","3","","","","","","","",""
"pit-trial","68","562631","0.0-2.0-14.1-4.1","battery-v0.2","","""event"",""trial"",""time""
""fullscreenenter"",""1"",""2926""
","
","
","""event"",""trial"",""time""
""fullscreenenter"",""1"",""2926""
","
","","","-1","","","20","10835","363","&#9826;","elianto","#f73b6a7A","-1","-1","1","0","[]","0","0","3","","","","","","","",""
"pit-trial","69","567486","0.0-2.0-14.2-0.2","battery-v0.2","","""event"",""trial"",""time""
""fullscreenenter"",""1"",""2926""
","
","
","""event"",""trial"",""time""
""fullscreenenter"",""1"",""2926""
","
","","","-1","","","20","10835","363","&#9826;","elianto","#f73b6a7A","-1","-1","1","0","[]","0","0","3","","","","","","","",""
"pit-trial","70","572340","0.0-2.0-14.2-1.2","battery-v0.2","","""event"",""trial"",""time""
""fullscreenenter"",""1"",""2926""
","
","
","""event"",""trial"",""time""
""fullscreenenter"",""1"",""2926""
","
","","","-1","","","20","10835","363","&#9826;","elianto","#f73b6a7A","-1","-1","1","0","[]","0","0","3","","","","","","","",""
"pit-trial","71","577194","0.0-2.0-14.2-2.2","battery-v0.2","","""event"",""trial"",""time""
""fullscreenenter"",""1"",""2926""
","
","
","""event"",""trial"",""time""
""fullscreenenter"",""1"",""2926""
","
","","","-1","","","20","10835","363","&#9826;","elianto","#f73b6a7A","-1","-1","1","0","[]","0","0","3","","","","","","","",""
"pit-trial","72","582046","0.0-2.0-14.2-3.2","battery-v0.2","","""event"",""trial"",""time""
""fullscreenenter"",""1"",""2926""
","
","
","""event"",""trial"",""time""
""fullscreenenter"",""1"",""2926""
","
","","","-1","","","20","10835","363","&#9826;","elianto","#f73b6a7A","-1","-1","1","-10","[]","0","0","3","","","","","","","",""
"pit-trial","73","586900","0.0-2.0-14.2-4.2","battery-v0.2","","""event"",""trial"",""time""
""fullscreenenter"",""1"",""2926""
","
","
","""event"",""trial"",""time""
""fullscreenenter"",""1"",""2926""
","
","","","-1","","","20","10835","363","&#9826;","elianto","#f73b6a7A","-1","-1","1","0","[]","0","0","3","","","","","","","",""
"pit-trial","74","591754","0.0-2.0-14.3-0.3","battery-v0.2","","""event"",""trial"",""time""
""fullscreenenter"",""1"",""2926""
","
","
","""event"",""trial"",""time""
""fullscreenenter"",""1"",""2926""
","
","","","-1","","","20","10835","363","&#9826;","elianto","#f73b6a7A","-1","-1","1","0","[]","0","0","3","","","","","","","",""
"pit-trial","75","596608","0.0-2.0-14.3-1.3","battery-v0.2","","""event"",""trial"",""time""
""fullscreenenter"",""1"",""2926""
","
","
","""event"",""trial"",""time""
""fullscreenenter"",""1"",""2926""
","
","","","-1","","","20","10835","363","&#9826;","elianto","#f73b6a7A","-1","-1","1","0","[]","0","0","3","","","","","","","",""
"pit-trial","76","601461","0.0-2.0-14.3-2.3","battery-v0.2","","""event"",""trial"",""time""
""fullscreenenter"",""1"",""2926""
","
","
","""event"",""trial"",""time""
""fullscreenenter"",""1"",""2926""
","
","","","-1","","","20","10835","363","&#9826;","elianto","#f73b6a7A","-1","-1","1","0","[]","0","0","3","","","","","","","",""
"pit-trial","77","606314","0.0-2.0-14.3-3.3","battery-v0.2","","""event"",""trial"",""time""
""fullscreenenter"",""1"",""2926""
","
","
","""event"",""trial"",""time""
""fullscreenenter"",""1"",""2926""
","
","","","-1","","","20","10835","363","&#9826;","elianto","#f73b6a7A","-1","-1","1","-10","[]","0","0","3","","","","","","","",""
"pit-trial","78","611168","0.0-2.0-14.3-4.3","battery-v0.2","","""event"",""trial"",""time""
""fullscreenenter"",""1"",""2926""
","
","
","""event"",""trial"",""time""
""fullscreenenter"",""1"",""2926""
","
","","","-1","","","20","10835","363","&#9826;","elianto","#f73b6a7A","-1","-1","1","0","[]","0","0","3","","","","","","","",""
"call-function","79","611169","0.0-2.0-15.0","battery-v0.2","","""event"",""trial"",""time""
""fullscreenenter"",""1"",""2926""
","
","
","""event"",""trial"",""time""
""fullscreenenter"",""1"",""2926""
","
","","","","","","","","","","","","","","","","","","","","","","","","","","",""
"pit-instructions","80","637171","0.0-2.0-16.0","battery-v0.2","","""event"",""trial"",""time""
""fullscreenenter"",""1"",""2926""
","
","
","""event"",""trial"",""time""
""fullscreenenter"",""1"",""2926""
","
","","[{""page_index"":0,""viewing_time"":6382},{""page_index"":1,""viewing_time"":8168.099999904633},{""page_index"":2,""viewing_time"":5563.700000047684},{""page_index"":3,""viewing_time"":5887.099999904633}]","26001.39999985695","","","","","","","","","","","","","","","","","","","","","","","",""
"pit-trial","81","640774","0.0-2.0-17.0-0.0","battery-v0.2","","""event"",""trial"",""time""
""fullscreenenter"",""1"",""2926""
","
","
","""event"",""trial"",""time""
""fullscreenenter"",""1"",""2926""
","
","","","729.7999999523163","","","20","10835","363","&#9789;","elianto","#f73b6a7A"," "," ","1","0","[1586.5]","1","0","4","","","","","","","",""
"pit-trial","82","643909","0.0-2.0-17.0-1.0","battery-v0.2","","""event"",""trial"",""time""
""fullscreenenter"",""1"",""2926""
","
","
","""event"",""trial"",""time""
""fullscreenenter"",""1"",""2926""
","
","","","270.2999999523163","","","20","10835","363","&#9789;","elianto","#f73b6a7A"," "," ","1","0","[1122.2000000476837]","1","0","4","","","","","","","",""
"pit-trial","83","647417","0.0-2.0-17.0-2.0","battery-v0.2","","""event"",""trial"",""time""
""fullscreenenter"",""1"",""2926""
","
","
","""event"",""trial"",""time""
""fullscreenenter"",""1"",""2926""
","
","","","648.7999999523163","","","20","10835","363","&#9789;","elianto","#f73b6a7A"," "," ","1","0","[1503.9000000953674]","1","0","4","","","","","","","",""
"pit-trial","84","650935","0.0-2.0-17.0-3.0","battery-v0.2","","""event"",""trial"",""time""
""fullscreenenter"",""1"",""2926""
","
","
","""event"",""trial"",""time""
""fullscreenenter"",""1"",""2926""
","
","","","666.2999999523163","","","20","10835","363","&#9789;","elianto","#f73b6a7A"," "," ","1","-10","[1516.8999998569489]","1","0","4","","","","","","","",""
"pit-trial","85","654275","0.0-2.0-17.0-4.0","battery-v0.2","","""event"",""trial"",""time""
""fullscreenenter"",""1"",""2926""
","
","
","""event"",""trial"",""time""
""fullscreenenter"",""1"",""2926""
","
","","","478.5","","","20","10835","363","&#9789;","elianto","#f73b6a7A"," "," ","1","0","[1331]","1","0","4","","","","","","","",""
"pit-trial","86","658333","0.0-2.0-17.1-0.1","battery-v0.2","","""event"",""trial"",""time""
""fullscreenenter"",""1"",""2926""
","
","
","""event"",""trial"",""time""
""fullscreenenter"",""1"",""2926""
","
","","","1193.7000000476837","","","20","10835","363","&#9789;","elianto","#f73b6a7A"," "," ","1","0","[2045.2000000476837]","1","0","4","","","","","","","",""
"pit-trial","87","662218","0.0-2.0-17.1-1.1","battery-v0.2","","""event"",""trial"",""time""
""fullscreenenter"",""1"",""2926""
","
","
","""event"",""trial"",""time""
""fullscreenenter"",""1"",""2926""
","
","","","1018.2000000476837","","","20","10835","363","&#9789;","elianto","#f73b6a7A"," "," ","1","0","[1870.3000001907349]","1","0","4","","","","","","","",""
"pit-trial","88","666077","0.0-2.0-17.1-2.1","battery-v0.2","","""event"",""trial"",""time""
""fullscreenenter"",""1"",""2926""
","
","
","""event"",""trial"",""time""
""fullscreenenter"",""1"",""2926""
","
","","","999.3999998569489","","","20","10835","363","&#9789;","elianto","#f73b6a7A"," "," ","1","0","[1850]","1","0","4","","","","","","","",""
"pit-trial","89","670930","0.0-2.0-17.1-3.1","battery-v0.2","","""event"",""trial"",""time""
""fullscreenenter"",""1"",""2926""
","
","
","""event"",""trial"",""time""
""fullscreenenter"",""1"",""2926""
","
","","","-1","","","20","10835","363","&#9789;","elianto","#f73b6a7A"," ","-1","0","0","[4208.099999904633]","1","0","4","","","","","","","",""
"pit-trial","90","675607","0.0-2.0-17.1-4.1","battery-v0.2","","""event"",""trial"",""time""
""fullscreenenter"",""1"",""2926""
","
","
","""event"",""trial"",""time""
""fullscreenenter"",""1"",""2926""
","
","","","1824","","","20","10835","363","&#9789;","elianto","#f73b6a7A"," "," ","1","0","[2674.300000190735]","1","0","4","","","","","","","",""
"pit-trial","91","679756","0.0-2.0-17.2-0.2","battery-v0.2","","""event"",""trial"",""time""
""fullscreenenter"",""1"",""2926""
","
","
","""event"",""trial"",""time""
""fullscreenenter"",""1"",""2926""
","
","","","1295.5","","","20","10835","363","&#9789;","elianto","#f73b6a7A"," "," ","1","0","[2146.2999999523163]","1","0","4","","","","","","","",""
"pit-trial","92","684609","0.0-2.0-17.2-1.2","battery-v0.2","","""event"",""trial"",""time""
""fullscreenenter"",""1"",""2926""
","
","
","""event"",""trial"",""time""
""fullscreenenter"",""1"",""2926""
","
","","","-1","","","20","10835","363","&#9789;","elianto","#f73b6a7A"," ","-1","0","-10","[3799.5]","1","0","4","","","","","","","",""
"pit-trial","93","689462","0.0-2.0-17.2-2.2","battery-v0.2","","""event"",""trial"",""time""
""fullscreenenter"",""1"",""2926""
","
","
","""event"",""trial"",""time""
""fullscreenenter"",""1"",""2926""
","
","","","-1","","","20","10835","363","&#9789;","elianto","#f73b6a7A"," ","-1","0","-10","[]","0","0","4","","","","","","","",""
"pit-trial","94","692709","0.0-2.0-17.2-3.2","battery-v0.2","","""event"",""trial"",""time""
""fullscreenenter"",""1"",""2926""
","
","
","""event"",""trial"",""time""
""fullscreenenter"",""1"",""2926""
","
","","","393.2000000476837","","","20","10835","363","&#9789;","elianto","#f73b6a7A"," "," ","1","-10","[1244.5]","1","0","4","","","","","","","",""
"pit-trial","95","697562","0.0-2.0-17.2-4.2","battery-v0.2","","""event"",""trial"",""time""
""fullscreenenter"",""1"",""2926""
","
","
","""event"",""trial"",""time""
""fullscreenenter"",""1"",""2926""
","
","","","-1","","","20","10835","363","&#9789;","elianto","#f73b6a7A"," ","-1","0","-10","[]","0","0","4","","","","","","","",""
"pit-trial","96","702415","0.0-2.0-17.3-0.3","battery-v0.2","","""event"",""trial"",""time""
""fullscreenenter"",""1"",""2926""
","
","
","""event"",""trial"",""time""
""fullscreenenter"",""1"",""2926""
","
","","","-1","","","20","10835","363","&#9789;","elianto","#f73b6a7A"," ","-1","0","-10","[]","0","0","4","","","","","","","",""
"pit-trial","97","707269","0.0-2.0-17.3-1.3","battery-v0.2","","""event"",""trial"",""time""
""fullscreenenter"",""1"",""2926""
","
","
","""event"",""trial"",""time""
""fullscreenenter"",""1"",""2926""
","
","","","-1","","","20","10835","363","&#9789;","elianto","#f73b6a7A"," ","-1","0","-10","[]","0","0","4","","","","","","","",""
"pit-trial","98","712122","0.0-2.0-17.3-2.3","battery-v0.2","","""event"",""trial"",""time""
""fullscreenenter"",""1"",""2926""
","
","
","""event"",""trial"",""time""
""fullscreenenter"",""1"",""2926""
","
","","","-1","","","20","10835","363","&#9789;","elianto","#f73b6a7A"," ","-1","0","-10","[]","0","0","4","","","","","","","",""
"pit-trial","99","716976","0.0-2.0-17.3-3.3","battery-v0.2","","""event"",""trial"",""time""
""fullscreenenter"",""1"",""2926""
","
","
","""event"",""trial"",""time""
""fullscreenenter"",""1"",""2926""
","
","","","-1","","","20","10835","363","&#9789;","elianto","#f73b6a7A"," ","-1","0","0","[]","0","0","4","","","","","","","",""
"pit-trial","100","721829","0.0-2.0-17.3-4.3","battery-v0.2","","""event"",""trial"",""time""
""fullscreenenter"",""1"",""2926""
","
","
","""event"",""trial"",""time""
""fullscreenenter"",""1"",""2926""
","
","","","-1","","","20","10835","363","&#9789;","elianto","#f73b6a7A"," ","-1","0","-10","[]","0","0","4","","","","","","","",""
"call-function","101","721831","0.0-2.0-18.0","battery-v0.2","","""event"",""trial"",""time""
""fullscreenenter"",""1"",""2926""
","
","
","""event"",""trial"",""time""
""fullscreenenter"",""1"",""2926""
","
","","","","","","","","","","","","","","","","","","","","","","","","","","",""
"pit-instructions","102","792394","0.0-2.0-19.0","battery-v0.2","","""event"",""trial"",""time""
""fullscreenenter"",""1"",""2926""
","
","
","""event"",""trial"",""time""
""fullscreenenter"",""1"",""2926""
","
","","[{""page_index"":0,""viewing_time"":6448.200000047684},{""page_index"":1,""viewing_time"":6229.599999904633},{""page_index"":2,""viewing_time"":9722.400000095367},{""page_index"":3,""viewing_time"":6751.699999809265},{""page_index"":4,""viewing_time"":11362.600000143051},{""page_index"":5,""viewing_time"":9775.399999856949},{""page_index"":6,""viewing_time"":8856.600000143051},{""page_index"":7,""viewing_time"":6990.099999904633},{""page_index"":8,""viewing_time"":4425.600000143051}]","70562.59999990463","","","","","","","","","","","","","","","","","","","","","","","",""
"pit-comprehension","103","796800","0.0-2.0-20.0-0.0","battery-v0.2","","""event"",""trial"",""time""
""fullscreenenter"",""1"",""2926""
","
","
","""event"",""trial"",""time""
""fullscreenenter"",""1"",""2926""
","
","","","4403.400000095367","[""SPACE""]","0","20","10835","363","","","","","","","","","","","","","","","","","","",""
"pit-instructions","104","799409","0.0-2.0-20.0-1.0","battery-v0.2","","""event"",""trial"",""time""
""fullscreenenter"",""1"",""2926""
","
","
","""event"",""trial"",""time""
""fullscreenenter"",""1"",""2926""
","
","","[{""page_index"":0,""viewing_time"":2581.7999999523163}]","2582.2000000476837","","","","","","","","","","","","","","","","","","","","","","","",""
"pit-comprehension","105","804188","0.0-2.0-21.0-0.0","battery-v0.2","","""event"",""trial"",""time""
""fullscreenenter"",""1"",""2926""
","
","
","""event"",""trial"",""time""
""fullscreenenter"",""1"",""2926""
","
","","","4775","[""10""]","0","20","10835","363","","","","","","","","","","","","","","","","","","",""
"pit-instructions","106","805846","0.0-2.0-21.0-1.0","battery-v0.2","","""event"",""trial"",""time""
""fullscreenenter"",""1"",""2926""
","
","
","""event"",""trial"",""time""
""fullscreenenter"",""1"",""2926""
","
","","[{""page_index"":0,""viewing_time"":1631.5}]","1631.7999999523163","","","","","","","","","","","","","","","","","","","","","","","",""
"pit-comprehension","107","812180","0.0-2.0-22.0-0.0","battery-v0.2","","""event"",""trial"",""time""
""fullscreenenter"",""1"",""2926""
","
","
","""event"",""trial"",""time""
""fullscreenenter"",""1"",""2926""
","
","","","6331.700000047684","[""0""]","0","20","10835","363","","","","","","","","","","","","","","","","","","",""
"pit-instructions","108","814305","0.0-2.0-22.0-1.0","battery-v0.2","","""event"",""trial"",""time""
""fullscreenenter"",""1"",""2926""
","
","
","""event"",""trial"",""time""
""fullscreenenter"",""1"",""2926""
","
","","[{""page_index"":0,""viewing_time"":2099}]","2099.4000000953674","","","","","","","","","","","","","","","","","","","","","","","",""
"pit-comprehension","109","822720","0.0-2.0-23.0-0.0","battery-v0.2","","""event"",""trial"",""time""
""fullscreenenter"",""1"",""2926""
","
","
","""event"",""trial"",""time""
""fullscreenenter"",""1"",""2926""
","
","","","8412.400000095367","[""True""]","0","20","10835","363","","","","","","","","","","","","","","","","","","",""
"pit-instructions","110","824410","0.0-2.0-23.0-1.0","battery-v0.2","","""event"",""trial"",""time""
""fullscreenenter"",""1"",""2926""
","
","
","""event"",""trial"",""time""
""fullscreenenter"",""1"",""2926""
","
","","[{""page_index"":0,""viewing_time"":1663.1000001430511}]","1663.5","","","","","","","","","","","","","","","","","","","","","","","",""
"pit-comprehension","111","831780","0.0-2.0-24.0-0.0","battery-v0.2","","""event"",""trial"",""time""
""fullscreenenter"",""1"",""2926""
","
","
","""event"",""trial"",""time""
""fullscreenenter"",""1"",""2926""
","
","","","7367.399999856949","[""True""]","0","20","10835","363","","","","","","","","","","","","","","","","","","",""
"pit-instructions","112","833164","0.0-2.0-24.0-1.0","battery-v0.2","","""event"",""trial"",""time""
""fullscreenenter"",""1"",""2926""
","
","
","""event"",""trial"",""time""
""fullscreenenter"",""1"",""2926""
","
","","[{""page_index"":0,""viewing_time"":1356.5}]","1356.8999998569489","","","","","","","","","","","","","","","","","","","","","","","",""
"pit-comprehension","113","839694","0.0-2.0-25.0-0.0","battery-v0.2","","""event"",""trial"",""time""
""fullscreenenter"",""1"",""2926""
","
","
","""event"",""trial"",""time""
""fullscreenenter"",""1"",""2926""
","
","","","6524.599999904633","[""True""]","0","20","10835","363","","","","","","","","","","","","","","","","","","",""
"pit-instructions","114","841071","0.0-2.0-25.0-1.0","battery-v0.2","","""event"",""trial"",""time""
""fullscreenenter"",""1"",""2926""
","
","
","""event"",""trial"",""time""
""fullscreenenter"",""1"",""2926""
","
","","[{""page_index"":0,""viewing_time"":1350.3999998569489}]","1350.5999999046326","","","","","","","","","","","","","","","","","","","","","","","",""
"pit-comprehension","115","846826","0.0-2.0-26.0-0.0","battery-v0.2","","""event"",""trial"",""time""
""fullscreenenter"",""1"",""2926""
","
","
","""event"",""trial"",""time""
""fullscreenenter"",""1"",""2926""
","
","","","5752.399999856949","[""False""]","0","20","10835","363","","","","","","","","","","","","","","","","","","",""
"pit-instructions","116","848271","0.0-2.0-26.0-1.0","battery-v0.2","","""event"",""trial"",""time""
""fullscreenenter"",""1"",""2926""
","
","
","""event"",""trial"",""time""
""fullscreenenter"",""1"",""2926""
","
","","[{""page_index"":0,""viewing_time"":1417.2000000476837}]","1417.5","","","","","","","","","","","","","","","","","","","","","","","",""
"pit-instructions","117","864421","0.0-3.0","battery-v0.2","","""event"",""trial"",""time""
""fullscreenenter"",""1"",""2926""
","
","
","""event"",""trial"",""time""
""fullscreenenter"",""1"",""2926""
","
","","[{""page_index"":0,""viewing_time"":3632.5},{""page_index"":1,""viewing_time"":5327.900000095367},{""page_index"":2,""viewing_time"":7187.599999904633}]","16148.400000095367","","","","","","","","","","","","","","","","","","","","","","","",""
"pit-trial","118","867784","0.0-4.0","battery-v0.2","","""event"",""trial"",""time""
""fullscreenenter"",""1"",""2926""
","
","
","""event"",""trial"",""time""
""fullscreenenter"",""1"",""2926""
","
","","","503.7000000476837","","","20","10835","363","&#9730;","elianto","#3366ff99"," "," ","1","+10","[1354.7000000476837]","1","1","","","10835","1","1","1","win","go","0"
"pit-trial","119","871093","0.0-5.0","battery-v0.2","","""event"",""trial"",""time""
""fullscreenenter"",""1"",""2926""
","
","
","""event"",""trial"",""time""
""fullscreenenter"",""1"",""2926""
","
","","","439.40000009536743","","","20","10835","363","&#9733;","elianto","#3366ff99","-1"," ","0","0","[1293.2999999523163]","1","1","","","10835","2","2","2","win","no-go","0"
"pit-trial","120","875101","0.0-6.0","battery-v0.2","","""event"",""trial"",""time""
""fullscreenenter"",""1"",""2926""
","
","
","""event"",""trial"",""time""
""fullscreenenter"",""1"",""2926""
","
","","","1137.7999999523163","","","20","10835","363","&#9728;","elianto","#f73b6a7A","-1"," ","0","-10","[1996.5999999046326]","1","1","","","10835","3","0","4","lose","no-go","0"
"pit-trial","121","878907","0.0-7.0","battery-v0.2","","""event"",""trial"",""time""
""fullscreenenter"",""1"",""2926""
","
","
","""event"",""trial"",""time""
""fullscreenenter"",""1"",""2926""
","
","","","948.4000000953674","","","20","10835","363","&#9752;","elianto","#f73b6a7A"," "," ","1","0","[1800.2999999523163]","1","1","","","10835","4","3","3","lose","go","0"
"pit-trial","122","882593","0.0-8.0","battery-v0.2","","""event"",""trial"",""time""
""fullscreenenter"",""1"",""2926""
","
","
","""event"",""trial"",""time""
""fullscreenenter"",""1"",""2926""
","
","","","819.6000001430511","","","20","10835","363","&#9730;","elianto","#3366ff99"," "," ","1","+10","[1673.5]","1","1","","","10835","5","1","1","win","go","0"
"pit-trial","123","886294","0.0-9.0","battery-v0.2","","""event"",""trial"",""time""
""fullscreenenter"",""1"",""2926""
","
","
","""event"",""trial"",""time""
""fullscreenenter"",""1"",""2926""
","
","","","833","","","20","10835","363","&#9733;","elianto","#3366ff99","-1"," ","0","+10","[1685.9000000953674]","1","1","","","10835","6","2","2","win","no-go","1"
"pit-trial","124","890309","0.0-10.0","battery-v0.2","","""event"",""trial"",""time""
""fullscreenenter"",""1"",""2926""
","
","
","""event"",""trial"",""time""
""fullscreenenter"",""1"",""2926""
","
","","","1149.7999999523163","","","20","10835","363","&#9752;","elianto","#f73b6a7A"," "," ","1","0","[2008.5]","1","1","","","10835","7","3","3","lose","go","0"
"pit-trial","125","893702","0.0-11.0","battery-v0.2","","""event"",""trial"",""time""
""fullscreenenter"",""1"",""2926""
","
","
","""event"",""trial"",""time""
""fullscreenenter"",""1"",""2926""
","
","","","537.0999999046326","","","20","10835","363","&#9728;","elianto","#f73b6a7A","-1"," ","0","-10","[1387.3999998569489]","1","1","","","10835","8","0","4","lose","no-go","0"
"pit-trial","126","897631","0.0-12.0","battery-v0.2","","""event"",""trial"",""time""
""fullscreenenter"",""1"",""2926""
","
","
","""event"",""trial"",""time""
""fullscreenenter"",""1"",""2926""
","
","","","1072.1000001430511","","","20","10835","363","&#9730;","elianto","#3366ff99"," "," ","1","+10","[1926.7000000476837]","1","1","","","10835","9","1","1","win","go","0"
"pit-trial","127","902484","0.0-13.0","battery-v0.2","","""event"",""trial"",""time""
""fullscreenenter"",""1"",""2926""
","
","
","""event"",""trial"",""time""
""fullscreenenter"",""1"",""2926""
","
","","","-1","","","20","10835","363","&#9728;","elianto","#f73b6a7A","-1","-1","1","-10","[]","0","1","","","10835","10","0","4","lose","no-go","1"
"pit-trial","128","906241","0.0-14.0","battery-v0.2","","""event"",""trial"",""time""
""fullscreenenter"",""1"",""2926""
","
","
","""event"",""trial"",""time""
""fullscreenenter"",""1"",""2926""
","
","","","903.2999999523163","","","20","10835","363","&#9733;","elianto","#3366ff99","-1"," ","0","0","[1754]","1","1","","","10835","11","2","2","win","no-go","0"
"pit-trial","129","909958","0.0-15.0","battery-v0.2","","""event"",""trial"",""time""
""fullscreenenter"",""1"",""2926""
","
","
","""event"",""trial"",""time""
""fullscreenenter"",""1"",""2926""
","
","","","863.5999999046326","","","20","10835","363","&#9752;","elianto","#f73b6a7A"," "," ","1","0","[1714.1999998092651]","1","1","","","10835","12","3","3","lose","go","0"
"pit-trial","130","914728","0.0-16.0","battery-v0.2","","""event"",""trial"",""time""
""fullscreenenter"",""1"",""2926""
","
","
","""event"",""trial"",""time""
""fullscreenenter"",""1"",""2926""
","
","","","1917.5","","","20","10835","363","&#9733;","elianto","#3366ff99","-1"," ","0","+10","[2767.9000000953674]","1","1","","","10835","13","2","2","win","no-go","1"
"pit-trial","131","918335","0.0-17.0","battery-v0.2","","""event"",""trial"",""time""
""fullscreenenter"",""1"",""2926""
","
","
","""event"",""trial"",""time""
""fullscreenenter"",""1"",""2926""
","
","","","754.6000001430511","","","20","10835","363","&#9730;","elianto","#3366ff99"," "," ","1","+10","[1604.7000000476837]","1","1","","","10835","14","1","1","win","go","0"
"pit-trial","132","921968","0.0-18.0","battery-v0.2","","""event"",""trial"",""time""
""fullscreenenter"",""1"",""2926""
","
","
","""event"",""trial"",""time""
""fullscreenenter"",""1"",""2926""
","
","","","778.0999999046326","","","20","10835","363","&#9752;","elianto","#f73b6a7A"," "," ","1","0","[1629.4000000953674]","1","1","","","10835","15","3","3","lose","go","0"
"pit-trial","133","926833","0.0-19.0","battery-v0.2","","""event"",""trial"",""time""
""fullscreenenter"",""1"",""2926""
","
","
","""event"",""trial"",""time""
""fullscreenenter"",""1"",""2926""
","
","","","-1","","","20","10835","363","&#9728;","elianto","#f73b6a7A","-1","-1","1","-10","[]","0","1","","","10835","16","0","4","lose","no-go","1"
"pit-trial","134","930398","0.0-20.0","battery-v0.2","","""event"",""trial"",""time""
""fullscreenenter"",""1"",""2926""
","
","
","""event"",""trial"",""time""
""fullscreenenter"",""1"",""2926""
","
","","","711.5","","","20","10835","363","&#9730;","elianto","#3366ff99"," "," ","1","+10","[1562.2999999523163]","1","1","","","10835","17","1","1","win","go","0"
"pit-trial","135","933956","0.0-21.0","battery-v0.2","","""event"",""trial"",""time""
""fullscreenenter"",""1"",""2926""
","
","
","""event"",""trial"",""time""
""fullscreenenter"",""1"",""2926""
","
","","","705","","","20","10835","363","&#9752;","elianto","#f73b6a7A"," "," ","1","0","[1555.6000001430511]","1","1","","","10835","18","3","3","lose","go","0"
"pit-trial","136","937515","0.0-22.0","battery-v0.2","","""event"",""trial"",""time""
""fullscreenenter"",""1"",""2926""
","
","
","""event"",""trial"",""time""
""fullscreenenter"",""1"",""2926""
","
","","","706.5999999046326","","","20","10835","363","&#9733;","elianto","#3366ff99","-1"," ","0","+10","[1556.7999999523163]","1","1","","","10835","19","2","2","win","no-go","1"
"pit-trial","137","942129","0.0-23.0","battery-v0.2","","""event"",""trial"",""time""
""fullscreenenter"",""1"",""2926""
","
","
","""event"",""trial"",""time""
""fullscreenenter"",""1"",""2926""
","
","","","1760.5","","","20","10835","363","&#9728;","elianto","#f73b6a7A","-1"," ","0","-10","[2611.2000000476837]","1","1","","","10835","20","0","4","lose","no-go","0"
"pit-instructions","138","954876","0.0-24.0","battery-v0.2","","""event"",""trial"",""time""
""fullscreenenter"",""1"",""2926""
","
","
","""event"",""trial"",""time""
""fullscreenenter"",""1"",""2926""
","
","","[{""page_index"":0,""viewing_time"":5826.800000190735},{""page_index"":1,""viewing_time"":6918.099999904633}]","12745.200000047684","","","","","","","","","","","","","","","","","","","","","","","",""
"pit-trial","139","958514","0.0-25.0","battery-v0.2","","""event"",""trial"",""time""
""fullscreenenter"",""1"",""2926""
","
","
","""event"",""trial"",""time""
""fullscreenenter"",""1"",""2926""
","
","","","772.9000000953674","","","20","10835","363","d","elianto","#3366ff99"," "," ","1","0","[1628.2000000476837]","1","2","","","10835","21","1","1","win","go","1"
"pit-trial","140","962234","0.0-26.0","battery-v0.2","","""event"",""trial"",""time""
""fullscreenenter"",""1"",""2926""
","
","
","""event"",""trial"",""time""
""fullscreenenter"",""1"",""2926""
","
","","","862.5999999046326","","","20","10835","363","e","elianto","#f73b6a7A","-1"," ","0","-10","[1716.7999999523163]","1","2","","","10835","22","2","4","lose","no-go","0"
"pit-trial","141","965762","0.0-27.0","battery-v0.2","","""event"",""trial"",""time""
""fullscreenenter"",""1"",""2926""
","
","
","""event"",""trial"",""time""
""fullscreenenter"",""1"",""2926""
","
","","","660.1000001430511","","","20","10835","363","w","elianto","#f73b6a7A"," "," ","1","0","[1517.7999999523163]","1","2","","","10835","23","3","3","lose","go","0"
"pit-trial","142","969363","0.0-28.0","battery-v0.2","","""event"",""trial"",""time""
""fullscreenenter"",""1"",""2926""
","
","
","""event"",""trial"",""time""
""fullscreenenter"",""1"",""2926""
","
","","","731.1000001430511","","","20","10835","363","j","elianto","#f73b6a7A","-1"," ","0","-10","[1590]","1","2","","","10835","24","0","4","lose","no-go","0"
"pit-trial","143","974223","0.0-29.0","battery-v0.2","","""event"",""trial"",""time""
""fullscreenenter"",""1"",""2926""
","
","
","""event"",""trial"",""time""
""fullscreenenter"",""1"",""2926""
","
","","","-1","","","20","10835","363","d","elianto","#3366ff99"," ","-1","0","0","[]","0","2","","","10835","25","1","1","win","go","0"
"pit-trial","144","977827","0.0-30.0","battery-v0.2","","""event"",""trial"",""time""
""fullscreenenter"",""1"",""2926""
","
","
","""event"",""trial"",""time""
""fullscreenenter"",""1"",""2926""
","
","","","737.9000000953674","","","20","10835","363","j","elianto","#f73b6a7A","-1"," ","0","-10","[1593.7000000476837]","1","2","","","10835","26","0","4","lose","no-go","0"
"pit-trial","145","981892","0.0-31.0","battery-v0.2","","""event"",""trial"",""time""
""fullscreenenter"",""1"",""2926""
","
","
","""event"",""trial"",""time""
""fullscreenenter"",""1"",""2926""
","
","","","1197.8999998569489","","","20","10835","363","w","elianto","#f73b6a7A"," "," ","1","0","[2053.5999999046326]","1","2","","","10835","27","3","3","lose","go","0"
"pit-trial","146","986647","0.0-32.0","battery-v0.2","","""event"",""trial"",""time""
""fullscreenenter"",""1"",""2926""
","
","
","""event"",""trial"",""time""
""fullscreenenter"",""1"",""2926""
","
","","","1899","","","20","10835","363","e","elianto","#f73b6a7A","-1"," ","0","-10","[2752.2000000476837]","1","2","","","10835","28","2","4","lose","no-go","0"
"pit-trial","147","991503","0.0-33.0","battery-v0.2","","""event"",""trial"",""time""
""fullscreenenter"",""1"",""2926""
","
","
","""event"",""trial"",""time""
""fullscreenenter"",""1"",""2926""
","
","","","-1","","","20","10835","363","e","elianto","#f73b6a7A","-1","-1","1","0","[]","0","2","","","10835","29","2","4","lose","no-go","0"
"pit-trial","148","996371","0.0-34.0","battery-v0.2","","""event"",""trial"",""time""
""fullscreenenter"",""1"",""2926""
","
","
","""event"",""trial"",""time""
""fullscreenenter"",""1"",""2926""
","
","","","-1","","","20","10835","363","j","elianto","#f73b6a7A","-1","-1","1","0","[]","0","2","","","10835","30","0","4","lose","no-go","0"
"pit-trial","149","1000386","0.0-35.0","battery-v0.2","","""event"",""trial"",""time""
""fullscreenenter"",""1"",""2926""
","
","
","""event"",""trial"",""time""
""fullscreenenter"",""1"",""2926""
","
","","","1150.7000000476837","","","20","10835","363","w","elianto","#f73b6a7A"," "," ","1","0","[2000.7000000476837]","1","2","","","10835","31","3","3","lose","go","0"
"pit-trial","150","1004152","0.0-36.0","battery-v0.2","","""event"",""trial"",""time""
""fullscreenenter"",""1"",""2926""
","
","
","""event"",""trial"",""time""
""fullscreenenter"",""1"",""2926""
","
","","","913","","","20","10835","363","d","elianto","#3366ff99"," "," ","1","+10","[1763.5999999046326]","1","2","","","10835","32","1","1","win","go","0"
"pit-trial","151","1009005","0.0-37.0","battery-v0.2","","""event"",""trial"",""time""
""fullscreenenter"",""1"",""2926""
","
","
","""event"",""trial"",""time""
""fullscreenenter"",""1"",""2926""
","
","","","-1","","","20","10835","363","d","elianto","#3366ff99"," ","-1","0","0","[3180.699999809265]","1","2","","","10835","33","1","1","win","go","0"
"pit-trial","152","1013859","0.0-38.0","battery-v0.2","","""event"",""trial"",""time""
""fullscreenenter"",""1"",""2926""
","
","
","""event"",""trial"",""time""
""fullscreenenter"",""1"",""2926""
","
","","","-1","","","20","10835","363","e","elianto","#f73b6a7A","-1","-1","1","0","[]","0","2","","","10835","34","2","4","lose","no-go","0"
"pit-trial","153","1018712","0.0-39.0","battery-v0.2","","""event"",""trial"",""time""
""fullscreenenter"",""1"",""2926""
","
","
","""event"",""trial"",""time""
""fullscreenenter"",""1"",""2926""
","
","","","-1","","","20","10835","363","j","elianto","#f73b6a7A","-1","-1","1","0","[]","0","2","","","10835","35","0","4","lose","no-go","0"
"pit-trial","154","1022433","0.0-40.0","battery-v0.2","","""event"",""trial"",""time""
""fullscreenenter"",""1"",""2926""
","
","
","""event"",""trial"",""time""
""fullscreenenter"",""1"",""2926""
","
","","","861.9000000953674","","","20","10835","363","w","elianto","#f73b6a7A"," "," ","1","-10","[1712.2000000476837]","1","2","","","10835","36","3","3","lose","go","1"
"pit-trial","155","1025917","0.0-41.0","battery-v0.2","","""event"",""trial"",""time""
""fullscreenenter"",""1"",""2926""
","
","
","""event"",""trial"",""time""
""fullscreenenter"",""1"",""2926""
","
","","","627.1000001430511","","","20","10835","363","d","elianto","#3366ff99"," "," ","1","+10","[1477.7000000476837]","1","2","","","10835","37","1","1","win","go","0"
"pit-trial","156","1029609","0.0-42.0","battery-v0.2","","""event"",""trial"",""time""
""fullscreenenter"",""1"",""2926""
","
","
","""event"",""trial"",""time""
""fullscreenenter"",""1"",""2926""
","
","","","837.7000000476837","","","20","10835","363","w","elianto","#f73b6a7A"," "," ","1","0","[1688.7000000476837]","1","2","","","10835","38","3","3","lose","go","0"
"pit-trial","157","1034462","0.0-43.0","battery-v0.2","","""event"",""trial"",""time""
""fullscreenenter"",""1"",""2926""
","
","
","""event"",""trial"",""time""
""fullscreenenter"",""1"",""2926""
","
","","","-1","","","20","10835","363","e","elianto","#f73b6a7A","-1","-1","1","0","[]","0","2","","","10835","39","2","4","lose","no-go","0"
"pit-trial","158","1039316","0.0-44.0","battery-v0.2","","""event"",""trial"",""time""
""fullscreenenter"",""1"",""2926""
","
","
","""event"",""trial"",""time""
""fullscreenenter"",""1"",""2926""
","
","","","-1","","","20","10835","363","j","elianto","#f73b6a7A","-1","-1","1","0","[]","0","2","","","10835","40","0","4","lose","no-go","0"
"pit-trial","159","1044170","0.0-45.0","battery-v0.2","","""event"",""trial"",""time""
""fullscreenenter"",""1"",""2926""
","
","
","""event"",""trial"",""time""
""fullscreenenter"",""1"",""2926""
","
","","","-1","","","20","10835","363","e","elianto","#f73b6a7A","-1","-1","1","0","[]","0","2","","","10835","41","2","4","lose","no-go","0"
"pit-trial","160","1049023","0.0-46.0","battery-v0.2","","""event"",""trial"",""time""
""fullscreenenter"",""1"",""2926""
","
","
","""event"",""trial"",""time""
""fullscreenenter"",""1"",""2926""
","
","","","-1","","","20","10835","363","j","elianto","#f73b6a7A","-1","-1","1","0","[]","0","2","","","10835","42","0","4","lose","no-go","0"
"pit-trial","161","1052466","0.0-47.0","battery-v0.2","","""event"",""trial"",""time""
""fullscreenenter"",""1"",""2926""
","
","
","""event"",""trial"",""time""
""fullscreenenter"",""1"",""2926""
","
","","","590.2000000476837","","","20","10835","363","w","elianto","#f73b6a7A"," "," ","1","0","[1440.8999998569489]","1","2","","","10835","43","3","3","lose","go","0"
"pit-trial","162","1055946","0.0-48.0","battery-v0.2","","""event"",""trial"",""time""
""fullscreenenter"",""1"",""2926""
","
","
","""event"",""trial"",""time""
""fullscreenenter"",""1"",""2926""
","
","","","626.8999998569489","","","20","10835","363","d","elianto","#3366ff99"," "," ","1","0","[1477.4000000953674]","1","2","","","10835","44","1","1","win","go","1"
"pit-trial","163","1060800","0.0-49.0","battery-v0.2","","""event"",""trial"",""time""
""fullscreenenter"",""1"",""2926""
","
","
","""event"",""trial"",""time""
""fullscreenenter"",""1"",""2926""
","
","","","-1","","","20","10835","363","e","elianto","#f73b6a7A","-1","-1","1","0","[]","0","2","","","10835","45","2","4","lose","no-go","0"
"pit-trial","164","1064579","0.0-50.0","battery-v0.2","","""event"",""trial"",""time""
""fullscreenenter"",""1"",""2926""
","
","
","""event"",""trial"",""time""
""fullscreenenter"",""1"",""2926""
","
","","","926.4000000953674","","","20","10835","363","s","elianto","#3366ff99","-1"," ","0","0","[1777.1000001430511]","1","2","","","10835","46","4","2","win","no-go","0"
"pit-trial","165","1068232","0.0-51.0","battery-v0.2","","""event"",""trial"",""time""
""fullscreenenter"",""1"",""2926""
","
","
","""event"",""trial"",""time""
""fullscreenenter"",""1"",""2926""
","
","","","799.7000000476837","","","20","10835","363","w","elianto","#f73b6a7A"," "," ","1","0","[1650.2000000476837]","1","2","","","10835","47","3","3","lose","go","0"
"pit-trial","166","1073098","0.0-52.0","battery-v0.2","","""event"",""trial"",""time""
""fullscreenenter"",""1"",""2926""
","
","
","""event"",""trial"",""time""
""fullscreenenter"",""1"",""2926""
","
","","","-1","","","20","10835","363","j","elianto","#f73b6a7A","-1","-1","1","0","[]","0","2","","","10835","48","0","4","lose","no-go","0"
"pit-trial","167","1077952","0.0-53.0","battery-v0.2","","""event"",""trial"",""time""
""fullscreenenter"",""1"",""2926""
","
","
","""event"",""trial"",""time""
""fullscreenenter"",""1"",""2926""
","
","","","-1","","","20","10835","363","j","elianto","#f73b6a7A","-1","-1","1","0","[]","0","2","","","10835","49","0","4","lose","no-go","0"
"pit-trial","168","1081413","0.0-54.0","battery-v0.2","","""event"",""trial"",""time""
""fullscreenenter"",""1"",""2926""
","
","
","""event"",""trial"",""time""
""fullscreenenter"",""1"",""2926""
","
","","","599","","","20","10835","363","w","elianto","#f73b6a7A"," "," ","1","-10","[1449.3999998569489]","1","2","","","10835","50","3","3","lose","go","1"
"pit-trial","169","1084869","0.0-55.0","battery-v0.2","","""event"",""trial"",""time""
""fullscreenenter"",""1"",""2926""
","
","
","""event"",""trial"",""time""
""fullscreenenter"",""1"",""2926""
","
","","","602.7000000476837","","","20","10835","363","d","elianto","#3366ff99"," "," ","1","+10","[1453.5]","1","2","","","10835","51","1","1","win","go","0"
"pit-trial","170","1089723","0.0-56.0","battery-v0.2","","""event"",""trial"",""time""
""fullscreenenter"",""1"",""2926""
","
","
","""event"",""trial"",""time""
""fullscreenenter"",""1"",""2926""
","
","","","-1","","","20","10835","363","s","elianto","#3366ff99","-1","-1","1","0","[]","0","2","","","10835","52","4","2","win","no-go","1"
"pit-trial","171","1093773","0.0-57.0","battery-v0.2","","""event"",""trial"",""time""
""fullscreenenter"",""1"",""2926""
","
","
","""event"",""trial"",""time""
""fullscreenenter"",""1"",""2926""
","
","","","1196.1999998092651","","","20","10835","363","d","elianto","#3366ff99"," "," ","1","0","[2046.7999999523163]","1","2","","","10835","53","1","1","win","go","1"
"pit-trial","172","1098626","0.0-58.0","battery-v0.2","","""event"",""trial"",""time""
""fullscreenenter"",""1"",""2926""
","
","
","""event"",""trial"",""time""
""fullscreenenter"",""1"",""2926""
","
","","","-1","","","20","10835","363","j","elianto","#f73b6a7A","-1","-1","1","-10","[]","0","2","","","10835","54","0","4","lose","no-go","1"
"pit-trial","173","1102181","0.0-59.0","battery-v0.2","","""event"",""trial"",""time""
""fullscreenenter"",""1"",""2926""
","
","
","""event"",""trial"",""time""
""fullscreenenter"",""1"",""2926""
","
","","","702.0999999046326","","","20","10835","363","s","elianto","#3366ff99","-1"," ","0","0","[1552.7999999523163]","1","2","","","10835","55","4","2","win","no-go","0"
"pit-trial","174","1107039","0.0-60.0","battery-v0.2","","""event"",""trial"",""time""
""fullscreenenter"",""1"",""2926""
","
","
","""event"",""trial"",""time""
""fullscreenenter"",""1"",""2926""
","
","","","-1","","","20","10835","363","e","elianto","#f73b6a7A","-1","-1","1","-10","[]","0","2","","","10835","56","2","4","lose","no-go","1"
"pit-trial","175","1111056","0.0-61.0","battery-v0.2","","""event"",""trial"",""time""
""fullscreenenter"",""1"",""2926""
","
","
","""event"",""trial"",""time""
""fullscreenenter"",""1"",""2926""
","
","","","1164.6000001430511","","","20","10835","363","j","elianto","#f73b6a7A","-1"," ","0","-10","[2014.5999999046326]","1","2","","","10835","57","0","4","lose","no-go","0"
"pit-trial","176","1114606","0.0-62.0","battery-v0.2","","""event"",""trial"",""time""
""fullscreenenter"",""1"",""2926""
","
","
","""event"",""trial"",""time""
""fullscreenenter"",""1"",""2926""
","
","","","698.2000000476837","","","20","10835","363","w","elianto","#f73b6a7A"," "," ","1","0","[1548.7000000476837]","1","2","","","10835","58","3","3","lose","go","0"
"pit-trial","177","1118158","0.0-63.0","battery-v0.2","","""event"",""trial"",""time""
""fullscreenenter"",""1"",""2926""
","
","
","""event"",""trial"",""time""
""fullscreenenter"",""1"",""2926""
","
","","","699.0999999046326","","","20","10835","363","d","elianto","#3366ff99"," "," ","1","+10","[1549.5999999046326]","1","2","","","10835","59","1","1","win","go","0"
"pit-trial","178","1123011","0.0-64.0","battery-v0.2","","""event"",""trial"",""time""
""fullscreenenter"",""1"",""2926""
","
","
","""event"",""trial"",""time""
""fullscreenenter"",""1"",""2926""
","
","","","-1","","","20","10835","363","s","elianto","#3366ff99","-1","-1","1","+10","[]","0","2","","","10835","60","4","2","win","no-go","0"
"pit-trial","179","1126605","0.0-65.0","battery-v0.2","","""event"",""trial"",""time""
""fullscreenenter"",""1"",""2926""
","
","
","""event"",""trial"",""time""
""fullscreenenter"",""1"",""2926""
","
","","","741","","","20","10835","363","d","elianto","#3366ff99"," "," ","1","+10","[1591.7000000476837]","1","2","","","10835","61","1","1","win","go","0"
"pit-trial","180","1130853","0.0-66.0","battery-v0.2","","""event"",""trial"",""time""
""fullscreenenter"",""1"",""2926""
","
","
","""event"",""trial"",""time""
""fullscreenenter"",""1"",""2926""
","
","","","1395.1999998092651","","","20","10835","363","e","elianto","#f73b6a7A","-1"," ","0","-10","[2245.5]","1","2","","","10835","62","2","4","lose","no-go","0"
"pit-trial","181","1134386","0.0-67.0","battery-v0.2","","""event"",""trial"",""time""
""fullscreenenter"",""1"",""2926""
","
","
","""event"",""trial"",""time""
""fullscreenenter"",""1"",""2926""
","
","","","666.6000001430511","","","20","10835","363","w","elianto","#f73b6a7A"," "," ","1","0","[1517]","1","2","","","10835","63","3","3","lose","go","0"
"pit-trial","182","1139239","0.0-68.0","battery-v0.2","","""event"",""trial"",""time""
""fullscreenenter"",""1"",""2926""
","
","
","""event"",""trial"",""time""
""fullscreenenter"",""1"",""2926""
","
","","","-1","","","20","10835","363","s","elianto","#3366ff99","-1","-1","1","+10","[]","0","2","","","10835","64","4","2","win","no-go","0"
"pit-trial","183","1142643","0.0-69.0","battery-v0.2","","""event"",""trial"",""time""
""fullscreenenter"",""1"",""2926""
","
","
","""event"",""trial"",""time""
""fullscreenenter"",""1"",""2926""
","
","","","549.5","","","20","10835","363","w","elianto","#f73b6a7A"," "," ","1","-10","[1400.5999999046326]","1","2","","","10835","65","3","3","lose","go","1"
"pit-trial","184","1147496","0.0-70.0","battery-v0.2","","""event"",""trial"",""time""
""fullscreenenter"",""1"",""2926""
","
","
","""event"",""trial"",""time""
""fullscreenenter"",""1"",""2926""
","
","","","-1","","","20","10835","363","e","elianto","#f73b6a7A","-1","-1","1","0","[]","0","2","","","10835","66","2","4","lose","no-go","0"
"pit-trial","185","1152375","0.0-71.0","battery-v0.2","","""event"",""trial"",""time""
""fullscreenenter"",""1"",""2926""
","
","
","""event"",""trial"",""time""
""fullscreenenter"",""1"",""2926""
","
","","","-1","","","20","10835","363","s","elianto","#3366ff99","-1","-1","1","+10","[]","0","2","","","10835","67","4","2","win","no-go","0"
"pit-trial","186","1156021","0.0-72.0","battery-v0.2","","""event"",""trial"",""time""
""fullscreenenter"",""1"",""2926""
","
","
","""event"",""trial"",""time""
""fullscreenenter"",""1"",""2926""
","
","","","792.7999999523163","","","20","10835","363","d","elianto","#3366ff99"," "," ","1","+10","[1643.2999999523163]","1","2","","","10835","68","1","1","win","go","0"
"pit-trial","187","1159805","0.0-73.0","battery-v0.2","","""event"",""trial"",""time""
""fullscreenenter"",""1"",""2926""
","
","
","""event"",""trial"",""time""
""fullscreenenter"",""1"",""2926""
","
","","","930.6000001430511","","","20","10835","363","p","elianto","#3366ff99"," "," ","1","0","[1781.5]","1","2","","","10835","69","5","1","win","go","1"
"pit-trial","188","1163432","0.0-74.0","battery-v0.2","","""event"",""trial"",""time""
""fullscreenenter"",""1"",""2926""
","
","
","""event"",""trial"",""time""
""fullscreenenter"",""1"",""2926""
","
","","","768.2999999523163","","","20","10835","363","d","elianto","#3366ff99"," "," ","1","+10","[1618.4000000953674]","1","2","","","10835","70","1","1","win","go","0"
"pit-trial","189","1167072","0.0-75.0","battery-v0.2","","""event"",""trial"",""time""
""fullscreenenter"",""1"",""2926""
","
","
","""event"",""trial"",""time""
""fullscreenenter"",""1"",""2926""
","
","","","787.5","","","20","10835","363","w","elianto","#f73b6a7A"," "," ","1","0","[1638]","1","2","","","10835","71","3","3","lose","go","0"
"pit-trial","190","1171932","0.0-76.0","battery-v0.2","","""event"",""trial"",""time""
""fullscreenenter"",""1"",""2926""
","
","
","""event"",""trial"",""time""
""fullscreenenter"",""1"",""2926""
","
","","","-1","","","20","10835","363","s","elianto","#3366ff99","-1","-1","1","+10","[]","0","2","","","10835","72","4","2","win","no-go","0"
"pit-trial","191","1175551","0.0-77.0","battery-v0.2","","""event"",""trial"",""time""
""fullscreenenter"",""1"",""2926""
","
","
","""event"",""trial"",""time""
""fullscreenenter"",""1"",""2926""
","
","","","765.2000000476837","","","20","10835","363","d","elianto","#3366ff99"," "," ","1","+10","[1615.9000000953674]","1","2","","","10835","73","1","1","win","go","0"
"pit-trial","192","1180404","0.0-78.0","battery-v0.2","","""event"",""trial"",""time""
""fullscreenenter"",""1"",""2926""
","
","
","""event"",""trial"",""time""
""fullscreenenter"",""1"",""2926""
","
","","","-1","","","20","10835","363","p","elianto","#3366ff99"," ","-1","0","+10","[]","0","2","","","10835","74","5","1","win","go","1"
"pit-trial","193","1185256","0.0-79.0","battery-v0.2","","""event"",""trial"",""time""
""fullscreenenter"",""1"",""2926""
","
","
","""event"",""trial"",""time""
""fullscreenenter"",""1"",""2926""
","
","","","-1","","","20","10835","363","s","elianto","#3366ff99","-1","-1","1","+10","[]","0","2","","","10835","75","4","2","win","no-go","0"
"pit-trial","194","1188895","0.0-80.0","battery-v0.2","","""event"",""trial"",""time""
""fullscreenenter"",""1"",""2926""
","
","
","""event"",""trial"",""time""
""fullscreenenter"",""1"",""2926""
","
","","","786.5","","","20","10835","363","w","elianto","#f73b6a7A"," "," ","1","-10","[1636.7000000476837]","1","2","","","10835","76","3","3","lose","go","1"
"pit-trial","195","1192935","0.0-81.0","battery-v0.2","","""event"",""trial"",""time""
""fullscreenenter"",""1"",""2926""
","
","
","""event"",""trial"",""time""
""fullscreenenter"",""1"",""2926""
","
","","","1185.5","","","20","10835","363","g","elianto","#f73b6a7A","-1"," ","0","0","[2037.2999999523163]","1","2","","","10835","77","6","4","lose","no-go","1"
"pit-trial","196","1197789","0.0-82.0","battery-v0.2","","""event"",""trial"",""time""
""fullscreenenter"",""1"",""2926""
","
","
","""event"",""trial"",""time""
""fullscreenenter"",""1"",""2926""
","
","","","-1","","","20","10835","363","p","elianto","#3366ff99"," ","-1","0","0","[]","0","2","","","10835","78","5","1","win","go","0"
"pit-trial","197","1202642","0.0-83.0","battery-v0.2","","""event"",""trial"",""time""
""fullscreenenter"",""1"",""2926""
","
","
","""event"",""trial"",""time""
""fullscreenenter"",""1"",""2926""
","
","","","-1","","","20","10835","363","s","elianto","#3366ff99","-1","-1","1","+10","[]","0","2","","","10835","79","4","2","win","no-go","0"
"pit-trial","198","1206203","0.0-84.0","battery-v0.2","","""event"",""trial"",""time""
""fullscreenenter"",""1"",""2926""
","
","
","""event"",""trial"",""time""
""fullscreenenter"",""1"",""2926""
","
","","","694.8999998569489","","","20","10835","363","w","elianto","#f73b6a7A"," "," ","1","0","[1545.6999998092651]","1","2","","","10835","80","3","3","lose","go","0"
"pit-trial","199","1209925","0.0-85.0","battery-v0.2","","""event"",""trial"",""time""
""fullscreenenter"",""1"",""2926""
","
","
","""event"",""trial"",""time""
""fullscreenenter"",""1"",""2926""
","
","","","867.5","","","20","10835","363","g","elianto","#f73b6a7A","-1"," ","0","-10","[1718.5999999046326]","1","2","","","10835","81","6","4","lose","no-go","0"
"pit-trial","200","1213772","0.0-86.0","battery-v0.2","","""event"",""trial"",""time""
""fullscreenenter"",""1"",""2926""
","
","
","""event"",""trial"",""time""
""fullscreenenter"",""1"",""2926""
","
","","","994.3999998569489","","","20","10835","363","a","elianto","#f73b6a7A"," "," ","1","0","[1844.4000000953674]","1","2","","","10835","82","7","3","lose","go","0"
"pit-trial","201","1218626","0.0-87.0","battery-v0.2","","""event"",""trial"",""time""
""fullscreenenter"",""1"",""2926""
","
","
","""event"",""trial"",""time""
""fullscreenenter"",""1"",""2926""
","
","","","-1","","","20","10835","363","p","elianto","#3366ff99"," ","-1","0","0","[]","0","2","","","10835","83","5","1","win","go","0"
"pit-trial","202","1223479","0.0-88.0","battery-v0.2","","""event"",""trial"",""time""
""fullscreenenter"",""1"",""2926""
","
","
","""event"",""trial"",""time""
""fullscreenenter"",""1"",""2926""
","
","","","-1","","","20","10835","363","s","elianto","#3366ff99","-1","-1","1","+10","[]","0","2","","","10835","84","4","2","win","no-go","0"
"pit-trial","203","1227511","0.0-89.0","battery-v0.2","","""event"",""trial"",""time""
""fullscreenenter"",""1"",""2926""
","
","
","""event"",""trial"",""time""
""fullscreenenter"",""1"",""2926""
","
","","","1179.5","","","20","10835","363","a","elianto","#f73b6a7A"," "," ","1","0","[2029.7000000476837]","1","2","","","10835","85","7","3","lose","go","0"
"pit-trial","204","1231298","0.0-90.0","battery-v0.2","","""event"",""trial"",""time""
""fullscreenenter"",""1"",""2926""
","
","
","""event"",""trial"",""time""
""fullscreenenter"",""1"",""2926""
","
","","","931.9000000953674","","","20","10835","363","p","elianto","#3366ff99"," "," ","1","+10","[1783.7999999523163]","1","2","","","10835","86","5","1","win","go","0"
"pit-trial","205","1234872","0.0-91.0","battery-v0.2","","""event"",""trial"",""time""
""fullscreenenter"",""1"",""2926""
","
","
","""event"",""trial"",""time""
""fullscreenenter"",""1"",""2926""
","
","","","721.6000001430511","","","20","10835","363","g","elianto","#f73b6a7A","-1"," ","0","-10","[1571.8000001907349]","1","2","","","10835","87","6","4","lose","no-go","0"
"pit-trial","206","1239726","0.0-92.0","battery-v0.2","","""event"",""trial"",""time""
""fullscreenenter"",""1"",""2926""
","
","
","""event"",""trial"",""time""
""fullscreenenter"",""1"",""2926""
","
","","","-1","","","20","10835","363","s","elianto","#3366ff99","-1","-1","1","0","[]","0","2","","","10835","88","4","2","win","no-go","1"
"pit-trial","207","1244590","0.0-93.0","battery-v0.2","","""event"",""trial"",""time""
""fullscreenenter"",""1"",""2926""
","
","
","""event"",""trial"",""time""
""fullscreenenter"",""1"",""2926""
","
","","","-1","","","20","10835","363","s","elianto","#3366ff99","-1","-1","1","+10","[]","0","2","","","10835","89","4","2","win","no-go","0"
"pit-trial","208","1248538","0.0-94.0","battery-v0.2","","""event"",""trial"",""time""
""fullscreenenter"",""1"",""2926""
","
","
","""event"",""trial"",""time""
""fullscreenenter"",""1"",""2926""
","
","","","1095.0999999046326","","","20","10835","363","a","elianto","#f73b6a7A"," "," ","1","0","[1946]","1","2","","","10835","90","7","3","lose","go","0"
"pit-trial","209","1252392","0.0-95.0","battery-v0.2","","""event"",""trial"",""time""
""fullscreenenter"",""1"",""2926""
","
","
","""event"",""trial"",""time""
""fullscreenenter"",""1"",""2926""
","
","","","980.5999999046326","","","20","10835","363","p","elianto","#3366ff99"," "," ","1","+10","[1838.0999999046326]","1","2","","","10835","91","5","1","win","go","0"
"pit-trial","210","1256323","0.0-96.0","battery-v0.2","","""event"",""trial"",""time""
""fullscreenenter"",""1"",""2926""
","
","
","""event"",""trial"",""time""
""fullscreenenter"",""1"",""2926""
","
","","","1078.2000000476837","","","20","10835","363","g","elianto","#f73b6a7A","-1"," ","0","-10","[1928.9000000953674]","1","2","","","10835","92","6","4","lose","no-go","0"
"pit-trial","211","1260344","0.0-97.0","battery-v0.2","","""event"",""trial"",""time""
""fullscreenenter"",""1"",""2926""
","
","
","""event"",""trial"",""time""
""fullscreenenter"",""1"",""2926""
","
","","","1165.1000001430511","","","20","10835","363","p","elianto","#3366ff99"," "," ","1","+10","[2015.3999998569489]","1","2","","","10835","93","5","1","win","go","0"
"pit-trial","212","1264270","0.0-98.0","battery-v0.2","","""event"",""trial"",""time""
""fullscreenenter"",""1"",""2926""
","
","
","""event"",""trial"",""time""
""fullscreenenter"",""1"",""2926""
","
","","","1074","","","20","10835","363","l","elianto","#3366ff99","-1"," ","0","+10","[1924.3999998569489]","1","2","","","10835","94","8","2","win","no-go","1"
"pit-trial","213","1269124","0.0-99.0","battery-v0.2","","""event"",""trial"",""time""
""fullscreenenter"",""1"",""2926""
","
","
","""event"",""trial"",""time""
""fullscreenenter"",""1"",""2926""
","
","","","-1","","","20","10835","363","g","elianto","#f73b6a7A","-1","-1","1","0","[]","0","2","","","10835","95","6","4","lose","no-go","0"
"pit-trial","214","1272898","0.0-100.0","battery-v0.2","","""event"",""trial"",""time""
""fullscreenenter"",""1"",""2926""
","
","
","""event"",""trial"",""time""
""fullscreenenter"",""1"",""2926""
","
","","","921.4000000953674","","","20","10835","363","a","elianto","#f73b6a7A"," "," ","1","0","[1771.6000001430511]","1","2","","","10835","96","7","3","lose","go","0"
"pit-trial","215","1277130","0.0-101.0","battery-v0.2","","""event"",""trial"",""time""
""fullscreenenter"",""1"",""2926""
","
","
","""event"",""trial"",""time""
""fullscreenenter"",""1"",""2926""
","
","","","1378.5","","","20","10835","363","a","elianto","#f73b6a7A"," "," ","1","0","[2229.699999809265]","1","2","","","10835","97","7","3","lose","go","0"
"pit-trial","216","1281280","0.0-102.0","battery-v0.2","","""event"",""trial"",""time""
""fullscreenenter"",""1"",""2926""
","
","
","""event"",""trial"",""time""
""fullscreenenter"",""1"",""2926""
","
","","","1297.4000000953674","","","20","10835","363","l","elianto","#3366ff99","-1"," ","0","+10","[2147.7000000476837]","1","2","","","10835","98","8","2","win","no-go","1"
"pit-trial","217","1286135","0.0-103.0","battery-v0.2","","""event"",""trial"",""time""
""fullscreenenter"",""1"",""2926""
","
","
","""event"",""trial"",""time""
""fullscreenenter"",""1"",""2926""
","
","","","-1","","","20","10835","363","g","elianto","#f73b6a7A","-1","-1","1","0","[]","0","2","","","10835","99","6","4","lose","no-go","0"
"pit-trial","218","1290049","0.0-104.0","battery-v0.2","","""event"",""trial"",""time""
""fullscreenenter"",""1"",""2926""
","
","
","""event"",""trial"",""time""
""fullscreenenter"",""1"",""2926""
","
","","","1060.6000001430511","","","20","10835","363","p","elianto","#3366ff99"," "," ","1","+10","[1911.1000001430511]","1","2","","","10835","100","5","1","win","go","0"
"pit-trial","219","1294154","0.0-105.0","battery-v0.2","","""event"",""trial"",""time""
""fullscreenenter"",""1"",""2926""
","
","
","""event"",""trial"",""time""
""fullscreenenter"",""1"",""2926""
","
","","","1252.1000001430511","","","20","10835","363","p","elianto","#3366ff99"," "," ","1","+10","[2102.9000000953674]","1","2","","","10835","101","5","1","win","go","0"
"pit-trial","220","1299007","0.0-106.0","battery-v0.2","","""event"",""trial"",""time""
""fullscreenenter"",""1"",""2926""
","
","
","""event"",""trial"",""time""
""fullscreenenter"",""1"",""2926""
","
","","","-1","","","20","10835","363","g","elianto","#f73b6a7A","-1","-1","1","0","[]","0","2","","","10835","102","6","4","lose","no-go","0"
"pit-trial","221","1302763","0.0-107.0","battery-v0.2","","""event"",""trial"",""time""
""fullscreenenter"",""1"",""2926""
","
","
","""event"",""trial"",""time""
""fullscreenenter"",""1"",""2926""
","
","","","903.6000001430511","","","20","10835","363","u","elianto","#3366ff99","-1"," ","0","+10","[1754.5]","1","2","","","10835","103","9","2","win","no-go","1"
"pit-trial","222","1306809","0.0-108.0","battery-v0.2","","""event"",""trial"",""time""
""fullscreenenter"",""1"",""2926""
","
","
","""event"",""trial"",""time""
""fullscreenenter"",""1"",""2926""
","
","","","1192","","","20","10835","363","l","elianto","#3366ff99","-1"," ","0","+10","[2042.5]","1","2","","","10835","104","8","2","win","no-go","1"
"pit-trial","223","1311662","0.0-109.0","battery-v0.2","","""event"",""trial"",""time""
""fullscreenenter"",""1"",""2926""
","
","
","""event"",""trial"",""time""
""fullscreenenter"",""1"",""2926""
","
","","","-1","","","20","10835","363","g","elianto","#f73b6a7A","-1","-1","1","0","[]","0","2","","","10835","105","6","4","lose","no-go","0"
"pit-trial","224","1315515","0.0-110.0","battery-v0.2","","""event"",""trial"",""time""
""fullscreenenter"",""1"",""2926""
","
","
","""event"",""trial"",""time""
""fullscreenenter"",""1"",""2926""
","
","","","1000.6999998092651","","","20","10835","363","u","elianto","#3366ff99","-1"," ","0","0","[1850.7000000476837]","1","2","","","10835","106","9","2","win","no-go","0"
"pit-trial","225","1319265","0.0-111.0","battery-v0.2","","""event"",""trial"",""time""
""fullscreenenter"",""1"",""2926""
","
","
","""event"",""trial"",""time""
""fullscreenenter"",""1"",""2926""
","
","","","881.2999999523163","","","20","10835","363","l","elianto","#3366ff99","-1"," ","0","0","[1732.2000000476837]","1","2","","","10835","107","8","2","win","no-go","0"
"pit-trial","226","1322865","0.0-112.0","battery-v0.2","","""event"",""trial"",""time""
""fullscreenenter"",""1"",""2926""
","
","
","""event"",""trial"",""time""
""fullscreenenter"",""1"",""2926""
","
","","","746.8000001907349","","","20","10835","363","p","elianto","#3366ff99"," "," ","1","+10","[1597.6000001430511]","1","2","","","10835","108","5","1","win","go","0"
"pit-trial","227","1326701","0.0-113.0","battery-v0.2","","""event"",""trial"",""time""
""fullscreenenter"",""1"",""2926""
","
","
","""event"",""trial"",""time""
""fullscreenenter"",""1"",""2926""
","
","","","981.2999999523163","","","20","10835","363","p","elianto","#3366ff99"," "," ","1","+10","[1832.1999998092651]","1","2","","","10835","109","5","1","win","go","0"
"pit-trial","228","1331555","0.0-114.0","battery-v0.2","","""event"",""trial"",""time""
""fullscreenenter"",""1"",""2926""
","
","
","""event"",""trial"",""time""
""fullscreenenter"",""1"",""2926""
","
","","","-1","","","20","10835","363","g","elianto","#f73b6a7A","-1","-1","1","0","[]","0","2","","","10835","110","6","4","lose","no-go","0"
"pit-trial","229","1335509","0.0-115.0","battery-v0.2","","""event"",""trial"",""time""
""fullscreenenter"",""1"",""2926""
","
","
","""event"",""trial"",""time""
""fullscreenenter"",""1"",""2926""
","
","","","1090.4000000953674","","","20","10835","363","l","elianto","#3366ff99","-1"," ","0","0","[1940.7999999523163]","1","2","","","10835","111","8","2","win","no-go","0"
"pit-trial","230","1339319","0.0-116.0","battery-v0.2","","""event"",""trial"",""time""
""fullscreenenter"",""1"",""2926""
","
","
","""event"",""trial"",""time""
""fullscreenenter"",""1"",""2926""
","
","","","955.5999999046326","","","20","10835","363","u","elianto","#3366ff99","-1"," ","0","+10","[1806.5999999046326]","1","2","","","10835","112","9","2","win","no-go","1"
"pit-trial","231","1343340","0.0-117.0","battery-v0.2","","""event"",""trial"",""time""
""fullscreenenter"",""1"",""2926""
","
","
","""event"",""trial"",""time""
""fullscreenenter"",""1"",""2926""
","
","","","1168.3000001907349","","","20","10835","363","a","elianto","#f73b6a7A"," "," ","1","-10","[2019.2000000476837]","1","2","","","10835","113","7","3","lose","go","1"
"pit-trial","232","1347146","0.0-118.0","battery-v0.2","","""event"",""trial"",""time""
""fullscreenenter"",""1"",""2926""
","
","
","""event"",""trial"",""time""
""fullscreenenter"",""1"",""2926""
","
","","","953.1000001430511","","","20","10835","363","l","elianto","#3366ff99","-1"," ","0","0","[1803.7000000476837]","1","2","","","10835","114","8","2","win","no-go","0"
"pit-trial","233","1350899","0.0-119.0","battery-v0.2","","""event"",""trial"",""time""
""fullscreenenter"",""1"",""2926""
","
","
","""event"",""trial"",""time""
""fullscreenenter"",""1"",""2926""
","
","","","900.6999998092651","","","20","10835","363","p","elianto","#3366ff99"," "," ","1","+10","[1751.2999999523163]","1","2","","","10835","115","5","1","win","go","0"
"pit-trial","234","1354574","0.0-120.0","battery-v0.2","","""event"",""trial"",""time""
""fullscreenenter"",""1"",""2926""
","
","
","""event"",""trial"",""time""
""fullscreenenter"",""1"",""2926""
","
","","","821.5","","","20","10835","363","u","elianto","#3366ff99","-1"," ","0","+10","[1672.0999999046326]","1","2","","","10835","116","9","2","win","no-go","1"
"pit-trial","235","1358183","0.0-121.0","battery-v0.2","","""event"",""trial"",""time""
""fullscreenenter"",""1"",""2926""
","
","
","""event"",""trial"",""time""
""fullscreenenter"",""1"",""2926""
","
","","","757.1999998092651","","","20","10835","363","l","elianto","#3366ff99","-1"," ","0","+10","[1607.7999999523163]","1","2","","","10835","117","8","2","win","no-go","1"
"pit-trial","236","1362185","0.0-122.0","battery-v0.2","","""event"",""trial"",""time""
""fullscreenenter"",""1"",""2926""
","
","
","""event"",""trial"",""time""
""fullscreenenter"",""1"",""2926""
","
","","","1147.7999999523163","","","20","10835","363","u","elianto","#3366ff99","-1"," ","0","0","[1998.6999998092651]","1","2","","","10835","118","9","2","win","no-go","0"
"pit-trial","237","1365889","0.0-123.0","battery-v0.2","","""event"",""trial"",""time""
""fullscreenenter"",""1"",""2926""
","
","
","""event"",""trial"",""time""
""fullscreenenter"",""1"",""2926""
","
","","","851.9000000953674","","","20","10835","363","p","elianto","#3366ff99"," "," ","1","+10","[1702.7000000476837]","1","2","","","10835","119","5","1","win","go","0"
"pit-trial","238","1370743","0.0-124.0","battery-v0.2","","""event"",""trial"",""time""
""fullscreenenter"",""1"",""2926""
","
","
","""event"",""trial"",""time""
""fullscreenenter"",""1"",""2926""
","
","","","-1","","","20","10835","363","g","elianto","#f73b6a7A","-1","-1","1","0","[]","0","2","","","10835","120","6","4","lose","no-go","0"
"pit-trial","239","1374541","0.0-125.0","battery-v0.2","","""event"",""trial"",""time""
""fullscreenenter"",""1"",""2926""
","
","
","""event"",""trial"",""time""
""fullscreenenter"",""1"",""2926""
","
","","","944.5","","","20","10835","363","p","elianto","#3366ff99"," "," ","1","+10","[1795]","1","2","","","10835","121","5","1","win","go","0"
"pit-trial","240","1378132","0.0-126.0","battery-v0.2","","""event"",""trial"",""time""
""fullscreenenter"",""1"",""2926""
","
","
","""event"",""trial"",""time""
""fullscreenenter"",""1"",""2926""
","
","","","736.7999999523163","","","20","10835","363","l","elianto","#3366ff99","-1"," ","0","0","[1587.5]","1","2","","","10835","122","8","2","win","no-go","0"
"pit-trial","241","1382986","0.0-127.0","battery-v0.2","","""event"",""trial"",""time""
""fullscreenenter"",""1"",""2926""
","
","
","""event"",""trial"",""time""
""fullscreenenter"",""1"",""2926""
","
","","","-1","","","20","10835","363","u","elianto","#3366ff99","-1","-1","1","+10","[]","0","2","","","10835","123","9","2","win","no-go","0"
"pit-trial","242","1386566","0.0-128.0","battery-v0.2","","""event"",""trial"",""time""
""fullscreenenter"",""1"",""2926""
","
","
","""event"",""trial"",""time""
""fullscreenenter"",""1"",""2926""
","
","","","727","","","20","10835","363","a","elianto","#f73b6a7A"," "," ","1","0","[1577.7999999523163]","1","2","","","10835","124","7","3","lose","go","0"
"pit-trial","243","1391422","0.0-129.0","battery-v0.2","","""event"",""trial"",""time""
""fullscreenenter"",""1"",""2926""
","
","
","""event"",""trial"",""time""
""fullscreenenter"",""1"",""2926""
","
","","","-1","","","20","10835","363","u","elianto","#3366ff99","-1","-1","1","+10","[]","0","2","","","10835","125","9","2","win","no-go","0"
"pit-trial","244","1394972","0.0-130.0","battery-v0.2","","""event"",""trial"",""time""
""fullscreenenter"",""1"",""2926""
","
","
","""event"",""trial"",""time""
""fullscreenenter"",""1"",""2926""
","
","","","693","","","20","10835","363","a","elianto","#f73b6a7A"," "," ","1","0","[1543.5]","1","2","","","10835","126","7","3","lose","go","0"
"pit-trial","245","1399070","0.0-131.0","battery-v0.2","","""event"",""trial"",""time""
""fullscreenenter"",""1"",""2926""
","
","
","""event"",""trial"",""time""
""fullscreenenter"",""1"",""2926""
","
","","","1245.2999999523163","","","20","10835","363","l","elianto","#3366ff99","-1"," ","0","+10","[2096.0999999046326]","1","2","","","10835","127","8","2","win","no-go","1"
"pit-trial","246","1403925","0.0-132.0","battery-v0.2","","""event"",""trial"",""time""
""fullscreenenter"",""1"",""2926""
","
","
","""event"",""trial"",""time""
""fullscreenenter"",""1"",""2926""
","
","","","-1","","","20","10835","363","g","elianto","#f73b6a7A","-1","-1","1","0","[]","0","2","","","10835","128","6","4","lose","no-go","0"
"pit-trial","247","1408779","0.0-133.0","battery-v0.2","","""event"",""trial"",""time""
""fullscreenenter"",""1"",""2926""
","
","
","""event"",""trial"",""time""
""fullscreenenter"",""1"",""2926""
","
","","","-1","","","20","10835","363","u","elianto","#3366ff99","-1","-1","1","+10","[]","0","2","","","10835","129","9","2","win","no-go","0"
"pit-trial","248","1412373","0.0-134.0","battery-v0.2","","""event"",""trial"",""time""
""fullscreenenter"",""1"",""2926""
","
","
","""event"",""trial"",""time""
""fullscreenenter"",""1"",""2926""
","
","","","740","","","20","10835","363","l","elianto","#3366ff99","-1"," ","0","0","[1590.2999999523163]","1","2","","","10835","130","8","2","win","no-go","0"
"pit-trial","249","1415903","0.0-135.0","battery-v0.2","","""event"",""trial"",""time""
""fullscreenenter"",""1"",""2926""
","
","
","""event"",""trial"",""time""
""fullscreenenter"",""1"",""2926""
","
","","","677.5","","","20","10835","363","a","elianto","#f73b6a7A"," "," ","1","0","[1528.8999998569489]","1","2","","","10835","131","7","3","lose","go","0"
"pit-trial","250","1420759","0.0-136.0","battery-v0.2","","""event"",""trial"",""time""
""fullscreenenter"",""1"",""2926""
","
","
","""event"",""trial"",""time""
""fullscreenenter"",""1"",""2926""
","
","","","-1","","","20","10835","363","g","elianto","#f73b6a7A","-1","-1","1","0","[]","0","2","","","10835","132","6","4","lose","no-go","0"
"pit-trial","251","1425611","0.0-137.0","battery-v0.2","","""event"",""trial"",""time""
""fullscreenenter"",""1"",""2926""
","
","
","""event"",""trial"",""time""
""fullscreenenter"",""1"",""2926""
","
","","","-1","","","20","10835","363","u","elianto","#3366ff99","-1","-1","1","+10","[]","0","2","","","10835","133","9","2","win","no-go","0"
"pit-trial","252","1429213","0.0-138.0","battery-v0.2","","""event"",""trial"",""time""
""fullscreenenter"",""1"",""2926""
","
","
","""event"",""trial"",""time""
""fullscreenenter"",""1"",""2926""
","
","","","749.2999999523163","","","20","10835","363","a","elianto","#f73b6a7A"," "," ","1","0","[1599.5999999046326]","1","2","","","10835","134","7","3","lose","go","0"
"pit-trial","253","1434066","0.0-139.0","battery-v0.2","","""event"",""trial"",""time""
""fullscreenenter"",""1"",""2926""
","
","
","""event"",""trial"",""time""
""fullscreenenter"",""1"",""2926""
","
","","","-1","","","20","10835","363","g","elianto","#f73b6a7A","-1","-1","1","0","[]","0","2","","","10835","135","6","4","lose","no-go","0"
"pit-trial","254","1437960","0.0-140.0","battery-v0.2","","""event"",""trial"",""time""
""fullscreenenter"",""1"",""2926""
","
","
","""event"",""trial"",""time""
""fullscreenenter"",""1"",""2926""
","
","","","1041.0999999046326","","","20","10835","363","l","elianto","#3366ff99","-1"," ","0","0","[1891.4000000953674]","1","2","","","10835","136","8","2","win","no-go","0"
"pit-trial","255","1442813","0.0-141.0","battery-v0.2","","""event"",""trial"",""time""
""fullscreenenter"",""1"",""2926""
","
","
","""event"",""trial"",""time""
""fullscreenenter"",""1"",""2926""
","
","","","-1","","","20","10835","363","g","elianto","#f73b6a7A","-1","-1","1","0","[]","0","2","","","10835","137","6","4","lose","no-go","0"
"pit-trial","256","1446386","0.0-142.0","battery-v0.2","","""event"",""trial"",""time""
""fullscreenenter"",""1"",""2926""
","
","
","""event"",""trial"",""time""
""fullscreenenter"",""1"",""2926""
","
","","","719.2999999523163","","","20","10835","363","a","elianto","#f73b6a7A"," "," ","1","0","[1569.5999999046326]","1","2","","","10835","138","7","3","lose","go","0"
"pit-trial","257","1449843","0.0-143.0","battery-v0.2","","""event"",""trial"",""time""
""fullscreenenter"",""1"",""2926""
","
","
","""event"",""trial"",""time""
""fullscreenenter"",""1"",""2926""
","
","","","604.1999998092651","","","20","10835","363","l","elianto","#3366ff99","-1"," ","0","0","[1455.2999999523163]","1","2","","","10835","139","8","2","win","no-go","0"
"pit-trial","258","1454696","0.0-144.0","battery-v0.2","","""event"",""trial"",""time""
""fullscreenenter"",""1"",""2926""
","
","
","""event"",""trial"",""time""
""fullscreenenter"",""1"",""2926""
","
","","","-1","","","20","10835","363","u","elianto","#3366ff99","-1","-1","1","+10","[]","0","2","","","10835","140","9","2","win","no-go","0"
"pit-instructions","259","1468531","0.0-145.0","battery-v0.2","","""event"",""trial"",""time""
""fullscreenenter"",""1"",""2926""
","
","
","""event"",""trial"",""time""
""fullscreenenter"",""1"",""2926""
","
","","[{""page_index"":0,""viewing_time"":5519.299999952316},{""page_index"":1,""viewing_time"":8313.5}]","13833.200000047684","","","","","","","","","","","","","","","","","","","","","","","",""
"pit-trial","260","1472438","0.0-146.0","battery-v0.2","","""event"",""trial"",""time""
""fullscreenenter"",""1"",""2926""
","
","
","""event"",""trial"",""time""
""fullscreenenter"",""1"",""2926""
","
","","","1047.2000000476837","","","20","10835","363","r","elianto","#3366ff99","-1"," ","0","0","[1898.7000000476837]","1","3","","","10835","141","1","2","win","no-go","0"
"pit-trial","261","1475518","0.0-147.0","battery-v0.2","","""event"",""trial"",""time""
""fullscreenenter"",""1"",""2926""
","
","
","""event"",""trial"",""time""
""fullscreenenter"",""1"",""2926""
","
","","","216.70000004768372","","","20","10835","363","m","elianto","#f73b6a7A"," "," ","1","0","[1071.7999999523163]","1","3","","","10835","142","0","3","lose","go","0"
"pit-trial","262","1479067","0.0-148.0","battery-v0.2","","""event"",""trial"",""time""
""fullscreenenter"",""1"",""2926""
","
","
","""event"",""trial"",""time""
""fullscreenenter"",""1"",""2926""
","
","","","678.9000000953674","","","20","10835","363","y","elianto","#f73b6a7A"," "," ","1","0","[1538.5]","1","3","","","10835","143","2","3","lose","go","0"
"pit-trial","263","1482686","0.0-149.0","battery-v0.2","","""event"",""trial"",""time""
""fullscreenenter"",""1"",""2926""
","
","
","""event"",""trial"",""time""
""fullscreenenter"",""1"",""2926""
","
","","","746.1000001430511","","","20","10835","363","h","elianto","#f73b6a7A","-1"," ","0","-10","[1602.8000001907349]","1","3","","","10835","144","3","4","lose","no-go","0"
"pit-trial","264","1486246","0.0-150.0","battery-v0.2","","""event"",""trial"",""time""
""fullscreenenter"",""1"",""2926""
","
","
","""event"",""trial"",""time""
""fullscreenenter"",""1"",""2926""
","
","","","702.7999999523163","","","20","10835","363","r","elianto","#3366ff99","-1"," ","0","0","[1553.2999999523163]","1","3","","","10835","145","1","2","win","no-go","0"
"pit-trial","265","1489832","0.0-151.0","battery-v0.2","","""event"",""trial"",""time""
""fullscreenenter"",""1"",""2926""
","
","
","""event"",""trial"",""time""
""fullscreenenter"",""1"",""2926""
","
","","","724.0999999046326","","","20","10835","363","m","elianto","#f73b6a7A"," "," ","1","0","[1575.0999999046326]","1","3","","","10835","146","0","3","lose","go","0"
"pit-trial","266","1493442","0.0-152.0","battery-v0.2","","""event"",""trial"",""time""
""fullscreenenter"",""1"",""2926""
","
","
","""event"",""trial"",""time""
