"trial_type","trial_index","time_elapsed","internal_node_id","task_version","subject_id","interactions","blur_events","focus_events","fullscreenenter_events","fullscreenexit_events","success","view_history","rt","responses","num_errors","age","subject","participantId","rune","rune_set","hex","correct","choice","accuracy","outcome","keys","total_keys","block","practice","value","sub","trial","stimulus","robot","valence","action","sham"
"pavlovia","0","9","0.0-0.0","battery-v0.2","","""event"",""trial"",""time""
""fullscreenenter"",""1"",""2930""
","
","
","""event"",""trial"",""time""
""fullscreenenter"",""1"",""2930""
","
","","","","","","","","","","","","","","","","","","","","","","","","","","",""
"fullscreen","1","3910","0.0-1.0","battery-v0.2","","""event"",""trial"",""time""
""fullscreenenter"",""1"",""2930""
","
","
","""event"",""trial"",""time""
""fullscreenenter"",""1"",""2930""
","
","true","","","","","","","","","","","","","","","","","","","","","","","","","",""
"pit-instructions","2","8514","0.0-2.0-0.0","battery-v0.2","","""event"",""trial"",""time""
""fullscreenenter"",""1"",""2930""
","
","
","""event"",""trial"",""time""
""fullscreenenter"",""1"",""2930""
","
","","[{""page_index"":0,""viewing_time"":4590.299999952316}]","4592.600000023842","","","","","","","","","","","","","","","","","","","","","","","",""
"pit-comprehension","3","12886","0.0-2.0-1.0-0.0","battery-v0.2","","""event"",""trial"",""time""
""fullscreenenter"",""1"",""2930""
","
","
","""event"",""trial"",""time""
""fullscreenenter"",""1"",""2930""
","
","","","4360.100000023842","[""shark""]","0","19","3167","1584","","","","","","","","","","","","","","","","","","",""
"pit-instructions","4","14294","0.0-2.0-1.0-1.0","battery-v0.2","","""event"",""trial"",""time""
""fullscreenenter"",""1"",""2930""
","
","
","""event"",""trial"",""time""
""fullscreenenter"",""1"",""2930""
","
","","[{""page_index"":0,""viewing_time"":1384.5}]","1384.8000000715256","","","","","","","","","","","","","","","","","","","","","","","",""
"pit-comprehension","5","16532","0.0-2.0-2.0-0.0","battery-v0.2","","""event"",""trial"",""time""
""fullscreenenter"",""1"",""2930""
","
","
","""event"",""trial"",""time""
""fullscreenenter"",""1"",""2930""
","
","","","2234.1999999284744","[""tiger""]","0","19","3167","1584","","","","","","","","","","","","","","","","","","",""
"pit-instructions","6","17376","0.0-2.0-2.0-1.0","battery-v0.2","","""event"",""trial"",""time""
""fullscreenenter"",""1"",""2930""
","
","
","""event"",""trial"",""time""
""fullscreenenter"",""1"",""2930""
","
","","[{""page_index"":0,""viewing_time"":840.3000000715256}]","840.6000000238419","","","","","","","","","","","","","","","","","","","","","","","",""
"pit-instructions","7","125659","0.0-2.0-3.0","battery-v0.2","","""event"",""trial"",""time""
""fullscreenenter"",""1"",""2930""
","
","
","""event"",""trial"",""time""
""fullscreenenter"",""1"",""2930""
","
","","[{""page_index"":0,""viewing_time"":11065.799999952316},{""page_index"":1,""viewing_time"":5821.900000095367},{""page_index"":2,""viewing_time"":6356.599999904633},{""page_index"":3,""viewing_time"":5031},{""page_index"":4,""viewing_time"":5111.200000047684},{""page_index"":5,""viewing_time"":5716.600000023842},{""page_index"":6,""viewing_time"":6303.100000023842},{""page_index"":7,""viewing_time"":855.1999999284744},{""page_index"":6,""viewing_time"":2337},{""page_index"":5,""viewing_time"":4998.200000047684},{""page_index"":6,""viewing_time"":6267.799999952316},{""page_index"":7,""viewing_time"":6916.399999976158},{""page_index"":8,""viewing_time"":6640},{""page_index"":9,""viewing_time"":8052.800000071526},{""page_index"":10,""viewing_time"":7718.5},{""page_index"":11,""viewing_time"":7831.199999928474},{""page_index"":12,""viewing_time"":6097.200000047684},{""page_index"":13,""viewing_time"":5157.600000023842}]","108279","","","","","","","","","","","","","","","","","","","","","","","",""
"pit-trial","8","129738","0.0-2.0-4.0-0.0","battery-v0.2","","""event"",""trial"",""time""
""fullscreenenter"",""1"",""2930""
","
","
","""event"",""trial"",""time""
""fullscreenenter"",""1"",""2930""
","
","","","1214.5","","","19","3167","1584","&#9784;","elianto","#FFFFF080"," "," ","1","&#10004","[2070.600000023842]","1","0","0","","","","","","","",""
"pit-trial","9","133210","0.0-2.0-4.1-0.1","battery-v0.2","","""event"",""trial"",""time""
""fullscreenenter"",""1"",""2930""
","
","
","""event"",""trial"",""time""
""fullscreenenter"",""1"",""2930""
","
","","","601.3999999761581","","","19","3167","1584","&#9784;","elianto","#FFFFF080"," "," ","1","&#10004","[1462]","1","0","0","","","","","","","",""
"pit-trial","10","136571","0.0-2.0-4.2-0.2","battery-v0.2","","""event"",""trial"",""time""
""fullscreenenter"",""1"",""2930""
","
","
","""event"",""trial"",""time""
""fullscreenenter"",""1"",""2930""
","
","","","492.6999999284744","","","19","3167","1584","&#9784;","elianto","#FFFFF080"," "," ","1","&#10004","[1344]","1","0","0","","","","","","","",""
"pit-trial","11","139973","0.0-2.0-4.3-0.3","battery-v0.2","","""event"",""trial"",""time""
""fullscreenenter"",""1"",""2930""
","
","
","""event"",""trial"",""time""
""fullscreenenter"",""1"",""2930""
","
","","","531.5","","","19","3167","1584","&#9784;","elianto","#FFFFF080"," "," ","1","&#10004","[1382]","1","0","0","","","","","","","",""
"pit-trial","12","143372","0.0-2.0-4.4-0.4","battery-v0.2","","""event"",""trial"",""time""
""fullscreenenter"",""1"",""2930""
","
","
","""event"",""trial"",""time""
""fullscreenenter"",""1"",""2930""
","
","","","534","","","19","3167","1584","&#9784;","elianto","#FFFFF080"," "," ","1","&#10004","[1384]","1","0","0","","","","","","","",""
"pit-instructions","13","165750","0.0-2.0-5.0","battery-v0.2","","""event"",""trial"",""time""
""fullscreenenter"",""1"",""2930""
","
","
","""event"",""trial"",""time""
""fullscreenenter"",""1"",""2930""
","
","","[{""page_index"":0,""viewing_time"":5523},{""page_index"":1,""viewing_time"":5536.899999976158},{""page_index"":2,""viewing_time"":4914.200000047684},{""page_index"":3,""viewing_time"":6398.599999904633}]","22373.399999976158","","","","","","","","","","","","","","","","","","","","","","","",""
"pit-trial","14","170621","0.0-2.0-6.0-0.0","battery-v0.2","","""event"",""trial"",""time""
""fullscreenenter"",""1"",""2930""
","
","
","""event"",""trial"",""time""
""fullscreenenter"",""1"",""2930""
","
","","","-1","","","19","3167","1584","&#9854;","elianto","#FFFFF080","-1","-1","1","&#10004","[]","0","0","1","","","","","","","",""
"pit-trial","15","175500","0.0-2.0-6.1-0.1","battery-v0.2","","""event"",""trial"",""time""
""fullscreenenter"",""1"",""2930""
","
","
","""event"",""trial"",""time""
""fullscreenenter"",""1"",""2930""
","
","","","-1","","","19","3167","1584","&#9854;","elianto","#FFFFF080","-1","-1","1","&#10004","[]","0","0","1","","","","","","","",""
"pit-trial","16","180371","0.0-2.0-6.2-0.2","battery-v0.2","","""event"",""trial"",""time""
""fullscreenenter"",""1"",""2930""
","
","
","""event"",""trial"",""time""
""fullscreenenter"",""1"",""2930""
","
","","","-1","","","19","3167","1584","&#9854;","elianto","#FFFFF080","-1","-1","1","&#10004","[]","0","0","1","","","","","","","",""
"pit-trial","17","185240","0.0-2.0-6.3-0.3","battery-v0.2","","""event"",""trial"",""time""
""fullscreenenter"",""1"",""2930""
","
","
","""event"",""trial"",""time""
""fullscreenenter"",""1"",""2930""
","
","","","-1","","","19","3167","1584","&#9854;","elianto","#FFFFF080","-1","-1","1","&#10004","[]","0","0","1","","","","","","","",""
"pit-trial","18","190116","0.0-2.0-6.4-0.4","battery-v0.2","","""event"",""trial"",""time""
""fullscreenenter"",""1"",""2930""
","
","
","""event"",""trial"",""time""
""fullscreenenter"",""1"",""2930""
","
","","","-1","","","19","3167","1584","&#9854;","elianto","#FFFFF080","-1","-1","1","&#10004","[]","0","0","1","","","","","","","",""
"pit-instructions","19","352216","0.0-2.0-7.0","battery-v0.2","","""event"",""trial"",""time""
""fullscreenenter"",""1"",""2930""
","
","
","""event"",""trial"",""time""
""fullscreenenter"",""1"",""2930""
","
","","[{""page_index"":0,""viewing_time"":6146.5},{""page_index"":1,""viewing_time"":6950.100000023842},{""page_index"":2,""viewing_time"":9242.700000047684},{""page_index"":3,""viewing_time"":6585.5},{""page_index"":4,""viewing_time"":5583},{""page_index"":5,""viewing_time"":6046.399999976158},{""page_index"":6,""viewing_time"":5759.899999976158},{""page_index"":7,""viewing_time"":7813.5},{""page_index"":8,""viewing_time"":6518.899999976158},{""page_index"":9,""viewing_time"":5628.600000023842},{""page_index"":10,""viewing_time"":6187.5},{""page_index"":11,""viewing_time"":4407.600000023842},{""page_index"":12,""viewing_time"":7112.199999928474},{""page_index"":13,""viewing_time"":7230.200000047684},{""page_index"":14,""viewing_time"":7575.600000023842},{""page_index"":15,""viewing_time"":7029.600000023842},{""page_index"":14,""viewing_time"":6613.199999928474},{""page_index"":15,""viewing_time"":6951.800000071526},{""page_index"":16,""viewing_time"":6344.399999976158},{""page_index"":17,""viewing_time"":7768.299999952316},{""page_index"":16,""viewing_time"":912.1000000238419},{""page_index"":15,""viewing_time"":2904.899999976158},{""page_index"":14,""viewing_time"":6117.899999976158},{""page_index"":15,""viewing_time"":6158},{""page_index"":16,""viewing_time"":6139.800000071526},{""page_index"":17,""viewing_time"":6364.699999928474}]","162094.30000007153","","","","","","","","","","","","","","","","","","","","","","","",""
"pit-trial","20","355629","0.0-2.0-8.0-0.0","battery-v0.2","","""event"",""trial"",""time""
""fullscreenenter"",""1"",""2930""
","
","
","""event"",""trial"",""time""
""fullscreenenter"",""1"",""2930""
","
","","","542","","","19","3167","1584","&#9776;","elianto","#3366ff99"," "," ","1","+10","[1393]","1","0","1","","","","","","","",""
"pit-trial","21","359041","0.0-2.0-8.0-1.0","battery-v0.2","","""event"",""trial"",""time""
""fullscreenenter"",""1"",""2930""
","
","
","""event"",""trial"",""time""
""fullscreenenter"",""1"",""2930""
","
","","","540.1000000238419","","","19","3167","1584","&#9776;","elianto","#3366ff99"," "," ","1","+10","[1393]","1","0","1","","","","","","","",""
"pit-trial","22","362376","0.0-2.0-8.0-2.0","battery-v0.2","","""event"",""trial"",""time""
""fullscreenenter"",""1"",""2930""
","
","
","""event"",""trial"",""time""
""fullscreenenter"",""1"",""2930""
","
","","","479.39999997615814","","","19","3167","1584","&#9776;","elianto","#3366ff99"," "," ","1","+10","[1330.2000000476837]","1","0","1","","","","","","","",""
"pit-trial","23","365505","0.0-2.0-8.0-3.0","battery-v0.2","","""event"",""trial"",""time""
""fullscreenenter"",""1"",""2930""
","
","
","""event"",""trial"",""time""
""fullscreenenter"",""1"",""2930""
","
","","","260.1999999284744","","","19","3167","1584","&#9776;","elianto","#3366ff99"," "," ","1","0","[1112.0999999046326]","1","0","1","","","","","","","",""
"pit-trial","24","368730","0.0-2.0-8.0-4.0","battery-v0.2","","""event"",""trial"",""time""
""fullscreenenter"",""1"",""2930""
","
","
","""event"",""trial"",""time""
""fullscreenenter"",""1"",""2930""
","
","","","359.3000000715256","","","19","3167","1584","&#9776;","elianto","#3366ff99"," "," ","1","+10","[1210.3999999761581]","1","0","1","","","","","","","",""
"call-function","25","368733","0.0-2.0-9.0","battery-v0.2","","""event"",""trial"",""time""
""fullscreenenter"",""1"",""2930""
","
","
","""event"",""trial"",""time""
""fullscreenenter"",""1"",""2930""
","
","","","","","","","","","","","","","","","","","","","","","","","","","","",""
"pit-instructions","26","406483","0.0-2.0-10.0","battery-v0.2","","""event"",""trial"",""time""
""fullscreenenter"",""1"",""2930""
","
","
","""event"",""trial"",""time""
""fullscreenenter"",""1"",""2930""
","
","","[{""page_index"":0,""viewing_time"":5837},{""page_index"":1,""viewing_time"":6155.899999976158},{""page_index"":2,""viewing_time"":9279},{""page_index"":3,""viewing_time"":9249.600000023842},{""page_index"":4,""viewing_time"":7226.5}]","37748.89999997616","","","","","","","","","","","","","","","","","","","","","","","",""
"pit-trial","27","411343","0.0-2.0-11.0-0.0","battery-v0.2","","""event"",""trial"",""time""
""fullscreenenter"",""1"",""2930""
","
","
","""event"",""trial"",""time""
""fullscreenenter"",""1"",""2930""
","
","","","-1","","","19","3167","1584","&#9761;","elianto","#3366ff99","-1","-1","1","+10","[]","0","0","2","","","","","","","",""
"pit-trial","28","416213","0.0-2.0-11.0-1.0","battery-v0.2","","""event"",""trial"",""time""
""fullscreenenter"",""1"",""2930""
","
","
","""event"",""trial"",""time""
""fullscreenenter"",""1"",""2930""
","
","","","-1","","","19","3167","1584","&#9761;","elianto","#3366ff99","-1","-1","1","+10","[]","0","0","2","","","","","","","",""
"pit-trial","29","421083","0.0-2.0-11.0-2.0","battery-v0.2","","""event"",""trial"",""time""
""fullscreenenter"",""1"",""2930""
","
","
","""event"",""trial"",""time""
""fullscreenenter"",""1"",""2930""
","
","","","-1","","","19","3167","1584","&#9761;","elianto","#3366ff99","-1","-1","1","+10","[]","0","0","2","","","","","","","",""
"pit-trial","30","425955","0.0-2.0-11.0-3.0","battery-v0.2","","""event"",""trial"",""time""
""fullscreenenter"",""1"",""2930""
","
","
","""event"",""trial"",""time""
""fullscreenenter"",""1"",""2930""
","
","","","-1","","","19","3167","1584","&#9761;","elianto","#3366ff99","-1","-1","1","0","[]","0","0","2","","","","","","","",""
"pit-trial","31","430832","0.0-2.0-11.0-4.0","battery-v0.2","","""event"",""trial"",""time""
""fullscreenenter"",""1"",""2930""
","
","
","""event"",""trial"",""time""
""fullscreenenter"",""1"",""2930""
","
","","","-1","","","19","3167","1584","&#9761;","elianto","#3366ff99","-1","-1","1","+10","[]","0","0","2","","","","","","","",""
"call-function","32","430835","0.0-2.0-12.0","battery-v0.2","","""event"",""trial"",""time""
""fullscreenenter"",""1"",""2930""
","
","
","""event"",""trial"",""time""
""fullscreenenter"",""1"",""2930""
","
","","","","","","","","","","","","","","","","","","","","","","","","","","",""
"pit-instructions","33","464296","0.0-2.0-13.0","battery-v0.2","","""event"",""trial"",""time""
""fullscreenenter"",""1"",""2930""
","
","
","""event"",""trial"",""time""
""fullscreenenter"",""1"",""2930""
","
","","[{""page_index"":0,""viewing_time"":6946.199999928474},{""page_index"":1,""viewing_time"":6801},{""page_index"":2,""viewing_time"":3274.5},{""page_index"":3,""viewing_time"":10901.800000071526},{""page_index"":4,""viewing_time"":5534.799999952316}]","33459.299999952316","","","","","","","","","","","","","","","","","","","","","","","",""
"pit-trial","34","467544","0.0-2.0-14.0-0.0","battery-v0.2","","""event"",""trial"",""time""
""fullscreenenter"",""1"",""2930""
","
","
","""event"",""trial"",""time""
""fullscreenenter"",""1"",""2930""
","
","","","373.60000002384186","","","19","3167","1584","&#9826;","elianto","#f73b6a7A","-1"," ","0","-10","[1229.8000000715256]","1","0","3","","","","","","","",""
"pit-trial","35","472425","0.0-2.0-14.0-1.0","battery-v0.2","","""event"",""trial"",""time""
""fullscreenenter"",""1"",""2930""
","
","
","""event"",""trial"",""time""
""fullscreenenter"",""1"",""2930""
","
","","","-1","","","19","3167","1584","&#9826;","elianto","#f73b6a7A","-1","-1","1","0","[]","0","0","3","","","","","","","",""
"pit-trial","36","477294","0.0-2.0-14.0-2.0","battery-v0.2","","""event"",""trial"",""time""
""fullscreenenter"",""1"",""2930""
","
","
","""event"",""trial"",""time""
""fullscreenenter"",""1"",""2930""
","
","","","-1","","","19","3167","1584","&#9826;","elianto","#f73b6a7A","-1","-1","1","0","[]","0","0","3","","","","","","","",""
"pit-trial","37","482165","0.0-2.0-14.0-3.0","battery-v0.2","","""event"",""trial"",""time""
""fullscreenenter"",""1"",""2930""
","
","
","""event"",""trial"",""time""
""fullscreenenter"",""1"",""2930""
","
","","","-1","","","19","3167","1584","&#9826;","elianto","#f73b6a7A","-1","-1","1","-10","[]","0","0","3","","","","","","","",""
"pit-trial","38","487042","0.0-2.0-14.0-4.0","battery-v0.2","","""event"",""trial"",""time""
""fullscreenenter"",""1"",""2930""
","
","
","""event"",""trial"",""time""
""fullscreenenter"",""1"",""2930""
","
","","","-1","","","19","3167","1584","&#9826;","elianto","#f73b6a7A","-1","-1","1","0","[]","0","0","3","","","","","","","",""
"call-function","39","487046","0.0-2.0-15.0","battery-v0.2","","""event"",""trial"",""time""
""fullscreenenter"",""1"",""2930""
","
","
","""event"",""trial"",""time""
""fullscreenenter"",""1"",""2930""
","
","","","","","","","","","","","","","","","","","","","","","","","","","","",""
"pit-instructions","40","517858","0.0-2.0-16.0","battery-v0.2","","""event"",""trial"",""time""
""fullscreenenter"",""1"",""2930""
","
","
","""event"",""trial"",""time""
""fullscreenenter"",""1"",""2930""
","
","","[{""page_index"":0,""viewing_time"":7301.899999976158},{""page_index"":1,""viewing_time"":11667.299999952316},{""page_index"":2,""viewing_time"":5363.800000071526},{""page_index"":3,""viewing_time"":6477.600000023842}]","30811.299999952316","","","","","","","","","","","","","","","","","","","","","","","",""
"pit-trial","41","520959","0.0-2.0-17.0-0.0","battery-v0.2","","""event"",""trial"",""time""
""fullscreenenter"",""1"",""2930""
","
","
","""event"",""trial"",""time""
""fullscreenenter"",""1"",""2930""
","
","","","242.59999990463257","","","19","3167","1584","&#9789;","elianto","#f73b6a7A"," "," ","1","0","[1097.8999999761581,1414.6000000238419]","2","0","4","","","","","","","",""
"pit-trial","42","524173","0.0-2.0-17.0-1.0","battery-v0.2","","""event"",""trial"",""time""
""fullscreenenter"",""1"",""2930""
","
","
","""event"",""trial"",""time""
""fullscreenenter"",""1"",""2930""
","
","","","344.89999997615814","","","19","3167","1584","&#9789;","elianto","#f73b6a7A"," "," ","1","0","[1196]","1","0","4","","","","","","","",""
"pit-trial","43","527221","0.0-2.0-17.0-2.0","battery-v0.2","","""event"",""trial"",""time""
""fullscreenenter"",""1"",""2930""
","
","
","""event"",""trial"",""time""
""fullscreenenter"",""1"",""2930""
","
","","","185.90000009536743","","","19","3167","1584","&#9789;","elianto","#f73b6a7A"," "," ","1","0","[1038.5]","1","0","4","","","","","","","",""
"pit-trial","44","530329","0.0-2.0-17.0-3.0","battery-v0.2","","""event"",""trial"",""time""
""fullscreenenter"",""1"",""2930""
","
","
","""event"",""trial"",""time""
""fullscreenenter"",""1"",""2930""
","
","","","240.70000004768372","","","19","3167","1584","&#9789;","elianto","#f73b6a7A"," "," ","1","-10","[1093.8999999761581]","1","0","4","","","","","","","",""
"pit-trial","45","533454","0.0-2.0-17.0-4.0","battery-v0.2","","""event"",""trial"",""time""
""fullscreenenter"",""1"",""2930""
","
","
","""event"",""trial"",""time""
""fullscreenenter"",""1"",""2930""
","
","","","260.89999997615814","","","19","3167","1584","&#9789;","elianto","#f73b6a7A"," "," ","1","0","[1120.7999999523163]","1","0","4","","","","","","","",""
"call-function","46","533459","0.0-2.0-18.0","battery-v0.2","","""event"",""trial"",""time""
""fullscreenenter"",""1"",""2930""
","
","
","""event"",""trial"",""time""
""fullscreenenter"",""1"",""2930""
","
","","","","","","","","","","","","","","","","","","","","","","","","","","",""
"pit-instructions","47","599716","0.0-2.0-19.0","battery-v0.2","","""event"",""trial"",""time""
""fullscreenenter"",""1"",""2930""
","
","
","""event"",""trial"",""time""
""fullscreenenter"",""1"",""2930""
","
","","[{""page_index"":0,""viewing_time"":8372.799999952316},{""page_index"":1,""viewing_time"":6638.600000023842},{""page_index"":2,""viewing_time"":10117.5},{""page_index"":3,""viewing_time"":5916.800000071526},{""page_index"":4,""viewing_time"":7861.899999976158},{""page_index"":5,""viewing_time"":8252.899999976158},{""page_index"":6,""viewing_time"":8116},{""page_index"":7,""viewing_time"":5980.299999952316},{""page_index"":8,""viewing_time"":4999.200000047684}]","66256.70000004768","","","","","","","","","","","","","","","","","","","","","","","",""
"pit-comprehension","48","603986","0.0-2.0-20.0-0.0","battery-v0.2","","""event"",""trial"",""time""
""fullscreenenter"",""1"",""2930""
","
","
","""event"",""trial"",""time""
""fullscreenenter"",""1"",""2930""
","
","","","4263.100000023842","[""SPACE""]","0","19","3167","1584","","","","","","","","","","","","","","","","","","",""
"pit-instructions","49","606105","0.0-2.0-20.0-1.0","battery-v0.2","","""event"",""trial"",""time""
""fullscreenenter"",""1"",""2930""
","
","
","""event"",""trial"",""time""
""fullscreenenter"",""1"",""2930""
","
","","[{""page_index"":0,""viewing_time"":2092.7999999523163}]","2093.2999999523163","","","","","","","","","","","","","","","","","","","","","","","",""
"pit-comprehension","50","610852","0.0-2.0-21.0-0.0","battery-v0.2","","""event"",""trial"",""time""
""fullscreenenter"",""1"",""2930""
","
","
","""event"",""trial"",""time""
""fullscreenenter"",""1"",""2930""
","
","","","4740.300000071526","[""10""]","0","19","3167","1584","","","","","","","","","","","","","","","","","","",""
"pit-instructions","51","612533","0.0-2.0-21.0-1.0","battery-v0.2","","""event"",""trial"",""time""
""fullscreenenter"",""1"",""2930""
","
","
","""event"",""trial"",""time""
""fullscreenenter"",""1"",""2930""
","
","","[{""page_index"":0,""viewing_time"":1663}]","1663.7999999523163","","","","","","","","","","","","","","","","","","","","","","","",""
"pit-comprehension","52","618671","0.0-2.0-22.0-0.0","battery-v0.2","","""event"",""trial"",""time""
""fullscreenenter"",""1"",""2930""
","
","
","""event"",""trial"",""time""
""fullscreenenter"",""1"",""2930""
","
","","","6132.600000023842","[""-10""]","1","19","3167","1584","","","","","","","","","","","","","","","","","","",""
"pit-instructions","53","623306","0.0-2.0-22.0-1.0","battery-v0.2","","""event"",""trial"",""time""
""fullscreenenter"",""1"",""2930""
","
","
","""event"",""trial"",""time""
""fullscreenenter"",""1"",""2930""
","
","","[{""page_index"":0,""viewing_time"":4599.600000023842}]","4600.100000023842","","","","","","","","","","","","","","","","","","","","","","","",""
"pit-instructions","54","624203","0.0-2.0-22.0-2.0-0.0","battery-v0.2","","""event"",""trial"",""time""
""fullscreenenter"",""1"",""2930""
","
","
","""event"",""trial"",""time""
""fullscreenenter"",""1"",""2930""
","
","","[{""page_index"":0,""viewing_time"":892.2000000476837}]","893","","","","","","","","","","","","","","","","","","","","","","","",""
"pit-comprehension","55","630261","0.0-2.0-22.1-0.1","battery-v0.2","","""event"",""trial"",""time""
""fullscreenenter"",""1"",""2930""
","
","
","""event"",""trial"",""time""
""fullscreenenter"",""1"",""2930""
","
","","","6052.299999952316","[""0""]","0","19","3167","1584","","","","","","","","","","","","","","","","","","",""
"pit-instructions","56","631864","0.0-2.0-22.1-1.1","battery-v0.2","","""event"",""trial"",""time""
""fullscreenenter"",""1"",""2930""
","
","
","""event"",""trial"",""time""
""fullscreenenter"",""1"",""2930""
","
","","[{""page_index"":0,""viewing_time"":1574.7000000476837}]","1575.2000000476837","","","","","","","","","","","","","","","","","","","","","","","",""
"pit-comprehension","57","640024","0.0-2.0-23.0-0.0","battery-v0.2","","""event"",""trial"",""time""
""fullscreenenter"",""1"",""2930""
","
","
","""event"",""trial"",""time""
""fullscreenenter"",""1"",""2930""
","
","","","8153.899999976158","[""True""]","0","19","3167","1584","","","","","","","","","","","","","","","","","","",""
"pit-instructions","58","641337","0.0-2.0-23.0-1.0","battery-v0.2","","""event"",""trial"",""time""
""fullscreenenter"",""1"",""2930""
","
","
","""event"",""trial"",""time""
""fullscreenenter"",""1"",""2930""
","
","","[{""page_index"":0,""viewing_time"":1281.2000000476837}]","1281.4000000953674","","","","","","","","","","","","","","","","","","","","","","","",""
"pit-comprehension","59","648485","0.0-2.0-24.0-0.0","battery-v0.2","","""event"",""trial"",""time""
""fullscreenenter"",""1"",""2930""
","
","
","""event"",""trial"",""time""
""fullscreenenter"",""1"",""2930""
","
","","","7145.099999904633","[""True""]","0","19","3167","1584","","","","","","","","","","","","","","","","","","",""
"pit-instructions","60","649849","0.0-2.0-24.0-1.0","battery-v0.2","","""event"",""trial"",""time""
""fullscreenenter"",""1"",""2930""
","
","
","""event"",""trial"",""time""
""fullscreenenter"",""1"",""2930""
","
","","[{""page_index"":0,""viewing_time"":1326.8000000715256}]","1327.3000000715256","","","","","","","","","","","","","","","","","","","","","","","",""
"pit-comprehension","61","656195","0.0-2.0-25.0-0.0","battery-v0.2","","""event"",""trial"",""time""
""fullscreenenter"",""1"",""2930""
","
","
","""event"",""trial"",""time""
""fullscreenenter"",""1"",""2930""
","
","","","6339","[""True""]","0","19","3167","1584","","","","","","","","","","","","","","","","","","",""
"pit-instructions","62","658726","0.0-2.0-25.0-1.0","battery-v0.2","","""event"",""trial"",""time""
""fullscreenenter"",""1"",""2930""
","
","
","""event"",""trial"",""time""
""fullscreenenter"",""1"",""2930""
","
","","[{""page_index"":0,""viewing_time"":2494.899999976158}]","2495.600000023842","","","","","","","","","","","","","","","","","","","","","","","",""
"pit-comprehension","63","664677","0.0-2.0-26.0-0.0","battery-v0.2","","""event"",""trial"",""time""
""fullscreenenter"",""1"",""2930""
","
","
","""event"",""trial"",""time""
""fullscreenenter"",""1"",""2930""
","
","","","5945.5","[""False""]","0","19","3167","1584","","","","","","","","","","","","","","","","","","",""
"pit-instructions","64","666380","0.0-2.0-26.0-1.0","battery-v0.2","","""event"",""trial"",""time""
""fullscreenenter"",""1"",""2930""
","
","
","""event"",""trial"",""time""
""fullscreenenter"",""1"",""2930""
","
","","[{""page_index"":0,""viewing_time"":1679.7000000476837}]","1680.2000000476837","","","","","","","","","","","","","","","","","","","","","","","",""
"pit-instructions","65","681999","0.0-3.0","battery-v0.2","","""event"",""trial"",""time""
""fullscreenenter"",""1"",""2930""
","
","
","""event"",""trial"",""time""
""fullscreenenter"",""1"",""2930""
","
","","[{""page_index"":0,""viewing_time"":4244.5},{""page_index"":1,""viewing_time"":5339.899999976158},{""page_index"":2,""viewing_time"":6030.100000023842}]","15615.200000047684","","","","","","","","","","","","","","","","","","","","","","","",""
"pit-trial","66","685476","0.0-4.0","battery-v0.2","","""event"",""trial"",""time""
""fullscreenenter"",""1"",""2930""
","
","
","""event"",""trial"",""time""
""fullscreenenter"",""1"",""2930""
","
","","","616.2999999523163","","","19","3167","1584","&#9730;","elianto","#3366ff99"," "," ","1","+10","[1468.1000000238419]","1","1","","","3167","1","1","1","win","go","0"
"pit-trial","67","689626","0.0-5.0","battery-v0.2","","""event"",""trial"",""time""
""fullscreenenter"",""1"",""2930""
","
","
","""event"",""trial"",""time""
""fullscreenenter"",""1"",""2930""
","
","","","1287.6000000238419","","","19","3167","1584","&#9733;","elianto","#3366ff99","-1"," ","0","0","[2140.5]","1","1","","","3167","2","2","2","win","no-go","0"
"pit-trial","68","693743","0.0-6.0","battery-v0.2","","""event"",""trial"",""time""
""fullscreenenter"",""1"",""2930""
","
","
","""event"",""trial"",""time""
""fullscreenenter"",""1"",""2930""
","
","","","1254.7999999523163","","","19","3167","1584","&#9728;","elianto","#f73b6a7A","-1"," ","0","-10","[2107.5]","1","1","","","3167","3","0","4","lose","no-go","0"
"pit-trial","69","697533","0.0-7.0","battery-v0.2","","""event"",""trial"",""time""
""fullscreenenter"",""1"",""2930""
","
","
","""event"",""trial"",""time""
""fullscreenenter"",""1"",""2930""
","
","","","920.2000000476837","","","19","3167","1584","&#9752;","elianto","#f73b6a7A"," "," ","1","0","[1770.6000000238419]","1","1","","","3167","4","3","3","lose","go","0"
"pit-trial","70","701995","0.0-8.0","battery-v0.2","","""event"",""trial"",""time""
""fullscreenenter"",""1"",""2930""
","
","
","""event"",""trial"",""time""
""fullscreenenter"",""1"",""2930""
","
","","","1592.7999999523163","","","19","3167","1584","&#9728;","elianto","#f73b6a7A","-1"," ","0","-10","[2445.7999999523163]","1","1","","","3167","5","0","4","lose","no-go","0"
"pit-trial","71","706301","0.0-9.0","battery-v0.2","","""event"",""trial"",""time""
""fullscreenenter"",""1"",""2930""
","
","
","""event"",""trial"",""time""
""fullscreenenter"",""1"",""2930""
","
","","","1435.5","","","19","3167","1584","&#9752;","elianto","#f73b6a7A"," "," ","1","0","[2286.600000023842]","1","1","","","3167","6","3","3","lose","go","0"
"pit-trial","72","709973","0.0-10.0","battery-v0.2","","""event"",""trial"",""time""
""fullscreenenter"",""1"",""2930""
","
","
","""event"",""trial"",""time""
""fullscreenenter"",""1"",""2930""
","
","","","796.2999999523163","","","19","3167","1584","&#9733;","elianto","#3366ff99","-1"," ","0","0","[1656]","1","1","","","3167","7","2","2","win","no-go","0"
"pit-trial","73","713970","0.0-11.0","battery-v0.2","","""event"",""trial"",""time""
""fullscreenenter"",""1"",""2930""
","
","
","""event"",""trial"",""time""
""fullscreenenter"",""1"",""2930""
","
","","","1141.1000000238419","","","19","3167","1584","&#9730;","elianto","#3366ff99"," "," ","1","+10","[1993.8999999761581]","1","1","","","3167","8","1","1","win","go","0"
"pit-trial","74","718826","0.0-12.0","battery-v0.2","","""event"",""trial"",""time""
""fullscreenenter"",""1"",""2930""
","
","
","""event"",""trial"",""time""
""fullscreenenter"",""1"",""2930""
","
","","","-1","","","19","3167","1584","&#9728;","elianto","#f73b6a7A","-1","-1","1","0","[]","0","1","","","3167","9","0","4","lose","no-go","0"
"pit-trial","75","722702","0.0-13.0","battery-v0.2","","""event"",""trial"",""time""
""fullscreenenter"",""1"",""2930""
","
","
","""event"",""trial"",""time""
""fullscreenenter"",""1"",""2930""
","
","","","1019.3999999761581","","","19","3167","1584","&#9752;","elianto","#f73b6a7A"," "," ","1","0","[1870.6000000238419]","1","1","","","3167","10","3","3","lose","go","0"
"pit-trial","76","726725","0.0-14.0","battery-v0.2","","""event"",""trial"",""time""
""fullscreenenter"",""1"",""2930""
","
","
","""event"",""trial"",""time""
""fullscreenenter"",""1"",""2930""
","
","","","1168.5","","","19","3167","1584","&#9730;","elianto","#3366ff99"," "," ","1","+10","[2018.6000000238419]","1","1","","","3167","11","1","1","win","go","0"
"pit-trial","77","730276","0.0-15.0","battery-v0.2","","""event"",""trial"",""time""
""fullscreenenter"",""1"",""2930""
","
","
","""event"",""trial"",""time""
""fullscreenenter"",""1"",""2930""
","
","","","694.5","","","19","3167","1584","&#9733;","elianto","#3366ff99","-1"," ","0","+10","[1546]","1","1","","","3167","12","2","2","win","no-go","1"
"pit-trial","78","733869","0.0-16.0","battery-v0.2","","""event"",""trial"",""time""
""fullscreenenter"",""1"",""2930""
","
","
","""event"",""trial"",""time""
""fullscreenenter"",""1"",""2930""
","
","","","736.3999999761581","","","19","3167","1584","&#9752;","elianto","#f73b6a7A"," "," ","1","0","[1587]","1","1","","","3167","13","3","3","lose","go","0"
"pit-trial","79","738725","0.0-17.0","battery-v0.2","","""event"",""trial"",""time""
""fullscreenenter"",""1"",""2930""
","
","
","""event"",""trial"",""time""
""fullscreenenter"",""1"",""2930""
","
","","","-1","","","19","3167","1584","&#9728;","elianto","#f73b6a7A","-1","-1","1","0","[]","0","1","","","3167","14","0","4","lose","no-go","0"
"pit-trial","80","742226","0.0-18.0","battery-v0.2","","""event"",""trial"",""time""
""fullscreenenter"",""1"",""2930""
","
","
","""event"",""trial"",""time""
""fullscreenenter"",""1"",""2930""
","
","","","645","","","19","3167","1584","&#9730;","elianto","#3366ff99"," "," ","1","+10","[1495.2000000476837]","1","1","","","3167","15","1","1","win","go","0"
"pit-trial","81","745736","0.0-19.0","battery-v0.2","","""event"",""trial"",""time""
""fullscreenenter"",""1"",""2930""
","
","
","""event"",""trial"",""time""
""fullscreenenter"",""1"",""2930""
","
","","","653.6000000238419","","","19","3167","1584","&#9733;","elianto","#3366ff99","-1"," ","0","0","[1504.8000000715256]","1","1","","","3167","16","2","2","win","no-go","0"
"pit-trial","82","749427","0.0-20.0","battery-v0.2","","""event"",""trial"",""time""
""fullscreenenter"",""1"",""2930""
","
","
","""event"",""trial"",""time""
""fullscreenenter"",""1"",""2930""
","
","","","835.3999999761581","","","19","3167","1584","&#9730;","elianto","#3366ff99"," "," ","1","+10","[1686.2000000476837]","1","1","","","3167","17","1","1","win","go","0"
"pit-trial","83","752920","0.0-21.0","battery-v0.2","","""event"",""trial"",""time""
""fullscreenenter"",""1"",""2930""
","
","
","""event"",""trial"",""time""
""fullscreenenter"",""1"",""2930""
","
","","","635.4000000953674","","","19","3167","1584","&#9733;","elianto","#3366ff99","-1"," ","0","0","[1487.2000000476837]","1","1","","","3167","18","2","2","win","no-go","0"
"pit-trial","84","756763","0.0-22.0","battery-v0.2","","""event"",""trial"",""time""
""fullscreenenter"",""1"",""2930""
","
","
","""event"",""trial"",""time""
""fullscreenenter"",""1"",""2930""
","
","","","988.8000000715256","","","19","3167","1584","&#9752;","elianto","#f73b6a7A"," "," ","1","0","[1839]","1","1","","","3167","19","3","3","lose","go","0"
"pit-trial","85","761619","0.0-23.0","battery-v0.2","","""event"",""trial"",""time""
""fullscreenenter"",""1"",""2930""
","
","
","""event"",""trial"",""time""
""fullscreenenter"",""1"",""2930""
","
","","","-1","","","19","3167","1584","&#9728;","elianto","#f73b6a7A","-1","-1","1","0","[]","0","1","","","3167","20","0","4","lose","no-go","0"
"pit-instructions","86","773389","0.0-24.0","battery-v0.2","","""event"",""trial"",""time""
""fullscreenenter"",""1"",""2930""
","
","
","""event"",""trial"",""time""
""fullscreenenter"",""1"",""2930""
","
","","[{""page_index"":0,""viewing_time"":5570.799999952316},{""page_index"":1,""viewing_time"":6195.200000047684}]","11766.899999976158","","","","","","","","","","","","","","","","","","","","","","","",""
"pit-trial","87","777252","0.0-25.0","battery-v0.2","","""event"",""trial"",""time""
""fullscreenenter"",""1"",""2930""
","
","
","""event"",""trial"",""time""
""fullscreenenter"",""1"",""2930""
","
","","","1003.2000000476837","","","19","3167","1584","m","elianto","#f73b6a7A"," "," ","1","0","[1853.6000000238419]","1","2","","","3167","21","0","3","lose","go","0"
"pit-trial","88","781154","0.0-26.0","battery-v0.2","","""event"",""trial"",""time""
""fullscreenenter"",""1"",""2930""
","
","
","""event"",""trial"",""time""
""fullscreenenter"",""1"",""2930""
","
","","","1044","","","19","3167","1584","r","elianto","#3366ff99","-1"," ","0","+10","[1896.1000000238419]","1","2","","","3167","22","1","2","win","no-go","1"
"pit-trial","89","784936","0.0-27.0","battery-v0.2","","""event"",""trial"",""time""
""fullscreenenter"",""1"",""2930""
","
","
","""event"",""trial"",""time""
""fullscreenenter"",""1"",""2930""
","
","","","913.8999999761581","","","19","3167","1584","h","elianto","#f73b6a7A","-1"," ","0","0","[1764.3999999761581]","1","2","","","3167","23","3","4","lose","no-go","1"
"pit-trial","90","788448","0.0-28.0","battery-v0.2","","""event"",""trial"",""time""
""fullscreenenter"",""1"",""2930""
","
","
","""event"",""trial"",""time""
""fullscreenenter"",""1"",""2930""
","
","","","651.6000000238419","","","19","3167","1584","y","elianto","#f73b6a7A"," "," ","1","0","[1503.1000000238419]","1","2","","","3167","24","2","3","lose","go","0"
"pit-trial","91","792179","0.0-29.0","battery-v0.2","","""event"",""trial"",""time""
""fullscreenenter"",""1"",""2930""
","
","
","""event"",""trial"",""time""
""fullscreenenter"",""1"",""2930""
","
","","","866.3999999761581","","","19","3167","1584","y","elianto","#f73b6a7A"," "," ","1","0","[1719.1000000238419]","1","2","","","3167","25","2","3","lose","go","0"
"pit-trial","92","795931","0.0-30.0","battery-v0.2","","""event"",""trial"",""time""
""fullscreenenter"",""1"",""2930""
","
","
","""event"",""trial"",""time""
""fullscreenenter"",""1"",""2930""
","
","","","880.8000000715256","","","19","3167","1584","h","elianto","#f73b6a7A","-1"," ","0","-10","[1732.6000000238419]","1","2","","","3167","26","3","4","lose","no-go","0"
"pit-trial","93","799687","0.0-31.0","battery-v0.2","","""event"",""trial"",""time""
""fullscreenenter"",""1"",""2930""
","
","
","""event"",""trial"",""time""
""fullscreenenter"",""1"",""2930""
","
","","","887.1999999284744","","","19","3167","1584","r","elianto","#3366ff99","-1"," ","0","0","[1739.3000000715256]","1","2","","","3167","27","1","2","win","no-go","0"
"pit-trial","94","803420","0.0-32.0","battery-v0.2","","""event"",""trial"",""time""
""fullscreenenter"",""1"",""2930""
","
","
","""event"",""trial"",""time""
""fullscreenenter"",""1"",""2930""
","
","","","866","","","19","3167","1584","m","elianto","#f73b6a7A"," "," ","1","-10","[1716.3999999761581]","1","2","","","3167","28","0","3","lose","go","1"
"pit-trial","95","807204","0.0-33.0","battery-v0.2","","""event"",""trial"",""time""
""fullscreenenter"",""1"",""2930""
","
","
","""event"",""trial"",""time""
""fullscreenenter"",""1"",""2930""
","
","","","925.7999999523163","","","19","3167","1584","r","elianto","#3366ff99","-1"," ","0","0","[1779]","1","2","","","3167","29","1","2","win","no-go","0"
"pit-trial","96","812061","0.0-34.0","battery-v0.2","","""event"",""trial"",""time""
""fullscreenenter"",""1"",""2930""
","
","
","""event"",""trial"",""time""
""fullscreenenter"",""1"",""2930""
","
","","","-1","","","19","3167","1584","m","elianto","#f73b6a7A"," ","-1","0","-10","[]","0","2","","","3167","30","0","3","lose","go","0"
"pit-trial","97","816319","0.0-35.0","battery-v0.2","","""event"",""trial"",""time""
""fullscreenenter"",""1"",""2930""
","
","
","""event"",""trial"",""time""
""fullscreenenter"",""1"",""2930""
","
","","","1402.3999999761581","","","19","3167","1584","y","elianto","#f73b6a7A"," "," ","1","-10","[2252.7999999523163]","1","2","","","3167","31","2","3","lose","go","1"
"pit-trial","98","821175","0.0-36.0","battery-v0.2","","""event"",""trial"",""time""
""fullscreenenter"",""1"",""2930""
","
","
","""event"",""trial"",""time""
""fullscreenenter"",""1"",""2930""
","
","","","-1","","","19","3167","1584","h","elianto","#f73b6a7A","-1","-1","1","0","[]","0","2","","","3167","32","3","4","lose","no-go","0"
"pit-trial","99","825554","0.0-37.0","battery-v0.2","","""event"",""trial"",""time""
""fullscreenenter"",""1"",""2930""
","
","
","""event"",""trial"",""time""
""fullscreenenter"",""1"",""2930""
","
","","","1523.1000000238419","","","19","3167","1584","m","elianto","#f73b6a7A"," "," ","1","-10","[2373.3000000715256]","1","2","","","3167","33","0","3","lose","go","1"
"pit-trial","100","829770","0.0-38.0","battery-v0.2","","""event"",""trial"",""time""
""fullscreenenter"",""1"",""2930""
","
","
","""event"",""trial"",""time""
""fullscreenenter"",""1"",""2930""
","
","","","1360","","","19","3167","1584","h","elianto","#f73b6a7A","-1"," ","0","-10","[2210.7000000476837]","1","2","","","3167","34","3","4","lose","no-go","0"
"pit-trial","101","833999","0.0-39.0","battery-v0.2","","""event"",""trial"",""time""
""fullscreenenter"",""1"",""2930""
","
","
","""event"",""trial"",""time""
""fullscreenenter"",""1"",""2930""
","
","","","1375.6000000238419","","","19","3167","1584","y","elianto","#f73b6a7A"," "," ","1","0","[2226.100000023842]","1","2","","","3167","35","2","3","lose","go","0"
"pit-trial","102","838855","0.0-40.0","battery-v0.2","","""event"",""trial"",""time""
""fullscreenenter"",""1"",""2930""
","
","
","""event"",""trial"",""time""
""fullscreenenter"",""1"",""2930""
","
","","","-1","","","19","3167","1584","r","elianto","#3366ff99","-1","-1","1","+10","[]","0","2","","","3167","36","1","2","win","no-go","0"
"pit-trial","103","843710","0.0-41.0","battery-v0.2","","""event"",""trial"",""time""
""fullscreenenter"",""1"",""2930""
","
","
","""event"",""trial"",""time""
""fullscreenenter"",""1"",""2930""
","
","","","-1","","","19","3167","1584","m","elianto","#f73b6a7A"," ","-1","0","0","[]","0","2","","","3167","37","0","3","lose","go","1"
"pit-trial","104","848566","0.0-42.0","battery-v0.2","","""event"",""trial"",""time""
""fullscreenenter"",""1"",""2930""
","
","
","""event"",""trial"",""time""
""fullscreenenter"",""1"",""2930""
","
","","","-1","","","19","3167","1584","h","elianto","#f73b6a7A","-1","-1","1","0","[]","0","2","","","3167","38","3","4","lose","no-go","0"
"pit-trial","105","853423","0.0-43.0","battery-v0.2","","""event"",""trial"",""time""
""fullscreenenter"",""1"",""2930""
","
","
","""event"",""trial"",""time""
""fullscreenenter"",""1"",""2930""
","
","","","-1","","","19","3167","1584","r","elianto","#3366ff99","-1","-1","1","+10","[]","0","2","","","3167","39","1","2","win","no-go","0"
"pit-trial","106","856957","0.0-44.0","battery-v0.2","","""event"",""trial"",""time""
""fullscreenenter"",""1"",""2930""
","
","
","""event"",""trial"",""time""
""fullscreenenter"",""1"",""2930""
","
","","","679.1999999284744","","","19","3167","1584","y","elianto","#f73b6a7A"," "," ","1","0","[1529.5999999046326]","1","2","","","3167","40","2","3","lose","go","0"
"pit-trial","107","861811","0.0-45.0","battery-v0.2","","""event"",""trial"",""time""
""fullscreenenter"",""1"",""2930""
","
","
","""event"",""trial"",""time""
""fullscreenenter"",""1"",""2930""
","
","","","-1","","","19","3167","1584","r","elianto","#3366ff99","-1","-1","1","+10","[]","0","2","","","3167","41","1","2","win","no-go","0"
"pit-trial","108","865425","0.0-46.0","battery-v0.2","","""event"",""trial"",""time""
""fullscreenenter"",""1"",""2930""
","
","
","""event"",""trial"",""time""
""fullscreenenter"",""1"",""2930""
","
","","","758.2999999523163","","","19","3167","1584","y","elianto","#f73b6a7A"," "," ","1","0","[1610.3000000715256]","1","2","","","3167","42","2","3","lose","go","0"
"pit-trial","109","870281","0.0-47.0","battery-v0.2","","""event"",""trial"",""time""
""fullscreenenter"",""1"",""2930""
","
","
","""event"",""trial"",""time""
""fullscreenenter"",""1"",""2930""
","
","","","-1","","","19","3167","1584","m","elianto","#f73b6a7A"," ","-1","0","0","[]","0","2","","","3167","43","0","3","lose","go","1"
"pit-trial","110","875136","0.0-48.0","battery-v0.2","","""event"",""trial"",""time""
""fullscreenenter"",""1"",""2930""
","
","
","""event"",""trial"",""time""
""fullscreenenter"",""1"",""2930""
","
","","","-1","","","19","3167","1584","h","elianto","#f73b6a7A","-1","-1","1","0","[]","0","2","","","3167","44","3","4","lose","no-go","0"
"pit-trial","111","879991","0.0-49.0","battery-v0.2","","""event"",""trial"",""time""
""fullscreenenter"",""1"",""2930""
","
","
","""event"",""trial"",""time""
""fullscreenenter"",""1"",""2930""
","
","","","-1","","","19","3167","1584","m","elianto","#f73b6a7A"," ","-1","0","-10","[]","0","2","","","3167","45","0","3","lose","go","0"
"pit-trial","112","884845","0.0-50.0","battery-v0.2","","""event"",""trial"",""time""
""fullscreenenter"",""1"",""2930""
","
","
","""event"",""trial"",""time""
""fullscreenenter"",""1"",""2930""
","
","","","-1","","","19","3167","1584","h","elianto","#f73b6a7A","-1","-1","1","0","[]","0","2","","","3167","46","3","4","lose","no-go","0"
"pit-trial","113","889699","0.0-51.0","battery-v0.2","","""event"",""trial"",""time""
""fullscreenenter"",""1"",""2930""
","
","
","""event"",""trial"",""time""
""fullscreenenter"",""1"",""2930""
","
","","","-1","","","19","3167","1584","r","elianto","#3366ff99","-1","-1","1","+10","[]","0","2","","","3167","47","1","2","win","no-go","0"
"pit-trial","114","893064","0.0-52.0","battery-v0.2","","""event"",""trial"",""time""
""fullscreenenter"",""1"",""2930""
","
","
","""event"",""trial"",""time""
""fullscreenenter"",""1"",""2930""
","
","","","509.1999999284744","","","19","3167","1584","y","elianto","#f73b6a7A"," "," ","1","0","[1360.5]","1","2","","","3167","48","2","3","lose","go","0"
"pit-trial","115","896484","0.0-53.0","battery-v0.2","","""event"",""trial"",""time""
""fullscreenenter"",""1"",""2930""
","
","
","""event"",""trial"",""time""
""fullscreenenter"",""1"",""2930""
","
","","","565","","","19","3167","1584","y","elianto","#f73b6a7A"," "," ","1","0","[1415.6999999284744]","1","2","","","3167","49","2","3","lose","go","0"
"pit-trial","116","901339","0.0-54.0","battery-v0.2","","""event"",""trial"",""time""
""fullscreenenter"",""1"",""2930""
","
","
","""event"",""trial"",""time""
""fullscreenenter"",""1"",""2930""
","
","","","-1","","","19","3167","1584","h","elianto","#f73b6a7A","-1","-1","1","-10","[]","0","2","","","3167","50","3","4","lose","no-go","1"
"pit-trial","117","906193","0.0-55.0","battery-v0.2","","""event"",""trial"",""time""
""fullscreenenter"",""1"",""2930""
","
","
","""event"",""trial"",""time""
""fullscreenenter"",""1"",""2930""
","
","","","-1","","","19","3167","1584","m","elianto","#f73b6a7A"," ","-1","0","-10","[]","0","2","","","3167","51","0","3","lose","go","0"
"pit-trial","118","911049","0.0-56.0","battery-v0.2","","""event"",""trial"",""time""
""fullscreenenter"",""1"",""2930""
","
","
","""event"",""trial"",""time""
""fullscreenenter"",""1"",""2930""
","
","","","-1","","","19","3167","1584","r","elianto","#3366ff99","-1","-1","1","+10","[]","0","2","","","3167","52","1","2","win","no-go","0"
"pit-trial","119","915911","0.0-57.0","battery-v0.2","","""event"",""trial"",""time""
""fullscreenenter"",""1"",""2930""
","
","
","""event"",""trial"",""time""
""fullscreenenter"",""1"",""2930""
","
","","","-1","","","19","3167","1584","h","elianto","#f73b6a7A","-1","-1","1","0","[]","0","2","","","3167","53","3","4","lose","no-go","0"
"pit-trial","120","919624","0.0-58.0","battery-v0.2","","""event"",""trial"",""time""
""fullscreenenter"",""1"",""2930""
","
","
","""event"",""trial"",""time""
""fullscreenenter"",""1"",""2930""
","
","","","857.8000000715256","","","19","3167","1584","y","elianto","#f73b6a7A"," "," ","1","0","[1708.3999999761581]","1","2","","","3167","54","2","3","lose","go","0"
"pit-trial","121","924478","0.0-59.0","battery-v0.2","","""event"",""trial"",""time""
""fullscreenenter"",""1"",""2930""
","
","
","""event"",""trial"",""time""
""fullscreenenter"",""1"",""2930""
","
","","","-1","","","19","3167","1584","r","elianto","#3366ff99","-1","-1","1","+10","[]","0","2","","","3167","55","1","2","win","no-go","0"
"pit-trial","122","929335","0.0-60.0","battery-v0.2","","""event"",""trial"",""time""
""fullscreenenter"",""1"",""2930""
","
","
","""event"",""trial"",""time""
""fullscreenenter"",""1"",""2930""
","
","","","-1","","","19","3167","1584","m","elianto","#f73b6a7A"," ","-1","0","0","[]","0","2","","","3167","56","0","3","lose","go","1"
"pit-trial","123","934191","0.0-61.0","battery-v0.2","","""event"",""trial"",""time""
""fullscreenenter"",""1"",""2930""
","
","
","""event"",""trial"",""time""
""fullscreenenter"",""1"",""2930""
","
","","","-1","","","19","3167","1584","m","elianto","#f73b6a7A"," ","-1","0","-10","[]","0","2","","","3167","57","0","3","lose","go","0"
"pit-trial","124","939045","0.0-62.0","battery-v0.2","","""event"",""trial"",""time""
""fullscreenenter"",""1"",""2930""
","
","
","""event"",""trial"",""time""
""fullscreenenter"",""1"",""2930""
","
","","","-1","","","19","3167","1584","h","elianto","#f73b6a7A","-1","-1","1","0","[]","0","2","","","3167","58","3","4","lose","no-go","0"
"pit-trial","125","943231","0.0-63.0","battery-v0.2","","""event"",""trial"",""time""
""fullscreenenter"",""1"",""2930""
","
","
","""event"",""trial"",""time""
""fullscreenenter"",""1"",""2930""
","
","","","1329.6000000238419","","","19","3167","1584","z","elianto","#3366ff99"," "," ","1","0","[2181.600000023842]","1","2","","","3167","59","4","1","win","go","1"
"pit-trial","126","948085","0.0-64.0","battery-v0.2","","""event"",""trial"",""time""
""fullscreenenter"",""1"",""2930""
","
","
","""event"",""trial"",""time""
""fullscreenenter"",""1"",""2930""
","
","","","-1","","","19","3167","1584","y","elianto","#f73b6a7A"," ","-1","0","-10","[]","0","2","","","3167","60","2","3","lose","go","0"
"pit-trial","127","951765","0.0-65.0","battery-v0.2","","""event"",""trial"",""time""
""fullscreenenter"",""1"",""2930""
","
","
","""event"",""trial"",""time""
""fullscreenenter"",""1"",""2930""
","
","","","824.5","","","19","3167","1584","y","elianto","#f73b6a7A"," "," ","1","0","[1675.3999999761581]","1","2","","","3167","61","2","3","lose","go","0"
"pit-trial","128","956620","0.0-66.0","battery-v0.2","","""event"",""trial"",""time""
""fullscreenenter"",""1"",""2930""
","
","
","""event"",""trial"",""time""
""fullscreenenter"",""1"",""2930""
","
","","","-1","","","19","3167","1584","r","elianto","#3366ff99","-1","-1","1","+10","[]","0","2","","","3167","62","1","2","win","no-go","0"
"pit-trial","129","961475","0.0-67.0","battery-v0.2","","""event"",""trial"",""time""
""fullscreenenter"",""1"",""2930""
","
","
","""event"",""trial"",""time""
""fullscreenenter"",""1"",""2930""
","
","","","-1","","","19","3167","1584","h","elianto","#f73b6a7A","-1","-1","1","0","[]","0","2","","","3167","63","3","4","lose","no-go","0"
"pit-trial","130","965488","0.0-68.0","battery-v0.2","","""event"",""trial"",""time""
""fullscreenenter"",""1"",""2930""
","
","
","""event"",""trial"",""time""
""fullscreenenter"",""1"",""2930""
","
","","","1156.5","","","19","3167","1584","z","elianto","#3366ff99"," "," ","1","0","[2008.9000000953674]","1","2","","","3167","64","4","1","win","go","1"
"pit-trial","131","970345","0.0-69.0","battery-v0.2","","""event"",""trial"",""time""
""fullscreenenter"",""1"",""2930""
","
","
","""event"",""trial"",""time""
""fullscreenenter"",""1"",""2930""
","
","","","-1","","","19","3167","1584","z","elianto","#3366ff99"," ","-1","0","+10","[]","0","2","","","3167","65","4","1","win","go","1"
"pit-trial","132","975200","0.0-70.0","battery-v0.2","","""event"",""trial"",""time""
""fullscreenenter"",""1"",""2930""
","
","
","""event"",""trial"",""time""
""fullscreenenter"",""1"",""2930""
","
","","","-1","","","19","3167","1584","h","elianto","#f73b6a7A","-1","-1","1","0","[]","0","2","","","3167","66","3","4","lose","no-go","0"
"pit-trial","133","979781","0.0-71.0","battery-v0.2","","""event"",""trial"",""time""
""fullscreenenter"",""1"",""2930""
","
","
","""event"",""trial"",""time""
""fullscreenenter"",""1"",""2930""
","
","","","1727.5","","","19","3167","1584","c","elianto","#3366ff99","-1"," ","0","+10","[2577.600000023842]","1","2","","","3167","67","5","2","win","no-go","1"
"pit-trial","134","984635","0.0-72.0","battery-v0.2","","""event"",""trial"",""time""
""fullscreenenter"",""1"",""2930""
","
","
","""event"",""trial"",""time""
""fullscreenenter"",""1"",""2930""
","
","","","-1","","","19","3167","1584","r","elianto","#3366ff99","-1","-1","1","+10","[]","0","2","","","3167","68","1","2","win","no-go","0"
"pit-trial","135","989490","0.0-73.0","battery-v0.2","","""event"",""trial"",""time""
""fullscreenenter"",""1"",""2930""
","
","
","""event"",""trial"",""time""
""fullscreenenter"",""1"",""2930""
","
","","","-1","","","19","3167","1584","r","elianto","#3366ff99","-1","-1","1","+10","[]","0","2","","","3167","69","1","2","win","no-go","0"
"pit-trial","136","993157","0.0-74.0","battery-v0.2","","""event"",""trial"",""time""
""fullscreenenter"",""1"",""2930""
","
","
","""event"",""trial"",""time""
""fullscreenenter"",""1"",""2930""
","
","","","811.3000000715256","","","19","3167","1584","y","elianto","#f73b6a7A"," "," ","1","0","[1661.8000000715256]","1","2","","","3167","70","2","3","lose","go","0"
"pit-trial","137","998014","0.0-75.0","battery-v0.2","","""event"",""trial"",""time""
""fullscreenenter"",""1"",""2930""
","
","
","""event"",""trial"",""time""
""fullscreenenter"",""1"",""2930""
","
","","","-1","","","19","3167","1584","z","elianto","#3366ff99"," ","-1","0","0","[]","0","2","","","3167","71","4","1","win","go","0"
"pit-trial","138","1001635","0.0-76.0","battery-v0.2","","""event"",""trial"",""time""
""fullscreenenter"",""1"",""2930""
","
","
","""event"",""trial"",""time""
""fullscreenenter"",""1"",""2930""
","
","","","764.5","","","19","3167","1584","c","elianto","#3366ff99","-1"," ","0","+10","[1616.3999999761581]","1","2","","","3167","72","5","2","win","no-go","1"
"pit-trial","139","1006492","0.0-77.0","battery-v0.2","","""event"",""trial"",""time""
""fullscreenenter"",""1"",""2930""
","
","
","""event"",""trial"",""time""
""fullscreenenter"",""1"",""2930""
","
","","","-1","","","19","3167","1584","h","elianto","#f73b6a7A","-1","-1","1","-10","[]","0","2","","","3167","73","3","4","lose","no-go","1"
"pit-trial","140","1011348","0.0-78.0","battery-v0.2","","""event"",""trial"",""time""
""fullscreenenter"",""1"",""2930""
","
","
","""event"",""trial"",""time""
""fullscreenenter"",""1"",""2930""
","
","","","-1","","","19","3167","1584","z","elianto","#3366ff99"," ","-1","0","0","[]","0","2","","","3167","74","4","1","win","go","0"
"pit-trial","141","1016202","0.0-79.0","battery-v0.2","","""event"",""trial"",""time""
""fullscreenenter"",""1"",""2930""
","
","
","""event"",""trial"",""time""
""fullscreenenter"",""1"",""2930""
","
","","","-1","","","19","3167","1584","r","elianto","#3366ff99","-1","-1","1","+10","[]","0","2","","","3167","75","1","2","win","no-go","0"
"pit-trial","142","1020735","0.0-80.0","battery-v0.2","","""event"",""trial"",""time""
""fullscreenenter"",""1"",""2930""
","
","
","""event"",""trial"",""time""
""fullscreenenter"",""1"",""2930""
","
","","","1677.7000000476837","","","19","3167","1584","c","elianto","#3366ff99","-1"," ","0","0","[2528.899999976158]","1","2","","","3167","76","5","2","win","no-go","0"
"pit-trial","143","1024769","0.0-81.0","battery-v0.2","","""event"",""trial"",""time""
""fullscreenenter"",""1"",""2930""
","
","
","""event"",""trial"",""time""
""fullscreenenter"",""1"",""2930""
","
","","","1176.8999999761581","","","19","3167","1584","z","elianto","#3366ff99"," "," ","1","0","[2028]","1","2","","","3167","77","4","1","win","go","1"
"pit-trial","144","1029625","0.0-82.0","battery-v0.2","","""event"",""trial"",""time""
""fullscreenenter"",""1"",""2930""
","
","
","""event"",""trial"",""time""
""fullscreenenter"",""1"",""2930""
","
","","","-1","","","19","3167","1584","z","elianto","#3366ff99"," ","-1","0","0","[]","0","2","","","3167","78","4","1","win","go","0"
"pit-trial","145","1034481","0.0-83.0","battery-v0.2","","""event"",""trial"",""time""
""fullscreenenter"",""1"",""2930""
","
","
","""event"",""trial"",""time""
""fullscreenenter"",""1"",""2930""
","
","","","-1","","","19","3167","1584","c","elianto","#3366ff99","-1","-1","1","+10","[]","0","2","","","3167","79","5","2","win","no-go","0"
"pit-trial","146","1039338","0.0-84.0","battery-v0.2","","""event"",""trial"",""time""
""fullscreenenter"",""1"",""2930""
","
","
","""event"",""trial"",""time""
""fullscreenenter"",""1"",""2930""
","
","","","-1","","","19","3167","1584","h","elianto","#f73b6a7A","-1","-1","1","0","[]","0","2","","","3167","80","3","4","lose","no-go","0"
"pit-trial","147","1044194","0.0-85.0","battery-v0.2","","""event"",""trial"",""time""
""fullscreenenter"",""1"",""2930""
","
","
","""event"",""trial"",""time""
""fullscreenenter"",""1"",""2930""
","
","","","-1","","","19","3167","1584","z","elianto","#3366ff99"," ","-1","0","0","[]","0","2","","","3167","81","4","1","win","go","0"
"pit-trial","148","1049050","0.0-86.0","battery-v0.2","","""event"",""trial"",""time""
""fullscreenenter"",""1"",""2930""
","
","
","""event"",""trial"",""time""
""fullscreenenter"",""1"",""2930""
","
","","","-1","","","19","3167","1584","c","elianto","#3366ff99","-1","-1","1","0","[]","0","2","","","3167","82","5","2","win","no-go","1"
"pit-trial","149","1053905","0.0-87.0","battery-v0.2","","""event"",""trial"",""time""
""fullscreenenter"",""1"",""2930""
","
","
","""event"",""trial"",""time""
""fullscreenenter"",""1"",""2930""
","
","","","-1","","","19","3167","1584","h","elianto","#f73b6a7A","-1","-1","1","0","[]","0","2","","","3167","83","3","4","lose","no-go","0"
"pit-trial","150","1057929","0.0-88.0","battery-v0.2","","""event"",""trial"",""time""
""fullscreenenter"",""1"",""2930""
","
","
","""event"",""trial"",""time""
""fullscreenenter"",""1"",""2930""
","
","","","1169.3999999761581","","","19","3167","1584","t","elianto","#f73b6a7A","-1"," ","0","-10","[2019.8999999761581]","1","2","","","3167","84","7","4","lose","no-go","0"
"pit-trial","151","1062783","0.0-89.0","battery-v0.2","","""event"",""trial"",""time""
""fullscreenenter"",""1"",""2930""
","
","
","""event"",""trial"",""time""
""fullscreenenter"",""1"",""2930""
","
","","","-1","","","19","3167","1584","t","elianto","#f73b6a7A","-1","-1","1","0","[]","0","2","","","3167","85","7","4","lose","no-go","0"
"pit-trial","152","1067637","0.0-90.0","battery-v0.2","","""event"",""trial"",""time""
""fullscreenenter"",""1"",""2930""
","
","
","""event"",""trial"",""time""
""fullscreenenter"",""1"",""2930""
","
","","","-1","","","19","3167","1584","z","elianto","#3366ff99"," ","-1","0","+10","[]","0","2","","","3167","86","4","1","win","go","1"
"pit-trial","153","1071687","0.0-91.0","battery-v0.2","","""event"",""trial"",""time""
""fullscreenenter"",""1"",""2930""
","
","
","""event"",""trial"",""time""
""fullscreenenter"",""1"",""2930""
","
","","","1194.6999999284744","","","19","3167","1584","b","elianto","#f73b6a7A"," "," ","1","-10","[2045.5]","1","2","","","3167","87","6","3","lose","go","1"
"pit-trial","154","1076542","0.0-92.0","battery-v0.2","","""event"",""trial"",""time""
""fullscreenenter"",""1"",""2930""
","
","
","""event"",""trial"",""time""
""fullscreenenter"",""1"",""2930""
","
","","","-1","","","19","3167","1584","c","elianto","#3366ff99","-1","-1","1","0","[3689.1999999284744]","1","2","","","3167","88","5","2","win","no-go","1"
"pit-trial","155","1081397","0.0-93.0","battery-v0.2","","""event"",""trial"",""time""
""fullscreenenter"",""1"",""2930""
","
","
","""event"",""trial"",""time""
""fullscreenenter"",""1"",""2930""
","
","","","-1","","","19","3167","1584","t","elianto","#f73b6a7A","-1","-1","1","-10","[]","0","2","","","3167","89","7","4","lose","no-go","1"
"pit-trial","156","1086253","0.0-94.0","battery-v0.2","","""event"",""trial"",""time""
""fullscreenenter"",""1"",""2930""
","
","
","""event"",""trial"",""time""
""fullscreenenter"",""1"",""2930""
","
","","","-1","","","19","3167","1584","z","elianto","#3366ff99"," ","-1","0","0","[]","0","2","","","3167","90","4","1","win","go","0"
"pit-trial","157","1089830","0.0-95.0","battery-v0.2","","""event"",""trial"",""time""
""fullscreenenter"",""1"",""2930""
","
","
","""event"",""trial"",""time""
""fullscreenenter"",""1"",""2930""
","
","","","722","","","19","3167","1584","c","elianto","#3366ff99","-1"," ","0","0","[1572.6999999284744]","1","2","","","3167","91","5","2","win","no-go","0"
"pit-trial","158","1094686","0.0-96.0","battery-v0.2","","""event"",""trial"",""time""
""fullscreenenter"",""1"",""2930""
","
","
","""event"",""trial"",""time""
""fullscreenenter"",""1"",""2930""
","
","","","-1","","","19","3167","1584","b","elianto","#f73b6a7A"," ","-1","0","-10","[]","0","2","","","3167","92","6","3","lose","go","0"
"pit-trial","159","1098310","0.0-97.0","battery-v0.2","","""event"",""trial"",""time""
""fullscreenenter"",""1"",""2930""
","
","
","""event"",""trial"",""time""
""fullscreenenter"",""1"",""2930""
","
","","","770.2000000476837","","","19","3167","1584","b","elianto","#f73b6a7A"," "," ","1","0","[1620.2000000476837]","1","2","","","3167","93","6","3","lose","go","0"
"pit-trial","160","1103164","0.0-98.0","battery-v0.2","","""event"",""trial"",""time""
""fullscreenenter"",""1"",""2930""
","
","
","""event"",""trial"",""time""
""fullscreenenter"",""1"",""2930""
","
","","","-1","","","19","3167","1584","c","elianto","#3366ff99","-1","-1","1","+10","[]","0","2","","","3167","94","5","2","win","no-go","0"
"pit-trial","161","1108033","0.0-99.0","battery-v0.2","","""event"",""trial"",""time""
""fullscreenenter"",""1"",""2930""
","
","
","""event"",""trial"",""time""
""fullscreenenter"",""1"",""2930""
","
","","","-1","","","19","3167","1584","t","elianto","#f73b6a7A","-1","-1","1","0","[]","0","2","","","3167","95","7","4","lose","no-go","0"
"pit-trial","162","1111983","0.0-100.0","battery-v0.2","","""event"",""trial"",""time""
""fullscreenenter"",""1"",""2930""
","
","
","""event"",""trial"",""time""
""fullscreenenter"",""1"",""2930""
","
","","","1089.2000000476837","","","19","3167","1584","f","elianto","#3366ff99"," "," ","1","+10","[1940.7999999523163]","1","2","","","3167","96","8","1","win","go","0"
"pit-trial","163","1116839","0.0-101.0","battery-v0.2","","""event"",""trial"",""time""
""fullscreenenter"",""1"",""2930""
","
","
","""event"",""trial"",""time""
""fullscreenenter"",""1"",""2930""
","
","","","-1","","","19","3167","1584","t","elianto","#f73b6a7A","-1","-1","1","0","[]","0","2","","","3167","97","7","4","lose","no-go","0"
"pit-trial","164","1120551","0.0-102.0","battery-v0.2","","""event"",""trial"",""time""
""fullscreenenter"",""1"",""2930""
","
","
","""event"",""trial"",""time""
""fullscreenenter"",""1"",""2930""
","
","","","857.3999999761581","","","19","3167","1584","f","elianto","#3366ff99"," "," ","1","0","[1707.4000000953674]","1","2","","","3167","98","8","1","win","go","1"
"pit-trial","165","1125408","0.0-103.0","battery-v0.2","","""event"",""trial"",""time""
""fullscreenenter"",""1"",""2930""
","
","
","""event"",""trial"",""time""
""fullscreenenter"",""1"",""2930""
","
","","","-1","","","19","3167","1584","c","elianto","#3366ff99","-1","-1","1","+10","[]","0","2","","","3167","99","5","2","win","no-go","0"
"pit-trial","166","1130075","0.0-104.0","battery-v0.2","","""event"",""trial"",""time""
""fullscreenenter"",""1"",""2930""
","
","
","""event"",""trial"",""time""
""fullscreenenter"",""1"",""2930""
","
","","","1812.3999999761581","","","19","3167","1584","b","elianto","#f73b6a7A"," "," ","1","0","[2663]","1","2","","","3167","100","6","3","lose","go","0"
"pit-trial","167","1134930","0.0-105.0","battery-v0.2","","""event"",""trial"",""time""
""fullscreenenter"",""1"",""2930""
","
","
","""event"",""trial"",""time""
""fullscreenenter"",""1"",""2930""
","
","","","-1","","","19","3167","1584","t","elianto","#f73b6a7A","-1","-1","1","0","[]","0","2","","","3167","101","7","4","lose","no-go","0"
"pit-trial","168","1139579","0.0-106.0","battery-v0.2","","""event"",""trial"",""time""
""fullscreenenter"",""1"",""2930""
","
","
","""event"",""trial"",""time""
""fullscreenenter"",""1"",""2930""
","
","","","1794","","","19","3167","1584","n","elianto","#3366ff99"," "," ","1","0","[2644.100000023842]","1","2","","","3167","102","9","1","win","go","1"
"pit-trial","169","1144002","0.0-107.0","battery-v0.2","","""event"",""trial"",""time""
""fullscreenenter"",""1"",""2930""
","
","
","""event"",""trial"",""time""
""fullscreenenter"",""1"",""2930""
","
","","","1566.6000000238419","","","19","3167","1584","f","elianto","#3366ff99"," "," ","1","+10","[2417.600000023842]","1","2","","","3167","103","8","1","win","go","0"
"pit-trial","170","1148859","0.0-108.0","battery-v0.2","","""event"",""trial"",""time""
""fullscreenenter"",""1"",""2930""
","
","
","""event"",""trial"",""time""
""fullscreenenter"",""1"",""2930""
","
","","","-1","","","19","3167","1584","c","elianto","#3366ff99","-1","-1","1","+10","[]","0","2","","","3167","104","5","2","win","no-go","0"
"pit-trial","171","1152710","0.0-109.0","battery-v0.2","","""event"",""trial"",""time""
""fullscreenenter"",""1"",""2930""
","
","
","""event"",""trial"",""time""
""fullscreenenter"",""1"",""2930""
","
","","","995","","","19","3167","1584","f","elianto","#3366ff99"," "," ","1","+10","[1845.8999999761581]","1","2","","","3167","105","8","1","win","go","0"
"pit-trial","172","1156475","0.0-110.0","battery-v0.2","","""event"",""trial"",""time""
""fullscreenenter"",""1"",""2930""
","
","
","""event"",""trial"",""time""
""fullscreenenter"",""1"",""2930""
","
","","","909.1999999284744","","","19","3167","1584","b","elianto","#f73b6a7A"," "," ","1","0","[1760.5]","1","2","","","3167","106","6","3","lose","go","0"
"pit-trial","173","1161331","0.0-111.0","battery-v0.2","","""event"",""trial"",""time""
""fullscreenenter"",""1"",""2930""
","
","
","""event"",""trial"",""time""
""fullscreenenter"",""1"",""2930""
","
","","","-1","","","19","3167","1584","z","elianto","#3366ff99"," ","-1","0","0","[]","0","2","","","3167","107","4","1","win","go","0"
"pit-trial","174","1166185","0.0-112.0","battery-v0.2","","""event"",""trial"",""time""
""fullscreenenter"",""1"",""2930""
","
","
","""event"",""trial"",""time""
""fullscreenenter"",""1"",""2930""
","
","","","-1","","","19","3167","1584","n","elianto","#3366ff99"," ","-1","0","0","[]","0","2","","","3167","108","9","1","win","go","0"
"pit-trial","175","1170290","0.0-113.0","battery-v0.2","","""event"",""trial"",""time""
""fullscreenenter"",""1"",""2930""
","
","
","""event"",""trial"",""time""
""fullscreenenter"",""1"",""2930""
","
","","","1250","","","19","3167","1584","b","elianto","#f73b6a7A"," "," ","1","0","[2100.7999999523163]","1","2","","","3167","109","6","3","lose","go","0"
"pit-trial","176","1175146","0.0-114.0","battery-v0.2","","""event"",""trial"",""time""
""fullscreenenter"",""1"",""2930""
","
","
","""event"",""trial"",""time""
""fullscreenenter"",""1"",""2930""
","
","","","-1","","","19","3167","1584","c","elianto","#3366ff99","-1","-1","1","0","[]","0","2","","","3167","110","5","2","win","no-go","1"
"pit-trial","177","1179465","0.0-115.0","battery-v0.2","","""event"",""trial"",""time""
""fullscreenenter"",""1"",""2930""
","
","
","""event"",""trial"",""time""
""fullscreenenter"",""1"",""2930""
","
","","","1463.8000000715256","","","19","3167","1584","f","elianto","#3366ff99"," "," ","1","0","[2314.600000023842]","1","2","","","3167","111","8","1","win","go","1"
"pit-trial","178","1184320","0.0-116.0","battery-v0.2","","""event"",""trial"",""time""
""fullscreenenter"",""1"",""2930""
","
","
","""event"",""trial"",""time""
""fullscreenenter"",""1"",""2930""
","
","","","-1","","","19","3167","1584","n","elianto","#3366ff99"," ","-1","0","0","[3555.5,3767.7000000476837]","2","2","","","3167","112","9","1","win","go","0"
"pit-trial","179","1188235","0.0-117.0","battery-v0.2","","""event"",""trial"",""time""
""fullscreenenter"",""1"",""2930""
","
","
","""event"",""trial"",""time""
""fullscreenenter"",""1"",""2930""
","
","","","1059.7999999523163","","","19","3167","1584","b","elianto","#f73b6a7A"," "," ","1","0","[1910.6000000238419]","1","2","","","3167","113","6","3","lose","go","0"
"pit-trial","180","1192221","0.0-118.0","battery-v0.2","","""event"",""trial"",""time""
""fullscreenenter"",""1"",""2930""
","
","
","""event"",""trial"",""time""
""fullscreenenter"",""1"",""2930""
","
","","","1131.2999999523163","","","19","3167","1584","f","elianto","#3366ff99"," "," ","1","+10","[1982]","1","2","","","3167","114","8","1","win","go","0"
"pit-trial","181","1196232","0.0-119.0","battery-v0.2","","""event"",""trial"",""time""
""fullscreenenter"",""1"",""2930""
","
","
","""event"",""trial"",""time""
""fullscreenenter"",""1"",""2930""
","
","","","1155.5999999046326","","","19","3167","1584","n","elianto","#3366ff99"," "," ","1","+10","[2005.8999999761581]","1","2","","","3167","115","9","1","win","go","0"
"pit-trial","182","1201088","0.0-120.0","battery-v0.2","","""event"",""trial"",""time""
""fullscreenenter"",""1"",""2930""
","
","
","""event"",""trial"",""time""
""fullscreenenter"",""1"",""2930""
","
","","","-1","","","19","3167","1584","c","elianto","#3366ff99","-1","-1","1","+10","[]","0","2","","","3167","116","5","2","win","no-go","0"
"pit-trial","183","1204832","0.0-121.0","battery-v0.2","","""event"",""trial"",""time""
""fullscreenenter"",""1"",""2930""
","
","
","""event"",""trial"",""time""
""fullscreenenter"",""1"",""2930""
","
","","","888.1999999284744","","","19","3167","1584","n","elianto","#3366ff99"," "," ","1","+10","[1739.2999999523163]","1","2","","","3167","117","9","1","win","go","0"
"pit-trial","184","1209688","0.0-122.0","battery-v0.2","","""event"",""trial"",""time""
""fullscreenenter"",""1"",""2930""
","
","
","""event"",""trial"",""time""
""fullscreenenter"",""1"",""2930""
","
","","","-1","","","19","3167","1584","c","elianto","#3366ff99","-1","-1","1","+10","[]","0","2","","","3167","118","5","2","win","no-go","0"
"pit-trial","185","1213422","0.0-123.0","battery-v0.2","","""event"",""trial"",""time""
""fullscreenenter"",""1"",""2930""
","
","
","""event"",""trial"",""time""
""fullscreenenter"",""1"",""2930""
","
","","","878.8999999761581","","","19","3167","1584","f","elianto","#3366ff99"," "," ","1","+10","[1729.1999999284744]","1","2","","","3167","119","8","1","win","go","0"
"pit-trial","186","1217101","0.0-124.0","battery-v0.2","","""event"",""trial"",""time""
""fullscreenenter"",""1"",""2930""
","
","
","""event"",""trial"",""time""
""fullscreenenter"",""1"",""2930""
","
","","","822.7000000476837","","","19","3167","1584","b","elianto","#f73b6a7A"," "," ","1","-10","[1673.3000000715256]","1","2","","","3167","120","6","3","lose","go","1"
"pit-trial","187","1220655","0.0-125.0","battery-v0.2","","""event"",""trial"",""time""
""fullscreenenter"",""1"",""2930""
","
","
","""event"",""trial"",""time""
""fullscreenenter"",""1"",""2930""
","
","","","699.3999999761581","","","19","3167","1584","b","elianto","#f73b6a7A"," "," ","1","0","[1550]","1","2","","","3167","121","6","3","lose","go","0"
"pit-trial","188","1224491","0.0-126.0","battery-v0.2","","""event"",""trial"",""time""
""fullscreenenter"",""1"",""2930""
","
","
","""event"",""trial"",""time""
""fullscreenenter"",""1"",""2930""
","
","","","982.8999999761581","","","19","3167","1584","n","elianto","#3366ff99"," "," ","1","+10","[1834.5]","1","2","","","3167","122","9","1","win","go","0"
"pit-trial","189","1229347","0.0-127.0","battery-v0.2","","""event"",""trial"",""time""
""fullscreenenter"",""1"",""2930""
","
","
","""event"",""trial"",""time""
""fullscreenenter"",""1"",""2930""
","
","","","-1","","","19","3167","1584","t","elianto","#f73b6a7A","-1","-1","1","0","[]","0","2","","","3167","123","7","4","lose","no-go","0"
"pit-trial","190","1233015","0.0-128.0","battery-v0.2","","""event"",""trial"",""time""
""fullscreenenter"",""1"",""2930""
","
","
","""event"",""trial"",""time""
""fullscreenenter"",""1"",""2930""
","
","","","810","","","19","3167","1584","f","elianto","#3366ff99"," "," ","1","+10","[1663.1000000238419]","1","2","","","3167","124","8","1","win","go","0"
"pit-trial","191","1237869","0.0-129.0","battery-v0.2","","""event"",""trial"",""time""
""fullscreenenter"",""1"",""2930""
","
","
","""event"",""trial"",""time""
""fullscreenenter"",""1"",""2930""
","
","","","-1","","","19","3167","1584","t","elianto","#f73b6a7A","-1","-1","1","0","[]","0","2","","","3167","125","7","4","lose","no-go","0"
"pit-trial","192","1241466","0.0-130.0","battery-v0.2","","""event"",""trial"",""time""
""fullscreenenter"",""1"",""2930""
","
","
","""event"",""trial"",""time""
""fullscreenenter"",""1"",""2930""
","
","","","744","","","19","3167","1584","b","elianto","#f73b6a7A"," "," ","1","0","[1594.1000000238419]","1","2","","","3167","126","6","3","lose","go","0"
"pit-trial","193","1245223","0.0-131.0","battery-v0.2","","""event"",""trial"",""time""
""fullscreenenter"",""1"",""2930""
","
","
","""event"",""trial"",""time""
""fullscreenenter"",""1"",""2930""
","
","","","902.1000000238419","","","19","3167","1584","f","elianto","#3366ff99"," "," ","1","+10","[1753]","1","2","","","3167","127","8","1","win","go","0"
"pit-trial","194","1248935","0.0-132.0","battery-v0.2","","""event"",""trial"",""time""
""fullscreenenter"",""1"",""2930""
","
","
","""event"",""trial"",""time""
""fullscreenenter"",""1"",""2930""
","
","","","856.8999999761581","","","19","3167","1584","n","elianto","#3366ff99"," "," ","1","+10","[1707.7999999523163]","1","2","","","3167","128","9","1","win","go","0"
"pit-trial","195","1252524","0.0-133.0","battery-v0.2","","""event"",""trial"",""time""
""fullscreenenter"",""1"",""2930""
","
","
","""event"",""trial"",""time""
""fullscreenenter"",""1"",""2930""
","
","","","733.7000000476837","","","19","3167","1584","b","elianto","#f73b6a7A"," "," ","1","0","[1584.1999999284744]","1","2","","","3167","129","6","3","lose","go","0"
"pit-trial","196","1256244","0.0-134.0","battery-v0.2","","""event"",""trial"",""time""
""fullscreenenter"",""1"",""2930""
","
","
","""event"",""trial"",""time""
""fullscreenenter"",""1"",""2930""
","
","","","864.8999999761581","","","19","3167","1584","f","elianto","#3366ff99"," "," ","1","+10","[1715.1000000238419]","1","2","","","3167","130","8","1","win","go","0"
"pit-trial","197","1260010","0.0-135.0","battery-v0.2","","""event"",""trial"",""time""
""fullscreenenter"",""1"",""2930""
","
","
","""event"",""trial"",""time""
""fullscreenenter"",""1"",""2930""
","
","","","912","","","19","3167","1584","n","elianto","#3366ff99"," "," ","1","+10","[1762]","1","2","","","3167","131","9","1","win","go","0"
"pit-trial","198","1264866","0.0-136.0","battery-v0.2","","""event"",""trial"",""time""
""fullscreenenter"",""1"",""2930""
","
","
","""event"",""trial"",""time""
""fullscreenenter"",""1"",""2930""
","
","","","-1","","","19","3167","1584","t","elianto","#f73b6a7A","-1","-1","1","-10","[]","0","2","","","3167","132","7","4","lose","no-go","1"
"pit-trial","199","1269720","0.0-137.0","battery-v0.2","","""event"",""trial"",""time""
""fullscreenenter"",""1"",""2930""
","
","
","""event"",""trial"",""time""
""fullscreenenter"",""1"",""2930""
","
","","","-1","","","19","3167","1584","t","elianto","#f73b6a7A","-1","-1","1","-10","[]","0","2","","","3167","133","7","4","lose","no-go","1"
"pit-trial","200","1273321","0.0-138.0","battery-v0.2","","""event"",""trial"",""time""
""fullscreenenter"",""1"",""2930""
","
","
","""event"",""trial"",""time""
""fullscreenenter"",""1"",""2930""
","
","","","745.3999999761581","","","19","3167","1584","f","elianto","#3366ff99"," "," ","1","+10","[1596]","1","2","","","3167","134","8","1","win","go","0"
"pit-trial","201","1277016","0.0-139.0","battery-v0.2","","""event"",""trial"",""time""
""fullscreenenter"",""1"",""2930""
","
","
","""event"",""trial"",""time""
""fullscreenenter"",""1"",""2930""
","
","","","839.3999999761581","","","19","3167","1584","b","elianto","#f73b6a7A"," "," ","1","-10","[1690.1000000238419]","1","2","","","3167","135","6","3","lose","go","1"
"pit-trial","202","1281436","0.0-140.0","battery-v0.2","","""event"",""trial"",""time""
""fullscreenenter"",""1"",""2930""
","
","
","""event"",""trial"",""time""
""fullscreenenter"",""1"",""2930""
","
","","","1566","","","19","3167","1584","n","elianto","#3366ff99"," "," ","1","+10","[2416.100000023842]","1","2","","","3167","136","9","1","win","go","0"
"pit-trial","203","1284930","0.0-141.0","battery-v0.2","","""event"",""trial"",""time""
""fullscreenenter"",""1"",""2930""
","
","
","""event"",""trial"",""time""
""fullscreenenter"",""1"",""2930""
","
","","","639.4000000953674","","","19","3167","1584","f","elianto","#3366ff99"," "," ","1","+10","[1490.1000000238419]","1","2","","","3167","137","8","1","win","go","0"
"pit-trial","204","1288436","0.0-142.0","battery-v0.2","","""event"",""trial"",""time""
""fullscreenenter"",""1"",""2930""
","
","
","""event"",""trial"",""time""
""fullscreenenter"",""1"",""2930""
","
","","","649.3999999761581","","","19","3167","1584","b","elianto","#f73b6a7A"," "," ","1","0","[1500.1000000238419]","1","2","","","3167","138","6","3","lose","go","0"
"pit-trial","205","1292127","0.0-143.0","battery-v0.2","","""event"",""trial"",""time""
""fullscreenenter"",""1"",""2930""
","
","
","""event"",""trial"",""time""
""fullscreenenter"",""1"",""2930""
","
","","","836.6999999284744","","","19","3167","1584","n","elianto","#3366ff99"," "," ","1","+10","[1687.0999999046326]","1","2","","","3167","139","9","1","win","go","0"
"pit-trial","206","1296981","0.0-144.0","battery-v0.2","","""event"",""trial"",""time""
""fullscreenenter"",""1"",""2930""
","
","
","""event"",""trial"",""time""
""fullscreenenter"",""1"",""2930""
","
","","","-1","","","19","3167","1584","t","elianto","#f73b6a7A","-1","-1","1","0","[]","0","2","","","3167","140","7","4","lose","no-go","0"
"pit-instructions","207","1322051","0.0-145.0","battery-v0.2","","""event"",""trial"",""time""
""fullscreenenter"",""1"",""2930""
","
","
","""event"",""trial"",""time""
""fullscreenenter"",""1"",""2930""
","
","","[{""page_index"":0,""viewing_time"":16923.600000023842},{""page_index"":1,""viewing_time"":8142.799999952316}]","25067.5","","","","","","","","","","","","","","","","","","","","","","","",""
"pit-trial","208","1326084","0.0-146.0","battery-v0.2","","""event"",""trial"",""time""
""fullscreenenter"",""1"",""2930""
","
","
","""event"",""trial"",""time""
""fullscreenenter"",""1"",""2930""
","
","","","1158.2000000476837","","","19","3167","1584","a","elianto","#f73b6a7A","-1"," ","0","-10","[2017.5]","1","3","","","3167","141","2","4","lose","no-go","0"
"pit-trial","209","1329749","0.0-147.0","battery-v0.2","","""event"",""trial"",""time""
""fullscreenenter"",""1"",""2930""
","
","
","""event"",""trial"",""time""
""fullscreenenter"",""1"",""2930""
","
","","","808.6999999284744","","","19","3167","1584","u","elianto","#f73b6a7A","-1"," ","0","-10","[1659.6000000238419]","1","3","","","3167","142","0","4","lose","no-go","0"
"pit-trial","210","1333595","0.0-148.0","battery-v0.2","","""event"",""trial"",""time""
""fullscreenenter"",""1"",""2930""
","
","
","""event"",""trial"",""time""
""fullscreenenter"",""1"",""2930""
","
","","","983","","","19","3167","1584","g","elianto","#f73b6a7A"," "," ","1","0","[1833.5]","1","3","","","3167","143","3","3","lose","go","0"
"pit-trial","211","1337239","0.0-149.0","battery-v0.2","","""event"",""trial"",""time""
""fullscreenenter"",""1"",""2930""
","
","
","""event"",""trial"",""time""
""fullscreenenter"",""1"",""2930""
","
","","","774.8999999761581","","","19","3167","1584","l","elianto","#3366ff99"," "," ","1","0","[1637.1999999284744]","1","3","","","3167","144","1","1","win","go","1"
"pit-trial","212","1342117","0.0-150.0","battery-v0.2","","""event"",""trial"",""time""
""fullscreenenter"",""1"",""2930""
","
","
","""event"",""trial"",""time""
""fullscreenenter"",""1"",""2930""
","
","","","-1","","","19","3167","1584","u","elianto","#f73b6a7A","-1","-1","1","0","[]","0","3","","","3167","145","0","4","lose","no-go","0"
"pit-trial","213","1346992","0.0-151.0","battery-v0.2","","""event"",""trial"",""time""
""fullscreenenter"",""1"",""2930""
","
","
","""event"",""trial"",""time""
""fullscreenenter"",""1"",""2930""
","
","","","-1","","","19","3167","1584","g","elianto","#f73b6a7A"," ","-1","0","-10","[]","0","3","","","3167","146","3","3","lose","go","0"
"pit-trial","214","1351863","0.0-152.0","battery-v0.2","","""event"",""trial"",""time""
""fullscreenenter"",""1"",""2930""
","
","
","""event"",""trial"",""time""
""fullscreenenter"",""1"",""2930""
","
","","","-1","","","19","3167","1584","a","elianto","#f73b6a7A","-1","-1","1","-10","[]","0","3","","","3167","147","2","4","lose","no-go","1"
"pit-trial","215","1356716","0.0-153.0","battery-v0.2","","""event"",""trial"",""time""
""fullscreenenter"",""1"",""2930""
","
","
","""event"",""trial"",""time""
""fullscreenenter"",""1"",""2930""
","
","","","-1","","","19","3167","1584","l","elianto","#3366ff99"," ","-1","0","0","[]","0","3","","","3167","148","1","1","win","go","0"
"pit-trial","216","1361570","0.0-154.0","battery-v0.2","","""event"",""trial"",""time""
""fullscreenenter"",""1"",""2930""
","
","
","""event"",""trial"",""time""
""fullscreenenter"",""1"",""2930""
","
","","","-1","","","19","3167","1584","u","elianto","#f73b6a7A","-1","-1","1","0","[3332.6999999284744]","1","3","","","3167","149","0","4","lose","no-go","0"
"pit-trial","217","1366425","0.0-155.0","battery-v0.2","","""event"",""trial"",""time""
""fullscreenenter"",""1"",""2930""
","
","
","""event"",""trial"",""time""
""fullscreenenter"",""1"",""2930""
","
","","","-1","","","19","3167","1584","g","elianto","#f73b6a7A"," ","-1","0","-10","[]","0","3","","","3167","150","3","3","lose","go","0"
"pit-trial","218","1370736","0.0-156.0","battery-v0.2","","""event"",""trial"",""time""
""fullscreenenter"",""1"",""2930""
","
","
","""event"",""trial"",""time""
""fullscreenenter"",""1"",""2930""
","
","","","1455.6000000238419","","","19","3167","1584","l","elianto","#3366ff99"," "," ","1","+10","[2306.7999999523163]","1","3","","","3167","151","1","1","win","go","0"
"pit-trial","219","1375591","0.0-157.0","battery-v0.2","","""event"",""trial"",""time""
""fullscreenenter"",""1"",""2930""
","
","
","""event"",""trial"",""time""
""fullscreenenter"",""1"",""2930""
","
","","","-1","","","19","3167","1584","a","elianto","#f73b6a7A","-1","-1","1","-10","[]","0","3","","","3167","152","2","4","lose","no-go","1"
"pit-trial","220","1380445","0.0-158.0","battery-v0.2","","""event"",""trial"",""time""
""fullscreenenter"",""1"",""2930""
","
","
","""event"",""trial"",""time""
""fullscreenenter"",""1"",""2930""
","
","","","-1","","","19","3167","1584","g","elianto","#f73b6a7A"," ","-1","0","-10","[]","0","3","","","3167","153","3","3","lose","go","0"
"pit-trial","221","1385302","0.0-159.0","battery-v0.2","","""event"",""trial"",""time""
""fullscreenenter"",""1"",""2930""
","
","
","""event"",""trial"",""time""
""fullscreenenter"",""1"",""2930""
","
","","","-1","","","19","3167","1584","u","elianto","#f73b6a7A","-1","-1","1","-10","[]","0","3","","","3167","154","0","4","lose","no-go","1"
"pit-trial","222","1388828","0.0-160.0","battery-v0.2","","""event"",""trial"",""time""
""fullscreenenter"",""1"",""2930""
","
","
","""event"",""trial"",""time""
""fullscreenenter"",""1"",""2930""
","
","","","670.1000000238419","","","19","3167","1584","l","elianto","#3366ff99"," "," ","1","+10","[1521.1000000238419]","1","3","","","3167","155","1","1","win","go","0"
"pit-trial","223","1392244","0.0-161.0","battery-v0.2","","""event"",""trial"",""time""
""fullscreenenter"",""1"",""2930""
","
","
","""event"",""trial"",""time""
""fullscreenenter"",""1"",""2930""
","
","","","561.1999999284744","","","19","3167","1584","a","elianto","#f73b6a7A","-1"," ","0","0","[494.89999997615814,1411.8999999761581]","2","3","","","3167","156","2","4","lose","no-go","1"
"pit-trial","224","1395629","0.0-162.0","battery-v0.2","","""event"",""trial"",""time""
""fullscreenenter"",""1"",""2930""
","
","
","""event"",""trial"",""time""
""fullscreenenter"",""1"",""2930""
","
","","","524.8999999761581","","","19","3167","1584","g","elianto","#f73b6a7A"," "," ","1","0","[1375.7999999523163]","1","3","","","3167","157","3","3","lose","go","0"
"pit-trial","225","1398805","0.0-163.0","battery-v0.2","","""event"",""trial"",""time""
""fullscreenenter"",""1"",""2930""
","
","
","""event"",""trial"",""time""
""fullscreenenter"",""1"",""2930""
","
","","","320.60000002384186","","","19","3167","1584","l","elianto","#3366ff99"," "," ","1","0","[1171.2000000476837]","1","3","","","3167","158","1","1","win","go","1"
"pit-trial","226","1402153","0.0-164.0","battery-v0.2","","""event"",""trial"",""time""
""fullscreenenter"",""1"",""2930""
","
","
","""event"",""trial"",""time""
""fullscreenenter"",""1"",""2930""
","
","","","493","","","19","3167","1584","a","elianto","#f73b6a7A","-1"," ","0","-10","[1343.1999999284744]","1","3","","","3167","159","2","4","lose","no-go","0"
"pit-trial","227","1405391","0.0-165.0","battery-v0.2","","""event"",""trial"",""time""
""fullscreenenter"",""1"",""2930""
","
","
","""event"",""trial"",""time""
""fullscreenenter"",""1"",""2930""
","
","","","381.89999997615814","","","19","3167","1584","u","elianto","#f73b6a7A","-1"," ","0","-10","[1232.2999999523163]","1","3","","","3167","160","0","4","lose","no-go","0"
"pit-trial","228","1410246","0.0-166.0","battery-v0.2","","""event"",""trial"",""time""
""fullscreenenter"",""1"",""2930""
","
","
","""event"",""trial"",""time""
""fullscreenenter"",""1"",""2930""
","
","","","-1","","","19","3167","1584","g","elianto","#f73b6a7A"," ","-1","0","-10","[]","0","3","","","3167","161","3","3","lose","go","0"
"pit-trial","229","1413414","0.0-167.0","battery-v0.2","","""event"",""trial"",""time""
""fullscreenenter"",""1"",""2930""
","
","
","""event"",""trial"",""time""
""fullscreenenter"",""1"",""2930""
","
","","","312.3000000715256","","","19","3167","1584","a","elianto","#f73b6a7A","-1"," ","0","-10","[1163.2000000476837]","1","3","","","3167","162","2","4","lose","no-go","0"
"pit-trial","230","1417253","0.0-168.0","battery-v0.2","","""event"",""trial"",""time""
""fullscreenenter"",""1"",""2930""
","
","
","""event"",""trial"",""time""
""fullscreenenter"",""1"",""2930""
","
","","","981.8000000715256","","","19","3167","1584","l","elianto","#3366ff99"," "," ","1","0","[1832.3000000715256]","1","3","","","3167","163","1","1","win","go","1"
"pit-trial","231","1422114","0.0-169.0","battery-v0.2","","""event"",""trial"",""time""
""fullscreenenter"",""1"",""2930""
","
","
","""event"",""trial"",""time""
""fullscreenenter"",""1"",""2930""
","
","","","-1","","","19","3167","1584","u","elianto","#f73b6a7A","-1","-1","1","-10","[4192.399999976158]","1","3","","","3167","164","0","4","lose","no-go","1"
"pit-trial","232","1425626","0.0-170.0","battery-v0.2","","""event"",""trial"",""time""
""fullscreenenter"",""1"",""2930""
","
","
","""event"",""trial"",""time""
""fullscreenenter"",""1"",""2930""
","
","","","656.8000000715256","","","19","3167","1584","g","elianto","#f73b6a7A"," "," ","1","0","[1508]","1","3","","","3167","165","3","3","lose","go","0"
"pit-trial","233","1429215","0.0-171.0","battery-v0.2","","""event"",""trial"",""time""
""fullscreenenter"",""1"",""2930""
","
","
","""event"",""trial"",""time""
""fullscreenenter"",""1"",""2930""
","
","","","732.6000000238419","","","19","3167","1584","u","elianto","#f73b6a7A","-1"," ","0","-10","[1584.8999999761581]","1","3","","","3167","166","0","4","lose","no-go","0"
"pit-trial","234","1433137","0.0-172.0","battery-v0.2","","""event"",""trial"",""time""
""fullscreenenter"",""1"",""2930""
","
","
","""event"",""trial"",""time""
""fullscreenenter"",""1"",""2930""
","
","","","1066.7999999523163","","","19","3167","1584","a","elianto","#f73b6a7A","-1"," ","0","-10","[1917.2999999523163]","1","3","","","3167","167","2","4","lose","no-go","0"
"pit-trial","235","1437992","0.0-173.0","battery-v0.2","","""event"",""trial"",""time""
""fullscreenenter"",""1"",""2930""
","
","
","""event"",""trial"",""time""
""fullscreenenter"",""1"",""2930""
","
","","","-1","","","19","3167","1584","p","elianto","#3366ff99","-1","-1","1","+10","[]","0","3","","","3167","168","4","2","win","no-go","0"
"pit-trial","236","1441900","0.0-174.0","battery-v0.2","","""event"",""trial"",""time""
""fullscreenenter"",""1"",""2930""
","
","
","""event"",""trial"",""time""
""fullscreenenter"",""1"",""2930""
","
","","","1054","","","19","3167","1584","l","elianto","#3366ff99"," "," ","1","+10","[1904.4000000953674]","1","3","","","3167","169","1","1","win","go","0"
"pit-trial","237","1446330","0.0-175.0","battery-v0.2","","""event"",""trial"",""time""
""fullscreenenter"",""1"",""2930""
","
","
","""event"",""trial"",""time""
""fullscreenenter"",""1"",""2930""
","
","","","1573.7000000476837","","","19","3167","1584","g","elianto","#f73b6a7A"," "," ","1","0","[2426.3000000715256]","1","3","","","3167","170","3","3","lose","go","0"
"pit-trial","238","1451186","0.0-176.0","battery-v0.2","","""event"",""trial"",""time""
""fullscreenenter"",""1"",""2930""
","
","
","""event"",""trial"",""time""
""fullscreenenter"",""1"",""2930""
","
","","","-1","","","19","3167","1584","p","elianto","#3366ff99","-1","-1","1","0","[3449.9000000953674,3683.7000000476837]","2","3","","","3167","171","4","2","win","no-go","1"
"pit-trial","239","1456040","0.0-177.0","battery-v0.2","","""event"",""trial"",""time""
""fullscreenenter"",""1"",""2930""
","
","
","""event"",""trial"",""time""
""fullscreenenter"",""1"",""2930""
","
","","","-1","","","19","3167","1584","u","elianto","#f73b6a7A","-1","-1","1","-10","[3809.399999976158]","1","3","","","3167","172","0","4","lose","no-go","1"
"pit-trial","240","1460896","0.0-178.0","battery-v0.2","","""event"",""trial"",""time""
""fullscreenenter"",""1"",""2930""
","
","
","""event"",""trial"",""time""
""fullscreenenter"",""1"",""2930""
","
","","","-1","","","19","3167","1584","p","elianto","#3366ff99","-1","-1","1","+10","[]","0","3","","","3167","173","4","2","win","no-go","0"
"pit-trial","241","1465140","0.0-179.0","battery-v0.2","","""event"",""trial"",""time""
""fullscreenenter"",""1"",""2930""
","
","
","""event"",""trial"",""time""
""fullscreenenter"",""1"",""2930""
","
","","","1388.2999999523163","","","19","3167","1584","a","elianto","#f73b6a7A","-1"," ","0","-10","[2239.2999999523163]","1","3","","","3167","174","2","4","lose","no-go","0"
"pit-trial","242","1469996","0.0-180.0","battery-v0.2","","""event"",""trial"",""time""
""fullscreenenter"",""1"",""2930""
","
","
","""event"",""trial"",""time""
""fullscreenenter"",""1"",""2930""
","
","","","-1","","","19","3167","1584","u","elianto","#f73b6a7A","-1","-1","1","0","[]","0","3","","","3167","175","0","4","lose","no-go","0"
"pit-trial","243","1473806","0.0-181.0","battery-v0.2","","""event"",""trial"",""time""
""fullscreenenter"",""1"",""2930""
","
","
","""event"",""trial"",""time""
""fullscreenenter"",""1"",""2930""
","
","","","955","","","19","3167","1584","l","elianto","#3366ff99"," "," ","1","+10","[1805.1999999284744]","1","3","","","3167","176","1","1","win","go","0"
"pit-trial","244","1478671","0.0-182.0","battery-v0.2","","""event"",""trial"",""time""
""fullscreenenter"",""1"",""2930""
","
","
","""event"",""trial"",""time""
""fullscreenenter"",""1"",""2930""
","
","","","-1","","","19","3167","1584","g","elianto","#f73b6a7A"," ","-1","0","-10","[]","0","3","","","3167","177","3","3","lose","go","0"
"pit-trial","245","1482568","0.0-183.0","battery-v0.2","","""event"",""trial"",""time""
""fullscreenenter"",""1"",""2930""
","
","
","""event"",""trial"",""time""
""fullscreenenter"",""1"",""2930""
","
","","","1043.2999999523163","","","19","3167","1584","l","elianto","#3366ff99"," "," ","1","0","[1894]","1","3","","","3167","178","1","1","win","go","1"
"pit-trial","246","1486659","0.0-184.0","battery-v0.2","","""event"",""trial"",""time""
""fullscreenenter"",""1"",""2930""
","
","
","""event"",""trial"",""time""
""fullscreenenter"",""1"",""2930""
","
","","","1235.3000000715256","","","19","3167","1584","p","elianto","#3366ff99","-1"," ","0","0","[2085.4000000953674]","1","3","","","3167","179","4","2","win","no-go","0"
"pit-trial","247","1491516","0.0-185.0","battery-v0.2","","""event"",""trial"",""time""
""fullscreenenter"",""1"",""2930""
","
","
","""event"",""trial"",""time""
""fullscreenenter"",""1"",""2930""
","
","","","-1","","","19","3167","1584","u","elianto","#f73b6a7A","-1","-1","1","-10","[]","0","3","","","3167","180","0","4","lose","no-go","1"
"pit-trial","248","1496374","0.0-186.0","battery-v0.2","","""event"",""trial"",""time""
""fullscreenenter"",""1"",""2930""
","
","
","""event"",""trial"",""time""
""fullscreenenter"",""1"",""2930""
","
","","","-1","","","19","3167","1584","g","elianto","#f73b6a7A"," ","-1","0","0","[]","0","3","","","3167","181","3","3","lose","go","1"
"pit-trial","249","1501230","0.0-187.0","battery-v0.2","","""event"",""trial"",""time""
""fullscreenenter"",""1"",""2930""
","
","
","""event"",""trial"",""time""
""fullscreenenter"",""1"",""2930""
","
","","","-1","","","19","3167","1584","p","elianto","#3366ff99","-1","-1","1","+10","[]","0","3","","","3167","182","4","2","win","no-go","0"
"pit-trial","250","1504741","0.0-188.0","battery-v0.2","","""event"",""trial"",""time""
""fullscreenenter"",""1"",""2930""
","
","
","""event"",""trial"",""time""
""fullscreenenter"",""1"",""2930""
","
","","","656.2000000476837","","","19","3167","1584","l","elianto","#3366ff99"," "," ","1","+10","[1506.5]","1","3","","","3167","183","1","1","win","go","0"
"pit-trial","251","1509596","0.0-189.0","battery-v0.2","","""event"",""trial"",""time""
""fullscreenenter"",""1"",""2930""
","
","
","""event"",""trial"",""time""
""fullscreenenter"",""1"",""2930""
","
","","","-1","","","19","3167","1584","a","elianto","#f73b6a7A","-1","-1","1","0","[]","0","3","","","3167","184","2","4","lose","no-go","0"
"pit-trial","252","1514452","0.0-190.0","battery-v0.2","","""event"",""trial"",""time""
""fullscreenenter"",""1"",""2930""
","
","
","""event"",""trial"",""time""
""fullscreenenter"",""1"",""2930""
","
","","","-1","","","19","3167","1584","p","elianto","#3366ff99","-1","-1","1","+10","[]","0","3","","","3167","185","4","2","win","no-go","0"
"pit-trial","253","1517791","0.0-191.0","battery-v0.2","","""event"",""trial"",""time""
""fullscreenenter"",""1"",""2930""
","
","
","""event"",""trial"",""time""
""fullscreenenter"",""1"",""2930""
","
","","","483.90000009536743","","","19","3167","1584","l","elianto","#3366ff99"," "," ","1","+10","[1334.2000000476837]","1","3","","","3167","186","1","1","win","go","0"
"pit-trial","254","1522646","0.0-192.0","battery-v0.2","","""event"",""trial"",""time""
""fullscreenenter"",""1"",""2930""
","
","
","""event"",""trial"",""time""
""fullscreenenter"",""1"",""2930""
","
","","","-1","","","19","3167","1584","a","elianto","#f73b6a7A","-1","-1","1","-10","[]","0","3","","","3167","187","2","4","lose","no-go","1"
"pit-trial","255","1527502","0.0-193.0","battery-v0.2","","""event"",""trial"",""time""
""fullscreenenter"",""1"",""2930""
","
","
","""event"",""trial"",""time""
""fullscreenenter"",""1"",""2930""
","
","","","-1","","","19","3167","1584","g","elianto","#f73b6a7A"," ","-1","0","-10","[]","0","3","","","3167","188","3","3","lose","go","0"
"pit-trial","256","1532356","0.0-194.0","battery-v0.2","","""event"",""trial"",""time""
""fullscreenenter"",""1"",""2930""
","
","
","""event"",""trial"",""time""
""fullscreenenter"",""1"",""2930""
","
","","","-1","","","19","3167","1584","p","elianto","#3366ff99","-1","-1","1","+10","[]","0","3","","","3167","189","4","2","win","no-go","0"
"pit-trial","257","1536250","0.0-195.0","battery-v0.2","","""event"",""trial"",""time""
""fullscreenenter"",""1"",""2930""
","
","
","""event"",""trial"",""time""
""fullscreenenter"",""1"",""2930""
","
","","","1040.2000000476837","","","19","3167","1584","s","elianto","#3366ff99"," "," ","1","+10","[1890.5]","1","3","","","3167","190","5","1","win","go","0"
"pit-trial","258","1541107","0.0-196.0","battery-v0.2","","""event"",""trial"",""time""
""fullscreenenter"",""1"",""2930""
","
","
","""event"",""trial"",""time""
""fullscreenenter"",""1"",""2930""
","
","","","-1","","","19","3167","1584","g","elianto","#f73b6a7A"," ","-1","0","-10","[3782.2999999523163,4080]","2","3","","","3167","191","3","3","lose","go","0"
"pit-trial","259","1544897","0.0-197.0","battery-v0.2","","""event"",""trial"",""time""
""fullscreenenter"",""1"",""2930""
","
","
","""event"",""trial"",""time""
""fullscreenenter"",""1"",""2930""
","
","","","935.6000000238419","","","19","3167","1584","l","elianto","#3366ff99"," "," ","1","+10","[1785.7000000476837]","1","3","","","3167","192","1","1","win","go","0"
"pit-trial","260","1549752","0.0-198.0","battery-v0.2","","""event"",""trial"",""time""
""fullscreenenter"",""1"",""2930""
","
","
","""event"",""trial"",""time""
""fullscreenenter"",""1"",""2930""
","
","","","-1","","","19","3167","1584","p","elianto","#3366ff99","-1","-1","1","+10","[]","0","3","","","3167","193","4","2","win","no-go","0"
"pit-trial","261","1553574","0.0-199.0","battery-v0.2","","""event"",""trial"",""time""
""fullscreenenter"",""1"",""2930""
","
","
","""event"",""trial"",""time""
""fullscreenenter"",""1"",""2930""
","
","","","967.3000000715256","","","19","3167","1584","s","elianto","#3366ff99"," "," ","1","+10","[1817.8999999761581]","1","3","","","3167","194","5","1","win","go","0"
"pit-trial","262","1557057","0.0-200.0","battery-v0.2","","""event"",""trial"",""time""
""fullscreenenter"",""1"",""2930""
","
","
","""event"",""trial"",""time""
""fullscreenenter"",""1"",""2930""
","
","","","626.5","","","19","3167","1584","g","elianto","#f73b6a7A"," "," ","1","0","[1478.5999999046326]","1","3","","","3167","195","3","3","lose","go","0"
"pit-trial","263","1560553","0.0-201.0","battery-v0.2","","""event"",""trial"",""time""
""fullscreenenter"",""1"",""2930""
","
","
","""event"",""trial"",""time""
""fullscreenenter"",""1"",""2930""
","
","","","640.6999999284744","","","19","3167","1584","l","elianto","#3366ff99"," "," ","1","+10","[1491.5]","1","3","","","3167","196","1","1","win","go","0"
"pit-trial","264","1564070","0.0-202.0","battery-v0.2","","""event"",""trial"",""time""
""fullscreenenter"",""1"",""2930""
","
","
","""event"",""trial"",""time""
""fullscreenenter"",""1"",""2930""
","
","","","650.4000000953674","","","19","3167","1584","s","elianto","#3366ff99"," "," ","1","+10","[1501]","1","3","","","3167","197","5","1","win","go","0"
"pit-trial","265","1568038","0.0-203.0","battery-v0.2","","""event"",""trial"",""time""
""fullscreenenter"",""1"",""2930""
","
","
","""event"",""trial"",""time""
""fullscreenenter"",""1"",""2930""
","
","","","1113.2999999523163","","","19","3167","1584","w","elianto","#f73b6a7A","-1"," ","0","-10","[1964.3999999761581]","1","3","","","3167","198","6","4","lose","no-go","0"
