"trial_type","trial_index","time_elapsed","internal_node_id","task_version","subject_id","interactions","blur_events","focus_events","fullscreenenter_events","fullscreenexit_events","success","view_history","rt","responses","num_errors","age","subject","participantId","rune","rune_set","hex","correct","choice","accuracy","outcome","keys","total_keys","block","practice","value","sub","trial","stimulus","robot","valence","action","sham"
"pavlovia","0","24","0.0-0.0","battery-v0.2","","""event"",""trial"",""time""
""blur"",""1"",""6035""
""focus"",""1"",""6986""
""fullscreenenter"",""1"",""7161""
","""event"",""trial"",""time""
""blur"",""1"",""6035""
","""event"",""trial"",""time""
""focus"",""1"",""6986""
","""event"",""trial"",""time""
""fullscreenenter"",""1"",""7161""
","
","","","","","","","","","","","","","","","","","","","","","","","","","","",""
"fullscreen","1","8104","0.0-1.0","battery-v0.2","","""event"",""trial"",""time""
""blur"",""1"",""6035""
""focus"",""1"",""6986""
""fullscreenenter"",""1"",""7161""
","""event"",""trial"",""time""
""blur"",""1"",""6035""
","""event"",""trial"",""time""
""focus"",""1"",""6986""
","""event"",""trial"",""time""
""fullscreenenter"",""1"",""7161""
","
","true","","","","","","","","","","","","","","","","","","","","","","","","","",""
"pit-instructions","2","13115","0.0-2.0-0.0","battery-v0.2","","""event"",""trial"",""time""
""blur"",""1"",""6035""
""focus"",""1"",""6986""
""fullscreenenter"",""1"",""7161""
","""event"",""trial"",""time""
""blur"",""1"",""6035""
","""event"",""trial"",""time""
""focus"",""1"",""6986""
","""event"",""trial"",""time""
""fullscreenenter"",""1"",""7161""
","
","","[{""page_index"":0,""viewing_time"":5006.899999976158}]","5007.399999976158","","","","","","","","","","","","","","","","","","","","","","","",""
"pit-comprehension","3","16020","0.0-2.0-1.0-0.0","battery-v0.2","","""event"",""trial"",""time""
""blur"",""1"",""6035""
""focus"",""1"",""6986""
""fullscreenenter"",""1"",""7161""
","""event"",""trial"",""time""
""blur"",""1"",""6035""
","""event"",""trial"",""time""
""focus"",""1"",""6986""
","""event"",""trial"",""time""
""fullscreenenter"",""1"",""7161""
","
","","","2898.7999999523163","[""shark""]","0","16","9664","2068","","","","","","","","","","","","","","","","","","",""
"pit-instructions","4","17099","0.0-2.0-1.0-1.0","battery-v0.2","","""event"",""trial"",""time""
""blur"",""1"",""6035""
""focus"",""1"",""6986""
""fullscreenenter"",""1"",""7161""
","""event"",""trial"",""time""
""blur"",""1"",""6035""
","""event"",""trial"",""time""
""focus"",""1"",""6986""
","""event"",""trial"",""time""
""fullscreenenter"",""1"",""7161""
","
","","[{""page_index"":0,""viewing_time"":1055.4000000953674}]","1056","","","","","","","","","","","","","","","","","","","","","","","",""
"pit-comprehension","5","20907","0.0-2.0-2.0-0.0","battery-v0.2","","""event"",""trial"",""time""
""blur"",""1"",""6035""
""focus"",""1"",""6986""
""fullscreenenter"",""1"",""7161""
","""event"",""trial"",""time""
""blur"",""1"",""6035""
","""event"",""trial"",""time""
""focus"",""1"",""6986""
","""event"",""trial"",""time""
""fullscreenenter"",""1"",""7161""
","
","","","3802.100000023842","[""tiger""]","0","16","9664","2068","","","","","","","","","","","","","","","","","","",""
"pit-instructions","6","21810","0.0-2.0-2.0-1.0","battery-v0.2","","""event"",""trial"",""time""
""blur"",""1"",""6035""
""focus"",""1"",""6986""
""fullscreenenter"",""1"",""7161""
""fullscreenexit"",""7"",""280640""
""blur"",""7"",""282008""
""focus"",""7"",""325174""
","""event"",""trial"",""time""
""blur"",""1"",""6035""
""blur"",""7"",""282008""
","""event"",""trial"",""time""
""focus"",""1"",""6986""
""focus"",""7"",""325174""
","""event"",""trial"",""time""
""fullscreenenter"",""1"",""7161""
","""event"",""trial"",""time""
""fullscreenexit"",""7"",""280640""
","","[{""page_index"":0,""viewing_time"":897.2999999523163}]","897.6999999284744","","","","","","","","","","","","","","","","","","","","","","","",""
"pit-instructions","7","330187","0.0-2.0-3.0","battery-v0.2","","""event"",""trial"",""time""
""blur"",""1"",""6035""
""focus"",""1"",""6986""
""fullscreenenter"",""1"",""7161""
""fullscreenexit"",""7"",""280640""
""blur"",""7"",""282008""
""focus"",""7"",""325174""
","""event"",""trial"",""time""
""blur"",""1"",""6035""
""blur"",""7"",""282008""
","""event"",""trial"",""time""
""focus"",""1"",""6986""
""focus"",""7"",""325174""
","""event"",""trial"",""time""
""fullscreenenter"",""1"",""7161""
","""event"",""trial"",""time""
""fullscreenexit"",""7"",""280640""
","","[{""page_index"":0,""viewing_time"":8276.600000023842},{""page_index"":1,""viewing_time"":8616},{""page_index"":0,""viewing_time"":2687.600000023842},{""page_index"":1,""viewing_time"":5711.699999928474},{""page_index"":2,""viewing_time"":10488.300000071526},{""page_index"":3,""viewing_time"":18583.799999952316},{""page_index"":4,""viewing_time"":19424.600000023842},{""page_index"":5,""viewing_time"":12407.5},{""page_index"":6,""viewing_time"":12223.799999952316},{""page_index"":7,""viewing_time"":10600.5},{""page_index"":8,""viewing_time"":11191.700000047684},{""page_index"":9,""viewing_time"":10344.399999976158},{""page_index"":10,""viewing_time"":7479.800000071526},{""page_index"":11,""viewing_time"":99599.5},{""page_index"":12,""viewing_time"":14200},{""page_index"":13,""viewing_time"":56536.699999928474}]","308373.10000002384","","","","","","","","","","","","","","","","","","","","","","","",""
"pit-trial","8","334488","0.0-2.0-4.0-0.0","battery-v0.2","","""event"",""trial"",""time""
""blur"",""1"",""6035""
""focus"",""1"",""6986""
""fullscreenenter"",""1"",""7161""
""fullscreenexit"",""7"",""280640""
""blur"",""7"",""282008""
""focus"",""7"",""325174""
","""event"",""trial"",""time""
""blur"",""1"",""6035""
""blur"",""7"",""282008""
","""event"",""trial"",""time""
""focus"",""1"",""6986""
""focus"",""7"",""325174""
","""event"",""trial"",""time""
""fullscreenenter"",""1"",""7161""
","""event"",""trial"",""time""
""fullscreenexit"",""7"",""280640""
","","","1439.7000000476837","","","16","9664","2068","&#9784;","elianto","#FFFFF080"," "," ","1","&#10004","[2290.7999999523163]","1","0","0","","","","","","","",""
"pit-trial","9","338166","0.0-2.0-4.1-0.1","battery-v0.2","","""event"",""trial"",""time""
""blur"",""1"",""6035""
""focus"",""1"",""6986""
""fullscreenenter"",""1"",""7161""
""fullscreenexit"",""7"",""280640""
""blur"",""7"",""282008""
""focus"",""7"",""325174""
","""event"",""trial"",""time""
""blur"",""1"",""6035""
""blur"",""7"",""282008""
","""event"",""trial"",""time""
""focus"",""1"",""6986""
""focus"",""7"",""325174""
","""event"",""trial"",""time""
""fullscreenenter"",""1"",""7161""
","""event"",""trial"",""time""
""fullscreenexit"",""7"",""280640""
","","","821.3999999761581","","","16","9664","2068","&#9784;","elianto","#FFFFF080"," "," ","1","&#10004","[1672.6000000238419]","1","0","0","","","","","","","",""
"pit-trial","10","341703","0.0-2.0-4.2-0.2","battery-v0.2","","""event"",""trial"",""time""
""blur"",""1"",""6035""
""focus"",""1"",""6986""
""fullscreenenter"",""1"",""7161""
""fullscreenexit"",""7"",""280640""
""blur"",""7"",""282008""
""focus"",""7"",""325174""
","""event"",""trial"",""time""
""blur"",""1"",""6035""
""blur"",""7"",""282008""
","""event"",""trial"",""time""
""focus"",""1"",""6986""
""focus"",""7"",""325174""
","""event"",""trial"",""time""
""fullscreenenter"",""1"",""7161""
","""event"",""trial"",""time""
""fullscreenexit"",""7"",""280640""
","","","671.3999999761581","","","16","9664","2068","&#9784;","elianto","#FFFFF080"," "," ","1","&#10004","[1529.2000000476837]","1","0","0","","","","","","","",""
"pit-trial","11","345190","0.0-2.0-4.3-0.3","battery-v0.2","","""event"",""trial"",""time""
""blur"",""1"",""6035""
""focus"",""1"",""6986""
""fullscreenenter"",""1"",""7161""
""fullscreenexit"",""7"",""280640""
""blur"",""7"",""282008""
""focus"",""7"",""325174""
","""event"",""trial"",""time""
""blur"",""1"",""6035""
""blur"",""7"",""282008""
","""event"",""trial"",""time""
""focus"",""1"",""6986""
""focus"",""7"",""325174""
","""event"",""trial"",""time""
""fullscreenenter"",""1"",""7161""
","""event"",""trial"",""time""
""fullscreenexit"",""7"",""280640""
","","","620.7999999523163","","","16","9664","2068","&#9784;","elianto","#FFFFF080"," "," ","1","&#10004","[1477.8999999761581]","1","0","0","","","","","","","",""
"pit-trial","12","348569","0.0-2.0-4.4-0.4","battery-v0.2","","""event"",""trial"",""time""
""blur"",""1"",""6035""
""focus"",""1"",""6986""
""fullscreenenter"",""1"",""7161""
""fullscreenexit"",""7"",""280640""
""blur"",""7"",""282008""
""focus"",""7"",""325174""
","""event"",""trial"",""time""
""blur"",""1"",""6035""
""blur"",""7"",""282008""
","""event"",""trial"",""time""
""focus"",""1"",""6986""
""focus"",""7"",""325174""
","""event"",""trial"",""time""
""fullscreenenter"",""1"",""7161""
","""event"",""trial"",""time""
""fullscreenexit"",""7"",""280640""
","","","515.5","","","16","9664","2068","&#9784;","elianto","#FFFFF080"," "," ","1","&#10004","[1369.8999999761581]","1","0","0","","","","","","","",""
"pit-instructions","13","370290","0.0-2.0-5.0","battery-v0.2","","""event"",""trial"",""time""
""blur"",""1"",""6035""
""focus"",""1"",""6986""
""fullscreenenter"",""1"",""7161""
""fullscreenexit"",""7"",""280640""
""blur"",""7"",""282008""
""focus"",""7"",""325174""
","""event"",""trial"",""time""
""blur"",""1"",""6035""
""blur"",""7"",""282008""
","""event"",""trial"",""time""
""focus"",""1"",""6986""
""focus"",""7"",""325174""
","""event"",""trial"",""time""
""fullscreenenter"",""1"",""7161""
","""event"",""trial"",""time""
""fullscreenexit"",""7"",""280640""
","","[{""page_index"":0,""viewing_time"":4861.300000071526},{""page_index"":1,""viewing_time"":6800.600000023842},{""page_index"":2,""viewing_time"":4760.099999904633},{""page_index"":3,""viewing_time"":5295.300000071526}]","21717.800000071526","","","","","","","","","","","","","","","","","","","","","","","",""
"pit-trial","14","375147","0.0-2.0-6.0-0.0","battery-v0.2","","""event"",""trial"",""time""
""blur"",""1"",""6035""
""focus"",""1"",""6986""
""fullscreenenter"",""1"",""7161""
""fullscreenexit"",""7"",""280640""
""blur"",""7"",""282008""
""focus"",""7"",""325174""
","""event"",""trial"",""time""
""blur"",""1"",""6035""
""blur"",""7"",""282008""
","""event"",""trial"",""time""
""focus"",""1"",""6986""
""focus"",""7"",""325174""
","""event"",""trial"",""time""
""fullscreenenter"",""1"",""7161""
","""event"",""trial"",""time""
""fullscreenexit"",""7"",""280640""
","","","-1","","","16","9664","2068","&#9854;","elianto","#FFFFF080","-1","-1","1","&#10004","[]","0","0","1","","","","","","","",""
"pit-trial","15","380015","0.0-2.0-6.1-0.1","battery-v0.2","","""event"",""trial"",""time""
""blur"",""1"",""6035""
""focus"",""1"",""6986""
""fullscreenenter"",""1"",""7161""
""fullscreenexit"",""7"",""280640""
""blur"",""7"",""282008""
""focus"",""7"",""325174""
","""event"",""trial"",""time""
""blur"",""1"",""6035""
""blur"",""7"",""282008""
","""event"",""trial"",""time""
""focus"",""1"",""6986""
""focus"",""7"",""325174""
","""event"",""trial"",""time""
""fullscreenenter"",""1"",""7161""
","""event"",""trial"",""time""
""fullscreenexit"",""7"",""280640""
","","","-1","","","16","9664","2068","&#9854;","elianto","#FFFFF080","-1","-1","1","&#10004","[]","0","0","1","","","","","","","",""
"pit-trial","16","384884","0.0-2.0-6.2-0.2","battery-v0.2","","""event"",""trial"",""time""
""blur"",""1"",""6035""
""focus"",""1"",""6986""
""fullscreenenter"",""1"",""7161""
""fullscreenexit"",""7"",""280640""
""blur"",""7"",""282008""
""focus"",""7"",""325174""
","""event"",""trial"",""time""
""blur"",""1"",""6035""
""blur"",""7"",""282008""
","""event"",""trial"",""time""
""focus"",""1"",""6986""
""focus"",""7"",""325174""
","""event"",""trial"",""time""
""fullscreenenter"",""1"",""7161""
","""event"",""trial"",""time""
""fullscreenexit"",""7"",""280640""
","","","-1","","","16","9664","2068","&#9854;","elianto","#FFFFF080","-1","-1","1","&#10004","[]","0","0","1","","","","","","","",""
"pit-trial","17","389751","0.0-2.0-6.3-0.3","battery-v0.2","","""event"",""trial"",""time""
""blur"",""1"",""6035""
""focus"",""1"",""6986""
""fullscreenenter"",""1"",""7161""
""fullscreenexit"",""7"",""280640""
""blur"",""7"",""282008""
""focus"",""7"",""325174""
","""event"",""trial"",""time""
""blur"",""1"",""6035""
""blur"",""7"",""282008""
","""event"",""trial"",""time""
""focus"",""1"",""6986""
""focus"",""7"",""325174""
","""event"",""trial"",""time""
""fullscreenenter"",""1"",""7161""
","""event"",""trial"",""time""
""fullscreenexit"",""7"",""280640""
","","","-1","","","16","9664","2068","&#9854;","elianto","#FFFFF080","-1","-1","1","&#10004","[]","0","0","1","","","","","","","",""
"pit-trial","18","394614","0.0-2.0-6.4-0.4","battery-v0.2","","""event"",""trial"",""time""
""blur"",""1"",""6035""
""focus"",""1"",""6986""
""fullscreenenter"",""1"",""7161""
""fullscreenexit"",""7"",""280640""
""blur"",""7"",""282008""
""focus"",""7"",""325174""
","""event"",""trial"",""time""
""blur"",""1"",""6035""
""blur"",""7"",""282008""
","""event"",""trial"",""time""
""focus"",""1"",""6986""
""focus"",""7"",""325174""
","""event"",""trial"",""time""
""fullscreenenter"",""1"",""7161""
","""event"",""trial"",""time""
""fullscreenexit"",""7"",""280640""
","","","-1","","","16","9664","2068","&#9854;","elianto","#FFFFF080","-1","-1","1","&#10004","[]","0","0","1","","","","","","","",""
"pit-instructions","19","561410","0.0-2.0-7.0","battery-v0.2","","""event"",""trial"",""time""
""blur"",""1"",""6035""
""focus"",""1"",""6986""
""fullscreenenter"",""1"",""7161""
""fullscreenexit"",""7"",""280640""
""blur"",""7"",""282008""
""focus"",""7"",""325174""
","""event"",""trial"",""time""
""blur"",""1"",""6035""
""blur"",""7"",""282008""
","""event"",""trial"",""time""
""focus"",""1"",""6986""
""focus"",""7"",""325174""
","""event"",""trial"",""time""
""fullscreenenter"",""1"",""7161""
","""event"",""trial"",""time""
""fullscreenexit"",""7"",""280640""
","","[{""page_index"":0,""viewing_time"":9480.5},{""page_index"":1,""viewing_time"":6623.300000071526},{""page_index"":2,""viewing_time"":10072.299999952316},{""page_index"":3,""viewing_time"":16752.300000071526},{""page_index"":4,""viewing_time"":5143.299999952316},{""page_index"":5,""viewing_time"":5152},{""page_index"":6,""viewing_time"":5088.200000047684},{""page_index"":7,""viewing_time"":7808.599999904633},{""page_index"":8,""viewing_time"":6831.100000023842},{""page_index"":9,""viewing_time"":6240.200000047684},{""page_index"":10,""viewing_time"":6895.899999976158},{""page_index"":11,""viewing_time"":4400.600000023842},{""page_index"":12,""viewing_time"":6240},{""page_index"":13,""viewing_time"":10383.399999976158},{""page_index"":14,""viewing_time"":7688.5},{""page_index"":15,""viewing_time"":11703.5},{""page_index"":16,""viewing_time"":32872},{""page_index"":17,""viewing_time"":7416}]","166792.20000004768","","","","","","","","","","","","","","","","","","","","","","","",""
"pit-trial","20","565551","0.0-2.0-8.0-0.0","battery-v0.2","","""event"",""trial"",""time""
""blur"",""1"",""6035""
""focus"",""1"",""6986""
""fullscreenenter"",""1"",""7161""
""fullscreenexit"",""7"",""280640""
""blur"",""7"",""282008""
""focus"",""7"",""325174""
","""event"",""trial"",""time""
""blur"",""1"",""6035""
""blur"",""7"",""282008""
","""event"",""trial"",""time""
""focus"",""1"",""6986""
""focus"",""7"",""325174""
","""event"",""trial"",""time""
""fullscreenenter"",""1"",""7161""
","""event"",""trial"",""time""
""fullscreenexit"",""7"",""280640""
","","","1281.7000000476837","","","16","9664","2068","&#9776;","elianto","#3366ff99"," "," ","1","+10","[2135.0999999046326]","1","0","1","","","","","","","",""
"pit-trial","21","568957","0.0-2.0-8.0-1.0","battery-v0.2","","""event"",""trial"",""time""
""blur"",""1"",""6035""
""focus"",""1"",""6986""
""fullscreenenter"",""1"",""7161""
""fullscreenexit"",""7"",""280640""
""blur"",""7"",""282008""
""focus"",""7"",""325174""
","""event"",""trial"",""time""
""blur"",""1"",""6035""
""blur"",""7"",""282008""
","""event"",""trial"",""time""
""focus"",""1"",""6986""
""focus"",""7"",""325174""
","""event"",""trial"",""time""
""fullscreenenter"",""1"",""7161""
","""event"",""trial"",""time""
""fullscreenexit"",""7"",""280640""
","","","548.5","","","16","9664","2068","&#9776;","elianto","#3366ff99"," "," ","1","+10","[1403.7000000476837]","1","0","1","","","","","","","",""
"pit-trial","22","572294","0.0-2.0-8.0-2.0","battery-v0.2","","""event"",""trial"",""time""
""blur"",""1"",""6035""
""focus"",""1"",""6986""
""fullscreenenter"",""1"",""7161""
""fullscreenexit"",""7"",""280640""
""blur"",""7"",""282008""
""focus"",""7"",""325174""
","""event"",""trial"",""time""
""blur"",""1"",""6035""
""blur"",""7"",""282008""
","""event"",""trial"",""time""
""focus"",""1"",""6986""
""focus"",""7"",""325174""
","""event"",""trial"",""time""
""fullscreenenter"",""1"",""7161""
","""event"",""trial"",""time""
""fullscreenexit"",""7"",""280640""
","","","481.5","","","16","9664","2068","&#9776;","elianto","#3366ff99"," "," ","1","+10","[1334]","1","0","1","","","","","","","",""
"pit-trial","23","575774","0.0-2.0-8.0-3.0","battery-v0.2","","""event"",""trial"",""time""
""blur"",""1"",""6035""
""focus"",""1"",""6986""
""fullscreenenter"",""1"",""7161""
""fullscreenexit"",""7"",""280640""
""blur"",""7"",""282008""
""focus"",""7"",""325174""
","""event"",""trial"",""time""
""blur"",""1"",""6035""
""blur"",""7"",""282008""
","""event"",""trial"",""time""
""focus"",""1"",""6986""
""focus"",""7"",""325174""
","""event"",""trial"",""time""
""fullscreenenter"",""1"",""7161""
","""event"",""trial"",""time""
""fullscreenexit"",""7"",""280640""
","","","623.6999999284744","","","16","9664","2068","&#9776;","elianto","#3366ff99"," "," ","1","0","[1475.2999999523163]","1","0","1","","","","","","","",""
"pit-trial","24","579391","0.0-2.0-8.0-4.0","battery-v0.2","","""event"",""trial"",""time""
""blur"",""1"",""6035""
""focus"",""1"",""6986""
""fullscreenenter"",""1"",""7161""
""fullscreenexit"",""7"",""280640""
""blur"",""7"",""282008""
""focus"",""7"",""325174""
","""event"",""trial"",""time""
""blur"",""1"",""6035""
""blur"",""7"",""282008""
","""event"",""trial"",""time""
""focus"",""1"",""6986""
""focus"",""7"",""325174""
","""event"",""trial"",""time""
""fullscreenenter"",""1"",""7161""
","""event"",""trial"",""time""
""fullscreenexit"",""7"",""280640""
","","","753.6999999284744","","","16","9664","2068","&#9776;","elianto","#3366ff99"," "," ","1","+10","[1608.0999999046326]","1","0","1","","","","","","","",""
"pit-trial","25","582874","0.0-2.0-8.1-0.1","battery-v0.2","","""event"",""trial"",""time""
""blur"",""1"",""6035""
""focus"",""1"",""6986""
""fullscreenenter"",""1"",""7161""
""fullscreenexit"",""7"",""280640""
""blur"",""7"",""282008""
""focus"",""7"",""325174""
","""event"",""trial"",""time""
""blur"",""1"",""6035""
""blur"",""7"",""282008""
","""event"",""trial"",""time""
""focus"",""1"",""6986""
""focus"",""7"",""325174""
","""event"",""trial"",""time""
""fullscreenenter"",""1"",""7161""
","""event"",""trial"",""time""
""fullscreenexit"",""7"",""280640""
","","","620.3999999761581","","","16","9664","2068","&#9776;","elianto","#3366ff99"," "," ","1","+10","[1474.1000000238419]","1","0","1","","","","","","","",""
"pit-trial","26","586388","0.0-2.0-8.1-1.1","battery-v0.2","","""event"",""trial"",""time""
""blur"",""1"",""6035""
""focus"",""1"",""6986""
""fullscreenenter"",""1"",""7161""
""fullscreenexit"",""7"",""280640""
""blur"",""7"",""282008""
""focus"",""7"",""325174""
","""event"",""trial"",""time""
""blur"",""1"",""6035""
""blur"",""7"",""282008""
","""event"",""trial"",""time""
""focus"",""1"",""6986""
""focus"",""7"",""325174""
","""event"",""trial"",""time""
""fullscreenenter"",""1"",""7161""
","""event"",""trial"",""time""
""fullscreenexit"",""7"",""280640""
","","","648.6999999284744","","","16","9664","2068","&#9776;","elianto","#3366ff99"," "," ","1","+10","[1508]","1","0","1","","","","","","","",""
"pit-trial","27","590003","0.0-2.0-8.1-2.1","battery-v0.2","","""event"",""trial"",""time""
""blur"",""1"",""6035""
""focus"",""1"",""6986""
""fullscreenenter"",""1"",""7161""
""fullscreenexit"",""7"",""280640""
""blur"",""7"",""282008""
""focus"",""7"",""325174""
","""event"",""trial"",""time""
""blur"",""1"",""6035""
""blur"",""7"",""282008""
","""event"",""trial"",""time""
""focus"",""1"",""6986""
""focus"",""7"",""325174""
","""event"",""trial"",""time""
""fullscreenenter"",""1"",""7161""
","""event"",""trial"",""time""
""fullscreenexit"",""7"",""280640""
","","","749.7000000476837","","","16","9664","2068","&#9776;","elianto","#3366ff99"," "," ","1","+10","[1601.2000000476837]","1","0","1","","","","","","","",""
"pit-trial","28","594190","0.0-2.0-8.1-3.1","battery-v0.2","","""event"",""trial"",""time""
""blur"",""1"",""6035""
""focus"",""1"",""6986""
""fullscreenenter"",""1"",""7161""
""fullscreenexit"",""7"",""280640""
""blur"",""7"",""282008""
""focus"",""7"",""325174""
","""event"",""trial"",""time""
""blur"",""1"",""6035""
""blur"",""7"",""282008""
","""event"",""trial"",""time""
""focus"",""1"",""6986""
""focus"",""7"",""325174""
","""event"",""trial"",""time""
""fullscreenenter"",""1"",""7161""
","""event"",""trial"",""time""
""fullscreenexit"",""7"",""280640""
","","","1323.2000000476837","","","16","9664","2068","&#9776;","elianto","#3366ff99"," "," ","1","0","[2176.2999999523163]","1","0","1","","","","","","","",""
"pit-trial","29","597960","0.0-2.0-8.1-4.1","battery-v0.2","","""event"",""trial"",""time""
""blur"",""1"",""6035""
""focus"",""1"",""6986""
""fullscreenenter"",""1"",""7161""
""fullscreenexit"",""7"",""280640""
""blur"",""7"",""282008""
""focus"",""7"",""325174""
","""event"",""trial"",""time""
""blur"",""1"",""6035""
""blur"",""7"",""282008""
","""event"",""trial"",""time""
""focus"",""1"",""6986""
""focus"",""7"",""325174""
","""event"",""trial"",""time""
""fullscreenenter"",""1"",""7161""
","""event"",""trial"",""time""
""fullscreenexit"",""7"",""280640""
","","","916.3000000715256","","","16","9664","2068","&#9776;","elianto","#3366ff99"," "," ","1","+10","[1767.1000000238419]","1","0","1","","","","","","","",""
"pit-trial","30","601976","0.0-2.0-8.2-0.2","battery-v0.2","","""event"",""trial"",""time""
""blur"",""1"",""6035""
""focus"",""1"",""6986""
""fullscreenenter"",""1"",""7161""
""fullscreenexit"",""7"",""280640""
""blur"",""7"",""282008""
""focus"",""7"",""325174""
","""event"",""trial"",""time""
""blur"",""1"",""6035""
""blur"",""7"",""282008""
","""event"",""trial"",""time""
""focus"",""1"",""6986""
""focus"",""7"",""325174""
","""event"",""trial"",""time""
""fullscreenenter"",""1"",""7161""
","""event"",""trial"",""time""
""fullscreenexit"",""7"",""280640""
","","","1153.6000000238419","","","16","9664","2068","&#9776;","elianto","#3366ff99"," "," ","1","+10","[2004.3999999761581]","1","0","1","","","","","","","",""
"pit-trial","31","606067","0.0-2.0-8.2-1.2","battery-v0.2","","""event"",""trial"",""time""
""blur"",""1"",""6035""
""focus"",""1"",""6986""
""fullscreenenter"",""1"",""7161""
""fullscreenexit"",""7"",""280640""
""blur"",""7"",""282008""
""focus"",""7"",""325174""
","""event"",""trial"",""time""
""blur"",""1"",""6035""
""blur"",""7"",""282008""
","""event"",""trial"",""time""
""focus"",""1"",""6986""
""focus"",""7"",""325174""
","""event"",""trial"",""time""
""fullscreenenter"",""1"",""7161""
","""event"",""trial"",""time""
""fullscreenexit"",""7"",""280640""
","","","1232","","","16","9664","2068","&#9776;","elianto","#3366ff99"," "," ","1","+10","[2082.399999976158]","1","0","1","","","","","","","",""
"pit-trial","32","609912","0.0-2.0-8.2-2.2","battery-v0.2","","""event"",""trial"",""time""
""blur"",""1"",""6035""
""focus"",""1"",""6986""
""fullscreenenter"",""1"",""7161""
""fullscreenexit"",""7"",""280640""
""blur"",""7"",""282008""
""focus"",""7"",""325174""
","""event"",""trial"",""time""
""blur"",""1"",""6035""
""blur"",""7"",""282008""
","""event"",""trial"",""time""
""focus"",""1"",""6986""
""focus"",""7"",""325174""
","""event"",""trial"",""time""
""fullscreenenter"",""1"",""7161""
","""event"",""trial"",""time""
""fullscreenexit"",""7"",""280640""
","","","991","","","16","9664","2068","&#9776;","elianto","#3366ff99"," "," ","1","+10","[1841.5]","1","0","1","","","","","","","",""
"pit-trial","33","613509","0.0-2.0-8.2-3.2","battery-v0.2","","""event"",""trial"",""time""
""blur"",""1"",""6035""
""focus"",""1"",""6986""
""fullscreenenter"",""1"",""7161""
""fullscreenexit"",""7"",""280640""
""blur"",""7"",""282008""
""focus"",""7"",""325174""
","""event"",""trial"",""time""
""blur"",""1"",""6035""
""blur"",""7"",""282008""
","""event"",""trial"",""time""
""focus"",""1"",""6986""
""focus"",""7"",""325174""
","""event"",""trial"",""time""
""fullscreenenter"",""1"",""7161""
","""event"",""trial"",""time""
""fullscreenexit"",""7"",""280640""
","","","736.2000000476837","","","16","9664","2068","&#9776;","elianto","#3366ff99"," "," ","1","0","[1587.1000000238419]","1","0","1","","","","","","","",""
"pit-trial","34","616840","0.0-2.0-8.2-4.2","battery-v0.2","","""event"",""trial"",""time""
""blur"",""1"",""6035""
""focus"",""1"",""6986""
""fullscreenenter"",""1"",""7161""
""fullscreenexit"",""7"",""280640""
""blur"",""7"",""282008""
""focus"",""7"",""325174""
","""event"",""trial"",""time""
""blur"",""1"",""6035""
""blur"",""7"",""282008""
","""event"",""trial"",""time""
""focus"",""1"",""6986""
""focus"",""7"",""325174""
","""event"",""trial"",""time""
""fullscreenenter"",""1"",""7161""
","""event"",""trial"",""time""
""fullscreenexit"",""7"",""280640""
","","","468.7999999523163","","","16","9664","2068","&#9776;","elianto","#3366ff99"," "," ","1","+10","[1320.2999999523163]","1","0","1","","","","","","","",""
"call-function","35","616843","0.0-2.0-9.0","battery-v0.2","","""event"",""trial"",""time""
""blur"",""1"",""6035""
""focus"",""1"",""6986""
""fullscreenenter"",""1"",""7161""
""fullscreenexit"",""7"",""280640""
""blur"",""7"",""282008""
""focus"",""7"",""325174""
","""event"",""trial"",""time""
""blur"",""1"",""6035""
""blur"",""7"",""282008""
","""event"",""trial"",""time""
""focus"",""1"",""6986""
""focus"",""7"",""325174""
","""event"",""trial"",""time""
""fullscreenenter"",""1"",""7161""
","""event"",""trial"",""time""
""fullscreenexit"",""7"",""280640""
","","","","","","","","","","","","","","","","","","","","","","","","","","",""
"pit-instructions","36","676042","0.0-2.0-10.0","battery-v0.2","","""event"",""trial"",""time""
""blur"",""1"",""6035""
""focus"",""1"",""6986""
""fullscreenenter"",""1"",""7161""
""fullscreenexit"",""7"",""280640""
""blur"",""7"",""282008""
""focus"",""7"",""325174""
","""event"",""trial"",""time""
""blur"",""1"",""6035""
""blur"",""7"",""282008""
","""event"",""trial"",""time""
""focus"",""1"",""6986""
""focus"",""7"",""325174""
","""event"",""trial"",""time""
""fullscreenenter"",""1"",""7161""
","""event"",""trial"",""time""
""fullscreenexit"",""7"",""280640""
","","[{""page_index"":0,""viewing_time"":21357.799999952316},{""page_index"":1,""viewing_time"":9570.700000047684},{""page_index"":2,""viewing_time"":9557.199999928474},{""page_index"":3,""viewing_time"":11496.600000023842},{""page_index"":4,""viewing_time"":7215.799999952316}]","59198.699999928474","","","","","","","","","","","","","","","","","","","","","","","",""
"pit-trial","37","679880","0.0-2.0-11.0-0.0","battery-v0.2","","""event"",""trial"",""time""
""blur"",""1"",""6035""
""focus"",""1"",""6986""
""fullscreenenter"",""1"",""7161""
""fullscreenexit"",""7"",""280640""
""blur"",""7"",""282008""
""focus"",""7"",""325174""
","""event"",""trial"",""time""
""blur"",""1"",""6035""
""blur"",""7"",""282008""
","""event"",""trial"",""time""
""focus"",""1"",""6986""
""focus"",""7"",""325174""
","""event"",""trial"",""time""
""fullscreenenter"",""1"",""7161""
","""event"",""trial"",""time""
""fullscreenexit"",""7"",""280640""
","","","970.2999999523163","","","16","9664","2068","&#9761;","elianto","#3366ff99","-1"," ","0","0","[1827.5]","1","0","2","","","","","","","",""
"pit-trial","38","683237","0.0-2.0-11.0-1.0","battery-v0.2","","""event"",""trial"",""time""
""blur"",""1"",""6035""
""focus"",""1"",""6986""
""fullscreenenter"",""1"",""7161""
""fullscreenexit"",""7"",""280640""
""blur"",""7"",""282008""
""focus"",""7"",""325174""
","""event"",""trial"",""time""
""blur"",""1"",""6035""
""blur"",""7"",""282008""
","""event"",""trial"",""time""
""focus"",""1"",""6986""
""focus"",""7"",""325174""
","""event"",""trial"",""time""
""fullscreenenter"",""1"",""7161""
","""event"",""trial"",""time""
""fullscreenexit"",""7"",""280640""
","","","494","","","16","9664","2068","&#9761;","elianto","#3366ff99","-1"," ","0","0","[1348.6999999284744]","1","0","2","","","","","","","",""
"pit-trial","39","686740","0.0-2.0-11.0-2.0","battery-v0.2","","""event"",""trial"",""time""
""blur"",""1"",""6035""
""focus"",""1"",""6986""
""fullscreenenter"",""1"",""7161""
""fullscreenexit"",""7"",""280640""
""blur"",""7"",""282008""
""focus"",""7"",""325174""
","""event"",""trial"",""time""
""blur"",""1"",""6035""
""blur"",""7"",""282008""
","""event"",""trial"",""time""
""focus"",""1"",""6986""
""focus"",""7"",""325174""
","""event"",""trial"",""time""
""fullscreenenter"",""1"",""7161""
","""event"",""trial"",""time""
""fullscreenexit"",""7"",""280640""
","","","637.1999999284744","","","16","9664","2068","&#9761;","elianto","#3366ff99","-1"," ","0","0","[1489.3999999761581]","1","0","2","","","","","","","",""
"pit-trial","40","691621","0.0-2.0-11.0-3.0","battery-v0.2","","""event"",""trial"",""time""
""blur"",""1"",""6035""
""focus"",""1"",""6986""
""fullscreenenter"",""1"",""7161""
""fullscreenexit"",""7"",""280640""
""blur"",""7"",""282008""
""focus"",""7"",""325174""
","""event"",""trial"",""time""
""blur"",""1"",""6035""
""blur"",""7"",""282008""
","""event"",""trial"",""time""
""focus"",""1"",""6986""
""focus"",""7"",""325174""
","""event"",""trial"",""time""
""fullscreenenter"",""1"",""7161""
","""event"",""trial"",""time""
""fullscreenexit"",""7"",""280640""
","","","-1","","","16","9664","2068","&#9761;","elianto","#3366ff99","-1","-1","1","0","[]","0","0","2","","","","","","","",""
"pit-trial","41","696481","0.0-2.0-11.0-4.0","battery-v0.2","","""event"",""trial"",""time""
""blur"",""1"",""6035""
""focus"",""1"",""6986""
""fullscreenenter"",""1"",""7161""
""fullscreenexit"",""7"",""280640""
""blur"",""7"",""282008""
""focus"",""7"",""325174""
","""event"",""trial"",""time""
""blur"",""1"",""6035""
""blur"",""7"",""282008""
","""event"",""trial"",""time""
""focus"",""1"",""6986""
""focus"",""7"",""325174""
","""event"",""trial"",""time""
""fullscreenenter"",""1"",""7161""
","""event"",""trial"",""time""
""fullscreenexit"",""7"",""280640""
","","","-1","","","16","9664","2068","&#9761;","elianto","#3366ff99","-1","-1","1","+10","[]","0","0","2","","","","","","","",""
"pit-trial","42","701352","0.0-2.0-11.1-0.1","battery-v0.2","","""event"",""trial"",""time""
""blur"",""1"",""6035""
""focus"",""1"",""6986""
""fullscreenenter"",""1"",""7161""
""fullscreenexit"",""7"",""280640""
""blur"",""7"",""282008""
""focus"",""7"",""325174""
","""event"",""trial"",""time""
""blur"",""1"",""6035""
""blur"",""7"",""282008""
","""event"",""trial"",""time""
""focus"",""1"",""6986""
""focus"",""7"",""325174""
","""event"",""trial"",""time""
""fullscreenenter"",""1"",""7161""
","""event"",""trial"",""time""
""fullscreenexit"",""7"",""280640""
","","","-1","","","16","9664","2068","&#9761;","elianto","#3366ff99","-1","-1","1","+10","[]","0","0","2","","","","","","","",""
"pit-trial","43","706215","0.0-2.0-11.1-1.1","battery-v0.2","","""event"",""trial"",""time""
""blur"",""1"",""6035""
""focus"",""1"",""6986""
""fullscreenenter"",""1"",""7161""
""fullscreenexit"",""7"",""280640""
""blur"",""7"",""282008""
""focus"",""7"",""325174""
","""event"",""trial"",""time""
""blur"",""1"",""6035""
""blur"",""7"",""282008""
","""event"",""trial"",""time""
""focus"",""1"",""6986""
""focus"",""7"",""325174""
","""event"",""trial"",""time""
""fullscreenenter"",""1"",""7161""
","""event"",""trial"",""time""
""fullscreenexit"",""7"",""280640""
","","","-1","","","16","9664","2068","&#9761;","elianto","#3366ff99","-1","-1","1","+10","[]","0","0","2","","","","","","","",""
"pit-trial","44","711070","0.0-2.0-11.1-2.1","battery-v0.2","","""event"",""trial"",""time""
""blur"",""1"",""6035""
""focus"",""1"",""6986""
""fullscreenenter"",""1"",""7161""
""fullscreenexit"",""7"",""280640""
""blur"",""7"",""282008""
""focus"",""7"",""325174""
","""event"",""trial"",""time""
""blur"",""1"",""6035""
""blur"",""7"",""282008""
","""event"",""trial"",""time""
""focus"",""1"",""6986""
""focus"",""7"",""325174""
","""event"",""trial"",""time""
""fullscreenenter"",""1"",""7161""
","""event"",""trial"",""time""
""fullscreenexit"",""7"",""280640""
","","","-1","","","16","9664","2068","&#9761;","elianto","#3366ff99","-1","-1","1","+10","[]","0","0","2","","","","","","","",""
"pit-trial","45","715929","0.0-2.0-11.1-3.1","battery-v0.2","","""event"",""trial"",""time""
""blur"",""1"",""6035""
""focus"",""1"",""6986""
""fullscreenenter"",""1"",""7161""
""fullscreenexit"",""7"",""280640""
""blur"",""7"",""282008""
""focus"",""7"",""325174""
","""event"",""trial"",""time""
""blur"",""1"",""6035""
""blur"",""7"",""282008""
","""event"",""trial"",""time""
""focus"",""1"",""6986""
""focus"",""7"",""325174""
","""event"",""trial"",""time""
""fullscreenenter"",""1"",""7161""
","""event"",""trial"",""time""
""fullscreenexit"",""7"",""280640""
","","","-1","","","16","9664","2068","&#9761;","elianto","#3366ff99","-1","-1","1","0","[]","0","0","2","","","","","","","",""
"pit-trial","46","720790","0.0-2.0-11.1-4.1","battery-v0.2","","""event"",""trial"",""time""
""blur"",""1"",""6035""
""focus"",""1"",""6986""
""fullscreenenter"",""1"",""7161""
""fullscreenexit"",""7"",""280640""
""blur"",""7"",""282008""
""focus"",""7"",""325174""
","""event"",""trial"",""time""
""blur"",""1"",""6035""
""blur"",""7"",""282008""
","""event"",""trial"",""time""
""focus"",""1"",""6986""
""focus"",""7"",""325174""
","""event"",""trial"",""time""
""fullscreenenter"",""1"",""7161""
","""event"",""trial"",""time""
""fullscreenexit"",""7"",""280640""
","","","-1","","","16","9664","2068","&#9761;","elianto","#3366ff99","-1","-1","1","+10","[]","0","0","2","","","","","","","",""
"pit-trial","47","725655","0.0-2.0-11.2-0.2","battery-v0.2","","""event"",""trial"",""time""
""blur"",""1"",""6035""
""focus"",""1"",""6986""
""fullscreenenter"",""1"",""7161""
""fullscreenexit"",""7"",""280640""
""blur"",""7"",""282008""
""focus"",""7"",""325174""
","""event"",""trial"",""time""
""blur"",""1"",""6035""
""blur"",""7"",""282008""
","""event"",""trial"",""time""
""focus"",""1"",""6986""
""focus"",""7"",""325174""
","""event"",""trial"",""time""
""fullscreenenter"",""1"",""7161""
","""event"",""trial"",""time""
""fullscreenexit"",""7"",""280640""
","","","-1","","","16","9664","2068","&#9761;","elianto","#3366ff99","-1","-1","1","+10","[]","0","0","2","","","","","","","",""
"pit-trial","48","730518","0.0-2.0-11.2-1.2","battery-v0.2","","""event"",""trial"",""time""
""blur"",""1"",""6035""
""focus"",""1"",""6986""
""fullscreenenter"",""1"",""7161""
""fullscreenexit"",""7"",""280640""
""blur"",""7"",""282008""
""focus"",""7"",""325174""
","""event"",""trial"",""time""
""blur"",""1"",""6035""
""blur"",""7"",""282008""
","""event"",""trial"",""time""
""focus"",""1"",""6986""
""focus"",""7"",""325174""
","""event"",""trial"",""time""
""fullscreenenter"",""1"",""7161""
","""event"",""trial"",""time""
""fullscreenexit"",""7"",""280640""
","","","-1","","","16","9664","2068","&#9761;","elianto","#3366ff99","-1","-1","1","+10","[]","0","0","2","","","","","","","",""
"pit-trial","49","735383","0.0-2.0-11.2-2.2","battery-v0.2","","""event"",""trial"",""time""
""blur"",""1"",""6035""
""focus"",""1"",""6986""
""fullscreenenter"",""1"",""7161""
""fullscreenexit"",""7"",""280640""
""blur"",""7"",""282008""
""focus"",""7"",""325174""
","""event"",""trial"",""time""
""blur"",""1"",""6035""
""blur"",""7"",""282008""
","""event"",""trial"",""time""
""focus"",""1"",""6986""
""focus"",""7"",""325174""
","""event"",""trial"",""time""
""fullscreenenter"",""1"",""7161""
","""event"",""trial"",""time""
""fullscreenexit"",""7"",""280640""
","","","-1","","","16","9664","2068","&#9761;","elianto","#3366ff99","-1","-1","1","+10","[]","0","0","2","","","","","","","",""
"pit-trial","50","740243","0.0-2.0-11.2-3.2","battery-v0.2","","""event"",""trial"",""time""
""blur"",""1"",""6035""
""focus"",""1"",""6986""
""fullscreenenter"",""1"",""7161""
""fullscreenexit"",""7"",""280640""
""blur"",""7"",""282008""
""focus"",""7"",""325174""
","""event"",""trial"",""time""
""blur"",""1"",""6035""
""blur"",""7"",""282008""
","""event"",""trial"",""time""
""focus"",""1"",""6986""
""focus"",""7"",""325174""
","""event"",""trial"",""time""
""fullscreenenter"",""1"",""7161""
","""event"",""trial"",""time""
""fullscreenexit"",""7"",""280640""
","","","-1","","","16","9664","2068","&#9761;","elianto","#3366ff99","-1","-1","1","0","[]","0","0","2","","","","","","","",""
"pit-trial","51","745111","0.0-2.0-11.2-4.2","battery-v0.2","","""event"",""trial"",""time""
""blur"",""1"",""6035""
""focus"",""1"",""6986""
""fullscreenenter"",""1"",""7161""
""fullscreenexit"",""7"",""280640""
""blur"",""7"",""282008""
""focus"",""7"",""325174""
","""event"",""trial"",""time""
""blur"",""1"",""6035""
""blur"",""7"",""282008""
","""event"",""trial"",""time""
""focus"",""1"",""6986""
""focus"",""7"",""325174""
","""event"",""trial"",""time""
""fullscreenenter"",""1"",""7161""
","""event"",""trial"",""time""
""fullscreenexit"",""7"",""280640""
","","","-1","","","16","9664","2068","&#9761;","elianto","#3366ff99","-1","-1","1","+10","[]","0","0","2","","","","","","","",""
"pit-trial","52","749972","0.0-2.0-11.3-0.3","battery-v0.2","","""event"",""trial"",""time""
""blur"",""1"",""6035""
""focus"",""1"",""6986""
""fullscreenenter"",""1"",""7161""
""fullscreenexit"",""7"",""280640""
""blur"",""7"",""282008""
""focus"",""7"",""325174""
","""event"",""trial"",""time""
""blur"",""1"",""6035""
""blur"",""7"",""282008""
","""event"",""trial"",""time""
""focus"",""1"",""6986""
""focus"",""7"",""325174""
","""event"",""trial"",""time""
""fullscreenenter"",""1"",""7161""
","""event"",""trial"",""time""
""fullscreenexit"",""7"",""280640""
","","","-1","","","16","9664","2068","&#9761;","elianto","#3366ff99","-1","-1","1","+10","[]","0","0","2","","","","","","","",""
"pit-trial","53","754832","0.0-2.0-11.3-1.3","battery-v0.2","","""event"",""trial"",""time""
""blur"",""1"",""6035""
""focus"",""1"",""6986""
""fullscreenenter"",""1"",""7161""
""fullscreenexit"",""7"",""280640""
""blur"",""7"",""282008""
""focus"",""7"",""325174""
","""event"",""trial"",""time""
""blur"",""1"",""6035""
""blur"",""7"",""282008""
","""event"",""trial"",""time""
""focus"",""1"",""6986""
""focus"",""7"",""325174""
","""event"",""trial"",""time""
""fullscreenenter"",""1"",""7161""
","""event"",""trial"",""time""
""fullscreenexit"",""7"",""280640""
","","","-1","","","16","9664","2068","&#9761;","elianto","#3366ff99","-1","-1","1","+10","[]","0","0","2","","","","","","","",""
"pit-trial","54","759693","0.0-2.0-11.3-2.3","battery-v0.2","","""event"",""trial"",""time""
""blur"",""1"",""6035""
""focus"",""1"",""6986""
""fullscreenenter"",""1"",""7161""
""fullscreenexit"",""7"",""280640""
""blur"",""7"",""282008""
""focus"",""7"",""325174""
","""event"",""trial"",""time""
""blur"",""1"",""6035""
""blur"",""7"",""282008""
","""event"",""trial"",""time""
""focus"",""1"",""6986""
""focus"",""7"",""325174""
","""event"",""trial"",""time""
""fullscreenenter"",""1"",""7161""
","""event"",""trial"",""time""
""fullscreenexit"",""7"",""280640""
","","","-1","","","16","9664","2068","&#9761;","elianto","#3366ff99","-1","-1","1","+10","[]","0","0","2","","","","","","","",""
"pit-trial","55","764555","0.0-2.0-11.3-3.3","battery-v0.2","","""event"",""trial"",""time""
""blur"",""1"",""6035""
""focus"",""1"",""6986""
""fullscreenenter"",""1"",""7161""
""fullscreenexit"",""7"",""280640""
""blur"",""7"",""282008""
""focus"",""7"",""325174""
","""event"",""trial"",""time""
""blur"",""1"",""6035""
""blur"",""7"",""282008""
","""event"",""trial"",""time""
""focus"",""1"",""6986""
""focus"",""7"",""325174""
","""event"",""trial"",""time""
""fullscreenenter"",""1"",""7161""
","""event"",""trial"",""time""
""fullscreenexit"",""7"",""280640""
","","","-1","","","16","9664","2068","&#9761;","elianto","#3366ff99","-1","-1","1","0","[]","0","0","2","","","","","","","",""
"pit-trial","56","769414","0.0-2.0-11.3-4.3","battery-v0.2","","""event"",""trial"",""time""
""blur"",""1"",""6035""
""focus"",""1"",""6986""
""fullscreenenter"",""1"",""7161""
""fullscreenexit"",""7"",""280640""
""blur"",""7"",""282008""
""focus"",""7"",""325174""
","""event"",""trial"",""time""
""blur"",""1"",""6035""
""blur"",""7"",""282008""
","""event"",""trial"",""time""
""focus"",""1"",""6986""
""focus"",""7"",""325174""
","""event"",""trial"",""time""
""fullscreenenter"",""1"",""7161""
","""event"",""trial"",""time""
""fullscreenexit"",""7"",""280640""
","","","-1","","","16","9664","2068","&#9761;","elianto","#3366ff99","-1","-1","1","+10","[]","0","0","2","","","","","","","",""
"call-function","57","769416","0.0-2.0-12.0","battery-v0.2","","""event"",""trial"",""time""
""blur"",""1"",""6035""
""focus"",""1"",""6986""
""fullscreenenter"",""1"",""7161""
""fullscreenexit"",""7"",""280640""
""blur"",""7"",""282008""
""focus"",""7"",""325174""
","""event"",""trial"",""time""
""blur"",""1"",""6035""
""blur"",""7"",""282008""
","""event"",""trial"",""time""
""focus"",""1"",""6986""
""focus"",""7"",""325174""
","""event"",""trial"",""time""
""fullscreenenter"",""1"",""7161""
","""event"",""trial"",""time""
""fullscreenexit"",""7"",""280640""
","","","","","","","","","","","","","","","","","","","","","","","","","","",""
"pit-instructions","58","805287","0.0-2.0-13.0","battery-v0.2","","""event"",""trial"",""time""
""blur"",""1"",""6035""
""focus"",""1"",""6986""
""fullscreenenter"",""1"",""7161""
""fullscreenexit"",""7"",""280640""
""blur"",""7"",""282008""
""focus"",""7"",""325174""
","""event"",""trial"",""time""
""blur"",""1"",""6035""
""blur"",""7"",""282008""
","""event"",""trial"",""time""
""focus"",""1"",""6986""
""focus"",""7"",""325174""
","""event"",""trial"",""time""
""fullscreenenter"",""1"",""7161""
","""event"",""trial"",""time""
""fullscreenexit"",""7"",""280640""
","","[{""page_index"":0,""viewing_time"":8957.799999952316},{""page_index"":1,""viewing_time"":6791.800000071526},{""page_index"":2,""viewing_time"":3928},{""page_index"":3,""viewing_time"":11152.5},{""page_index"":4,""viewing_time"":5040}]","35870.5","","","","","","","","","","","","","","","","","","","","","","","",""
"pit-trial","59","809258","0.0-2.0-14.0-0.0","battery-v0.2","","""event"",""trial"",""time""
""blur"",""1"",""6035""
""focus"",""1"",""6986""
""fullscreenenter"",""1"",""7161""
""fullscreenexit"",""7"",""280640""
""blur"",""7"",""282008""
""focus"",""7"",""325174""
","""event"",""trial"",""time""
""blur"",""1"",""6035""
""blur"",""7"",""282008""
","""event"",""trial"",""time""
""focus"",""1"",""6986""
""focus"",""7"",""325174""
","""event"",""trial"",""time""
""fullscreenenter"",""1"",""7161""
","""event"",""trial"",""time""
""fullscreenexit"",""7"",""280640""
","","","1112.8999999761581","","","16","9664","2068","&#9826;","elianto","#f73b6a7A","-1"," ","0","-10","[1963.3000000715256]","1","0","3","","","","","","","",""
"pit-trial","60","812400","0.0-2.0-14.0-1.0","battery-v0.2","","""event"",""trial"",""time""
""blur"",""1"",""6035""
""focus"",""1"",""6986""
""fullscreenenter"",""1"",""7161""
""fullscreenexit"",""7"",""280640""
""blur"",""7"",""282008""
""focus"",""7"",""325174""
","""event"",""trial"",""time""
""blur"",""1"",""6035""
""blur"",""7"",""282008""
","""event"",""trial"",""time""
""focus"",""1"",""6986""
""focus"",""7"",""325174""
","""event"",""trial"",""time""
""fullscreenenter"",""1"",""7161""
","""event"",""trial"",""time""
""fullscreenexit"",""7"",""280640""
","","","273.10000002384186","","","16","9664","2068","&#9826;","elianto","#f73b6a7A","-1"," ","0","-10","[1127.5]","1","0","3","","","","","","","",""
"pit-trial","61","815510","0.0-2.0-14.0-2.0","battery-v0.2","","""event"",""trial"",""time""
""blur"",""1"",""6035""
""focus"",""1"",""6986""
""fullscreenenter"",""1"",""7161""
""fullscreenexit"",""7"",""280640""
""blur"",""7"",""282008""
""focus"",""7"",""325174""
","""event"",""trial"",""time""
""blur"",""1"",""6035""
""blur"",""7"",""282008""
","""event"",""trial"",""time""
""focus"",""1"",""6986""
""focus"",""7"",""325174""
","""event"",""trial"",""time""
""fullscreenenter"",""1"",""7161""
","""event"",""trial"",""time""
""fullscreenexit"",""7"",""280640""
","","","246.89999997615814","","","16","9664","2068","&#9826;","elianto","#f73b6a7A","-1"," ","0","-10","[1099.7999999523163]","1","0","3","","","","","","","",""
"pit-trial","62","820370","0.0-2.0-14.0-3.0","battery-v0.2","","""event"",""trial"",""time""
""blur"",""1"",""6035""
""focus"",""1"",""6986""
""fullscreenenter"",""1"",""7161""
""fullscreenexit"",""7"",""280640""
""blur"",""7"",""282008""
""focus"",""7"",""325174""
","""event"",""trial"",""time""
""blur"",""1"",""6035""
""blur"",""7"",""282008""
","""event"",""trial"",""time""
""focus"",""1"",""6986""
""focus"",""7"",""325174""
","""event"",""trial"",""time""
""fullscreenenter"",""1"",""7161""
","""event"",""trial"",""time""
""fullscreenexit"",""7"",""280640""
","","","-1","","","16","9664","2068","&#9826;","elianto","#f73b6a7A","-1","-1","1","-10","[]","0","0","3","","","","","","","",""
"pit-trial","63","825230","0.0-2.0-14.0-4.0","battery-v0.2","","""event"",""trial"",""time""
""blur"",""1"",""6035""
""focus"",""1"",""6986""
""fullscreenenter"",""1"",""7161""
""fullscreenexit"",""7"",""280640""
""blur"",""7"",""282008""
""focus"",""7"",""325174""
","""event"",""trial"",""time""
""blur"",""1"",""6035""
""blur"",""7"",""282008""
","""event"",""trial"",""time""
""focus"",""1"",""6986""
""focus"",""7"",""325174""
","""event"",""trial"",""time""
""fullscreenenter"",""1"",""7161""
","""event"",""trial"",""time""
""fullscreenexit"",""7"",""280640""
","","","-1","","","16","9664","2068","&#9826;","elianto","#f73b6a7A","-1","-1","1","0","[]","0","0","3","","","","","","","",""
"pit-trial","64","830101","0.0-2.0-14.1-0.1","battery-v0.2","","""event"",""trial"",""time""
""blur"",""1"",""6035""
""focus"",""1"",""6986""
""fullscreenenter"",""1"",""7161""
""fullscreenexit"",""7"",""280640""
""blur"",""7"",""282008""
""focus"",""7"",""325174""
","""event"",""trial"",""time""
""blur"",""1"",""6035""
""blur"",""7"",""282008""
","""event"",""trial"",""time""
""focus"",""1"",""6986""
""focus"",""7"",""325174""
","""event"",""trial"",""time""
""fullscreenenter"",""1"",""7161""
","""event"",""trial"",""time""
""fullscreenexit"",""7"",""280640""
","","","-1","","","16","9664","2068","&#9826;","elianto","#f73b6a7A","-1","-1","1","0","[]","0","0","3","","","","","","","",""
"pit-trial","65","834972","0.0-2.0-14.1-1.1","battery-v0.2","","""event"",""trial"",""time""
""blur"",""1"",""6035""
""focus"",""1"",""6986""
""fullscreenenter"",""1"",""7161""
""fullscreenexit"",""7"",""280640""
""blur"",""7"",""282008""
""focus"",""7"",""325174""
","""event"",""trial"",""time""
""blur"",""1"",""6035""
""blur"",""7"",""282008""
","""event"",""trial"",""time""
""focus"",""1"",""6986""
""focus"",""7"",""325174""
","""event"",""trial"",""time""
""fullscreenenter"",""1"",""7161""
","""event"",""trial"",""time""
""fullscreenexit"",""7"",""280640""
","","","-1","","","16","9664","2068","&#9826;","elianto","#f73b6a7A","-1","-1","1","0","[]","0","0","3","","","","","","","",""
"pit-trial","66","839827","0.0-2.0-14.1-2.1","battery-v0.2","","""event"",""trial"",""time""
""blur"",""1"",""6035""
""focus"",""1"",""6986""
""fullscreenenter"",""1"",""7161""
""fullscreenexit"",""7"",""280640""
""blur"",""7"",""282008""
""focus"",""7"",""325174""
","""event"",""trial"",""time""
""blur"",""1"",""6035""
""blur"",""7"",""282008""
","""event"",""trial"",""time""
""focus"",""1"",""6986""
""focus"",""7"",""325174""
","""event"",""trial"",""time""
""fullscreenenter"",""1"",""7161""
","""event"",""trial"",""time""
""fullscreenexit"",""7"",""280640""
","","","-1","","","16","9664","2068","&#9826;","elianto","#f73b6a7A","-1","-1","1","0","[]","0","0","3","","","","","","","",""
"pit-trial","67","844689","0.0-2.0-14.1-3.1","battery-v0.2","","""event"",""trial"",""time""
""blur"",""1"",""6035""
""focus"",""1"",""6986""
""fullscreenenter"",""1"",""7161""
""fullscreenexit"",""7"",""280640""
""blur"",""7"",""282008""
""focus"",""7"",""325174""
","""event"",""trial"",""time""
""blur"",""1"",""6035""
""blur"",""7"",""282008""
","""event"",""trial"",""time""
""focus"",""1"",""6986""
""focus"",""7"",""325174""
","""event"",""trial"",""time""
""fullscreenenter"",""1"",""7161""
","""event"",""trial"",""time""
""fullscreenexit"",""7"",""280640""
","","","-1","","","16","9664","2068","&#9826;","elianto","#f73b6a7A","-1","-1","1","-10","[]","0","0","3","","","","","","","",""
"pit-trial","68","849546","0.0-2.0-14.1-4.1","battery-v0.2","","""event"",""trial"",""time""
""blur"",""1"",""6035""
""focus"",""1"",""6986""
""fullscreenenter"",""1"",""7161""
""fullscreenexit"",""7"",""280640""
""blur"",""7"",""282008""
""focus"",""7"",""325174""
","""event"",""trial"",""time""
""blur"",""1"",""6035""
""blur"",""7"",""282008""
","""event"",""trial"",""time""
""focus"",""1"",""6986""
""focus"",""7"",""325174""
","""event"",""trial"",""time""
""fullscreenenter"",""1"",""7161""
","""event"",""trial"",""time""
""fullscreenexit"",""7"",""280640""
","","","-1","","","16","9664","2068","&#9826;","elianto","#f73b6a7A","-1","-1","1","0","[]","0","0","3","","","","","","","",""
"pit-trial","69","854409","0.0-2.0-14.2-0.2","battery-v0.2","","""event"",""trial"",""time""
""blur"",""1"",""6035""
""focus"",""1"",""6986""
""fullscreenenter"",""1"",""7161""
""fullscreenexit"",""7"",""280640""
""blur"",""7"",""282008""
""focus"",""7"",""325174""
","""event"",""trial"",""time""
""blur"",""1"",""6035""
""blur"",""7"",""282008""
","""event"",""trial"",""time""
""focus"",""1"",""6986""
""focus"",""7"",""325174""
","""event"",""trial"",""time""
""fullscreenenter"",""1"",""7161""
","""event"",""trial"",""time""
""fullscreenexit"",""7"",""280640""
","","","-1","","","16","9664","2068","&#9826;","elianto","#f73b6a7A","-1","-1","1","0","[]","0","0","3","","","","","","","",""
"pit-trial","70","859274","0.0-2.0-14.2-1.2","battery-v0.2","","""event"",""trial"",""time""
""blur"",""1"",""6035""
""focus"",""1"",""6986""
""fullscreenenter"",""1"",""7161""
""fullscreenexit"",""7"",""280640""
""blur"",""7"",""282008""
""focus"",""7"",""325174""
","""event"",""trial"",""time""
""blur"",""1"",""6035""
""blur"",""7"",""282008""
","""event"",""trial"",""time""
""focus"",""1"",""6986""
""focus"",""7"",""325174""
","""event"",""trial"",""time""
""fullscreenenter"",""1"",""7161""
","""event"",""trial"",""time""
""fullscreenexit"",""7"",""280640""
","","","-1","","","16","9664","2068","&#9826;","elianto","#f73b6a7A","-1","-1","1","0","[]","0","0","3","","","","","","","",""
"pit-trial","71","864135","0.0-2.0-14.2-2.2","battery-v0.2","","""event"",""trial"",""time""
""blur"",""1"",""6035""
""focus"",""1"",""6986""
""fullscreenenter"",""1"",""7161""
""fullscreenexit"",""7"",""280640""
""blur"",""7"",""282008""
""focus"",""7"",""325174""
","""event"",""trial"",""time""
""blur"",""1"",""6035""
""blur"",""7"",""282008""
","""event"",""trial"",""time""
""focus"",""1"",""6986""
""focus"",""7"",""325174""
","""event"",""trial"",""time""
""fullscreenenter"",""1"",""7161""
","""event"",""trial"",""time""
""fullscreenexit"",""7"",""280640""
","","","-1","","","16","9664","2068","&#9826;","elianto","#f73b6a7A","-1","-1","1","0","[]","0","0","3","","","","","","","",""
"pit-trial","72","868993","0.0-2.0-14.2-3.2","battery-v0.2","","""event"",""trial"",""time""
""blur"",""1"",""6035""
""focus"",""1"",""6986""
""fullscreenenter"",""1"",""7161""
""fullscreenexit"",""7"",""280640""
""blur"",""7"",""282008""
""focus"",""7"",""325174""
","""event"",""trial"",""time""
""blur"",""1"",""6035""
""blur"",""7"",""282008""
","""event"",""trial"",""time""
""focus"",""1"",""6986""
""focus"",""7"",""325174""
","""event"",""trial"",""time""
""fullscreenenter"",""1"",""7161""
","""event"",""trial"",""time""
""fullscreenexit"",""7"",""280640""
","","","-1","","","16","9664","2068","&#9826;","elianto","#f73b6a7A","-1","-1","1","-10","[]","0","0","3","","","","","","","",""
"pit-trial","73","873849","0.0-2.0-14.2-4.2","battery-v0.2","","""event"",""trial"",""time""
""blur"",""1"",""6035""
""focus"",""1"",""6986""
""fullscreenenter"",""1"",""7161""
""fullscreenexit"",""7"",""280640""
""blur"",""7"",""282008""
""focus"",""7"",""325174""
","""event"",""trial"",""time""
""blur"",""1"",""6035""
""blur"",""7"",""282008""
","""event"",""trial"",""time""
""focus"",""1"",""6986""
""focus"",""7"",""325174""
","""event"",""trial"",""time""
""fullscreenenter"",""1"",""7161""
","""event"",""trial"",""time""
""fullscreenexit"",""7"",""280640""
","","","-1","","","16","9664","2068","&#9826;","elianto","#f73b6a7A","-1","-1","1","0","[]","0","0","3","","","","","","","",""
"pit-trial","74","878711","0.0-2.0-14.3-0.3","battery-v0.2","","""event"",""trial"",""time""
""blur"",""1"",""6035""
""focus"",""1"",""6986""
""fullscreenenter"",""1"",""7161""
""fullscreenexit"",""7"",""280640""
""blur"",""7"",""282008""
""focus"",""7"",""325174""
","""event"",""trial"",""time""
""blur"",""1"",""6035""
""blur"",""7"",""282008""
","""event"",""trial"",""time""
""focus"",""1"",""6986""
""focus"",""7"",""325174""
","""event"",""trial"",""time""
""fullscreenenter"",""1"",""7161""
","""event"",""trial"",""time""
""fullscreenexit"",""7"",""280640""
","","","-1","","","16","9664","2068","&#9826;","elianto","#f73b6a7A","-1","-1","1","0","[]","0","0","3","","","","","","","",""
"pit-trial","75","883568","0.0-2.0-14.3-1.3","battery-v0.2","","""event"",""trial"",""time""
""blur"",""1"",""6035""
""focus"",""1"",""6986""
""fullscreenenter"",""1"",""7161""
""fullscreenexit"",""7"",""280640""
""blur"",""7"",""282008""
""focus"",""7"",""325174""
","""event"",""trial"",""time""
""blur"",""1"",""6035""
""blur"",""7"",""282008""
","""event"",""trial"",""time""
""focus"",""1"",""6986""
""focus"",""7"",""325174""
","""event"",""trial"",""time""
""fullscreenenter"",""1"",""7161""
","""event"",""trial"",""time""
""fullscreenexit"",""7"",""280640""
","","","-1","","","16","9664","2068","&#9826;","elianto","#f73b6a7A","-1","-1","1","0","[]","0","0","3","","","","","","","",""
"pit-trial","76","888426","0.0-2.0-14.3-2.3","battery-v0.2","","""event"",""trial"",""time""
""blur"",""1"",""6035""
""focus"",""1"",""6986""
""fullscreenenter"",""1"",""7161""
""fullscreenexit"",""7"",""280640""
""blur"",""7"",""282008""
""focus"",""7"",""325174""
","""event"",""trial"",""time""
""blur"",""1"",""6035""
""blur"",""7"",""282008""
","""event"",""trial"",""time""
""focus"",""1"",""6986""
""focus"",""7"",""325174""
","""event"",""trial"",""time""
""fullscreenenter"",""1"",""7161""
","""event"",""trial"",""time""
""fullscreenexit"",""7"",""280640""
","","","-1","","","16","9664","2068","&#9826;","elianto","#f73b6a7A","-1","-1","1","0","[]","0","0","3","","","","","","","",""
"pit-trial","77","893290","0.0-2.0-14.3-3.3","battery-v0.2","","""event"",""trial"",""time""
""blur"",""1"",""6035""
""focus"",""1"",""6986""
""fullscreenenter"",""1"",""7161""
""fullscreenexit"",""7"",""280640""
""blur"",""7"",""282008""
""focus"",""7"",""325174""
","""event"",""trial"",""time""
""blur"",""1"",""6035""
""blur"",""7"",""282008""
","""event"",""trial"",""time""
""focus"",""1"",""6986""
""focus"",""7"",""325174""
","""event"",""trial"",""time""
""fullscreenenter"",""1"",""7161""
","""event"",""trial"",""time""
""fullscreenexit"",""7"",""280640""
","","","-1","","","16","9664","2068","&#9826;","elianto","#f73b6a7A","-1","-1","1","-10","[]","0","0","3","","","","","","","",""
"pit-trial","78","898150","0.0-2.0-14.3-4.3","battery-v0.2","","""event"",""trial"",""time""
""blur"",""1"",""6035""
""focus"",""1"",""6986""
""fullscreenenter"",""1"",""7161""
""fullscreenexit"",""7"",""280640""
""blur"",""7"",""282008""
""focus"",""7"",""325174""
","""event"",""trial"",""time""
""blur"",""1"",""6035""
""blur"",""7"",""282008""
","""event"",""trial"",""time""
""focus"",""1"",""6986""
""focus"",""7"",""325174""
","""event"",""trial"",""time""
""fullscreenenter"",""1"",""7161""
","""event"",""trial"",""time""
""fullscreenexit"",""7"",""280640""
","","","-1","","","16","9664","2068","&#9826;","elianto","#f73b6a7A","-1","-1","1","0","[]","0","0","3","","","","","","","",""
"call-function","79","898153","0.0-2.0-15.0","battery-v0.2","","""event"",""trial"",""time""
""blur"",""1"",""6035""
""focus"",""1"",""6986""
""fullscreenenter"",""1"",""7161""
""fullscreenexit"",""7"",""280640""
""blur"",""7"",""282008""
""focus"",""7"",""325174""
","""event"",""trial"",""time""
""blur"",""1"",""6035""
""blur"",""7"",""282008""
","""event"",""trial"",""time""
""focus"",""1"",""6986""
""focus"",""7"",""325174""
","""event"",""trial"",""time""
""fullscreenenter"",""1"",""7161""
","""event"",""trial"",""time""
""fullscreenexit"",""7"",""280640""
","","","","","","","","","","","","","","","","","","","","","","","","","","",""
"pit-instructions","80","936513","0.0-2.0-16.0","battery-v0.2","","""event"",""trial"",""time""
""blur"",""1"",""6035""
""focus"",""1"",""6986""
""fullscreenenter"",""1"",""7161""
""fullscreenexit"",""7"",""280640""
""blur"",""7"",""282008""
""focus"",""7"",""325174""
","""event"",""trial"",""time""
""blur"",""1"",""6035""
""blur"",""7"",""282008""
","""event"",""trial"",""time""
""focus"",""1"",""6986""
""focus"",""7"",""325174""
","""event"",""trial"",""time""
""fullscreenenter"",""1"",""7161""
","""event"",""trial"",""time""
""fullscreenexit"",""7"",""280640""
","","[{""page_index"":0,""viewing_time"":7872},{""page_index"":1,""viewing_time"":11201.299999952316},{""page_index"":0,""viewing_time"":910.7000000476837},{""page_index"":1,""viewing_time"":8215.899999976158},{""page_index"":2,""viewing_time"":4360.100000023842},{""page_index"":3,""viewing_time"":5800}]","38360.39999997616","","","","","","","","","","","","","","","","","","","","","","","",""
"pit-trial","81","939882","0.0-2.0-17.0-0.0","battery-v0.2","","""event"",""trial"",""time""
""blur"",""1"",""6035""
""focus"",""1"",""6986""
""fullscreenenter"",""1"",""7161""
""fullscreenexit"",""7"",""280640""
""blur"",""7"",""282008""
""focus"",""7"",""325174""
","""event"",""trial"",""time""
""blur"",""1"",""6035""
""blur"",""7"",""282008""
","""event"",""trial"",""time""
""focus"",""1"",""6986""
""focus"",""7"",""325174""
","""event"",""trial"",""time""
""fullscreenenter"",""1"",""7161""
","""event"",""trial"",""time""
""fullscreenexit"",""7"",""280640""
","","","509","","","16","9664","2068","&#9789;","elianto","#f73b6a7A"," "," ","1","0","[1360]","1","0","4","","","","","","","",""
"pit-trial","82","943007","0.0-2.0-17.0-1.0","battery-v0.2","","""event"",""trial"",""time""
""blur"",""1"",""6035""
""focus"",""1"",""6986""
""fullscreenenter"",""1"",""7161""
""fullscreenexit"",""7"",""280640""
""blur"",""7"",""282008""
""focus"",""7"",""325174""
","""event"",""trial"",""time""
""blur"",""1"",""6035""
""blur"",""7"",""282008""
","""event"",""trial"",""time""
""focus"",""1"",""6986""
""focus"",""7"",""325174""
","""event"",""trial"",""time""
""fullscreenenter"",""1"",""7161""
","""event"",""trial"",""time""
""fullscreenexit"",""7"",""280640""
","","","267.1999999284744","","","16","9664","2068","&#9789;","elianto","#f73b6a7A"," "," ","1","0","[1118.1999999284744]","1","0","4","","","","","","","",""
"pit-trial","83","946215","0.0-2.0-17.0-2.0","battery-v0.2","","""event"",""trial"",""time""
""blur"",""1"",""6035""
""focus"",""1"",""6986""
""fullscreenenter"",""1"",""7161""
""fullscreenexit"",""7"",""280640""
""blur"",""7"",""282008""
""focus"",""7"",""325174""
","""event"",""trial"",""time""
""blur"",""1"",""6035""
""blur"",""7"",""282008""
","""event"",""trial"",""time""
""focus"",""1"",""6986""
""focus"",""7"",""325174""
","""event"",""trial"",""time""
""fullscreenenter"",""1"",""7161""
","""event"",""trial"",""time""
""fullscreenexit"",""7"",""280640""
","","","353.90000009536743","","","16","9664","2068","&#9789;","elianto","#f73b6a7A"," "," ","1","0","[1204.7000000476837]","1","0","4","","","","","","","",""
"pit-trial","84","949258","0.0-2.0-17.0-3.0","battery-v0.2","","""event"",""trial"",""time""
""blur"",""1"",""6035""
""focus"",""1"",""6986""
""fullscreenenter"",""1"",""7161""
""fullscreenexit"",""7"",""280640""
""blur"",""7"",""282008""
""focus"",""7"",""325174""
","""event"",""trial"",""time""
""blur"",""1"",""6035""
""blur"",""7"",""282008""
","""event"",""trial"",""time""
""focus"",""1"",""6986""
""focus"",""7"",""325174""
","""event"",""trial"",""time""
""fullscreenenter"",""1"",""7161""
","""event"",""trial"",""time""
""fullscreenexit"",""7"",""280640""
","","","176.79999995231628","","","16","9664","2068","&#9789;","elianto","#f73b6a7A"," "," ","1","-10","[1030.2999999523163]","1","0","4","","","","","","","",""
"pit-trial","85","952553","0.0-2.0-17.0-4.0","battery-v0.2","","""event"",""trial"",""time""
""blur"",""1"",""6035""
""focus"",""1"",""6986""
""fullscreenenter"",""1"",""7161""
""fullscreenexit"",""7"",""280640""
""blur"",""7"",""282008""
""focus"",""7"",""325174""
","""event"",""trial"",""time""
""blur"",""1"",""6035""
""blur"",""7"",""282008""
","""event"",""trial"",""time""
""focus"",""1"",""6986""
""focus"",""7"",""325174""
","""event"",""trial"",""time""
""fullscreenenter"",""1"",""7161""
","""event"",""trial"",""time""
""fullscreenexit"",""7"",""280640""
","","","416.5","","","16","9664","2068","&#9789;","elianto","#f73b6a7A"," "," ","1","0","[1277.3999999761581]","1","0","4","","","","","","","",""
"pit-trial","86","955595","0.0-2.0-17.1-0.1","battery-v0.2","","""event"",""trial"",""time""
""blur"",""1"",""6035""
""focus"",""1"",""6986""
""fullscreenenter"",""1"",""7161""
""fullscreenexit"",""7"",""280640""
""blur"",""7"",""282008""
""focus"",""7"",""325174""
","""event"",""trial"",""time""
""blur"",""1"",""6035""
""blur"",""7"",""282008""
","""event"",""trial"",""time""
""focus"",""1"",""6986""
""focus"",""7"",""325174""
","""event"",""trial"",""time""
""fullscreenenter"",""1"",""7161""
","""event"",""trial"",""time""
""fullscreenexit"",""7"",""280640""
","","","183.39999997615814","","","16","9664","2068","&#9789;","elianto","#f73b6a7A"," "," ","1","0","[1037]","1","0","4","","","","","","","",""
"pit-trial","87","958694","0.0-2.0-17.1-1.1","battery-v0.2","","""event"",""trial"",""time""
""blur"",""1"",""6035""
""focus"",""1"",""6986""
""fullscreenenter"",""1"",""7161""
""fullscreenexit"",""7"",""280640""
""blur"",""7"",""282008""
""focus"",""7"",""325174""
","""event"",""trial"",""time""
""blur"",""1"",""6035""
""blur"",""7"",""282008""
","""event"",""trial"",""time""
""focus"",""1"",""6986""
""focus"",""7"",""325174""
","""event"",""trial"",""time""
""fullscreenenter"",""1"",""7161""
","""event"",""trial"",""time""
""fullscreenexit"",""7"",""280640""
","","","223","","","16","9664","2068","&#9789;","elianto","#f73b6a7A"," "," ","1","0","[1080.2000000476837]","1","0","4","","","","","","","",""
"pit-trial","88","961969","0.0-2.0-17.1-2.1","battery-v0.2","","""event"",""trial"",""time""
""blur"",""1"",""6035""
""focus"",""1"",""6986""
""fullscreenenter"",""1"",""7161""
""fullscreenexit"",""7"",""280640""
""blur"",""7"",""282008""
""focus"",""7"",""325174""
","""event"",""trial"",""time""
""blur"",""1"",""6035""
""blur"",""7"",""282008""
","""event"",""trial"",""time""
""focus"",""1"",""6986""
""focus"",""7"",""325174""
","""event"",""trial"",""time""
""fullscreenenter"",""1"",""7161""
","""event"",""trial"",""time""
""fullscreenexit"",""7"",""280640""
","","","405.89999997615814","","","16","9664","2068","&#9789;","elianto","#f73b6a7A"," "," ","1","0","[1258.6000000238419]","1","0","4","","","","","","","",""
"pit-trial","89","965330","0.0-2.0-17.1-3.1","battery-v0.2","","""event"",""trial"",""time""
""blur"",""1"",""6035""
""focus"",""1"",""6986""
""fullscreenenter"",""1"",""7161""
""fullscreenexit"",""7"",""280640""
""blur"",""7"",""282008""
""focus"",""7"",""325174""
","""event"",""trial"",""time""
""blur"",""1"",""6035""
""blur"",""7"",""282008""
","""event"",""trial"",""time""
""focus"",""1"",""6986""
""focus"",""7"",""325174""
","""event"",""trial"",""time""
""fullscreenenter"",""1"",""7161""
","""event"",""trial"",""time""
""fullscreenexit"",""7"",""280640""
","","","500.5","","","16","9664","2068","&#9789;","elianto","#f73b6a7A"," "," ","1","-10","[1353.9000000953674]","1","0","4","","","","","","","",""
"pit-trial","90","968545","0.0-2.0-17.1-4.1","battery-v0.2","","""event"",""trial"",""time""
""blur"",""1"",""6035""
""focus"",""1"",""6986""
""fullscreenenter"",""1"",""7161""
""fullscreenexit"",""7"",""280640""
""blur"",""7"",""282008""
""focus"",""7"",""325174""
","""event"",""trial"",""time""
""blur"",""1"",""6035""
""blur"",""7"",""282008""
","""event"",""trial"",""time""
""focus"",""1"",""6986""
""focus"",""7"",""325174""
","""event"",""trial"",""time""
""fullscreenenter"",""1"",""7161""
","""event"",""trial"",""time""
""fullscreenexit"",""7"",""280640""
","","","357.2000000476837","","","16","9664","2068","&#9789;","elianto","#f73b6a7A"," "," ","1","0","[1207.6000000238419]","1","0","4","","","","","","","",""
"pit-trial","91","971857","0.0-2.0-17.2-0.2","battery-v0.2","","""event"",""trial"",""time""
""blur"",""1"",""6035""
""focus"",""1"",""6986""
""fullscreenenter"",""1"",""7161""
""fullscreenexit"",""7"",""280640""
""blur"",""7"",""282008""
""focus"",""7"",""325174""
","""event"",""trial"",""time""
""blur"",""1"",""6035""
""blur"",""7"",""282008""
","""event"",""trial"",""time""
""focus"",""1"",""6986""
""focus"",""7"",""325174""
","""event"",""trial"",""time""
""fullscreenenter"",""1"",""7161""
","""event"",""trial"",""time""
""fullscreenexit"",""7"",""280640""
","","","456.7000000476837","","","16","9664","2068","&#9789;","elianto","#f73b6a7A"," "," ","1","0","[1307.8000000715256]","1","0","4","","","","","","","",""
"pit-trial","92","975185","0.0-2.0-17.2-1.2","battery-v0.2","","""event"",""trial"",""time""
""blur"",""1"",""6035""
""focus"",""1"",""6986""
""fullscreenenter"",""1"",""7161""
""fullscreenexit"",""7"",""280640""
""blur"",""7"",""282008""
""focus"",""7"",""325174""
","""event"",""trial"",""time""
""blur"",""1"",""6035""
""blur"",""7"",""282008""
","""event"",""trial"",""time""
""focus"",""1"",""6986""
""focus"",""7"",""325174""
","""event"",""trial"",""time""
""fullscreenenter"",""1"",""7161""
","""event"",""trial"",""time""
""fullscreenexit"",""7"",""280640""
","","","468.2999999523163","","","16","9664","2068","&#9789;","elianto","#f73b6a7A"," "," ","1","0","[1322.0999999046326]","1","0","4","","","","","","","",""
"pit-trial","93","978557","0.0-2.0-17.2-2.2","battery-v0.2","","""event"",""trial"",""time""
""blur"",""1"",""6035""
""focus"",""1"",""6986""
""fullscreenenter"",""1"",""7161""
""fullscreenexit"",""7"",""280640""
""blur"",""7"",""282008""
""focus"",""7"",""325174""
","""event"",""trial"",""time""
""blur"",""1"",""6035""
""blur"",""7"",""282008""
","""event"",""trial"",""time""
""focus"",""1"",""6986""
""focus"",""7"",""325174""
","""event"",""trial"",""time""
""fullscreenenter"",""1"",""7161""
","""event"",""trial"",""time""
""fullscreenexit"",""7"",""280640""
","","","512.3999999761581","","","16","9664","2068","&#9789;","elianto","#f73b6a7A"," "," ","1","0","[1363.7999999523163]","1","0","4","","","","","","","",""
"pit-trial","94","981681","0.0-2.0-17.2-3.2","battery-v0.2","","""event"",""trial"",""time""
""blur"",""1"",""6035""
""focus"",""1"",""6986""
""fullscreenenter"",""1"",""7161""
""fullscreenexit"",""7"",""280640""
""blur"",""7"",""282008""
""focus"",""7"",""325174""
","""event"",""trial"",""time""
""blur"",""1"",""6035""
""blur"",""7"",""282008""
","""event"",""trial"",""time""
""focus"",""1"",""6986""
""focus"",""7"",""325174""
","""event"",""trial"",""time""
""fullscreenenter"",""1"",""7161""
","""event"",""trial"",""time""
""fullscreenexit"",""7"",""280640""
","","","257.7999999523163","","","16","9664","2068","&#9789;","elianto","#f73b6a7A"," "," ","1","-10","[1114.6000000238419]","1","0","4","","","","","","","",""
"pit-trial","95","984936","0.0-2.0-17.2-4.2","battery-v0.2","","""event"",""trial"",""time""
""blur"",""1"",""6035""
""focus"",""1"",""6986""
""fullscreenenter"",""1"",""7161""
""fullscreenexit"",""7"",""280640""
""blur"",""7"",""282008""
""focus"",""7"",""325174""
","""event"",""trial"",""time""
""blur"",""1"",""6035""
""blur"",""7"",""282008""
","""event"",""trial"",""time""
""focus"",""1"",""6986""
""focus"",""7"",""325174""
","""event"",""trial"",""time""
""fullscreenenter"",""1"",""7161""
","""event"",""trial"",""time""
""fullscreenexit"",""7"",""280640""
","","","396.5","","","16","9664","2068","&#9789;","elianto","#f73b6a7A"," "," ","1","0","[1246.7000000476837]","1","0","4","","","","","","","",""
"pit-trial","96","988182","0.0-2.0-17.3-0.3","battery-v0.2","","""event"",""trial"",""time""
""blur"",""1"",""6035""
""focus"",""1"",""6986""
""fullscreenenter"",""1"",""7161""
""fullscreenexit"",""7"",""280640""
""blur"",""7"",""282008""
""focus"",""7"",""325174""
","""event"",""trial"",""time""
""blur"",""1"",""6035""
""blur"",""7"",""282008""
","""event"",""trial"",""time""
""focus"",""1"",""6986""
""focus"",""7"",""325174""
","""event"",""trial"",""time""
""fullscreenenter"",""1"",""7161""
","""event"",""trial"",""time""
""fullscreenexit"",""7"",""280640""
","","","385.89999997615814","","","16","9664","2068","&#9789;","elianto","#f73b6a7A"," "," ","1","0","[1237.8999999761581]","1","0","4","","","","","","","",""
"pit-trial","97","991275","0.0-2.0-17.3-1.3","battery-v0.2","","""event"",""trial"",""time""
""blur"",""1"",""6035""
""focus"",""1"",""6986""
""fullscreenenter"",""1"",""7161""
""fullscreenexit"",""7"",""280640""
""blur"",""7"",""282008""
""focus"",""7"",""325174""
","""event"",""trial"",""time""
""blur"",""1"",""6035""
""blur"",""7"",""282008""
","""event"",""trial"",""time""
""focus"",""1"",""6986""
""focus"",""7"",""325174""
","""event"",""trial"",""time""
""fullscreenenter"",""1"",""7161""
","""event"",""trial"",""time""
""fullscreenexit"",""7"",""280640""
","","","233.69999992847443","","","16","9664","2068","&#9789;","elianto","#f73b6a7A"," "," ","1","0","[1085.3000000715256]","1","0","4","","","","","","","",""
"pit-trial","98","994372","0.0-2.0-17.3-2.3","battery-v0.2","","""event"",""trial"",""time""
""blur"",""1"",""6035""
""focus"",""1"",""6986""
""fullscreenenter"",""1"",""7161""
""fullscreenexit"",""7"",""280640""
""blur"",""7"",""282008""
""focus"",""7"",""325174""
","""event"",""trial"",""time""
""blur"",""1"",""6035""
""blur"",""7"",""282008""
","""event"",""trial"",""time""
""focus"",""1"",""6986""
""focus"",""7"",""325174""
","""event"",""trial"",""time""
""fullscreenenter"",""1"",""7161""
","""event"",""trial"",""time""
""fullscreenexit"",""7"",""280640""
","","","241.89999997615814","","","16","9664","2068","&#9789;","elianto","#f73b6a7A"," "," ","1","0","[1092.8999999761581]","1","0","4","","","","","","","",""
"pit-trial","99","997350","0.0-2.0-17.3-3.3","battery-v0.2","","""event"",""trial"",""time""
""blur"",""1"",""6035""
""focus"",""1"",""6986""
""fullscreenenter"",""1"",""7161""
""fullscreenexit"",""7"",""280640""
""blur"",""7"",""282008""
""focus"",""7"",""325174""
","""event"",""trial"",""time""
""blur"",""1"",""6035""
""blur"",""7"",""282008""
","""event"",""trial"",""time""
""focus"",""1"",""6986""
""focus"",""7"",""325174""
","""event"",""trial"",""time""
""fullscreenenter"",""1"",""7161""
","""event"",""trial"",""time""
""fullscreenexit"",""7"",""280640""
","","","117.39999997615814","","","16","9664","2068","&#9789;","elianto","#f73b6a7A"," "," ","1","-10","[970.2999999523163]","1","0","4","","","","","","","",""
"pit-trial","100","1000637","0.0-2.0-17.3-4.3","battery-v0.2","","""event"",""trial"",""time""
""blur"",""1"",""6035""
""focus"",""1"",""6986""
""fullscreenenter"",""1"",""7161""
""fullscreenexit"",""7"",""280640""
""blur"",""7"",""282008""
""focus"",""7"",""325174""
","""event"",""trial"",""time""
""blur"",""1"",""6035""
""blur"",""7"",""282008""
","""event"",""trial"",""time""
""focus"",""1"",""6986""
""focus"",""7"",""325174""
","""event"",""trial"",""time""
""fullscreenenter"",""1"",""7161""
","""event"",""trial"",""time""
""fullscreenexit"",""7"",""280640""
","","","426.2000000476837","","","16","9664","2068","&#9789;","elianto","#f73b6a7A"," "," ","1","0","[1280.2000000476837]","1","0","4","","","","","","","",""
"call-function","101","1000639","0.0-2.0-18.0","battery-v0.2","","""event"",""trial"",""time""
""blur"",""1"",""6035""
""focus"",""1"",""6986""
""fullscreenenter"",""1"",""7161""
""fullscreenexit"",""7"",""280640""
""blur"",""7"",""282008""
""focus"",""7"",""325174""
","""event"",""trial"",""time""
""blur"",""1"",""6035""
""blur"",""7"",""282008""
","""event"",""trial"",""time""
""focus"",""1"",""6986""
""focus"",""7"",""325174""
","""event"",""trial"",""time""
""fullscreenenter"",""1"",""7161""
","""event"",""trial"",""time""
""fullscreenexit"",""7"",""280640""
","","","","","","","","","","","","","","","","","","","","","","","","","","",""
"pit-instructions","102","1109954","0.0-2.0-19.0","battery-v0.2","","""event"",""trial"",""time""
""blur"",""1"",""6035""
""focus"",""1"",""6986""
""fullscreenenter"",""1"",""7161""
""fullscreenexit"",""7"",""280640""
""blur"",""7"",""282008""
""focus"",""7"",""325174""
","""event"",""trial"",""time""
""blur"",""1"",""6035""
""blur"",""7"",""282008""
","""event"",""trial"",""time""
""focus"",""1"",""6986""
""focus"",""7"",""325174""
","""event"",""trial"",""time""
""fullscreenenter"",""1"",""7161""
","""event"",""trial"",""time""
""fullscreenexit"",""7"",""280640""
","","[{""page_index"":0,""viewing_time"":15610.100000023842},{""page_index"":1,""viewing_time"":13647.299999952316},{""page_index"":2,""viewing_time"":18696.100000023842},{""page_index"":3,""viewing_time"":23000.600000023842},{""page_index"":4,""viewing_time"":11919.899999976158},{""page_index"":5,""viewing_time"":10423.899999976158},{""page_index"":6,""viewing_time"":5487.899999976158},{""page_index"":7,""viewing_time"":6335.800000071526},{""page_index"":8,""viewing_time"":4191.899999976158}]","109314","","","","","","","","","","","","","","","","","","","","","","","",""
"pit-comprehension","103","1114492","0.0-2.0-20.0-0.0","battery-v0.2","","""event"",""trial"",""time""
""blur"",""1"",""6035""
""focus"",""1"",""6986""
""fullscreenenter"",""1"",""7161""
""fullscreenexit"",""7"",""280640""
""blur"",""7"",""282008""
""focus"",""7"",""325174""
","""event"",""trial"",""time""
""blur"",""1"",""6035""
""blur"",""7"",""282008""
","""event"",""trial"",""time""
""focus"",""1"",""6986""
""focus"",""7"",""325174""
","""event"",""trial"",""time""
""fullscreenenter"",""1"",""7161""
","""event"",""trial"",""time""
""fullscreenexit"",""7"",""280640""
","","","4532.5","[""SPACE""]","0","16","9664","2068","","","","","","","","","","","","","","","","","","",""
"pit-instructions","104","1121754","0.0-2.0-20.0-1.0","battery-v0.2","","""event"",""trial"",""time""
""blur"",""1"",""6035""
""focus"",""1"",""6986""
""fullscreenenter"",""1"",""7161""
""fullscreenexit"",""7"",""280640""
""blur"",""7"",""282008""
""focus"",""7"",""325174""
","""event"",""trial"",""time""
""blur"",""1"",""6035""
""blur"",""7"",""282008""
","""event"",""trial"",""time""
""focus"",""1"",""6986""
""focus"",""7"",""325174""
","""event"",""trial"",""time""
""fullscreenenter"",""1"",""7161""
","""event"",""trial"",""time""
""fullscreenexit"",""7"",""280640""
","","[{""page_index"":0,""viewing_time"":7191.299999952316}]","7191.799999952316","","","","","","","","","","","","","","","","","","","","","","","",""
"pit-comprehension","105","1126315","0.0-2.0-21.0-0.0","battery-v0.2","","""event"",""trial"",""time""
""blur"",""1"",""6035""
""focus"",""1"",""6986""
""fullscreenenter"",""1"",""7161""
""fullscreenexit"",""7"",""280640""
""blur"",""7"",""282008""
""focus"",""7"",""325174""
","""event"",""trial"",""time""
""blur"",""1"",""6035""
""blur"",""7"",""282008""
","""event"",""trial"",""time""
""focus"",""1"",""6986""
""focus"",""7"",""325174""
","""event"",""trial"",""time""
""fullscreenenter"",""1"",""7161""
","""event"",""trial"",""time""
""fullscreenexit"",""7"",""280640""
","","","4555.299999952316","[""10""]","0","16","9664","2068","","","","","","","","","","","","","","","","","","",""
"pit-instructions","106","1128034","0.0-2.0-21.0-1.0","battery-v0.2","","""event"",""trial"",""time""
""blur"",""1"",""6035""
""focus"",""1"",""6986""
""fullscreenenter"",""1"",""7161""
""fullscreenexit"",""7"",""280640""
""blur"",""7"",""282008""
""focus"",""7"",""325174""
","""event"",""trial"",""time""
""blur"",""1"",""6035""
""blur"",""7"",""282008""
","""event"",""trial"",""time""
""focus"",""1"",""6986""
""focus"",""7"",""325174""
","""event"",""trial"",""time""
""fullscreenenter"",""1"",""7161""
","""event"",""trial"",""time""
""fullscreenexit"",""7"",""280640""
","","[{""page_index"":0,""viewing_time"":1653.5}]","1653.8999999761581","","","","","","","","","","","","","","","","","","","","","","","",""
"pit-comprehension","107","1134650","0.0-2.0-22.0-0.0","battery-v0.2","","""event"",""trial"",""time""
""blur"",""1"",""6035""
""focus"",""1"",""6986""
""fullscreenenter"",""1"",""7161""
""fullscreenexit"",""7"",""280640""
""blur"",""7"",""282008""
""focus"",""7"",""325174""
","""event"",""trial"",""time""
""blur"",""1"",""6035""
""blur"",""7"",""282008""
","""event"",""trial"",""time""
""focus"",""1"",""6986""
""focus"",""7"",""325174""
","""event"",""trial"",""time""
""fullscreenenter"",""1"",""7161""
","""event"",""trial"",""time""
""fullscreenexit"",""7"",""280640""
","","","6611.199999928474","[""0""]","0","16","9664","2068","","","","","","","","","","","","","","","","","","",""
"pit-instructions","108","1142025","0.0-2.0-22.0-1.0","battery-v0.2","","""event"",""trial"",""time""
""blur"",""1"",""6035""
""focus"",""1"",""6986""
""fullscreenenter"",""1"",""7161""
""fullscreenexit"",""7"",""280640""
""blur"",""7"",""282008""
""focus"",""7"",""325174""
","""event"",""trial"",""time""
""blur"",""1"",""6035""
""blur"",""7"",""282008""
","""event"",""trial"",""time""
""focus"",""1"",""6986""
""focus"",""7"",""325174""
","""event"",""trial"",""time""
""fullscreenenter"",""1"",""7161""
","""event"",""trial"",""time""
""fullscreenexit"",""7"",""280640""
","","[{""page_index"":0,""viewing_time"":7313}]","7313.5","","","","","","","","","","","","","","","","","","","","","","","",""
"pit-comprehension","109","1151395","0.0-2.0-23.0-0.0","battery-v0.2","","""event"",""trial"",""time""
""blur"",""1"",""6035""
""focus"",""1"",""6986""
""fullscreenenter"",""1"",""7161""
""fullscreenexit"",""7"",""280640""
""blur"",""7"",""282008""
""focus"",""7"",""325174""
","""event"",""trial"",""time""
""blur"",""1"",""6035""
""blur"",""7"",""282008""
","""event"",""trial"",""time""
""focus"",""1"",""6986""
""focus"",""7"",""325174""
","""event"",""trial"",""time""
""fullscreenenter"",""1"",""7161""
","""event"",""trial"",""time""
""fullscreenexit"",""7"",""280640""
","","","9365.100000023842","[""True""]","0","16","9664","2068","","","","","","","","","","","","","","","","","","",""
"pit-instructions","110","1152617","0.0-2.0-23.0-1.0","battery-v0.2","","""event"",""trial"",""time""
""blur"",""1"",""6035""
""focus"",""1"",""6986""
""fullscreenenter"",""1"",""7161""
""fullscreenexit"",""7"",""280640""
""blur"",""7"",""282008""
""focus"",""7"",""325174""
","""event"",""trial"",""time""
""blur"",""1"",""6035""
""blur"",""7"",""282008""
","""event"",""trial"",""time""
""focus"",""1"",""6986""
""focus"",""7"",""325174""
","""event"",""trial"",""time""
""fullscreenenter"",""1"",""7161""
","""event"",""trial"",""time""
""fullscreenexit"",""7"",""280640""
","","[{""page_index"":0,""viewing_time"":1155}]","1155.2999999523163","","","","","","","","","","","","","","","","","","","","","","","",""
"pit-comprehension","111","1160035","0.0-2.0-24.0-0.0","battery-v0.2","","""event"",""trial"",""time""
""blur"",""1"",""6035""
""focus"",""1"",""6986""
""fullscreenenter"",""1"",""7161""
""fullscreenexit"",""7"",""280640""
""blur"",""7"",""282008""
""focus"",""7"",""325174""
","""event"",""trial"",""time""
""blur"",""1"",""6035""
""blur"",""7"",""282008""
","""event"",""trial"",""time""
""focus"",""1"",""6986""
""focus"",""7"",""325174""
","""event"",""trial"",""time""
""fullscreenenter"",""1"",""7161""
","""event"",""trial"",""time""
""fullscreenexit"",""7"",""280640""
","","","7413.5","[""True""]","0","16","9664","2068","","","","","","","","","","","","","","","","","","",""
"pit-instructions","112","1161674","0.0-2.0-24.0-1.0","battery-v0.2","","""event"",""trial"",""time""
""blur"",""1"",""6035""
""focus"",""1"",""6986""
""fullscreenenter"",""1"",""7161""
""fullscreenexit"",""7"",""280640""
""blur"",""7"",""282008""
""focus"",""7"",""325174""
","""event"",""trial"",""time""
""blur"",""1"",""6035""
""blur"",""7"",""282008""
","""event"",""trial"",""time""
""focus"",""1"",""6986""
""focus"",""7"",""325174""
","""event"",""trial"",""time""
""fullscreenenter"",""1"",""7161""
","""event"",""trial"",""time""
""fullscreenexit"",""7"",""280640""
","","[{""page_index"":0,""viewing_time"":1573.8999999761581}]","1574.5","","","","","","","","","","","","","","","","","","","","","","","",""
"pit-comprehension","113","1168106","0.0-2.0-25.0-0.0","battery-v0.2","","""event"",""trial"",""time""
""blur"",""1"",""6035""
""focus"",""1"",""6986""
""fullscreenenter"",""1"",""7161""
""fullscreenexit"",""7"",""280640""
""blur"",""7"",""282008""
""focus"",""7"",""325174""
","""event"",""trial"",""time""
""blur"",""1"",""6035""
""blur"",""7"",""282008""
","""event"",""trial"",""time""
""focus"",""1"",""6986""
""focus"",""7"",""325174""
","""event"",""trial"",""time""
""fullscreenenter"",""1"",""7161""
","""event"",""trial"",""time""
""fullscreenexit"",""7"",""280640""
","","","6427.5","[""True""]","0","16","9664","2068","","","","","","","","","","","","","","","","","","",""
"pit-instructions","114","1169994","0.0-2.0-25.0-1.0","battery-v0.2","","""event"",""trial"",""time""
""blur"",""1"",""6035""
""focus"",""1"",""6986""
""fullscreenenter"",""1"",""7161""
""fullscreenexit"",""7"",""280640""
""blur"",""7"",""282008""
""focus"",""7"",""325174""
","""event"",""trial"",""time""
""blur"",""1"",""6035""
""blur"",""7"",""282008""
","""event"",""trial"",""time""
""focus"",""1"",""6986""
""focus"",""7"",""325174""
","""event"",""trial"",""time""
""fullscreenenter"",""1"",""7161""
","""event"",""trial"",""time""
""fullscreenexit"",""7"",""280640""
","","[{""page_index"":0,""viewing_time"":1822.1999999284744}]","1822.5999999046326","","","","","","","","","","","","","","","","","","","","","","","",""
"pit-comprehension","115","1175531","0.0-2.0-26.0-0.0","battery-v0.2","","""event"",""trial"",""time""
""blur"",""1"",""6035""
""focus"",""1"",""6986""
""fullscreenenter"",""1"",""7161""
""fullscreenexit"",""7"",""280640""
""blur"",""7"",""282008""
""focus"",""7"",""325174""
","""event"",""trial"",""time""
""blur"",""1"",""6035""
""blur"",""7"",""282008""
","""event"",""trial"",""time""
""focus"",""1"",""6986""
""focus"",""7"",""325174""
","""event"",""trial"",""time""
""fullscreenenter"",""1"",""7161""
","""event"",""trial"",""time""
""fullscreenexit"",""7"",""280640""
","","","5532.399999976158","[""False""]","0","16","9664","2068","","","","","","","","","","","","","","","","","","",""
"pit-instructions","116","1178586","0.0-2.0-26.0-1.0","battery-v0.2","","""event"",""trial"",""time""
""blur"",""1"",""6035""
""focus"",""1"",""6986""
""fullscreenenter"",""1"",""7161""
""fullscreenexit"",""7"",""280640""
""blur"",""7"",""282008""
""focus"",""7"",""325174""
","""event"",""trial"",""time""
""blur"",""1"",""6035""
""blur"",""7"",""282008""
","""event"",""trial"",""time""
""focus"",""1"",""6986""
""focus"",""7"",""325174""
","""event"",""trial"",""time""
""fullscreenenter"",""1"",""7161""
","""event"",""trial"",""time""
""fullscreenexit"",""7"",""280640""
","","[{""page_index"":0,""viewing_time"":2988.2000000476837}]","2989","","","","","","","","","","","","","","","","","","","","","","","",""
"pit-instructions","117","1195802","0.0-3.0","battery-v0.2","","""event"",""trial"",""time""
""blur"",""1"",""6035""
""focus"",""1"",""6986""
""fullscreenenter"",""1"",""7161""
""fullscreenexit"",""7"",""280640""
""blur"",""7"",""282008""
""focus"",""7"",""325174""
","""event"",""trial"",""time""
""blur"",""1"",""6035""
""blur"",""7"",""282008""
","""event"",""trial"",""time""
""focus"",""1"",""6986""
""focus"",""7"",""325174""
","""event"",""trial"",""time""
""fullscreenenter"",""1"",""7161""
","""event"",""trial"",""time""
""fullscreenexit"",""7"",""280640""
","","[{""page_index"":0,""viewing_time"":3770.7000000476837},{""page_index"":1,""viewing_time"":5072.099999904633},{""page_index"":2,""viewing_time"":8368.5}]","17211.799999952316","","","","","","","","","","","","","","","","","","","","","","","",""
"pit-trial","118","1199304","0.0-4.0","battery-v0.2","","""event"",""trial"",""time""
""blur"",""1"",""6035""
""focus"",""1"",""6986""
""fullscreenenter"",""1"",""7161""
""fullscreenexit"",""7"",""280640""
""blur"",""7"",""282008""
""focus"",""7"",""325174""
","""event"",""trial"",""time""
""blur"",""1"",""6035""
""blur"",""7"",""282008""
","""event"",""trial"",""time""
""focus"",""1"",""6986""
""focus"",""7"",""325174""
","""event"",""trial"",""time""
""fullscreenenter"",""1"",""7161""
","""event"",""trial"",""time""
""fullscreenexit"",""7"",""280640""
","","","630.7000000476837","","","16","9664","2068","&#9733;","elianto","#3366ff99","-1"," ","0","0","[1483.7999999523163]","1","1","","","9664","1","2","2","win","no-go","0"
"pit-trial","119","1203022","0.0-5.0","battery-v0.2","","""event"",""trial"",""time""
""blur"",""1"",""6035""
""focus"",""1"",""6986""
""fullscreenenter"",""1"",""7161""
""fullscreenexit"",""7"",""280640""
""blur"",""7"",""282008""
""focus"",""7"",""325174""
","""event"",""trial"",""time""
""blur"",""1"",""6035""
""blur"",""7"",""282008""
","""event"",""trial"",""time""
""focus"",""1"",""6986""
""focus"",""7"",""325174""
","""event"",""trial"",""time""
""fullscreenenter"",""1"",""7161""
","""event"",""trial"",""time""
""fullscreenexit"",""7"",""280640""
","","","851.2999999523163","","","16","9664","2068","&#9752;","elianto","#f73b6a7A"," "," ","1","0","[1709.2999999523163]","1","1","","","9664","2","3","3","lose","go","0"
"pit-trial","120","1206702","0.0-6.0","battery-v0.2","","""event"",""trial"",""time""
""blur"",""1"",""6035""
""focus"",""1"",""6986""
""fullscreenenter"",""1"",""7161""
""fullscreenexit"",""7"",""280640""
""blur"",""7"",""282008""
""focus"",""7"",""325174""
","""event"",""trial"",""time""
""blur"",""1"",""6035""
""blur"",""7"",""282008""
","""event"",""trial"",""time""
""focus"",""1"",""6986""
""focus"",""7"",""325174""
","""event"",""trial"",""time""
""fullscreenenter"",""1"",""7161""
","""event"",""trial"",""time""
""fullscreenexit"",""7"",""280640""
","","","821.6000000238419","","","16","9664","2068","&#9730;","elianto","#3366ff99"," "," ","1","+10","[1676.3000000715256]","1","1","","","9664","3","1","1","win","go","0"
"pit-trial","121","1210562","0.0-7.0","battery-v0.2","","""event"",""trial"",""time""
""blur"",""1"",""6035""
""focus"",""1"",""6986""
""fullscreenenter"",""1"",""7161""
""fullscreenexit"",""7"",""280640""
""blur"",""7"",""282008""
""focus"",""7"",""325174""
","""event"",""trial"",""time""
""blur"",""1"",""6035""
""blur"",""7"",""282008""
","""event"",""trial"",""time""
""focus"",""1"",""6986""
""focus"",""7"",""325174""
","""event"",""trial"",""time""
""fullscreenenter"",""1"",""7161""
","""event"",""trial"",""time""
""fullscreenexit"",""7"",""280640""
","","","993.5","","","16","9664","2068","&#9728;","elianto","#f73b6a7A","-1"," ","0","0","[1846.5]","1","1","","","9664","4","0","4","lose","no-go","1"
"pit-trial","122","1214284","0.0-8.0","battery-v0.2","","""event"",""trial"",""time""
""blur"",""1"",""6035""
""focus"",""1"",""6986""
""fullscreenenter"",""1"",""7161""
""fullscreenexit"",""7"",""280640""
""blur"",""7"",""282008""
""focus"",""7"",""325174""
","""event"",""trial"",""time""
""blur"",""1"",""6035""
""blur"",""7"",""282008""
","""event"",""trial"",""time""
""focus"",""1"",""6986""
""focus"",""7"",""325174""
","""event"",""trial"",""time""
""fullscreenenter"",""1"",""7161""
","""event"",""trial"",""time""
""fullscreenexit"",""7"",""280640""
","","","865.2999999523163","","","16","9664","2068","&#9730;","elianto","#3366ff99"," "," ","1","+10","[1715.2999999523163]","1","1","","","9664","5","1","1","win","go","0"
"pit-trial","123","1217675","0.0-9.0","battery-v0.2","","""event"",""trial"",""time""
""blur"",""1"",""6035""
""focus"",""1"",""6986""
""fullscreenenter"",""1"",""7161""
""fullscreenexit"",""7"",""280640""
""blur"",""7"",""282008""
""focus"",""7"",""325174""
","""event"",""trial"",""time""
""blur"",""1"",""6035""
""blur"",""7"",""282008""
","""event"",""trial"",""time""
""focus"",""1"",""6986""
""focus"",""7"",""325174""
","""event"",""trial"",""time""
""fullscreenenter"",""1"",""7161""
","""event"",""trial"",""time""
""fullscreenexit"",""7"",""280640""
","","","536.7999999523163","","","16","9664","2068","&#9733;","elianto","#3366ff99","-1"," ","0","0","[1387.5]","1","1","","","9664","6","2","2","win","no-go","0"
"pit-trial","124","1221211","0.0-10.0","battery-v0.2","","""event"",""trial"",""time""
""blur"",""1"",""6035""
""focus"",""1"",""6986""
""fullscreenenter"",""1"",""7161""
""fullscreenexit"",""7"",""280640""
""blur"",""7"",""282008""
""focus"",""7"",""325174""
","""event"",""trial"",""time""
""blur"",""1"",""6035""
""blur"",""7"",""282008""
","""event"",""trial"",""time""
""focus"",""1"",""6986""
""focus"",""7"",""325174""
","""event"",""trial"",""time""
""fullscreenenter"",""1"",""7161""
","""event"",""trial"",""time""
""fullscreenexit"",""7"",""280640""
","","","674.0999999046326","","","16","9664","2068","&#9728;","elianto","#f73b6a7A","-1"," ","0","-10","[1525.4000000953674]","1","1","","","9664","7","0","4","lose","no-go","0"
"pit-trial","125","1224996","0.0-11.0","battery-v0.2","","""event"",""trial"",""time""
""blur"",""1"",""6035""
""focus"",""1"",""6986""
""fullscreenenter"",""1"",""7161""
""fullscreenexit"",""7"",""280640""
""blur"",""7"",""282008""
""focus"",""7"",""325174""
","""event"",""trial"",""time""
""blur"",""1"",""6035""
""blur"",""7"",""282008""
","""event"",""trial"",""time""
""focus"",""1"",""6986""
""focus"",""7"",""325174""
","""event"",""trial"",""time""
""fullscreenenter"",""1"",""7161""
","""event"",""trial"",""time""
""fullscreenexit"",""7"",""280640""
","","","912.8000000715256","","","16","9664","2068","&#9752;","elianto","#f73b6a7A"," "," ","1","0","[1769.2000000476837]","1","1","","","9664","8","3","3","lose","go","0"
"pit-trial","126","1229864","0.0-12.0","battery-v0.2","","""event"",""trial"",""time""
""blur"",""1"",""6035""
""focus"",""1"",""6986""
""fullscreenenter"",""1"",""7161""
""fullscreenexit"",""7"",""280640""
""blur"",""7"",""282008""
""focus"",""7"",""325174""
","""event"",""trial"",""time""
""blur"",""1"",""6035""
""blur"",""7"",""282008""
","""event"",""trial"",""time""
""focus"",""1"",""6986""
""focus"",""7"",""325174""
","""event"",""trial"",""time""
""fullscreenenter"",""1"",""7161""
","""event"",""trial"",""time""
""fullscreenexit"",""7"",""280640""
","","","-1","","","16","9664","2068","&#9728;","elianto","#f73b6a7A","-1","-1","1","0","[]","0","1","","","9664","9","0","4","lose","no-go","0"
"pit-trial","127","1234430","0.0-13.0","battery-v0.2","","""event"",""trial"",""time""
""blur"",""1"",""6035""
""focus"",""1"",""6986""
""fullscreenenter"",""1"",""7161""
""fullscreenexit"",""7"",""280640""
""blur"",""7"",""282008""
""focus"",""7"",""325174""
","""event"",""trial"",""time""
""blur"",""1"",""6035""
""blur"",""7"",""282008""
","""event"",""trial"",""time""
""focus"",""1"",""6986""
""focus"",""7"",""325174""
","""event"",""trial"",""time""
""fullscreenenter"",""1"",""7161""
","""event"",""trial"",""time""
""fullscreenexit"",""7"",""280640""
","","","1709.1999999284744","","","16","9664","2068","&#9730;","elianto","#3366ff99"," "," ","1","+10","[2560.5]","1","1","","","9664","10","1","1","win","go","0"
"pit-trial","128","1238324","0.0-14.0","battery-v0.2","","""event"",""trial"",""time""
""blur"",""1"",""6035""
""focus"",""1"",""6986""
""fullscreenenter"",""1"",""7161""
""fullscreenexit"",""7"",""280640""
""blur"",""7"",""282008""
""focus"",""7"",""325174""
","""event"",""trial"",""time""
""blur"",""1"",""6035""
""blur"",""7"",""282008""
","""event"",""trial"",""time""
""focus"",""1"",""6986""
""focus"",""7"",""325174""
","""event"",""trial"",""time""
""fullscreenenter"",""1"",""7161""
","""event"",""trial"",""time""
""fullscreenexit"",""7"",""280640""
","","","1037.3999999761581","","","16","9664","2068","&#9733;","elianto","#3366ff99","-1"," ","0","0","[1890.8000000715256]","1","1","","","9664","11","2","2","win","no-go","0"
"pit-trial","129","1243187","0.0-15.0","battery-v0.2","","""event"",""trial"",""time""
""blur"",""1"",""6035""
""focus"",""1"",""6986""
""fullscreenenter"",""1"",""7161""
""fullscreenexit"",""7"",""280640""
""blur"",""7"",""282008""
""focus"",""7"",""325174""
","""event"",""trial"",""time""
""blur"",""1"",""6035""
""blur"",""7"",""282008""
","""event"",""trial"",""time""
""focus"",""1"",""6986""
""focus"",""7"",""325174""
","""event"",""trial"",""time""
""fullscreenenter"",""1"",""7161""
","""event"",""trial"",""time""
""fullscreenexit"",""7"",""280640""
","","","-1","","","16","9664","2068","&#9752;","elianto","#f73b6a7A"," ","-1","0","-10","[]","0","1","","","9664","12","3","3","lose","go","0"
"pit-trial","130","1248050","0.0-16.0","battery-v0.2","","""event"",""trial"",""time""
""blur"",""1"",""6035""
""focus"",""1"",""6986""
""fullscreenenter"",""1"",""7161""
""fullscreenexit"",""7"",""280640""
""blur"",""7"",""282008""
""focus"",""7"",""325174""
","""event"",""trial"",""time""
""blur"",""1"",""6035""
""blur"",""7"",""282008""
","""event"",""trial"",""time""
""focus"",""1"",""6986""
""focus"",""7"",""325174""
","""event"",""trial"",""time""
""fullscreenenter"",""1"",""7161""
","""event"",""trial"",""time""
""fullscreenexit"",""7"",""280640""
","","","-1","","","16","9664","2068","&#9733;","elianto","#3366ff99","-1","-1","1","+10","[]","0","1","","","9664","13","2","2","win","no-go","0"
"pit-trial","131","1252162","0.0-17.0","battery-v0.2","","""event"",""trial"",""time""
""blur"",""1"",""6035""
""focus"",""1"",""6986""
""fullscreenenter"",""1"",""7161""
""fullscreenexit"",""7"",""280640""
""blur"",""7"",""282008""
""focus"",""7"",""325174""
","""event"",""trial"",""time""
""blur"",""1"",""6035""
""blur"",""7"",""282008""
","""event"",""trial"",""time""
""focus"",""1"",""6986""
""focus"",""7"",""325174""
","""event"",""trial"",""time""
""fullscreenenter"",""1"",""7161""
","""event"",""trial"",""time""
""fullscreenexit"",""7"",""280640""
","","","1251.8999999761581","","","16","9664","2068","&#9752;","elianto","#f73b6a7A"," "," ","1","0","[2102.2000000476837]","1","1","","","9664","14","3","3","lose","go","0"
"pit-trial","132","1255846","0.0-18.0","battery-v0.2","","""event"",""trial"",""time""
""blur"",""1"",""6035""
""focus"",""1"",""6986""
""fullscreenenter"",""1"",""7161""
""fullscreenexit"",""7"",""280640""
""blur"",""7"",""282008""
""focus"",""7"",""325174""
","""event"",""trial"",""time""
""blur"",""1"",""6035""
""blur"",""7"",""282008""
","""event"",""trial"",""time""
""focus"",""1"",""6986""
""focus"",""7"",""325174""
","""event"",""trial"",""time""
""fullscreenenter"",""1"",""7161""
","""event"",""trial"",""time""
""fullscreenexit"",""7"",""280640""
","","","826.8999999761581","","","16","9664","2068","&#9730;","elianto","#3366ff99"," "," ","1","+10","[1679.7999999523163]","1","1","","","9664","15","1","1","win","go","0"
"pit-trial","133","1260702","0.0-19.0","battery-v0.2","","""event"",""trial"",""time""
""blur"",""1"",""6035""
""focus"",""1"",""6986""
""fullscreenenter"",""1"",""7161""
""fullscreenexit"",""7"",""280640""
""blur"",""7"",""282008""
""focus"",""7"",""325174""
","""event"",""trial"",""time""
""blur"",""1"",""6035""
""blur"",""7"",""282008""
","""event"",""trial"",""time""
""focus"",""1"",""6986""
""focus"",""7"",""325174""
","""event"",""trial"",""time""
""fullscreenenter"",""1"",""7161""
","""event"",""trial"",""time""
""fullscreenexit"",""7"",""280640""
","","","-1","","","16","9664","2068","&#9728;","elianto","#f73b6a7A","-1","-1","1","-10","[]","0","1","","","9664","16","0","4","lose","no-go","1"
"pit-trial","134","1264437","0.0-20.0","battery-v0.2","","""event"",""trial"",""time""
""blur"",""1"",""6035""
""focus"",""1"",""6986""
""fullscreenenter"",""1"",""7161""
""fullscreenexit"",""7"",""280640""
""blur"",""7"",""282008""
""focus"",""7"",""325174""