"trial_type","trial_index","time_elapsed","internal_node_id","task_version","subject_id","interactions","blur_events","focus_events","fullscreenenter_events","fullscreenexit_events","success","view_history","rt","responses","num_errors","age","subject","participantId","rune","rune_set","hex","correct","choice","accuracy","outcome","keys","total_keys","block","practice","value","sub","trial","stimulus","robot","valence","action","sham"
"pavlovia","0","8","0.0-0.0","battery-v0.2","","""event"",""trial"",""time""
""fullscreenenter"",""1"",""2114""
","
","
","""event"",""trial"",""time""
""fullscreenenter"",""1"",""2114""
","
","","","","","","","","","","","","","","","","","","","","","","","","","","",""
"fullscreen","1","3098","0.0-1.0","battery-v0.2","","""event"",""trial"",""time""
""fullscreenenter"",""1"",""2114""
","
","
","""event"",""trial"",""time""
""fullscreenenter"",""1"",""2114""
","
","true","","","","","","","","","","","","","","","","","","","","","","","","","",""
"pit-instructions","2","6913","0.0-2.0-0.0","battery-v0.2","","""event"",""trial"",""time""
""fullscreenenter"",""1"",""2114""
","
","
","""event"",""trial"",""time""
""fullscreenenter"",""1"",""2114""
","
","","[{""page_index"":0,""viewing_time"":3811.2000000029802}]","3811.39999999851","","","","","","","","","","","","","","","","","","","","","","","",""
"pit-comprehension","3","9795","0.0-2.0-1.0-0.0","battery-v0.2","","""event"",""trial"",""time""
""fullscreenenter"",""1"",""2114""
","
","
","""event"",""trial"",""time""
""fullscreenenter"",""1"",""2114""
","
","","","2879.39999999851","[""shark""]","0","19","16588","6494","","","","","","","","","","","","","","","","","","",""
"pit-instructions","4","11543","0.0-2.0-1.0-1.0","battery-v0.2","","""event"",""trial"",""time""
""fullscreenenter"",""1"",""2114""
","
","
","""event"",""trial"",""time""
""fullscreenenter"",""1"",""2114""
","
","","[{""page_index"":0,""viewing_time"":1726.1000000014901}]","1726.3000000044703","","","","","","","","","","","","","","","","","","","","","","","",""
"pit-comprehension","5","14257","0.0-2.0-2.0-0.0","battery-v0.2","","""event"",""trial"",""time""
""fullscreenenter"",""1"",""2114""
","
","
","""event"",""trial"",""time""
""fullscreenenter"",""1"",""2114""
","
","","","2712.10000000149","[""tiger""]","0","19","16588","6494","","","","","","","","","","","","","","","","","","",""
"pit-instructions","6","14941","0.0-2.0-2.0-1.0","battery-v0.2","","""event"",""trial"",""time""
""fullscreenenter"",""1"",""2114""
","
","
","""event"",""trial"",""time""
""fullscreenenter"",""1"",""2114""
","
","","[{""page_index"":0,""viewing_time"":681.0999999940395}]","681.5","","","","","","","","","","","","","","","","","","","","","","","",""
"pit-instructions","7","117377","0.0-2.0-3.0","battery-v0.2","","""event"",""trial"",""time""
""fullscreenenter"",""1"",""2114""
","
","
","""event"",""trial"",""time""
""fullscreenenter"",""1"",""2114""
","
","","[{""page_index"":0,""viewing_time"":7941.10000000149},{""page_index"":1,""viewing_time"":6807.20000000298},{""page_index"":2,""viewing_time"":9192},{""page_index"":3,""viewing_time"":5814.79999999702},{""page_index"":4,""viewing_time"":6360.20000000298},{""page_index"":5,""viewing_time"":14081.29999999702},{""page_index"":6,""viewing_time"":5215.80000000447},{""page_index"":7,""viewing_time"":6365.89999999851},{""page_index"":8,""viewing_time"":6416.60000000149},{""page_index"":9,""viewing_time"":8071.0999999940395},{""page_index"":10,""viewing_time"":7137.9000000059605},{""page_index"":11,""viewing_time"":7382.39999999851},{""page_index"":12,""viewing_time"":6069.10000000149},{""page_index"":13,""viewing_time"":5578.89999999851}]","102434.60000000149","","","","","","","","","","","","","","","","","","","","","","","",""
"pit-trial","8","120477","0.0-2.0-4.0-0.0","battery-v0.2","","""event"",""trial"",""time""
""fullscreenenter"",""1"",""2114""
","
","
","""event"",""trial"",""time""
""fullscreenenter"",""1"",""2114""
","
","","","235.39999999850988","","","19","16588","6494","&#9784;","elianto","#FFFFF080"," "," ","1","&#10004","[1085.6000000014901]","1","0","0","","","","","","","",""
"pit-trial","9","123738","0.0-2.0-4.1-0.1","battery-v0.2","","""event"",""trial"",""time""
""fullscreenenter"",""1"",""2114""
","
","
","""event"",""trial"",""time""
""fullscreenenter"",""1"",""2114""
","
","","","391","","","19","16588","6494","&#9784;","elianto","#FFFFF080"," "," ","1","&#10004","[1242.8999999985099]","1","0","0","","","","","","","",""
"pit-trial","10","127051","0.0-2.0-4.2-0.2","battery-v0.2","","""event"",""trial"",""time""
""fullscreenenter"",""1"",""2114""
","
","
","""event"",""trial"",""time""
""fullscreenenter"",""1"",""2114""
","
","","","444","","","19","16588","6494","&#9784;","elianto","#FFFFF080"," "," ","1","&#10004","[1294.8999999985099]","1","0","0","","","","","","","",""
"pit-trial","11","130421","0.0-2.0-4.3-0.3","battery-v0.2","","""event"",""trial"",""time""
""fullscreenenter"",""1"",""2114""
","
","
","""event"",""trial"",""time""
""fullscreenenter"",""1"",""2114""
","
","","","501.29999999701977","","","19","16588","6494","&#9784;","elianto","#FFFFF080"," "," ","1","&#10004","[1353.1000000014901]","1","0","0","","","","","","","",""
"pit-trial","12","133858","0.0-2.0-4.4-0.4","battery-v0.2","","""event"",""trial"",""time""
""fullscreenenter"",""1"",""2114""
","
","
","""event"",""trial"",""time""
""fullscreenenter"",""1"",""2114""
","
","","","571.5","","","19","16588","6494","&#9784;","elianto","#FFFFF080"," "," ","1","&#10004","[1422.8000000044703]","1","0","0","","","","","","","",""
"pit-instructions","13","154919","0.0-2.0-5.0","battery-v0.2","","""event"",""trial"",""time""
""fullscreenenter"",""1"",""2114""
","
","
","""event"",""trial"",""time""
""fullscreenenter"",""1"",""2114""
","
","","[{""page_index"":0,""viewing_time"":5484},{""page_index"":1,""viewing_time"":5346.10000000149},{""page_index"":2,""viewing_time"":5130.89999999851},{""page_index"":3,""viewing_time"":5095.39999999851}]","21056.70000000298","","","","","","","","","","","","","","","","","","","","","","","",""
"pit-trial","14","159800","0.0-2.0-6.0-0.0","battery-v0.2","","""event"",""trial"",""time""
""fullscreenenter"",""1"",""2114""
","
","
","""event"",""trial"",""time""
""fullscreenenter"",""1"",""2114""
","
","","","-1","","","19","16588","6494","&#9854;","elianto","#FFFFF080","-1","-1","1","&#10004","[]","0","0","1","","","","","","","",""
"pit-trial","15","164668","0.0-2.0-6.1-0.1","battery-v0.2","","""event"",""trial"",""time""
""fullscreenenter"",""1"",""2114""
","
","
","""event"",""trial"",""time""
""fullscreenenter"",""1"",""2114""
","
","","","-1","","","19","16588","6494","&#9854;","elianto","#FFFFF080","-1","-1","1","&#10004","[]","0","0","1","","","","","","","",""
"pit-trial","16","169536","0.0-2.0-6.2-0.2","battery-v0.2","","""event"",""trial"",""time""
""fullscreenenter"",""1"",""2114""
","
","
","""event"",""trial"",""time""
""fullscreenenter"",""1"",""2114""
","
","","","-1","","","19","16588","6494","&#9854;","elianto","#FFFFF080","-1","-1","1","&#10004","[]","0","0","1","","","","","","","",""
"pit-trial","17","174412","0.0-2.0-6.3-0.3","battery-v0.2","","""event"",""trial"",""time""
""fullscreenenter"",""1"",""2114""
","
","
","""event"",""trial"",""time""
""fullscreenenter"",""1"",""2114""
","
","","","-1","","","19","16588","6494","&#9854;","elianto","#FFFFF080","-1","-1","1","&#10004","[]","0","0","1","","","","","","","",""
"pit-trial","18","179284","0.0-2.0-6.4-0.4","battery-v0.2","","""event"",""trial"",""time""
""fullscreenenter"",""1"",""2114""
","
","
","""event"",""trial"",""time""
""fullscreenenter"",""1"",""2114""
","
","","","-1","","","19","16588","6494","&#9854;","elianto","#FFFFF080","-1","-1","1","&#10004","[]","0","0","1","","","","","","","",""
"pit-instructions","19","300502","0.0-2.0-7.0","battery-v0.2","","""event"",""trial"",""time""
""fullscreenenter"",""1"",""2114""
","
","
","""event"",""trial"",""time""
""fullscreenenter"",""1"",""2114""
","
","","[{""page_index"":0,""viewing_time"":5859.89999999851},{""page_index"":1,""viewing_time"":6989.20000000298},{""page_index"":2,""viewing_time"":6027.5999999940395},{""page_index"":3,""viewing_time"":8167.30000000447},{""page_index"":4,""viewing_time"":5174.69999999553},{""page_index"":5,""viewing_time"":7470},{""page_index"":6,""viewing_time"":4423.80000000447},{""page_index"":7,""viewing_time"":7550.19999999553},{""page_index"":8,""viewing_time"":9073.30000000447},{""page_index"":9,""viewing_time"":7514},{""page_index"":10,""viewing_time"":6822.89999999851},{""page_index"":11,""viewing_time"":4952},{""page_index"":12,""viewing_time"":7087.39999999851},{""page_index"":13,""viewing_time"":6452.5},{""page_index"":14,""viewing_time"":7651.30000000447},{""page_index"":15,""viewing_time"":6784.79999999702},{""page_index"":16,""viewing_time"":6211.79999999702},{""page_index"":17,""viewing_time"":7002.30000000447}]","121215.29999999702","","","","","","","","","","","","","","","","","","","","","","","",""
"pit-trial","20","304109","0.0-2.0-8.0-0.0","battery-v0.2","","""event"",""trial"",""time""
""fullscreenenter"",""1"",""2114""
","
","
","""event"",""trial"",""time""
""fullscreenenter"",""1"",""2114""
","
","","","737.5","","","19","16588","6494","&#9776;","elianto","#3366ff99"," "," ","1","+10","[1591.1999999955297]","1","0","1","","","","","","","",""
"pit-trial","21","307671","0.0-2.0-8.0-1.0","battery-v0.2","","""event"",""trial"",""time""
""fullscreenenter"",""1"",""2114""
","
","
","""event"",""trial"",""time""
""fullscreenenter"",""1"",""2114""
","
","","","697.2000000029802","","","19","16588","6494","&#9776;","elianto","#3366ff99"," "," ","1","+10","[1548.8999999985099]","1","0","1","","","","","","","",""
"pit-trial","22","312537","0.0-2.0-8.0-2.0","battery-v0.2","","""event"",""trial"",""time""
""fullscreenenter"",""1"",""2114""
","
","
","""event"",""trial"",""time""
""fullscreenenter"",""1"",""2114""
","
","","","-1","","","19","16588","6494","&#9776;","elianto","#3366ff99"," ","-1","0","0","[]","0","0","1","","","","","","","",""
"pit-trial","23","315966","0.0-2.0-8.0-3.0","battery-v0.2","","""event"",""trial"",""time""
""fullscreenenter"",""1"",""2114""
","
","
","""event"",""trial"",""time""
""fullscreenenter"",""1"",""2114""
","
","","","562.5","","","19","16588","6494","&#9776;","elianto","#3366ff99"," "," ","1","0","[1413.3000000044703]","1","0","1","","","","","","","",""
"pit-trial","24","319318","0.0-2.0-8.0-4.0","battery-v0.2","","""event"",""trial"",""time""
""fullscreenenter"",""1"",""2114""
","
","
","""event"",""trial"",""time""
""fullscreenenter"",""1"",""2114""
","
","","","492.3999999985099","","","19","16588","6494","&#9776;","elianto","#3366ff99"," "," ","1","+10","[1343.9000000059605]","1","0","1","","","","","","","",""
"pit-trial","25","322644","0.0-2.0-8.1-0.1","battery-v0.2","","""event"",""trial"",""time""
""fullscreenenter"",""1"",""2114""
","
","
","""event"",""trial"",""time""
""fullscreenenter"",""1"",""2114""
","
","","","464.6000000014901","","","19","16588","6494","&#9776;","elianto","#3366ff99"," "," ","1","+10","[1315.7000000029802]","1","0","1","","","","","","","",""
"pit-trial","26","325936","0.0-2.0-8.1-1.1","battery-v0.2","","""event"",""trial"",""time""
""fullscreenenter"",""1"",""2114""
","
","
","""event"",""trial"",""time""
""fullscreenenter"",""1"",""2114""
","
","","","433","","","19","16588","6494","&#9776;","elianto","#3366ff99"," "," ","1","+10","[1284.2999999970198]","1","0","1","","","","","","","",""
"pit-trial","27","329241","0.0-2.0-8.1-2.1","battery-v0.2","","""event"",""trial"",""time""
""fullscreenenter"",""1"",""2114""
","
","
","""event"",""trial"",""time""
""fullscreenenter"",""1"",""2114""
","
","","","440.3999999985099","","","19","16588","6494","&#9776;","elianto","#3366ff99"," "," ","1","+10","[1292]","1","0","1","","","","","","","",""
"pit-trial","28","332549","0.0-2.0-8.1-3.1","battery-v0.2","","""event"",""trial"",""time""
""fullscreenenter"",""1"",""2114""
","
","
","""event"",""trial"",""time""
""fullscreenenter"",""1"",""2114""
","
","","","453.8999999985099","","","19","16588","6494","&#9776;","elianto","#3366ff99"," "," ","1","0","[1304.6000000014901]","1","0","1","","","","","","","",""
"pit-trial","29","335914","0.0-2.0-8.1-4.1","battery-v0.2","","""event"",""trial"",""time""
""fullscreenenter"",""1"",""2114""
","
","
","""event"",""trial"",""time""
""fullscreenenter"",""1"",""2114""
","
","","","509.8999999985099","","","19","16588","6494","&#9776;","elianto","#3366ff99"," "," ","1","+10","[1361.1999999955297]","1","0","1","","","","","","","",""
"pit-trial","30","339360","0.0-2.0-8.2-0.2","battery-v0.2","","""event"",""trial"",""time""
""fullscreenenter"",""1"",""2114""
","
","
","""event"",""trial"",""time""
""fullscreenenter"",""1"",""2114""
","
","","","591.8999999985099","","","19","16588","6494","&#9776;","elianto","#3366ff99"," "," ","1","+10","[1442]","1","0","1","","","","","","","",""
"pit-trial","31","342635","0.0-2.0-8.2-1.2","battery-v0.2","","""event"",""trial"",""time""
""fullscreenenter"",""1"",""2114""
","
","
","""event"",""trial"",""time""
""fullscreenenter"",""1"",""2114""
","
","","","420.6000000014901","","","19","16588","6494","&#9776;","elianto","#3366ff99"," "," ","1","+10","[1271.3999999985099]","1","0","1","","","","","","","",""
"pit-trial","32","346227","0.0-2.0-8.2-2.2","battery-v0.2","","""event"",""trial"",""time""
""fullscreenenter"",""1"",""2114""
","
","
","""event"",""trial"",""time""
""fullscreenenter"",""1"",""2114""
","
","","","725.6999999955297","","","19","16588","6494","&#9776;","elianto","#3366ff99"," "," ","1","+10","[1576.3999999985099]","1","0","1","","","","","","","",""
"pit-trial","33","349619","0.0-2.0-8.2-3.2","battery-v0.2","","""event"",""trial"",""time""
""fullscreenenter"",""1"",""2114""
","
","
","""event"",""trial"",""time""
""fullscreenenter"",""1"",""2114""
","
","","","538.5","","","19","16588","6494","&#9776;","elianto","#3366ff99"," "," ","1","0","[1388.6999999955297]","1","0","1","","","","","","","",""
"pit-trial","34","353223","0.0-2.0-8.2-4.2","battery-v0.2","","""event"",""trial"",""time""
""fullscreenenter"",""1"",""2114""
","
","
","""event"",""trial"",""time""
""fullscreenenter"",""1"",""2114""
","
","","","750.1000000014901","","","19","16588","6494","&#9776;","elianto","#3366ff99"," "," ","1","+10","[1600.3000000044703]","1","0","1","","","","","","","",""
"call-function","35","353225","0.0-2.0-9.0","battery-v0.2","","""event"",""trial"",""time""
""fullscreenenter"",""1"",""2114""
","
","
","""event"",""trial"",""time""
""fullscreenenter"",""1"",""2114""
","
","","","","","","","","","","","","","","","","","","","","","","","","","","",""
"pit-instructions","36","394020","0.0-2.0-10.0","battery-v0.2","","""event"",""trial"",""time""
""fullscreenenter"",""1"",""2114""
","
","
","""event"",""trial"",""time""
""fullscreenenter"",""1"",""2114""
","
","","[{""page_index"":0,""viewing_time"":7191.5},{""page_index"":1,""viewing_time"":6860.39999999851},{""page_index"":2,""viewing_time"":10153.89999999851},{""page_index"":3,""viewing_time"":9227.10000000149},{""page_index"":4,""viewing_time"":7360.89999999851}]","40794","","","","","","","","","","","","","","","","","","","","","","","",""
"pit-trial","37","398888","0.0-2.0-11.0-0.0","battery-v0.2","","""event"",""trial"",""time""
""fullscreenenter"",""1"",""2114""
","
","
","""event"",""trial"",""time""
""fullscreenenter"",""1"",""2114""
","
","","","-1","","","19","16588","6494","&#9761;","elianto","#3366ff99","-1","-1","1","+10","[]","0","0","2","","","","","","","",""
"pit-trial","38","403763","0.0-2.0-11.0-1.0","battery-v0.2","","""event"",""trial"",""time""
""fullscreenenter"",""1"",""2114""
","
","
","""event"",""trial"",""time""
""fullscreenenter"",""1"",""2114""
","
","","","-1","","","19","16588","6494","&#9761;","elianto","#3366ff99","-1","-1","1","+10","[]","0","0","2","","","","","","","",""
"pit-trial","39","408635","0.0-2.0-11.0-2.0","battery-v0.2","","""event"",""trial"",""time""
""fullscreenenter"",""1"",""2114""
","
","
","""event"",""trial"",""time""
""fullscreenenter"",""1"",""2114""
","
","","","-1","","","19","16588","6494","&#9761;","elianto","#3366ff99","-1","-1","1","+10","[]","0","0","2","","","","","","","",""
"pit-trial","40","413505","0.0-2.0-11.0-3.0","battery-v0.2","","""event"",""trial"",""time""
""fullscreenenter"",""1"",""2114""
","
","
","""event"",""trial"",""time""
""fullscreenenter"",""1"",""2114""
","
","","","-1","","","19","16588","6494","&#9761;","elianto","#3366ff99","-1","-1","1","0","[]","0","0","2","","","","","","","",""
"pit-trial","41","418382","0.0-2.0-11.0-4.0","battery-v0.2","","""event"",""trial"",""time""
""fullscreenenter"",""1"",""2114""
","
","
","""event"",""trial"",""time""
""fullscreenenter"",""1"",""2114""
","
","","","-1","","","19","16588","6494","&#9761;","elianto","#3366ff99","-1","-1","1","+10","[]","0","0","2","","","","","","","",""
"pit-trial","42","423249","0.0-2.0-11.1-0.1","battery-v0.2","","""event"",""trial"",""time""
""fullscreenenter"",""1"",""2114""
","
","
","""event"",""trial"",""time""
""fullscreenenter"",""1"",""2114""
","
","","","-1","","","19","16588","6494","&#9761;","elianto","#3366ff99","-1","-1","1","+10","[]","0","0","2","","","","","","","",""
"pit-trial","43","428103","0.0-2.0-11.1-1.1","battery-v0.2","","""event"",""trial"",""time""
""fullscreenenter"",""1"",""2114""
","
","
","""event"",""trial"",""time""
""fullscreenenter"",""1"",""2114""
","
","","","-1","","","19","16588","6494","&#9761;","elianto","#3366ff99","-1","-1","1","+10","[]","0","0","2","","","","","","","",""
"pit-trial","44","432957","0.0-2.0-11.1-2.1","battery-v0.2","","""event"",""trial"",""time""
""fullscreenenter"",""1"",""2114""
","
","
","""event"",""trial"",""time""
""fullscreenenter"",""1"",""2114""
","
","","","-1","","","19","16588","6494","&#9761;","elianto","#3366ff99","-1","-1","1","+10","[]","0","0","2","","","","","","","",""
"pit-trial","45","437810","0.0-2.0-11.1-3.1","battery-v0.2","","""event"",""trial"",""time""
""fullscreenenter"",""1"",""2114""
","
","
","""event"",""trial"",""time""
""fullscreenenter"",""1"",""2114""
","
","","","-1","","","19","16588","6494","&#9761;","elianto","#3366ff99","-1","-1","1","0","[]","0","0","2","","","","","","","",""
"pit-trial","46","442664","0.0-2.0-11.1-4.1","battery-v0.2","","""event"",""trial"",""time""
""fullscreenenter"",""1"",""2114""
","
","
","""event"",""trial"",""time""
""fullscreenenter"",""1"",""2114""
","
","","","-1","","","19","16588","6494","&#9761;","elianto","#3366ff99","-1","-1","1","+10","[]","0","0","2","","","","","","","",""
"pit-trial","47","447519","0.0-2.0-11.2-0.2","battery-v0.2","","""event"",""trial"",""time""
""fullscreenenter"",""1"",""2114""
","
","
","""event"",""trial"",""time""
""fullscreenenter"",""1"",""2114""
","
","","","-1","","","19","16588","6494","&#9761;","elianto","#3366ff99","-1","-1","1","+10","[]","0","0","2","","","","","","","",""
"pit-trial","48","452374","0.0-2.0-11.2-1.2","battery-v0.2","","""event"",""trial"",""time""
""fullscreenenter"",""1"",""2114""
","
","
","""event"",""trial"",""time""
""fullscreenenter"",""1"",""2114""
","
","","","-1","","","19","16588","6494","&#9761;","elianto","#3366ff99","-1","-1","1","+10","[]","0","0","2","","","","","","","",""
"pit-trial","49","457235","0.0-2.0-11.2-2.2","battery-v0.2","","""event"",""trial"",""time""
""fullscreenenter"",""1"",""2114""
","
","
","""event"",""trial"",""time""
""fullscreenenter"",""1"",""2114""
","
","","","-1","","","19","16588","6494","&#9761;","elianto","#3366ff99","-1","-1","1","+10","[]","0","0","2","","","","","","","",""
"pit-trial","50","462090","0.0-2.0-11.2-3.2","battery-v0.2","","""event"",""trial"",""time""
""fullscreenenter"",""1"",""2114""
","
","
","""event"",""trial"",""time""
""fullscreenenter"",""1"",""2114""
","
","","","-1","","","19","16588","6494","&#9761;","elianto","#3366ff99","-1","-1","1","0","[]","0","0","2","","","","","","","",""
"pit-trial","51","466944","0.0-2.0-11.2-4.2","battery-v0.2","","""event"",""trial"",""time""
""fullscreenenter"",""1"",""2114""
","
","
","""event"",""trial"",""time""
""fullscreenenter"",""1"",""2114""
","
","","","-1","","","19","16588","6494","&#9761;","elianto","#3366ff99","-1","-1","1","+10","[]","0","0","2","","","","","","","",""
"pit-trial","52","471798","0.0-2.0-11.3-0.3","battery-v0.2","","""event"",""trial"",""time""
""fullscreenenter"",""1"",""2114""
","
","
","""event"",""trial"",""time""
""fullscreenenter"",""1"",""2114""
","
","","","-1","","","19","16588","6494","&#9761;","elianto","#3366ff99","-1","-1","1","+10","[]","0","0","2","","","","","","","",""
"pit-trial","53","476652","0.0-2.0-11.3-1.3","battery-v0.2","","""event"",""trial"",""time""
""fullscreenenter"",""1"",""2114""
","
","
","""event"",""trial"",""time""
""fullscreenenter"",""1"",""2114""
","
","","","-1","","","19","16588","6494","&#9761;","elianto","#3366ff99","-1","-1","1","+10","[]","0","0","2","","","","","","","",""
"pit-trial","54","481509","0.0-2.0-11.3-2.3","battery-v0.2","","""event"",""trial"",""time""
""fullscreenenter"",""1"",""2114""
","
","
","""event"",""trial"",""time""
""fullscreenenter"",""1"",""2114""
","
","","","-1","","","19","16588","6494","&#9761;","elianto","#3366ff99","-1","-1","1","+10","[]","0","0","2","","","","","","","",""
"pit-trial","55","486367","0.0-2.0-11.3-3.3","battery-v0.2","","""event"",""trial"",""time""
""fullscreenenter"",""1"",""2114""
","
","
","""event"",""trial"",""time""
""fullscreenenter"",""1"",""2114""
","
","","","-1","","","19","16588","6494","&#9761;","elianto","#3366ff99","-1","-1","1","0","[]","0","0","2","","","","","","","",""
"pit-trial","56","491221","0.0-2.0-11.3-4.3","battery-v0.2","","""event"",""trial"",""time""
""fullscreenenter"",""1"",""2114""
","
","
","""event"",""trial"",""time""
""fullscreenenter"",""1"",""2114""
","
","","","-1","","","19","16588","6494","&#9761;","elianto","#3366ff99","-1","-1","1","+10","[]","0","0","2","","","","","","","",""
"call-function","57","491224","0.0-2.0-12.0","battery-v0.2","","""event"",""trial"",""time""
""fullscreenenter"",""1"",""2114""
","
","
","""event"",""trial"",""time""
""fullscreenenter"",""1"",""2114""
","
","","","","","","","","","","","","","","","","","","","","","","","","","","",""
"pit-instructions","58","530724","0.0-2.0-13.0","battery-v0.2","","""event"",""trial"",""time""
""fullscreenenter"",""1"",""2114""
","
","
","""event"",""trial"",""time""
""fullscreenenter"",""1"",""2114""
","
","","[{""page_index"":0,""viewing_time"":7055.10000000149},{""page_index"":1,""viewing_time"":8044.20000000298},{""page_index"":2,""viewing_time"":8324.89999999851},{""page_index"":3,""viewing_time"":10310.5},{""page_index"":4,""viewing_time"":5765.60000000149}]","39500.5","","","","","","","","","","","","","","","","","","","","","","","",""
"pit-trial","59","534835","0.0-2.0-14.0-0.0","battery-v0.2","","""event"",""trial"",""time""
""fullscreenenter"",""1"",""2114""
","
","
","""event"",""trial"",""time""
""fullscreenenter"",""1"",""2114""
","
","","","1254.7000000029802","","","19","16588","6494","&#9826;","elianto","#f73b6a7A","-1"," ","0","-10","[2105.60000000149]","1","0","3","","","","","","","",""
"pit-trial","60","538439","0.0-2.0-14.0-1.0","battery-v0.2","","""event"",""trial"",""time""
""fullscreenenter"",""1"",""2114""
","
","
","""event"",""trial"",""time""
""fullscreenenter"",""1"",""2114""
","
","","","738.3999999985099","","","19","16588","6494","&#9826;","elianto","#f73b6a7A","-1"," ","0","-10","[1589.8999999985099]","1","0","3","","","","","","","",""
"pit-trial","61","543307","0.0-2.0-14.0-2.0","battery-v0.2","","""event"",""trial"",""time""
""fullscreenenter"",""1"",""2114""
","
","
","""event"",""trial"",""time""
""fullscreenenter"",""1"",""2114""
","
","","","-1","","","19","16588","6494","&#9826;","elianto","#f73b6a7A","-1","-1","1","0","[]","0","0","3","","","","","","","",""
"pit-trial","62","548187","0.0-2.0-14.0-3.0","battery-v0.2","","""event"",""trial"",""time""
""fullscreenenter"",""1"",""2114""
","
","
","""event"",""trial"",""time""
""fullscreenenter"",""1"",""2114""
","
","","","-1","","","19","16588","6494","&#9826;","elianto","#f73b6a7A","-1","-1","1","-10","[]","0","0","3","","","","","","","",""
"pit-trial","63","553062","0.0-2.0-14.0-4.0","battery-v0.2","","""event"",""trial"",""time""
""fullscreenenter"",""1"",""2114""
","
","
","""event"",""trial"",""time""
""fullscreenenter"",""1"",""2114""
","
","","","-1","","","19","16588","6494","&#9826;","elianto","#f73b6a7A","-1","-1","1","0","[]","0","0","3","","","","","","","",""
"pit-trial","64","557932","0.0-2.0-14.1-0.1","battery-v0.2","","""event"",""trial"",""time""
""fullscreenenter"",""1"",""2114""
","
","
","""event"",""trial"",""time""
""fullscreenenter"",""1"",""2114""
","
","","","-1","","","19","16588","6494","&#9826;","elianto","#f73b6a7A","-1","-1","1","0","[]","0","0","3","","","","","","","",""
"pit-trial","65","562786","0.0-2.0-14.1-1.1","battery-v0.2","","""event"",""trial"",""time""
""fullscreenenter"",""1"",""2114""
","
","
","""event"",""trial"",""time""
""fullscreenenter"",""1"",""2114""
","
","","","-1","","","19","16588","6494","&#9826;","elianto","#f73b6a7A","-1","-1","1","0","[]","0","0","3","","","","","","","",""
"pit-trial","66","567640","0.0-2.0-14.1-2.1","battery-v0.2","","""event"",""trial"",""time""
""fullscreenenter"",""1"",""2114""
","
","
","""event"",""trial"",""time""
""fullscreenenter"",""1"",""2114""
","
","","","-1","","","19","16588","6494","&#9826;","elianto","#f73b6a7A","-1","-1","1","0","[]","0","0","3","","","","","","","",""
"pit-trial","67","572495","0.0-2.0-14.1-3.1","battery-v0.2","","""event"",""trial"",""time""
""fullscreenenter"",""1"",""2114""
","
","
","""event"",""trial"",""time""
""fullscreenenter"",""1"",""2114""
","
","","","-1","","","19","16588","6494","&#9826;","elianto","#f73b6a7A","-1","-1","1","-10","[]","0","0","3","","","","","","","",""
"pit-trial","68","577349","0.0-2.0-14.1-4.1","battery-v0.2","","""event"",""trial"",""time""
""fullscreenenter"",""1"",""2114""
","
","
","""event"",""trial"",""time""
""fullscreenenter"",""1"",""2114""
","
","","","-1","","","19","16588","6494","&#9826;","elianto","#f73b6a7A","-1","-1","1","0","[]","0","0","3","","","","","","","",""
"pit-trial","69","582204","0.0-2.0-14.2-0.2","battery-v0.2","","""event"",""trial"",""time""
""fullscreenenter"",""1"",""2114""
","
","
","""event"",""trial"",""time""
""fullscreenenter"",""1"",""2114""
","
","","","-1","","","19","16588","6494","&#9826;","elianto","#f73b6a7A","-1","-1","1","0","[]","0","0","3","","","","","","","",""
"pit-trial","70","587058","0.0-2.0-14.2-1.2","battery-v0.2","","""event"",""trial"",""time""
""fullscreenenter"",""1"",""2114""
","
","
","""event"",""trial"",""time""
""fullscreenenter"",""1"",""2114""
","
","","","-1","","","19","16588","6494","&#9826;","elianto","#f73b6a7A","-1","-1","1","0","[]","0","0","3","","","","","","","",""
"pit-trial","71","591912","0.0-2.0-14.2-2.2","battery-v0.2","","""event"",""trial"",""time""
""fullscreenenter"",""1"",""2114""
","
","
","""event"",""trial"",""time""
""fullscreenenter"",""1"",""2114""
","
","","","-1","","","19","16588","6494","&#9826;","elianto","#f73b6a7A","-1","-1","1","0","[]","0","0","3","","","","","","","",""
"pit-trial","72","596766","0.0-2.0-14.2-3.2","battery-v0.2","","""event"",""trial"",""time""
""fullscreenenter"",""1"",""2114""
","
","
","""event"",""trial"",""time""
""fullscreenenter"",""1"",""2114""
","
","","","-1","","","19","16588","6494","&#9826;","elianto","#f73b6a7A","-1","-1","1","-10","[]","0","0","3","","","","","","","",""
"pit-trial","73","601620","0.0-2.0-14.2-4.2","battery-v0.2","","""event"",""trial"",""time""
""fullscreenenter"",""1"",""2114""
","
","
","""event"",""trial"",""time""
""fullscreenenter"",""1"",""2114""
","
","","","-1","","","19","16588","6494","&#9826;","elianto","#f73b6a7A","-1","-1","1","0","[]","0","0","3","","","","","","","",""
"pit-trial","74","606477","0.0-2.0-14.3-0.3","battery-v0.2","","""event"",""trial"",""time""
""fullscreenenter"",""1"",""2114""
","
","
","""event"",""trial"",""time""
""fullscreenenter"",""1"",""2114""
","
","","","-1","","","19","16588","6494","&#9826;","elianto","#f73b6a7A","-1","-1","1","0","[]","0","0","3","","","","","","","",""
"pit-trial","75","611330","0.0-2.0-14.3-1.3","battery-v0.2","","""event"",""trial"",""time""
""fullscreenenter"",""1"",""2114""
","
","
","""event"",""trial"",""time""
""fullscreenenter"",""1"",""2114""
","
","","","-1","","","19","16588","6494","&#9826;","elianto","#f73b6a7A","-1","-1","1","0","[]","0","0","3","","","","","","","",""
"pit-trial","76","616186","0.0-2.0-14.3-2.3","battery-v0.2","","""event"",""trial"",""time""
""fullscreenenter"",""1"",""2114""
","
","
","""event"",""trial"",""time""
""fullscreenenter"",""1"",""2114""
","
","","","-1","","","19","16588","6494","&#9826;","elianto","#f73b6a7A","-1","-1","1","0","[]","0","0","3","","","","","","","",""
"pit-trial","77","621041","0.0-2.0-14.3-3.3","battery-v0.2","","""event"",""trial"",""time""
""fullscreenenter"",""1"",""2114""
","
","
","""event"",""trial"",""time""
""fullscreenenter"",""1"",""2114""
","
","","","-1","","","19","16588","6494","&#9826;","elianto","#f73b6a7A","-1","-1","1","-10","[]","0","0","3","","","","","","","",""
"pit-trial","78","625895","0.0-2.0-14.3-4.3","battery-v0.2","","""event"",""trial"",""time""
""fullscreenenter"",""1"",""2114""
","
","
","""event"",""trial"",""time""
""fullscreenenter"",""1"",""2114""
","
","","","-1","","","19","16588","6494","&#9826;","elianto","#f73b6a7A","-1","-1","1","0","[]","0","0","3","","","","","","","",""
"call-function","79","625897","0.0-2.0-15.0","battery-v0.2","","""event"",""trial"",""time""
""fullscreenenter"",""1"",""2114""
","
","
","""event"",""trial"",""time""
""fullscreenenter"",""1"",""2114""
","
","","","","","","","","","","","","","","","","","","","","","","","","","","",""
"pit-instructions","80","661686","0.0-2.0-16.0","battery-v0.2","","""event"",""trial"",""time""
""fullscreenenter"",""1"",""2114""
","
","
","""event"",""trial"",""time""
""fullscreenenter"",""1"",""2114""
","
","","[{""page_index"":0,""viewing_time"":8392.20000000298},{""page_index"":1,""viewing_time"":13830},{""page_index"":2,""viewing_time"":6520.20000000298},{""page_index"":3,""viewing_time"":7043.89999999851}]","35786.40000000596","","","","","","","","","","","","","","","","","","","","","","","",""
"pit-trial","81","665468","0.0-2.0-17.0-0.0","battery-v0.2","","""event"",""trial"",""time""
""fullscreenenter"",""1"",""2114""
","
","
","""event"",""trial"",""time""
""fullscreenenter"",""1"",""2114""
","
","","","912","","","19","16588","6494","&#9789;","elianto","#f73b6a7A"," "," ","1","0","[1768.8000000044703]","1","0","4","","","","","","","",""
"pit-trial","82","668709","0.0-2.0-17.0-1.0","battery-v0.2","","""event"",""trial"",""time""
""fullscreenenter"",""1"",""2114""
","
","
","""event"",""trial"",""time""
""fullscreenenter"",""1"",""2114""
","
","","","375.19999999552965","","","19","16588","6494","&#9789;","elianto","#f73b6a7A"," "," ","1","0","[1230.1000000014901]","1","0","4","","","","","","","",""
"pit-trial","83","672119","0.0-2.0-17.0-2.0","battery-v0.2","","""event"",""trial"",""time""
""fullscreenenter"",""1"",""2114""
","
","
","""event"",""trial"",""time""
""fullscreenenter"",""1"",""2114""
","
","","","545","","","19","16588","6494","&#9789;","elianto","#f73b6a7A"," "," ","1","0","[1395.2000000029802]","1","0","4","","","","","","","",""
"pit-trial","84","675433","0.0-2.0-17.0-3.0","battery-v0.2","","""event"",""trial"",""time""
""fullscreenenter"",""1"",""2114""
","
","
","""event"",""trial"",""time""
""fullscreenenter"",""1"",""2114""
","
","","","449","","","19","16588","6494","&#9789;","elianto","#f73b6a7A"," "," ","1","-10","[1299]","1","0","4","","","","","","","",""
"pit-trial","85","678840","0.0-2.0-17.0-4.0","battery-v0.2","","""event"",""trial"",""time""
""fullscreenenter"",""1"",""2114""
","
","
","""event"",""trial"",""time""
""fullscreenenter"",""1"",""2114""
","
","","","549.7000000029802","","","19","16588","6494","&#9789;","elianto","#f73b6a7A"," "," ","1","0","[1400.2999999970198]","1","0","4","","","","","","","",""
"pit-trial","86","682077","0.0-2.0-17.1-0.1","battery-v0.2","","""event"",""trial"",""time""
""fullscreenenter"",""1"",""2114""
","
","
","""event"",""trial"",""time""
""fullscreenenter"",""1"",""2114""
","
","","","369.40000000596046","","","19","16588","6494","&#9789;","elianto","#f73b6a7A"," "," ","1","0","[1222.5]","1","0","4","","","","","","","",""
"pit-trial","87","685758","0.0-2.0-17.1-1.1","battery-v0.2","","""event"",""trial"",""time""
""fullscreenenter"",""1"",""2114""
","
","
","""event"",""trial"",""time""
""fullscreenenter"",""1"",""2114""
","
","","","815.8999999985099","","","19","16588","6494","&#9789;","elianto","#f73b6a7A"," "," ","1","0","[1668.1000000014901]","1","0","4","","","","","","","",""
"pit-trial","88","689050","0.0-2.0-17.1-2.1","battery-v0.2","","""event"",""trial"",""time""
""fullscreenenter"",""1"",""2114""
","
","
","""event"",""trial"",""time""
""fullscreenenter"",""1"",""2114""
","
","","","423.69999999552965","","","19","16588","6494","&#9789;","elianto","#f73b6a7A"," "," ","1","0","[1274.8999999985099]","1","0","4","","","","","","","",""
"pit-trial","89","692342","0.0-2.0-17.1-3.1","battery-v0.2","","""event"",""trial"",""time""
""fullscreenenter"",""1"",""2114""
","
","
","""event"",""trial"",""time""
""fullscreenenter"",""1"",""2114""
","
","","","437.8999999985099","","","19","16588","6494","&#9789;","elianto","#f73b6a7A"," "," ","1","-10","[1288.3999999985099]","1","0","4","","","","","","","",""
"pit-trial","90","695780","0.0-2.0-17.1-4.1","battery-v0.2","","""event"",""trial"",""time""
""fullscreenenter"",""1"",""2114""
","
","
","""event"",""trial"",""time""
""fullscreenenter"",""1"",""2114""
","
","","","568.6999999955297","","","19","16588","6494","&#9789;","elianto","#f73b6a7A"," "," ","1","0","[1420.3999999985099]","1","0","4","","","","","","","",""
"pit-trial","91","699354","0.0-2.0-17.2-0.2","battery-v0.2","","""event"",""trial"",""time""
""fullscreenenter"",""1"",""2114""
","
","
","""event"",""trial"",""time""
""fullscreenenter"",""1"",""2114""
","
","","","718.3999999985099","","","19","16588","6494","&#9789;","elianto","#f73b6a7A"," "," ","1","0","[1568.6999999955297]","1","0","4","","","","","","","",""
"pit-trial","92","702837","0.0-2.0-17.2-1.2","battery-v0.2","","""event"",""trial"",""time""
""fullscreenenter"",""1"",""2114""
","
","
","""event"",""trial"",""time""
""fullscreenenter"",""1"",""2114""
","
","","","627.3999999985099","","","19","16588","6494","&#9789;","elianto","#f73b6a7A"," "," ","1","0","[1479]","1","0","4","","","","","","","",""
"pit-trial","93","706797","0.0-2.0-17.2-2.2","battery-v0.2","","""event"",""trial"",""time""
""fullscreenenter"",""1"",""2114""
","
","
","""event"",""trial"",""time""
""fullscreenenter"",""1"",""2114""
","
","","","1107.1000000014901","","","19","16588","6494","&#9789;","elianto","#f73b6a7A"," "," ","1","0","[1957.1000000014901]","1","0","4","","","","","","","",""
"pit-trial","94","710637","0.0-2.0-17.2-3.2","battery-v0.2","","""event"",""trial"",""time""
""fullscreenenter"",""1"",""2114""
","
","
","""event"",""trial"",""time""
""fullscreenenter"",""1"",""2114""
","
","","","986.2999999970198","","","19","16588","6494","&#9789;","elianto","#f73b6a7A"," "," ","1","-10","[1837.2000000029802]","1","0","4","","","","","","","",""
"pit-trial","95","714248","0.0-2.0-17.2-4.2","battery-v0.2","","""event"",""trial"",""time""
""fullscreenenter"",""1"",""2114""
","
","
","""event"",""trial"",""time""
""fullscreenenter"",""1"",""2114""
","
","","","754.5","","","19","16588","6494","&#9789;","elianto","#f73b6a7A"," "," ","1","0","[1605.3999999985099]","1","0","4","","","","","","","",""
"pit-trial","96","717544","0.0-2.0-17.3-0.3","battery-v0.2","","""event"",""trial"",""time""
""fullscreenenter"",""1"",""2114""
","
","
","""event"",""trial"",""time""
""fullscreenenter"",""1"",""2114""
","
","","","439.59999999403954","","","19","16588","6494","&#9789;","elianto","#f73b6a7A"," "," ","1","0","[1290.2000000029802]","1","0","4","","","","","","","",""
"pit-trial","97","721822","0.0-2.0-17.3-1.3","battery-v0.2","","""event"",""trial"",""time""
""fullscreenenter"",""1"",""2114""
","
","
","""event"",""trial"",""time""
""fullscreenenter"",""1"",""2114""
","
","","","1424","","","19","16588","6494","&#9789;","elianto","#f73b6a7A"," "," ","1","0","[2274.6999999955297]","1","0","4","","","","","","","",""
"pit-trial","98","725913","0.0-2.0-17.3-2.3","battery-v0.2","","""event"",""trial"",""time""
""fullscreenenter"",""1"",""2114""
","
","
","""event"",""trial"",""time""
""fullscreenenter"",""1"",""2114""
","
","","","1237.5","","","19","16588","6494","&#9789;","elianto","#f73b6a7A"," "," ","1","0","[2087.5999999940395]","1","0","4","","","","","","","",""
"pit-trial","99","729569","0.0-2.0-17.3-3.3","battery-v0.2","","""event"",""trial"",""time""
""fullscreenenter"",""1"",""2114""
","
","
","""event"",""trial"",""time""
""fullscreenenter"",""1"",""2114""
","
","","","802.3000000044703","","","19","16588","6494","&#9789;","elianto","#f73b6a7A"," "," ","1","-10","[1652.7000000029802]","1","0","4","","","","","","","",""
"pit-trial","100","733419","0.0-2.0-17.3-4.3","battery-v0.2","","""event"",""trial"",""time""
""fullscreenenter"",""1"",""2114""
","
","
","""event"",""trial"",""time""
""fullscreenenter"",""1"",""2114""
","
","","","995.7999999970198","","","19","16588","6494","&#9789;","elianto","#f73b6a7A"," "," ","1","0","[1846.3000000044703]","1","0","4","","","","","","","",""
"call-function","101","733421","0.0-2.0-18.0","battery-v0.2","","""event"",""trial"",""time""
""fullscreenenter"",""1"",""2114""
","
","
","""event"",""trial"",""time""
""fullscreenenter"",""1"",""2114""
","
","","","","","","","","","","","","","","","","","","","","","","","","","","",""
"pit-instructions","102","806618","0.0-2.0-19.0","battery-v0.2","","""event"",""trial"",""time""
""fullscreenenter"",""1"",""2114""
","
","
","""event"",""trial"",""time""
""fullscreenenter"",""1"",""2114""
","
","","[{""page_index"":0,""viewing_time"":13792.10000000149},{""page_index"":1,""viewing_time"":5857.29999999702},{""page_index"":2,""viewing_time"":9925},{""page_index"":3,""viewing_time"":7455.89999999851},{""page_index"":4,""viewing_time"":8075.5},{""page_index"":5,""viewing_time"":8589.5},{""page_index"":6,""viewing_time"":7390},{""page_index"":7,""viewing_time"":8029.20000000298},{""page_index"":8,""viewing_time"":4082.6999999955297}]","73197.5","","","","","","","","","","","","","","","","","","","","","","","",""
"pit-comprehension","103","810972","0.0-2.0-20.0-0.0","battery-v0.2","","""event"",""trial"",""time""
""fullscreenenter"",""1"",""2114""
","
","
","""event"",""trial"",""time""
""fullscreenenter"",""1"",""2114""
","
","","","4350.5","[""SPACE""]","0","19","16588","6494","","","","","","","","","","","","","","","","","","",""
"pit-instructions","104","813886","0.0-2.0-20.0-1.0","battery-v0.2","","""event"",""trial"",""time""
""fullscreenenter"",""1"",""2114""
","
","
","""event"",""trial"",""time""
""fullscreenenter"",""1"",""2114""
","
","","[{""page_index"":0,""viewing_time"":2879.89999999851}]","2880.1999999955297","","","","","","","","","","","","","","","","","","","","","","","",""
"pit-comprehension","105","818324","0.0-2.0-21.0-0.0","battery-v0.2","","""event"",""trial"",""time""
""fullscreenenter"",""1"",""2114""
","
","
","""event"",""trial"",""time""
""fullscreenenter"",""1"",""2114""
","
","","","4435.29999999702","[""10""]","0","19","16588","6494","","","","","","","","","","","","","","","","","","",""
"pit-instructions","106","819964","0.0-2.0-21.0-1.0","battery-v0.2","","""event"",""trial"",""time""
""fullscreenenter"",""1"",""2114""
","
","
","""event"",""trial"",""time""
""fullscreenenter"",""1"",""2114""
","
","","[{""page_index"":0,""viewing_time"":1619.8000000044703}]","1619.8999999985099","","","","","","","","","","","","","","","","","","","","","","","",""
"pit-comprehension","107","826357","0.0-2.0-22.0-0.0","battery-v0.2","","""event"",""trial"",""time""
""fullscreenenter"",""1"",""2114""
","
","
","""event"",""trial"",""time""
""fullscreenenter"",""1"",""2114""
","
","","","6390.79999999702","[""0""]","0","19","16588","6494","","","","","","","","","","","","","","","","","","",""
"pit-instructions","108","827489","0.0-2.0-22.0-1.0","battery-v0.2","","""event"",""trial"",""time""
""fullscreenenter"",""1"",""2114""
","
","
","""event"",""trial"",""time""
""fullscreenenter"",""1"",""2114""
","
","","[{""page_index"":0,""viewing_time"":1113.6000000014901}]","1113.7999999970198","","","","","","","","","","","","","","","","","","","","","","","",""
"pit-comprehension","109","837306","0.0-2.0-23.0-0.0","battery-v0.2","","""event"",""trial"",""time""
""fullscreenenter"",""1"",""2114""
","
","
","""event"",""trial"",""time""
""fullscreenenter"",""1"",""2114""
","
","","","9814.19999999553","[""True""]","0","19","16588","6494","","","","","","","","","","","","","","","","","","",""
"pit-instructions","110","838949","0.0-2.0-23.0-1.0","battery-v0.2","","""event"",""trial"",""time""
""fullscreenenter"",""1"",""2114""
","
","
","""event"",""trial"",""time""
""fullscreenenter"",""1"",""2114""
","
","","[{""page_index"":0,""viewing_time"":1621.2999999970198}]","1621.5","","","","","","","","","","","","","","","","","","","","","","","",""
"pit-comprehension","111","846298","0.0-2.0-24.0-0.0","battery-v0.2","","""event"",""trial"",""time""
""fullscreenenter"",""1"",""2114""
","
","
","""event"",""trial"",""time""
""fullscreenenter"",""1"",""2114""
","
","","","7346.79999999702","[""True""]","0","19","16588","6494","","","","","","","","","","","","","","","","","","",""
"pit-instructions","112","848256","0.0-2.0-24.0-1.0","battery-v0.2","","""event"",""trial"",""time""
""fullscreenenter"",""1"",""2114""
","
","
","""event"",""trial"",""time""
""fullscreenenter"",""1"",""2114""
","
","","[{""page_index"":0,""viewing_time"":1936.6000000014901}]","1936.9000000059605","","","","","","","","","","","","","","","","","","","","","","","",""
"pit-comprehension","113","854743","0.0-2.0-25.0-0.0","battery-v0.2","","""event"",""trial"",""time""
""fullscreenenter"",""1"",""2114""
","
","
","""event"",""trial"",""time""
""fullscreenenter"",""1"",""2114""
","
","","","6484.89999999851","[""True""]","0","19","16588","6494","","","","","","","","","","","","","","","","","","",""
"pit-instructions","114","858229","0.0-2.0-25.0-1.0","battery-v0.2","","""event"",""trial"",""time""
""fullscreenenter"",""1"",""2114""
","
","
","""event"",""trial"",""time""
""fullscreenenter"",""1"",""2114""
","
","","[{""page_index"":0,""viewing_time"":3464.10000000149}]","3464.3000000044703","","","","","","","","","","","","","","","","","","","","","","","",""
"pit-comprehension","115","862790","0.0-2.0-26.0-0.0","battery-v0.2","","""event"",""trial"",""time""
""fullscreenenter"",""1"",""2114""
","
","
","""event"",""trial"",""time""
""fullscreenenter"",""1"",""2114""
","
","","","4558.69999999553","[""False""]","0","19","16588","6494","","","","","","","","","","","","","","","","","","",""
"pit-instructions","116","864370","0.0-2.0-26.0-1.0","battery-v0.2","","""event"",""trial"",""time""
""fullscreenenter"",""1"",""2114""
","
","
","""event"",""trial"",""time""
""fullscreenenter"",""1"",""2114""
","
","","[{""page_index"":0,""viewing_time"":1558.5}]","1558.7000000029802","","","","","","","","","","","","","","","","","","","","","","","",""
"pit-instructions","117","880104","0.0-3.0","battery-v0.2","","""event"",""trial"",""time""
""fullscreenenter"",""1"",""2114""
","
","
","""event"",""trial"",""time""
""fullscreenenter"",""1"",""2114""
","
","","[{""page_index"":0,""viewing_time"":3847.6999999955297},{""page_index"":1,""viewing_time"":5319.80000000447},{""page_index"":2,""viewing_time"":6565.39999999851}]","15733","","","","","","","","","","","","","","","","","","","","","","","",""
"pit-trial","118","883842","0.0-4.0","battery-v0.2","","""event"",""trial"",""time""
""fullscreenenter"",""1"",""2114""
","
","
","""event"",""trial"",""time""
""fullscreenenter"",""1"",""2114""
","
","","","871.9000000059605","","","19","16588","6494","&#9730;","elianto","#3366ff99"," "," ","1","+10","[1724.4000000059605]","1","1","","","16588","1","1","1","win","go","0"
"pit-trial","119","888707","0.0-5.0","battery-v0.2","","""event"",""trial"",""time""
""fullscreenenter"",""1"",""2114""
","
","
","""event"",""trial"",""time""
""fullscreenenter"",""1"",""2114""
","
","","","-1","","","19","16588","6494","&#9752;","elianto","#f73b6a7A"," ","-1","0","-10","[]","0","1","","","16588","2","3","3","lose","go","0"
"pit-trial","120","892778","0.0-6.0","battery-v0.2","","""event"",""trial"",""time""
""fullscreenenter"",""1"",""2114""
","
","
","""event"",""trial"",""time""
""fullscreenenter"",""1"",""2114""
","
","","","1211.6999999955297","","","19","16588","6494","&#9733;","elianto","#3366ff99","-1"," ","0","0","[2062.7000000029802]","1","1","","","16588","3","2","2","win","no-go","0"
"pit-trial","121","896768","0.0-7.0","battery-v0.2","","""event"",""trial"",""time""
""fullscreenenter"",""1"",""2114""
","
","
","""event"",""trial"",""time""
""fullscreenenter"",""1"",""2114""
","
","","","1123.7000000029802","","","19","16588","6494","&#9728;","elianto","#f73b6a7A","-1"," ","0","-10","[1974.6999999955297]","1","1","","","16588","4","0","4","lose","no-go","0"
"pit-trial","122","901627","0.0-8.0","battery-v0.2","","""event"",""trial"",""time""
""fullscreenenter"",""1"",""2114""
","
","
","""event"",""trial"",""time""
""fullscreenenter"",""1"",""2114""
","
","","","-1","","","19","16588","6494","&#9752;","elianto","#f73b6a7A"," ","-1","0","0","[]","0","1","","","16588","5","3","3","lose","go","1"
"pit-trial","123","906507","0.0-9.0","battery-v0.2","","""event"",""trial"",""time""
""fullscreenenter"",""1"",""2114""
","
","
","""event"",""trial"",""time""
""fullscreenenter"",""1"",""2114""
","
","","","-1","","","19","16588","6494","&#9728;","elianto","#f73b6a7A","-1","-1","1","-10","[]","0","1","","","16588","6","0","4","lose","no-go","1"
"pit-trial","124","911362","0.0-10.0","battery-v0.2","","""event"",""trial"",""time""
""fullscreenenter"",""1"",""2114""
","
","
","""event"",""trial"",""time""
""fullscreenenter"",""1"",""2114""
","
","","","-1","","","19","16588","6494","&#9733;","elianto","#3366ff99","-1","-1","1","+10","[]","0","1","","","16588","7","2","2","win","no-go","0"
"pit-trial","125","914751","0.0-11.0","battery-v0.2","","""event"",""trial"",""time""
""fullscreenenter"",""1"",""2114""
","
","
","""event"",""trial"",""time""
""fullscreenenter"",""1"",""2114""
","
","","","536.8000000044703","","","19","16588","6494","&#9730;","elianto","#3366ff99"," "," ","1","+10","[1387.1000000014901]","1","1","","","16588","8","1","1","win","go","0"
"pit-trial","126","919607","0.0-12.0","battery-v0.2","","""event"",""trial"",""time""
""fullscreenenter"",""1"",""2114""
","
","
","""event"",""trial"",""time""
""fullscreenenter"",""1"",""2114""
","
","","","-1","","","19","16588","6494","&#9728;","elianto","#f73b6a7A","-1","-1","1","0","[]","0","1","","","16588","9","0","4","lose","no-go","0"
"pit-trial","127","923247","0.0-13.0","battery-v0.2","","""event"",""trial"",""time""
""fullscreenenter"",""1"",""2114""
","
","
","""event"",""trial"",""time""
""fullscreenenter"",""1"",""2114""
","
","","","784.8000000044703","","","19","16588","6494","&#9730;","elianto","#3366ff99"," "," ","1","0","[1635.3999999985099]","1","1","","","16588","10","1","1","win","go","1"
"pit-trial","128","928101","0.0-14.0","battery-v0.2","","""event"",""trial"",""time""
""fullscreenenter"",""1"",""2114""
","
","
","""event"",""trial"",""time""
""fullscreenenter"",""1"",""2114""
","
","","","-1","","","19","16588","6494","&#9733;","elianto","#3366ff99","-1","-1","1","+10","[]","0","1","","","16588","11","2","2","win","no-go","0"
"pit-trial","129","931681","0.0-15.0","battery-v0.2","","""event"",""trial"",""time""
""fullscreenenter"",""1"",""2114""
","
","
","""event"",""trial"",""time""
""fullscreenenter"",""1"",""2114""
","
","","","724.8000000044703","","","19","16588","6494","&#9752;","elianto","#f73b6a7A"," "," ","1","0","[1574.8999999985099]","1","1","","","16588","12","3","3","lose","go","0"
"pit-trial","130","935347","0.0-16.0","battery-v0.2","","""event"",""trial"",""time""
""fullscreenenter"",""1"",""2114""
","
","
","""event"",""trial"",""time""
""fullscreenenter"",""1"",""2114""
","
","","","810.6000000014901","","","19","16588","6494","&#9752;","elianto","#f73b6a7A"," "," ","1","-10","[1662]","1","1","","","16588","13","3","3","lose","go","1"
"pit-trial","131","938803","0.0-17.0","battery-v0.2","","""event"",""trial"",""time""
""fullscreenenter"",""1"",""2114""
","
","
","""event"",""trial"",""time""
""fullscreenenter"",""1"",""2114""
","
","","","601.7999999970198","","","19","16588","6494","&#9730;","elianto","#3366ff99"," "," ","1","+10","[1452.5]","1","1","","","16588","14","1","1","win","go","0"
"pit-trial","132","942554","0.0-18.0","battery-v0.2","","""event"",""trial"",""time""
""fullscreenenter"",""1"",""2114""
","
","
","""event"",""trial"",""time""
""fullscreenenter"",""1"",""2114""
","
","","","895.1999999955297","","","19","16588","6494","&#9728;","elianto","#f73b6a7A","-1"," ","0","-10","[1746.3999999985099]","1","1","","","16588","15","0","4","lose","no-go","0"
"pit-trial","133","947408","0.0-19.0","battery-v0.2","","""event"",""trial"",""time""
""fullscreenenter"",""1"",""2114""
","
","
","""event"",""trial"",""time""
""fullscreenenter"",""1"",""2114""
","
","","","-1","","","19","16588","6494","&#9733;","elianto","#3366ff99","-1","-1","1","+10","[]","0","1","","","16588","16","2","2","win","no-go","0"
"pit-trial","134","950712","0.0-20.0","battery-v0.2","","""event"",""trial"",""time""
""fullscreenenter"",""1"",""2114""
","
","
","""event"",""trial"",""time""
""fullscreenenter"",""1"",""2114""
","
","","","450.1000000014901","","","19","16588","6494","&#9730;","elianto","#3366ff99"," "," ","1","+10","[1301]","1","1","","","16588","17","1","1","win","go","0"
"pit-trial","135","955569","0.0-21.0","battery-v0.2","","""event"",""trial"",""time""
""fullscreenenter"",""1"",""2114""
","
","
","""event"",""trial"",""time""
""fullscreenenter"",""1"",""2114""
","
","","","-1","","","19","16588","6494","&#9752;","elianto","#f73b6a7A"," ","-1","0","-10","[3628,3941.6999999955297]","2","1","","","16588","18","3","3","lose","go","0"
"pit-trial","136","960424","0.0-22.0","battery-v0.2","","""event"",""trial"",""time""
""fullscreenenter"",""1"",""2114""
","
","
","""event"",""trial"",""time""
""fullscreenenter"",""1"",""2114""
","
","","","-1","","","19","16588","6494","&#9728;","elianto","#f73b6a7A","-1","-1","1","0","[]","0","1","","","16588","19","0","4","lose","no-go","0"
"pit-trial","137","965285","0.0-23.0","battery-v0.2","","""event"",""trial"",""time""
""fullscreenenter"",""1"",""2114""
","
","
","""event"",""trial"",""time""
""fullscreenenter"",""1"",""2114""
","
","","","-1","","","19","16588","6494","&#9733;","elianto","#3366ff99","-1","-1","1","0","[]","0","1","","","16588","20","2","2","win","no-go","1"
"pit-instructions","138","977356","0.0-24.0","battery-v0.2","","""event"",""trial"",""time""
""fullscreenenter"",""1"",""2114""
","
","
","""event"",""trial"",""time""
""fullscreenenter"",""1"",""2114""
","
","","[{""page_index"":0,""viewing_time"":5615.5},{""page_index"":1,""viewing_time"":6453}]","12068.80000000447","","","","","","","","","","","","","","","","","","","","","","","",""
"pit-trial","139","981467","0.0-25.0","battery-v0.2","","""event"",""trial"",""time""
""fullscreenenter"",""1"",""2114""
","
","
","""event"",""trial"",""time""
""fullscreenenter"",""1"",""2114""
","
","","","1251.4000000059605","","","19","16588","6494","a","elianto","#f73b6a7A","-1"," ","0","-10","[2104.5]","1","2","","","16588","21","2","4","lose","no-go","0"
"pit-trial","140","985268","0.0-26.0","battery-v0.2","","""event"",""trial"",""time""
""fullscreenenter"",""1"",""2114""
","
","
","""event"",""trial"",""time""
""fullscreenenter"",""1"",""2114""
","
","","","934.8000000044703","","","19","16588","6494","l","elianto","#3366ff99"," "," ","1","+10","[1786.5]","1","2","","","16588","22","1","1","win","go","0"
"pit-trial","141","989190","0.0-27.0","battery-v0.2","","""event"",""trial"",""time""
""fullscreenenter"",""1"",""2114""
","
","
","""event"",""trial"",""time""
""fullscreenenter"",""1"",""2114""
","
","","","1054.6000000014901","","","19","16588","6494","u","elianto","#f73b6a7A","-1"," ","0","0","[1911.7000000029802]","1","2","","","16588","23","0","4","lose","no-go","1"
"pit-trial","142","993074","0.0-28.0","battery-v0.2","","""event"",""trial"",""time""
""fullscreenenter"",""1"",""2114""
","
","
","""event"",""trial"",""time""
""fullscreenenter"",""1"",""2114""
","
","","","1029","","","19","16588","6494","g","elianto","#f73b6a7A"," "," ","1","0","[1880.5]","1","2","","","16588","24","3","3","lose","go","0"
"pit-trial","143","997957","0.0-29.0","battery-v0.2","","""event"",""trial"",""time""
""fullscreenenter"",""1"",""2114""
","
","
","""event"",""trial"",""time""
""fullscreenenter"",""1"",""2114""
","
","","","-1","","","19","16588","6494","a","elianto","#f73b6a7A","-1","-1","1","0","[]","0","2","","","16588","25","2","4","lose","no-go","0"
"pit-trial","144","1001544","0.0-30.0","battery-v0.2","","""event"",""trial"",""time""
""fullscreenenter"",""1"",""2114""
","
","
","""event"",""trial"",""time""
""fullscreenenter"",""1"",""2114""
","
","","","725.1999999955297","","","19","16588","6494","l","elianto","#3366ff99"," "," ","1","+10","[1576.8999999985099]","1","2","","","16588","26","1","1","win","go","0"
"pit-trial","145","1006420","0.0-31.0","battery-v0.2","","""event"",""trial"",""time""
""fullscreenenter"",""1"",""2114""
","
","
","""event"",""trial"",""time""
""fullscreenenter"",""1"",""2114""
","
","","","-1","","","19","16588","6494","u","elianto","#f73b6a7A","-1","-1","1","0","[]","0","2","","","16588","27","0","4","lose","no-go","0"
"pit-trial","146","1011277","0.0-32.0","battery-v0.2","","""event"",""trial"",""time""
""fullscreenenter"",""1"",""2114""
","
","
","""event"",""trial"",""time""
""fullscreenenter"",""1"",""2114""
","
","","","-1","","","19","16588","6494","g","elianto","#f73b6a7A"," ","-1","0","-10","[]","0","2","","","16588","28","3","3","lose","go","0"
"pit-trial","147","1014983","0.0-33.0","battery-v0.2","","""event"",""trial"",""time""
""fullscreenenter"",""1"",""2114""
","
","
","""event"",""trial"",""time""
""fullscreenenter"",""1"",""2114""
","
","","","851.5","","","19","16588","6494","a","elianto","#f73b6a7A","-1"," ","0","-10","[1702.3000000044703]","1","2","","","16588","29","2","4","lose","no-go","0"
"pit-trial","148","1019023","0.0-34.0","battery-v0.2","","""event"",""trial"",""time""
""fullscreenenter"",""1"",""2114""
","
","
","""event"",""trial"",""time""
""fullscreenenter"",""1"",""2114""
","
","","","1185.2000000029802","","","19","16588","6494","g","elianto","#f73b6a7A"," "," ","1","0","[2035.8000000044703]","1","2","","","16588","30","3","3","lose","go","0"
"pit-trial","149","1023876","0.0-35.0","battery-v0.2","","""event"",""trial"",""time""
""fullscreenenter"",""1"",""2114""
","
","
","""event"",""trial"",""time""
""fullscreenenter"",""1"",""2114""
","
","","","-1","","","19","16588","6494","u","elianto","#f73b6a7A","-1","-1","1","0","[]","0","2","","","16588","31","0","4","lose","no-go","0"
"pit-trial","150","1027225","0.0-36.0","battery-v0.2","","""event"",""trial"",""time""
""fullscreenenter"",""1"",""2114""
","
","
","""event"",""trial"",""time""
""fullscreenenter"",""1"",""2114""
","
","","","496.80000000447035","","","19","16588","6494","l","elianto","#3366ff99"," "," ","1","+10","[1347]","1","2","","","16588","32","1","1","win","go","0"
"pit-trial","151","1031501","0.0-37.0","battery-v0.2","","""event"",""trial"",""time""
""fullscreenenter"",""1"",""2114""
","
","
","""event"",""trial"",""time""
""fullscreenenter"",""1"",""2114""
","
","","","1406.8000000044703","","","19","16588","6494","g","elianto","#f73b6a7A"," "," ","1","0","[2257.60000000149]","1","2","","","16588","33","3","3","lose","go","0"
"pit-trial","152","1036355","0.0-38.0","battery-v0.2","","""event"",""trial"",""time""
""fullscreenenter"",""1"",""2114""
","
","
","""event"",""trial"",""time""
""fullscreenenter"",""1"",""2114""
","
","","","-1","","","19","16588","6494","u","elianto","#f73b6a7A","-1","-1","1","0","[]","0","2","","","16588","34","0","4","lose","no-go","0"
"pit-trial","153","1039640","0.0-39.0","battery-v0.2","","""event"",""trial"",""time""
""fullscreenenter"",""1"",""2114""
","
","
","""event"",""trial"",""time""
""fullscreenenter"",""1"",""2114""
","
","","","429.5","","","19","16588","6494","l","elianto","#3366ff99"," "," ","1","+10","[1281.2000000029802]","1","2","","","16588","35","1","1","win","go","0"
"pit-trial","154","1043553","0.0-40.0","battery-v0.2","","""event"",""trial"",""time""
""fullscreenenter"",""1"",""2114""
","
","
","""event"",""trial"",""time""
""fullscreenenter"",""1"",""2114""
","
","","","1058.5","","","19","16588","6494","a","elianto","#f73b6a7A","-1"," ","0","-10","[1909.7000000029802]","1","2","","","16588","36","2","4","lose","no-go","0"
"pit-trial","155","1047459","0.0-41.0","battery-v0.2","","""event"",""trial"",""time""
""fullscreenenter"",""1"",""2114""
","
","
","""event"",""trial"",""time""
""fullscreenenter"",""1"",""2114""
","
","","","1052","","","19","16588","6494","g","elianto","#f73b6a7A"," "," ","1","0","[1903.8999999985099]","1","2","","","16588","37","3","3","lose","go","0"
"pit-trial","156","1052314","0.0-42.0","battery-v0.2","","""event"",""trial"",""time""
""fullscreenenter"",""1"",""2114""
","
","
","""event"",""trial"",""time""
""fullscreenenter"",""1"",""2114""
","
","","","-1","","","19","16588","6494","a","elianto","#f73b6a7A","-1","-1","1","0","[]","0","2","","","16588","38","2","4","lose","no-go","0"
"pit-trial","157","1057171","0.0-43.0","battery-v0.2","","""event"",""trial"",""time""
""fullscreenenter"",""1"",""2114""
","
","
","""event"",""trial"",""time""
""fullscreenenter"",""1"",""2114""
","
","","","-1","","","19","16588","6494","u","elianto","#f73b6a7A","-1","-1","1","0","[]","0","2","","","16588","39","0","4","lose","no-go","0"
"pit-trial","158","1060554","0.0-44.0","battery-v0.2","","""event"",""trial"",""time""
""fullscreenenter"",""1"",""2114""
","
","
","""event"",""trial"",""time""
""fullscreenenter"",""1"",""2114""
","
","","","521.8000000044703","","","19","16588","6494","l","elianto","#3366ff99"," "," ","1","+10","[1373.2000000029802]","1","2","","","16588","40","1","1","win","go","0"
"pit-trial","159","1065410","0.0-45.0","battery-v0.2","","""event"",""trial"",""time""
""fullscreenenter"",""1"",""2114""
","
","
","""event"",""trial"",""time""
""fullscreenenter"",""1"",""2114""
","
","","","-1","","","19","16588","6494","u","elianto","#f73b6a7A","-1","-1","1","0","[]","0","2","","","16588","41","0","4","lose","no-go","0"
"pit-trial","160","1068696","0.0-46.0","battery-v0.2","","""event"",""trial"",""time""
""fullscreenenter"",""1"",""2114""
","
","
","""event"",""trial"",""time""
""fullscreenenter"",""1"",""2114""
","
","","","433.3999999985099","","","19","16588","6494","l","elianto","#3366ff99"," "," ","1","+10","[1284.1000000014901]","1","2","","","16588","42","1","1","win","go","0"
"pit-trial","161","1073550","0.0-47.0","battery-v0.2","","""event"",""trial"",""time""
""fullscreenenter"",""1"",""2114""
","
","
","""event"",""trial"",""time""
""fullscreenenter"",""1"",""2114""
","
","","","-1","","","19","16588","6494","a","elianto","#f73b6a7A","-1","-1","1","0","[]","0","2","","","16588","43","2","4","lose","no-go","0"
"pit-trial","162","1077205","0.0-48.0","battery-v0.2","","""event"",""trial"",""time""
""fullscreenenter"",""1"",""2114""
","
","
","""event"",""trial"",""time""
""fullscreenenter"",""1"",""2114""
","
","","","801","","","19","16588","6494","g","elianto","#f73b6a7A"," "," ","1","0","[1651.5]","1","2","","","16588","44","3","3","lose","go","0"
"pit-trial","163","1080643","0.0-49.0","battery-v0.2","","""event"",""trial"",""time""
""fullscreenenter"",""1"",""2114""
","
","
","""event"",""trial"",""time""
""fullscreenenter"",""1"",""2114""
","
","","","583.8000000044703","","","19","16588","6494","g","elianto","#f73b6a7A"," "," ","1","-10","[1433.8999999985099]","1","2","","","16588","45","3","3","lose","go","1"
"pit-trial","164","1085497","0.0-50.0","battery-v0.2","","""event"",""trial"",""time""
""fullscreenenter"",""1"",""2114""
","
","
","""event"",""trial"",""time""
""fullscreenenter"",""1"",""2114""
","
","","","-1","","","19","16588","6494","a","elianto","#f73b6a7A","-1","-1","1","0","[]","0","2","","","16588","46","2","4","lose","no-go","0"
"pit-trial","165","1089624","0.0-51.0","battery-v0.2","","""event"",""trial"",""time""
""fullscreenenter"",""1"",""2114""
","
","
","""event"",""trial"",""time""
""fullscreenenter"",""1"",""2114""
","
","","","1272","","","19","16588","6494","p","elianto","#3366ff99","-1"," ","0","+10","[2122.39999999851]","1","2","","","16588","47","4","2","win","no-go","1"
"pit-trial","166","1094493","0.0-52.0","battery-v0.2","","""event"",""trial"",""time""
""fullscreenenter"",""1"",""2114""
","
","
","""event"",""trial"",""time""
""fullscreenenter"",""1"",""2114""
","
","","","-1","","","19","16588","6494","u","elianto","#f73b6a7A","-1","-1","1","-10","[]","0","2","","","16588","48","0","4","lose","no-go","1"
"pit-trial","167","1098369","0.0-53.0","battery-v0.2","","""event"",""trial"",""time""
""fullscreenenter"",""1"",""2114""
","
","
","""event"",""trial"",""time""
""fullscreenenter"",""1"",""2114""
","
","","","1018.2000000029802","","","19","16588","6494","g","elianto","#f73b6a7A"," "," ","1","0","[1869.7000000029802]","1","2","","","16588","49","3","3","lose","go","0"
"pit-trial","168","1101880","0.0-54.0","battery-v0.2","","""event"",""trial"",""time""
""fullscreenenter"",""1"",""2114""
","
","
","""event"",""trial"",""time""
""fullscreenenter"",""1"",""2114""
","
","","","657.1000000014901","","","19","16588","6494","l","elianto","#3366ff99"," "," ","1","+10","[1507.1000000014901]","1","2","","","16588","50","1","1","win","go","0"
"pit-trial","169","1105400","0.0-55.0","battery-v0.2","","""event"",""trial"",""time""
""fullscreenenter"",""1"",""2114""
","
","
","""event"",""trial"",""time""
""fullscreenenter"",""1"",""2114""
","
","","","668.2000000029802","","","19","16588","6494","p","elianto","#3366ff99","-1"," ","0","0","[1518.2999999970198]","1","2","","","16588","51","4","2","win","no-go","0"
"pit-trial","170","1110025","0.0-56.0","battery-v0.2","","""event"",""trial"",""time""
""fullscreenenter"",""1"",""2114""
","
","
","""event"",""trial"",""time""
""fullscreenenter"",""1"",""2114""
","
","","","1769.5","","","19","16588","6494","u","elianto","#f73b6a7A","-1"," ","0","-10","[2621.39999999851]","1","2","","","16588","52","0","4","lose","no-go","0"
"pit-trial","171","1114879","0.0-57.0","battery-v0.2","","""event"",""trial"",""time""
""fullscreenenter"",""1"",""2114""
","
","
","""event"",""trial"",""time""
""fullscreenenter"",""1"",""2114""
","
","","","-1","","","19","16588","6494","a","elianto","#f73b6a7A","-1","-1","1","0","[]","0","2","","","16588","53","2","4","lose","no-go","0"
"pit-trial","172","1118222","0.0-58.0","battery-v0.2","","""event"",""trial"",""time""
""fullscreenenter"",""1"",""2114""
","
","
","""event"",""trial"",""time""
""fullscreenenter"",""1"",""2114""
","
","","","484.20000000298023","","","19","16588","6494","l","elianto","#3366ff99"," "," ","1","+10","[1335]","1","2","","","16588","54","1","1","win","go","0"
"pit-trial","173","1123085","0.0-59.0","battery-v0.2","","""event"",""trial"",""time""
""fullscreenenter"",""1"",""2114""
","
","
","""event"",""trial"",""time""
""fullscreenenter"",""1"",""2114""
","
","","","-1","","","19","16588","6494","u","elianto","#f73b6a7A","-1","-1","1","0","[]","0","2","","","16588","55","0","4","lose","no-go","0"
"pit-trial","174","1126887","0.0-60.0","battery-v0.2","","""event"",""trial"",""time""
""fullscreenenter"",""1"",""2114""
","
","
","""event"",""trial"",""time""
""fullscreenenter"",""1"",""2114""
","
","","","947.6000000014901","","","19","16588","6494","p","elianto","#3366ff99","-1"," ","0","0","[1798.1000000014901]","1","2","","","16588","56","4","2","win","no-go","0"
"pit-trial","175","1131742","0.0-61.0","battery-v0.2","","""event"",""trial"",""time""
""fullscreenenter"",""1"",""2114""
","
","
","""event"",""trial"",""time""
""fullscreenenter"",""1"",""2114""
","
","","","-1","","","19","16588","6494","p","elianto","#3366ff99","-1","-1","1","0","[]","0","2","","","16588","57","4","2","win","no-go","1"
"pit-trial","176","1136598","0.0-62.0","battery-v0.2","","""event"",""trial"",""time""
""fullscreenenter"",""1"",""2114""
","
","
","""event"",""trial"",""time""
""fullscreenenter"",""1"",""2114""
","
","","","-1","","","19","16588","6494","u","elianto","#f73b6a7A","-1","-1","1","0","[]","0","2","","","16588","58","0","4","lose","no-go","0"
"pit-trial","177","1139937","0.0-63.0","battery-v0.2","","""event"",""trial"",""time""
""fullscreenenter"",""1"",""2114""
","
","
","""event"",""trial"",""time""
""fullscreenenter"",""1"",""2114""
","
","","","485.29999999701977","","","19","16588","6494","l","elianto","#3366ff99"," "," ","1","+10","[1335.5999999940395]","1","2","","","16588","59","1","1","win","go","0"
"pit-trial","178","1143795","0.0-64.0","battery-v0.2","","""event"",""trial"",""time""
""fullscreenenter"",""1"",""2114""
","
","
","""event"",""trial"",""time""
""fullscreenenter"",""1"",""2114""
","
","","","1003.3000000044703","","","19","16588","6494","g","elianto","#f73b6a7A"," "," ","1","0","[1854.3999999985099]","1","2","","","16588","60","3","3","lose","go","0"
"pit-trial","179","1148649","0.0-65.0","battery-v0.2","","""event"",""trial"",""time""
""fullscreenenter"",""1"",""2114""
","
","
","""event"",""trial"",""time""
""fullscreenenter"",""1"",""2114""
","
","","","-1","","","19","16588","6494","a","elianto","#f73b6a7A","-1","-1","1","-10","[]","0","2","","","16588","61","2","4","lose","no-go","1"
"pit-trial","180","1152234","0.0-66.0","battery-v0.2","","""event"",""trial"",""time""
""fullscreenenter"",""1"",""2114""
","
","
","""event"",""trial"",""time""
""fullscreenenter"",""1"",""2114""
","
","","","728.9000000059605","","","19","16588","6494","p","elianto","#3366ff99","-1"," ","0","0","[1579.8000000044703]","1","2","","","16588","62","4","2","win","no-go","0"
"pit-trial","181","1156106","0.0-67.0","battery-v0.2","","""event"",""trial"",""time""
""fullscreenenter"",""1"",""2114""
","
","
","""event"",""trial"",""time""
""fullscreenenter"",""1"",""2114""
","
","","","1018.2999999970198","","","19","16588","6494","g","elianto","#f73b6a7A"," "," ","1","0","[1869]","1","2","","","16588","63","3","3","lose","go","0"
"pit-trial","182","1159552","0.0-68.0","battery-v0.2","","""event"",""trial"",""time""
""fullscreenenter"",""1"",""2114""
","
","
","""event"",""trial"",""time""
""fullscreenenter"",""1"",""2114""
","
","","","590.6000000014901","","","19","16588","6494","l","elianto","#3366ff99"," "," ","1","+10","[1441.9000000059605]","1","2","","","16588","64","1","1","win","go","0"
"pit-trial","183","1163127","0.0-69.0","battery-v0.2","","""event"",""trial"",""time""
""fullscreenenter"",""1"",""2114""
","
","
","""event"",""trial"",""time""
""fullscreenenter"",""1"",""2114""
","
","","","721.8999999985099","","","19","16588","6494","g","elianto","#f73b6a7A"," "," ","1","0","[1572.2999999970198]","1","2","","","16588","65","3","3","lose","go","0"
"pit-trial","184","1167992","0.0-70.0","battery-v0.2","","""event"",""trial"",""time""
""fullscreenenter"",""1"",""2114""
","
","
","""event"",""trial"",""time""
""fullscreenenter"",""1"",""2114""
","
","","","-1","","","19","16588","6494","a","elianto","#f73b6a7A","-1","-1","1","0","[]","0","2","","","16588","66","2","4","lose","no-go","0"
"pit-trial","185","1172845","0.0-71.0","battery-v0.2","","""event"",""trial"",""time""
""fullscreenenter"",""1"",""2114""
","
","
","""event"",""trial"",""time""
""fullscreenenter"",""1"",""2114""
","
","","","-1","","","19","16588","6494","p","elianto","#3366ff99","-1","-1","1","+10","[]","0","2","","","16588","67","4","2","win","no-go","0"
"pit-trial","186","1176270","0.0-72.0","battery-v0.2","","""event"",""trial"",""time""
""fullscreenenter"",""1"",""2114""
","
","
","""event"",""trial"",""time""
""fullscreenenter"",""1"",""2114""
","
","","","571.5","","","19","16588","6494","l","elianto","#3366ff99"," "," ","1","+10","[1421.8000000044703]","1","2","","","16588","68","1","1","win","go","0"
"pit-trial","187","1179842","0.0-73.0","battery-v0.2","","""event"",""trial"",""time""
""fullscreenenter"",""1"",""2114""
","
","
","""event"",""trial"",""time""
""fullscreenenter"",""1"",""2114""
","
","","","718.1999999955297","","","19","16588","6494","g","elianto","#f73b6a7A"," "," ","1","0","[1568.2999999970198]","1","2","","","16588","69","3","3","lose","go","0"
"pit-trial","188","1183735","0.0-74.0","battery-v0.2","","""event"",""trial"",""time""
""fullscreenenter"",""1"",""2114""
","
","
","""event"",""trial"",""time""
""fullscreenenter"",""1"",""2114""
","
","","","1039.5","","","19","16588","6494","s","elianto","#3366ff99"," "," ","1","+10","[1889.7999999970198]","1","2","","","16588","70","5","1","win","go","0"
"pit-trial","189","1187188","0.0-75.0","battery-v0.2","","""event"",""trial"",""time""
""fullscreenenter"",""1"",""2114""
","
","
","""event"",""trial"",""time""
""fullscreenenter"",""1"",""2114""
","
","","","599.5","","","19","16588","6494","l","elianto","#3366ff99"," "," ","1","+10","[1450]","1","2","","","16588","71","1","1","win","go","0"
"pit-trial","190","1192043","0.0-76.0","battery-v0.2","","""event"",""trial"",""time""
""fullscreenenter"",""1"",""2114""
","
","
","""event"",""trial"",""time""
""fullscreenenter"",""1"",""2114""
","
","","","-1","","","19","16588","6494","p","elianto","#3366ff99","-1","-1","1","+10","[]","0","2","","","16588","72","4","2","win","no-go","0"
"pit-trial","191","1195653","0.0-77.0","battery-v0.2","","""event"",""trial"",""time""
""fullscreenenter"",""1"",""2114""
","
","
","""event"",""trial"",""time""
""fullscreenenter"",""1"",""2114""
","
","","","755.5","","","19","16588","6494","g","elianto","#f73b6a7A"," "," ","1","-10","[1606.2999999970198]","1","2","","","16588","73","3","3","lose","go","1"
"pit-trial","192","1199543","0.0-78.0","battery-v0.2","","""event"",""trial"",""time""
""fullscreenenter"",""1"",""2114""
","
","
","""event"",""trial"",""time""
""fullscreenenter"",""1"",""2114""
","
","","","1034","","","19","16588","6494","s","elianto","#3366ff99"," "," ","1","+10","[1884.6999999955297]","1","2","","","16588","74","5","1","win","go","0"
"pit-trial","193","1202907","0.0-79.0","battery-v0.2","","""event"",""trial"",""time""
""fullscreenenter"",""1"",""2114""
","
","
","""event"",""trial"",""time""
""fullscreenenter"",""1"",""2114""
","
","","","510.29999999701977","","","19","16588","6494","l","elianto","#3366ff99"," "," ","1","+10","[1360.5]","1","2","","","16588","75","1","1","win","go","0"
"pit-trial","194","1207763","0.0-80.0","battery-v0.2","","""event"",""trial"",""time""
""fullscreenenter"",""1"",""2114""
","
","
","""event"",""trial"",""time""
""fullscreenenter"",""1"",""2114""
","
","","","-1","","","19","16588","6494","p","elianto","#3366ff99","-1","-1","1","+10","[]","0","2","","","16588","76","4","2","win","no-go","0"
"pit-trial","195","1211403","0.0-81.0","battery-v0.2","","""event"",""trial"",""time""
""fullscreenenter"",""1"",""2114""
","
","
","""event"",""trial"",""time""
""fullscreenenter"",""1"",""2114""
","
","","","785.8999999985099","","","19","16588","6494","s","elianto","#3366ff99"," "," ","1","+10","[1636.7999999970198]","1","2","","","16588","77","5","1","win","go","0"
"pit-trial","196","1216257","0.0-82.0","battery-v0.2","","""event"",""trial"",""time""
""fullscreenenter"",""1"",""2114""
","
","
","""event"",""trial"",""time""
""fullscreenenter"",""1"",""2114""
","
","","","-1","","","19","16588","6494","p","elianto","#3366ff99","-1","-1","1","+10","[]","0","2","","","16588","78","4","2","win","no-go","0"
"pit-trial","197","1220338","0.0-83.0","battery-v0.2","","""event"",""trial"",""time""
""fullscreenenter"",""1"",""2114""
","
","
","""event"",""trial"",""time""
""fullscreenenter"",""1"",""2114""
","
","","","1225.5","","","19","16588","6494","w","elianto","#f73b6a7A","-1"," ","0","-10","[2077.0999999940395]","1","2","","","16588","79","6","4","lose","no-go","0"
"pit-trial","198","1224173","0.0-84.0","battery-v0.2","","""event"",""trial"",""time""
""fullscreenenter"",""1"",""2114""
","
","
","""event"",""trial"",""time""
""fullscreenenter"",""1"",""2114""
","
","","","981.8999999985099","","","19","16588","6494","g","elianto","#f73b6a7A"," "," ","1","0","[1832.7999999970198]","1","2","","","16588","80","3","3","lose","go","0"
"pit-trial","199","1229027","0.0-85.0","battery-v0.2","","""event"",""trial"",""time""
""fullscreenenter"",""1"",""2114""
","
","
","""event"",""trial"",""time""
""fullscreenenter"",""1"",""2114""
","
","","","-1","","","19","16588","6494","p","elianto","#3366ff99","-1","-1","1","+10","[]","0","2","","","16588","81","4","2","win","no-go","0"
"pit-trial","200","1233205","0.0-86.0","battery-v0.2","","""event"",""trial"",""time""
""fullscreenenter"",""1"",""2114""
","
","
","""event"",""trial"",""time""
""fullscreenenter"",""1"",""2114""
","
","","","1322.6000000014901","","","19","16588","6494","e","elianto","#f73b6a7A"," "," ","1","0","[2173.1999999955297]","1","2","","","16588","82","7","3","lose","go","0"
"pit-trial","201","1236969","0.0-87.0","battery-v0.2","","""event"",""trial"",""time""
""fullscreenenter"",""1"",""2114""
","
","
","""event"",""trial"",""time""
""fullscreenenter"",""1"",""2114""
","
","","","909","","","19","16588","6494","w","elianto","#f73b6a7A","-1"," ","0","-10","[1760.1000000014901]","1","2","","","16588","83","6","4","lose","no-go","0"
"pit-trial","202","1240932","0.0-88.0","battery-v0.2","","""event"",""trial"",""time""
""fullscreenenter"",""1"",""2114""
","
","
","""event"",""trial"",""time""
""fullscreenenter"",""1"",""2114""
","
","","","1108.1000000014901","","","19","16588","6494","s","elianto","#3366ff99"," "," ","1","0","[1958.8999999985099]","1","2","","","16588","84","5","1","win","go","1"
"pit-trial","203","1245786","0.0-89.0","battery-v0.2","","""event"",""trial"",""time""
""fullscreenenter"",""1"",""2114""
","
","
","""event"",""trial"",""time""
""fullscreenenter"",""1"",""2114""
","
","","","-1","","","19","16588","6494","p","elianto","#3366ff99","-1","-1","1","+10","[]","0","2","","","16588","85","4","2","win","no-go","0"
"pit-trial","204","1249612","0.0-90.0","battery-v0.2","","""event"",""trial"",""time""
""fullscreenenter"",""1"",""2114""
","
","
","""event"",""trial"",""time""
""fullscreenenter"",""1"",""2114""
","
","","","972.7000000029802","","","19","16588","6494","s","elianto","#3366ff99"," "," ","1","0","[1823.1000000014901]","1","2","","","16588","86","5","1","win","go","1"
"pit-trial","205","1254467","0.0-91.0","battery-v0.2","","""event"",""trial"",""time""
""fullscreenenter"",""1"",""2114""
","
","
","""event"",""trial"",""time""
""fullscreenenter"",""1"",""2114""
","
","","","-1","","","19","16588","6494","w","elianto","#f73b6a7A","-1","-1","1","0","[]","0","2","","","16588","87","6","4","lose","no-go","0"
"pit-trial","206","1258481","0.0-92.0","battery-v0.2","","""event"",""trial"",""time""
""fullscreenenter"",""1"",""2114""
","
","
","""event"",""trial"",""time""
""fullscreenenter"",""1"",""2114""
","
","","","1159.7999999970198","","","19","16588","6494","e","elianto","#f73b6a7A"," "," ","1","0","[2010.6999999955297]","1","2","","","16588","88","7","3","lose","go","0"
"pit-trial","207","1263336","0.0-93.0","battery-v0.2","","""event"",""trial"",""time""
""fullscreenenter"",""1"",""2114""
","
","
","""event"",""trial"",""time""
""fullscreenenter"",""1"",""2114""
","
","","","-1","","","19","16588","6494","p","elianto","#3366ff99","-1","-1","1","+10","[]","0","2","","","16588","89","4","2","win","no-go","0"
"pit-trial","208","1268189","0.0-94.0","battery-v0.2","","""event"",""trial"",""time""
""fullscreenenter"",""1"",""2114""
","
","
","""event"",""trial"",""time""
""fullscreenenter"",""1"",""2114""
","
","","","-1","","","19","16588","6494","w","elianto","#f73b6a7A","-1","-1","1","0","[]","0","2","","","16588","90","6","4","lose","no-go","0"
"pit-trial","209","1272699","0.0-95.0","battery-v0.2","","""event"",""trial"",""time""
""fullscreenenter"",""1"",""2114""
","
","
","""event"",""trial"",""time""
""fullscreenenter"",""1"",""2114""
","
","","","1655","","","19","16588","6494","e","elianto","#f73b6a7A"," "," ","1","0","[2505.10000000149]","1","2","","","16588","91","7","3","lose","go","0"
"pit-trial","210","1277554","0.0-96.0","battery-v0.2","","""event"",""trial"",""time""
""fullscreenenter"",""1"",""2114""
","
","
","""event"",""trial"",""time""
""fullscreenenter"",""1"",""2114""
","
","","","-1","","","19","16588","6494","s","elianto","#3366ff99"," ","-1","0","+10","[]","0","2","","","16588","92","5","1","win","go","1"
"pit-trial","211","1281477","0.0-97.0","battery-v0.2","","""event"",""trial"",""time""
""fullscreenenter"",""1"",""2114""
","
","
","""event"",""trial"",""time""
""fullscreenenter"",""1"",""2114""
","
","","","1068.3000000044703","","","19","16588","6494","d","elianto","#3366ff99","-1"," ","0","0","[1919.2000000029802]","1","2","","","16588","93","8","2","win","no-go","0"
"pit-trial","212","1286332","0.0-98.0","battery-v0.2","","""event"",""trial"",""time""
""fullscreenenter"",""1"",""2114""
","
","
","""event"",""trial"",""time""
""fullscreenenter"",""1"",""2114""
","
","","","-1","","","19","16588","6494","w","elianto","#f73b6a7A","-1","-1","1","0","[]","0","2","","","16588","94","6","4","lose","no-go","0"
"pit-trial","213","1290116","0.0-99.0","battery-v0.2","","""event"",""trial"",""time""
""fullscreenenter"",""1"",""2114""
","
","
","""event"",""trial"",""time""
""fullscreenenter"",""1"",""2114""
","
","","","927.7999999970198","","","19","16588","6494","e","elianto","#f73b6a7A"," "," ","1","-10","[1779.2999999970198]","1","2","","","16588","95","7","3","lose","go","1"
"pit-trial","214","1294971","0.0-100.0","battery-v0.2","","""event"",""trial"",""time""
""fullscreenenter"",""1"",""2114""
","
","
","""event"",""trial"",""time""
""fullscreenenter"",""1"",""2114""
","
","","","-1","","","19","16588","6494","s","elianto","#3366ff99"," ","-1","0","0","[]","0","2","","","16588","96","5","1","win","go","0"
"pit-trial","215","1299827","0.0-101.0","battery-v0.2","","""event"",""trial"",""time""
""fullscreenenter"",""1"",""2114""
","
","
","""event"",""trial"",""time""
""fullscreenenter"",""1"",""2114""
","
","","","-1","","","19","16588","6494","w","elianto","#f73b6a7A","-1","-1","1","0","[]","0","2","","","16588","97","6","4","lose","no-go","0"
"pit-trial","216","1304214","0.0-102.0","battery-v0.2","","""event"",""trial"",""time""
""fullscreenenter"",""1"",""2114""
","
","
","""event"",""trial"",""time""
""fullscreenenter"",""1"",""2114""
","
","","","1532.2000000029802","","","19","16588","6494","d","elianto","#3366ff99","-1"," ","0","0","[2383.7000000029802]","1","2","","","16588","98","8","2","win","no-go","0"
"pit-trial","217","1307794","0.0-103.0","battery-v0.2","","""event"",""trial"",""time""
""fullscreenenter"",""1"",""2114""
","
","
","""event"",""trial"",""time""
""fullscreenenter"",""1"",""2114""
","
","","","714.8999999985099","","","19","16588","6494","e","elianto","#f73b6a7A"," "," ","1","0","[1565.8999999985099]","1","2","","","16588","99","7","3","lose","go","0"
"pit-trial","218","1312646","0.0-104.0","battery-v0.2","","""event"",""trial"",""time""
""fullscreenenter"",""1"",""2114""
","
","
","""event"",""trial"",""time""
""fullscreenenter"",""1"",""2114""
","
","","","-1","","","19","16588","6494","s","elianto","#3366ff99"," ","-1","0","0","[]","0","2","","","16588","100","5","1","win","go","0"
"pit-trial","219","1317500","0.0-105.0","battery-v0.2","","""event"",""trial"",""time""
""fullscreenenter"",""1"",""2114""
","
","
","""event"",""trial"",""time""
""fullscreenenter"",""1"",""2114""
","
","","","-1","","","19","16588","6494","d","elianto","#3366ff99","-1","-1","1","+10","[]","0","2","","","16588","101","8","2","win","no-go","0"
"pit-trial","220","1321305","0.0-106.0","battery-v0.2","","""event"",""trial"",""time""
""fullscreenenter"",""1"",""2114""
","
","
","""event"",""trial"",""time""
""fullscreenenter"",""1"",""2114""
","
","","","953.8999999985099","","","19","16588","6494","j","elianto","#3366ff99","-1"," ","0","+10","[1804.1000000014901]","1","2","","","16588","102","9","2","win","no-go","1"
"pit-trial","221","1326159","0.0-107.0","battery-v0.2","","""event"",""trial"",""time""
""fullscreenenter"",""1"",""2114""
","
","
","""event"",""trial"",""time""
""fullscreenenter"",""1"",""2114""
","
","","","-1","","","19","16588","6494","s","elianto","#3366ff99"," ","-1","0","0","[3584.2999999970198]","1","2","","","16588","103","5","1","win","go","0"
"pit-trial","222","1331014","0.0-108.0","battery-v0.2","","""event"",""trial"",""time""
""fullscreenenter"",""1"",""2114""
","
","
","""event"",""trial"",""time""
""fullscreenenter"",""1"",""2114""
","
","","","-1","","","19","16588","6494","w","elianto","#f73b6a7A","-1","-1","1","0","[]","0","2","","","16588","104","6","4","lose","no-go","0"
"pit-trial","223","1334891","0.0-109.0","battery-v0.2","","""event"",""trial"",""time""
""fullscreenenter"",""1"",""2114""
","
","
","""event"",""trial"",""time""
""fullscreenenter"",""1"",""2114""
","
","","","1023.6000000014901","","","19","16588","6494","j","elianto","#3366ff99","-1"," ","0","0","[1874]","1","2","","","16588","105","9","2","win","no-go","0"
"pit-trial","224","1339746","0.0-110.0","battery-v0.2","","""event"",""trial"",""time""
""fullscreenenter"",""1"",""2114""
","
","
","""event"",""trial"",""time""
""fullscreenenter"",""1"",""2114""
","
","","","-1","","","19","16588","6494","s","elianto","#3366ff99"," ","-1","0","0","[3234.60000000149]","1","2","","","16588","106","5","1","win","go","0"
"pit-trial","225","1344602","0.0-111.0","battery-v0.2","","""event"",""trial"",""time""
""fullscreenenter"",""1"",""2114""
","
","
","""event"",""trial"",""time""
""fullscreenenter"",""1"",""2114""
","
","","","-1","","","19","16588","6494","d","elianto","#3366ff99","-1","-1","1","+10","[]","0","2","","","16588","107","8","2","win","no-go","0"
"pit-trial","226","1349455","0.0-112.0","battery-v0.2","","""event"",""trial"",""time""
""fullscreenenter"",""1"",""2114""
","
","
","""event"",""trial"",""time""
""fullscreenenter"",""1"",""2114""
","
","","","-1","","","19","16588","6494","w","elianto","#f73b6a7A","-1","-1","1","0","[]","0","2","","","16588","108","6","4","lose","no-go","0"
"pit-trial","227","1354310","0.0-113.0","battery-v0.2","","""event"",""trial"",""time""
""fullscreenenter"",""1"",""2114""
","
","
","""event"",""trial"",""time""
""fullscreenenter"",""1"",""2114""
","
","","","-1","","","19","16588","6494","d","elianto","#3366ff99","-1","-1","1","+10","[]","0","2","","","16588","109","8","2","win","no-go","0"
"pit-trial","228","1358943","0.0-114.0","battery-v0.2","","""event"",""trial"",""time""
""fullscreenenter"",""1"",""2114""
","
","
","""event"",""trial"",""time""
""fullscreenenter"",""1"",""2114""
","
","","","1779.1000000014901","","","19","16588","6494","j","elianto","#3366ff99","-1"," ","0","+10","[2629.10000000149]","1","2","","","16588","110","9","2","win","no-go","1"
"pit-trial","229","1363798","0.0-115.0","battery-v0.2","","""event"",""trial"",""time""
""fullscreenenter"",""1"",""2114""
","
","
","""event"",""trial"",""time""
""fullscreenenter"",""1"",""2114""
","
","","","-1","","","19","16588","6494","w","elianto","#f73b6a7A","-1","-1","1","0","[]","0","2","","","16588","111","6","4","lose","no-go","0"
"pit-trial","230","1368091","0.0-116.0","battery-v0.2","","""event"",""trial"",""time""
""fullscreenenter"",""1"",""2114""
","
","
","""event"",""trial"",""time""
""fullscreenenter"",""1"",""2114""
","
","","","1438.3999999985099","","","19","16588","6494","s","elianto","#3366ff99"," "," ","1","+10","[2289.60000000149]","1","2","","","16588","112","5","1","win","go","0"
"pit-trial","231","1371599","0.0-117.0","battery-v0.2","","""event"",""trial"",""time""
""fullscreenenter"",""1"",""2114""
","
","
","""event"",""trial"",""time""
""fullscreenenter"",""1"",""2114""
","
","","","654","","","19","16588","6494","s","elianto","#3366ff99"," "," ","1","+10","[1505.5999999940395]","1","2","","","16588","113","5","1","win","go","0"
"pit-trial","232","1376454","0.0-118.0","battery-v0.2","","""event"",""trial"",""time""
""fullscreenenter"",""1"",""2114""
","
","
","""event"",""trial"",""time""
""fullscreenenter"",""1"",""2114""
","
","","","-1","","","19","16588","6494","d","elianto","#3366ff99","-1","-1","1","0","[]","0","2","","","16588","114","8","2","win","no-go","1"
"pit-trial","233","1380501","0.0-119.0","battery-v0.2","","""event"",""trial"",""time""
""fullscreenenter"",""1"",""2114""
","
","
","""event"",""trial"",""time""
""fullscreenenter"",""1"",""2114""
","
","","","1193.1000000014901","","","19","16588","6494","e","elianto","#f73b6a7A"," "," ","1","-10","[2043.6000000014901]","1","2","","","16588","115","7","3","lose","go","1"
"pit-trial","234","1385082","0.0-120.0","battery-v0.2","","""event"",""trial"",""time""
""fullscreenenter"",""1"",""2114""
","
","
","""event"",""trial"",""time""
""fullscreenenter"",""1"",""2114""
","
","","","1726","","","19","16588","6494","j","elianto","#3366ff99","-1"," ","0","0","[2577.6999999955297]","1","2","","","16588","116","9","2","win","no-go","0"
"pit-trial","235","1389937","0.0-121.0","battery-v0.2","","""event"",""trial"",""time""
""fullscreenenter"",""1"",""2114""
","
","
","""event"",""trial"",""time""
""fullscreenenter"",""1"",""2114""
","
","","","-1","","","19","16588","6494","w","elianto","#f73b6a7A","-1","-1","1","0","[]","0","2","","","16588","117","6","4","lose","no-go","0"
"pit-trial","236","1394543","0.0-122.0","battery-v0.2","","""event"",""trial"",""time""
""fullscreenenter"",""1"",""2114""
","
","
","""event"",""trial"",""time""
""fullscreenenter"",""1"",""2114""
","
","","","1751.6000000014901","","","19","16588","6494","j","elianto","#3366ff99","-1"," ","0","0","[2601.7000000029802]","1","2","","","16588","118","9","2","win","no-go","0"
"pit-trial","237","1399397","0.0-123.0","battery-v0.2","","""event"",""trial"",""time""
""fullscreenenter"",""1"",""2114""
","
","
","""event"",""trial"",""time""
""fullscreenenter"",""1"",""2114""
","
","","","-1","","","19","16588","6494","d","elianto","#3366ff99","-1","-1","1","+10","[]","0","2","","","16588","119","8","2","win","no-go","0"
"pit-trial","238","1403233","0.0-124.0","battery-v0.2","","""event"",""trial"",""time""
""fullscreenenter"",""1"",""2114""
","
","
","""event"",""trial"",""time""
""fullscreenenter"",""1"",""2114""
","
","","","980","","","19","16588","6494","s","elianto","#3366ff99"," "," ","1","+10","[1830.3999999985099]","1","2","","","16588","120","5","1","win","go","0"
"pit-trial","239","1407823","0.0-125.0","battery-v0.2","","""event"",""trial"",""time""
""fullscreenenter"",""1"",""2114""
","
","
","""event"",""trial"",""time""
""fullscreenenter"",""1"",""2114""
","
","","","1732.7000000029802","","","19","16588","6494","j","elianto","#3366ff99","-1"," ","0","0","[2584.39999999851]","1","2","","","16588","121","9","2","win","no-go","0"
"pit-trial","240","1412679","0.0-126.0","battery-v0.2","","""event"",""trial"",""time""
""fullscreenenter"",""1"",""2114""
","
","
","""event"",""trial"",""time""
""fullscreenenter"",""1"",""2114""
","
","","","-1","","","19","16588","6494","d","elianto","#3366ff99","-1","-1","1","+10","[]","0","2","","","16588","122","8","2","win","no-go","0"
"pit-trial","241","1416433","0.0-127.0","battery-v0.2","","""event"",""trial"",""time""
""fullscreenenter"",""1"",""2114""
","
","
","""event"",""trial"",""time""
""fullscreenenter"",""1"",""2114""
","
","","","901.3999999985099","","","19","16588","6494","s","elianto","#3366ff99"," "," ","1","+10","[1751.7999999970198]","1","2","","","16588","123","5","1","win","go","0"
"pit-trial","242","1420111","0.0-128.0","battery-v0.2","","""event"",""trial"",""time""
""fullscreenenter"",""1"",""2114""
","
","
","""event"",""trial"",""time""
""fullscreenenter"",""1"",""2114""
","
","","","823.3000000044703","","","19","16588","6494","e","elianto","#f73b6a7A"," "," ","1","0","[1673.3000000044703]","1","2","","","16588","124","7","3","lose","go","0"
"pit-trial","243","1424980","0.0-129.0","battery-v0.2","","""event"",""trial"",""time""
""fullscreenenter"",""1"",""2114""
","
","
","""event"",""trial"",""time""
""fullscreenenter"",""1"",""2114""
","
","","","-1","","","19","16588","6494","j","elianto","#3366ff99","-1","-1","1","+10","[]","0","2","","","16588","125","9","2","win","no-go","0"
"pit-trial","244","1429837","0.0-130.0","battery-v0.2","","""event"",""trial"",""time""
""fullscreenenter"",""1"",""2114""
","
","
","""event"",""trial"",""time""
""fullscreenenter"",""1"",""2114""
","
","","","-1","","","19","16588","6494","d","elianto","#3366ff99","-1","-1","1","+10","[]","0","2","","","16588","126","8","2","win","no-go","0"
"pit-trial","245","1433483","0.0-131.0","battery-v0.2","","""event"",""trial"",""time""
""fullscreenenter"",""1"",""2114""
","
","
","""event"",""trial"",""time""
""fullscreenenter"",""1"",""2114""
","
","","","791.7999999970198","","","19","16588","6494","e","elianto","#f73b6a7A"," "," ","1","0","[1642.5]","1","2","","","16588","127","7","3","lose","go","0"
"pit-trial","246","1438334","0.0-132.0","battery-v0.2","","""event"",""trial"",""time""
""fullscreenenter"",""1"",""2114""
","
","
","""event"",""trial"",""time""
""fullscreenenter"",""1"",""2114""
","
","","","-1","","","19","16588","6494","w","elianto","#f73b6a7A","-1","-1","1","0","[]","0","2","","","16588","128","6","4","lose","no-go","0"
"pit-trial","247","1442072","0.0-133.0","battery-v0.2","","""event"",""trial"",""time""
""fullscreenenter"",""1"",""2114""
","
","
","""event"",""trial"",""time""
""fullscreenenter"",""1"",""2114""
","
","","","884.7000000029802","","","19","16588","6494","e","elianto","#f73b6a7A"," "," ","1","0","[1735.9000000059605]","1","2","","","16588","129","7","3","lose","go","0"
"pit-trial","248","1446927","0.0-134.0","battery-v0.2","","""event"",""trial"",""time""
""fullscreenenter"",""1"",""2114""
","
","
","""event"",""trial"",""time""
""fullscreenenter"",""1"",""2114""
","
","","","-1","","","19","16588","6494","w","elianto","#f73b6a7A","-1","-1","1","0","[]","0","2","","","16588","130","6","4","lose","no-go","0"
"pit-trial","249","1451782","0.0-135.0","battery-v0.2","","""event"",""trial"",""time""
""fullscreenenter"",""1"",""2114""
","
","
","""event"",""trial"",""time""
""fullscreenenter"",""1"",""2114""
","
","","","-1","","","19","16588","6494","d","elianto","#3366ff99","-1","-1","1","+10","[]","0","2","","","16588","131","8","2","win","no-go","0"
"pit-trial","250","1456635","0.0-136.0","battery-v0.2","","""event"",""trial"",""time""
""fullscreenenter"",""1"",""2114""
","
","
","""event"",""trial"",""time""
""fullscreenenter"",""1"",""2114""
","
","","","-1","","","19","16588","6494","j","elianto","#3366ff99","-1","-1","1","0","[]","0","2","","","16588","132","9","2","win","no-go","1"
"pit-trial","251","1461489","0.0-137.0","battery-v0.2","","""event"",""trial"",""time""
""fullscreenenter"",""1"",""2114""
","
","
","""event"",""trial"",""time""
""fullscreenenter"",""1"",""2114""
","
","","","-1","","","19","16588","6494","w","elianto","#f73b6a7A","-1","-1","1","-10","[]","0","2","","","16588","133","6","4","lose","no-go","1"
"pit-trial","252","1465086","0.0-138.0","battery-v0.2","","""event"",""trial"",""time""
""fullscreenenter"",""1"",""2114""
","
","
","""event"",""trial"",""time""
""fullscreenenter"",""1"",""2114""
","
","","","742.3999999985099","","","19","16588","6494","e","elianto","#f73b6a7A"," "," ","1","0","[1592.6000000014901]","1","2","","","16588","134","7","3","lose","go","0"
"pit-trial","253","1469941","0.0-139.0","battery-v0.2","","""event"",""trial"",""time""
""fullscreenenter"",""1"",""2114""
","
","
","""event"",""trial"",""time""
""fullscreenenter"",""1"",""2114""
","
","","","-1","","","19","16588","6494","j","elianto","#3366ff99","-1","-1","1","+10","[]","0","2","","","16588","135","9","2","win","no-go","0"
"pit-trial","254","1474795","0.0-140.0","battery-v0.2","","""event"",""trial"",""time""
""fullscreenenter"",""1"",""2114""
","
","
","""event"",""trial"",""time""
""fullscreenenter"",""1"",""2114""
","
","","","-1","","","19","16588","6494","d","elianto","#3366ff99","-1","-1","1","+10","[]","0","2","","","16588","136","8","2","win","no-go","0"
"pit-trial","255","1479650","0.0-141.0","battery-v0.2","","""event"",""trial"",""time""
""fullscreenenter"",""1"",""2114""
","
","
","""event"",""trial"",""time""
""fullscreenenter"",""1"",""2114""
","
","","","-1","","","19","16588","6494","j","elianto","#3366ff99","-1","-1","1","+10","[]","0","2","","","16588","137","9","2","win","no-go","0"
"pit-trial","256","1484505","0.0-142.0","battery-v0.2","","""event"",""trial"",""time""
""fullscreenenter"",""1"",""2114""
","
","
","""event"",""trial"",""time""
""fullscreenenter"",""1"",""2114""
","
","","","-1","","","19","16588","6494","w","elianto","#f73b6a7A","-1","-1","1","0","[]","0","2","","","16588","138","6","4","lose","no-go","0"
"pit-trial","257","1487921","0.0-143.0","battery-v0.2","","""event"",""trial"",""time""
""fullscreenenter"",""1"",""2114""
","
","
","""event"",""trial"",""time""
""fullscreenenter"",""1"",""2114""
","
","","","561.1000000014901","","","19","16588","6494","e","elianto","#f73b6a7A"," "," ","1","-10","[1411.2999999970198]","1","2","","","16588","139","7","3","lose","go","1"
"pit-trial","258","1492777","0.0-144.0","battery-v0.2","","""event"",""trial"",""time""
""fullscreenenter"",""1"",""2114""
""blur"",""259"",""1498464""
""focus"",""259"",""1500378""
","""event"",""trial"",""time""
""blur"",""259"",""1498464""
","""event"",""trial"",""time""
""focus"",""259"",""1500378""
","""event"",""trial"",""time""
""fullscreenenter"",""1"",""2114""
","
","","","-1","","","19","16588","6494","d","elianto","#3366ff99","-1","-1","1","0","[]","0","2","","","16588","140","8","2","win","no-go","1"
"pit-instructions","259","1563904","0.0-145.0","battery-v0.2","","""event"",""trial"",""time""
""fullscreenenter"",""1"",""2114""
""blur"",""259"",""1498464""
""focus"",""259"",""1500378""
","""event"",""trial"",""time""
""blur"",""259"",""1498464""
","""event"",""trial"",""time""
""focus"",""259"",""1500378""
","""event"",""trial"",""time""
""fullscreenenter"",""1"",""2114""
","
","","[{""page_index"":0,""viewing_time"":62933.20000000298},{""page_index"":1,""viewing_time"":8191.79999999702}]","71125.20000000298","","","","","","","","","","","","","","","","","","","","","","","",""
"pit-trial","260","1567838","0.0-146.0","battery-v0.2","","""event"",""trial"",""time""
""fullscreenenter"",""1"",""2114""
""blur"",""259"",""1498464""
""focus"",""259"",""1500378""
","""event"",""trial"",""time""
""blur"",""259"",""1498464""
","""event"",""trial"",""time""
""focus"",""259"",""1500378""
","""event"",""trial"",""time""
""fullscreenenter"",""1"",""2114""
","
","","","1070.8000000044703","","","19","16588","6494","h","elianto","#f73b6a7A","-1"," ","0","0","[1927.2000000029802]","1","3","","","16588","141","3","4","lose","no-go","1"
"pit-trial","261","1571505","0.0-147.0","battery-v0.2","","""event"",""trial"",""time""
""fullscreenenter"",""1"",""2114""
""blur"",""259"",""1498464""
""focus"",""259"",""1500378""
","""event"",""trial"",""time""
""blur"",""259"",""1498464""
","""event"",""trial"",""time""
""focus"",""259"",""1500378""
","""event"",""trial"",""time""
""fullscreenenter"",""1"",""2114""
","
","","","802.1000000014901","","","19","16588","6494","r","elianto","#3366ff99","-1"," ","0","0","[1653.2000000029802]","1","3","","","16588","142","1","2","win","no-go","0"
"pit-trial","262","1575123","0.0-148.0","battery-v0.2","","""event"",""trial"",""time""
""fullscreenenter"",""1"",""2114""
""blur"",""259"",""1498464""
""focus"",""259"",""1500378""
","""event"",""trial"",""time""
""blur"",""259"",""1498464""
","""event"",""trial"",""time""
""focus"",""259"",""1500378""
","""event"",""trial"",""time""
""fullscreenenter"",""1"",""2114""
","
","","","759.5","","","19","16588","6494","m","elianto","#f73b6a7A"," "," ","1","-10","[1609.8999999985099]","1","3","","","16588","143","0","3","lose","go","1"
"pit-trial","263","1578890","0.0-149.0","battery-v0.2","","""event"",""trial"",""time""
""fullscreenenter"",""1"",""2114""
""blur"",""259"",""1498464""
""focus"",""259"",""1500378""
","""event"",""trial"",""time""
""blur"",""259"",""1498464""
","""event"",""trial"",""time""
""focus"",""259"",""1500378""
","""event"",""trial"",""time""
""fullscreenenter"",""1"",""2114""
","
","","","905.7000000029802","","","19","16588","6494","y","elianto","#f73b6a7A"," "," ","1","0","[1756.6000000014901]","1","3","","","16588","144","2","3","lose","go","0"
"pit-trial","264","1583766","0.0-150.0","battery-v0.2","","""event"",""trial"",""time""
""fullscreenenter"",""1"",""2114""
""blur"",""259"",""1498464""
""focus"",""259"",""1500378""
","""event"",""trial"",""time""
