"trial_type","trial_index","time_elapsed","internal_node_id","task_version","subject_id","interactions","blur_events","focus_events","fullscreenenter_events","fullscreenexit_events","success","view_history","rt","responses","num_errors","age","subject","participantId","rune","rune_set","hex","correct","choice","accuracy","outcome","keys","total_keys","block","practice","value","sub","trial","stimulus","robot","valence","action","sham"
"pavlovia","0","12","0.0-0.0","battery-v0.2","","""event"",""trial"",""time""
""fullscreenenter"",""1"",""6741""
","
","
","""event"",""trial"",""time""
""fullscreenenter"",""1"",""6741""
","
","","","","","","","","","","","","","","","","","","","","","","","","","","",""
"fullscreen","1","7741","0.0-1.0","battery-v0.2","","""event"",""trial"",""time""
""fullscreenenter"",""1"",""6741""
","
","
","""event"",""trial"",""time""
""fullscreenenter"",""1"",""6741""
","
","true","","","","","","","","","","","","","","","","","","","","","","","","","",""
"pit-instructions","2","11949","0.0-2.0-0.0","battery-v0.2","","""event"",""trial"",""time""
""fullscreenenter"",""1"",""6741""
","
","
","""event"",""trial"",""time""
""fullscreenenter"",""1"",""6741""
","
","","[{""page_index"":0,""viewing_time"":4200.700000047684}]","4201.599999904633","","","","","","","","","","","","","","","","","","","","","","","",""
"pit-comprehension","3","14478","0.0-2.0-1.0-0.0","battery-v0.2","","""event"",""trial"",""time""
""fullscreenenter"",""1"",""6741""
","
","
","""event"",""trial"",""time""
""fullscreenenter"",""1"",""6741""
","
","","","2524","[""shark""]","0","24","5304","3081","","","","","","","","","","","","","","","","","","",""
"pit-instructions","4","15509","0.0-2.0-1.0-1.0","battery-v0.2","","""event"",""trial"",""time""
""fullscreenenter"",""1"",""6741""
","
","
","""event"",""trial"",""time""
""fullscreenenter"",""1"",""6741""
","
","","[{""page_index"":0,""viewing_time"":1005.7999999523163}]","1006.1999998092651","","","","","","","","","","","","","","","","","","","","","","","",""
"pit-comprehension","5","17440","0.0-2.0-2.0-0.0","battery-v0.2","","""event"",""trial"",""time""
""fullscreenenter"",""1"",""6741""
","
","
","""event"",""trial"",""time""
""fullscreenenter"",""1"",""6741""
","
","","","1927.4000000953674","[""tiger""]","0","24","5304","3081","","","","","","","","","","","","","","","","","","",""
"pit-instructions","6","18063","0.0-2.0-2.0-1.0","battery-v0.2","","""event"",""trial"",""time""
""fullscreenenter"",""1"",""6741""
","
","
","""event"",""trial"",""time""
""fullscreenenter"",""1"",""6741""
","
","","[{""page_index"":0,""viewing_time"":618.1000001430511}]","618.5","","","","","","","","","","","","","","","","","","","","","","","",""
"pit-instructions","7","134487","0.0-2.0-3.0","battery-v0.2","","""event"",""trial"",""time""
""fullscreenenter"",""1"",""6741""
","
","
","""event"",""trial"",""time""
""fullscreenenter"",""1"",""6741""
","
","","[{""page_index"":0,""viewing_time"":7805.600000143051},{""page_index"":1,""viewing_time"":6019},{""page_index"":2,""viewing_time"":7399.899999856949},{""page_index"":3,""viewing_time"":5594.200000047684},{""page_index"":4,""viewing_time"":6623.700000047684},{""page_index"":5,""viewing_time"":5958.899999856949},{""page_index"":6,""viewing_time"":7472.100000143051},{""page_index"":7,""viewing_time"":6934.599999904633},{""page_index"":8,""viewing_time"":7295.700000047684},{""page_index"":9,""viewing_time"":8533.900000095367},{""page_index"":10,""viewing_time"":7563.299999952316},{""page_index"":11,""viewing_time"":9552.299999952316},{""page_index"":12,""viewing_time"":20423.400000095367},{""page_index"":13,""viewing_time"":9240.099999904633}]","116417.29999995232","","","","","","","","","","","","","","","","","","","","","","","",""
"pit-trial","8","137894","0.0-2.0-4.0-0.0","battery-v0.2","","""event"",""trial"",""time""
""fullscreenenter"",""1"",""6741""
","
","
","""event"",""trial"",""time""
""fullscreenenter"",""1"",""6741""
","
","","","528.0999999046326","","","24","5304","3081","&#9784;","elianto","#FFFFF080"," "," ","1","&#10004","[1384.5999999046326]","1","0","0","","","","","","","",""
"pit-trial","9","141268","0.0-2.0-4.1-0.1","battery-v0.2","","""event"",""trial"",""time""
""fullscreenenter"",""1"",""6741""
","
","
","""event"",""trial"",""time""
""fullscreenenter"",""1"",""6741""
","
","","","495.69999980926514","","","24","5304","3081","&#9784;","elianto","#FFFFF080"," "," ","1","&#10004","[1359.2000000476837]","1","0","0","","","","","","","",""
"pit-trial","10","144588","0.0-2.0-4.2-0.2","battery-v0.2","","""event"",""trial"",""time""
""fullscreenenter"",""1"",""6741""
","
","
","""event"",""trial"",""time""
""fullscreenenter"",""1"",""6741""
","
","","","443.2999999523163","","","24","5304","3081","&#9784;","elianto","#FFFFF080"," "," ","1","&#10004","[1299.0999999046326]","1","0","0","","","","","","","",""
"pit-trial","11","148098","0.0-2.0-4.3-0.3","battery-v0.2","","""event"",""trial"",""time""
""fullscreenenter"",""1"",""6741""
","
","
","""event"",""trial"",""time""
""fullscreenenter"",""1"",""6741""
","
","","","639.5","","","24","5304","3081","&#9784;","elianto","#FFFFF080"," "," ","1","&#10004","[1490.2000000476837]","1","0","0","","","","","","","",""
"pit-trial","12","151527","0.0-2.0-4.4-0.4","battery-v0.2","","""event"",""trial"",""time""
""fullscreenenter"",""1"",""6741""
","
","
","""event"",""trial"",""time""
""fullscreenenter"",""1"",""6741""
","
","","","567.0999999046326","","","24","5304","3081","&#9784;","elianto","#FFFFF080"," "," ","1","&#10004","[1419.3999998569489]","1","0","0","","","","","","","",""
"pit-instructions","13","174266","0.0-2.0-5.0","battery-v0.2","","""event"",""trial"",""time""
""fullscreenenter"",""1"",""6741""
","
","
","""event"",""trial"",""time""
""fullscreenenter"",""1"",""6741""
","
","","[{""page_index"":0,""viewing_time"":5077.099999904633},{""page_index"":1,""viewing_time"":5673.799999952316},{""page_index"":2,""viewing_time"":6307.200000047684},{""page_index"":3,""viewing_time"":5678}]","22736.39999985695","","","","","","","","","","","","","","","","","","","","","","","",""
"pit-trial","14","179146","0.0-2.0-6.0-0.0","battery-v0.2","","""event"",""trial"",""time""
""fullscreenenter"",""1"",""6741""
","
","
","""event"",""trial"",""time""
""fullscreenenter"",""1"",""6741""
","
","","","-1","","","24","5304","3081","&#9854;","elianto","#FFFFF080","-1","-1","1","&#10004","[]","0","0","1","","","","","","","",""
"pit-trial","15","184026","0.0-2.0-6.1-0.1","battery-v0.2","","""event"",""trial"",""time""
""fullscreenenter"",""1"",""6741""
","
","
","""event"",""trial"",""time""
""fullscreenenter"",""1"",""6741""
","
","","","-1","","","24","5304","3081","&#9854;","elianto","#FFFFF080","-1","-1","1","&#10004","[]","0","0","1","","","","","","","",""
"pit-trial","16","187516","0.0-2.0-6.2-0.2","battery-v0.2","","""event"",""trial"",""time""
""fullscreenenter"",""1"",""6741""
","
","
","""event"",""trial"",""time""
""fullscreenenter"",""1"",""6741""
","
","","","614.2000000476837","","","24","5304","3081","&#9854;","elianto","#FFFFF080","-1"," ","0","&#10060","[1468.6000001430511]","1","0","1","","","","","","","",""
"pit-trial","17","192415","0.0-2.0-6.3-0.3","battery-v0.2","","""event"",""trial"",""time""
""fullscreenenter"",""1"",""6741""
","
","
","""event"",""trial"",""time""
""fullscreenenter"",""1"",""6741""
","
","","","-1","","","24","5304","3081","&#9854;","elianto","#FFFFF080","-1","-1","1","&#10004","[]","0","0","1","","","","","","","",""
"pit-trial","18","197305","0.0-2.0-6.4-0.4","battery-v0.2","","""event"",""trial"",""time""
""fullscreenenter"",""1"",""6741""
","
","
","""event"",""trial"",""time""
""fullscreenenter"",""1"",""6741""
","
","","","-1","","","24","5304","3081","&#9854;","elianto","#FFFFF080","-1","-1","1","&#10004","[]","0","0","1","","","","","","","",""
"pit-trial","19","202186","0.0-2.0-6.5-0.5","battery-v0.2","","""event"",""trial"",""time""
""fullscreenenter"",""1"",""6741""
","
","
","""event"",""trial"",""time""
""fullscreenenter"",""1"",""6741""
","
","","","-1","","","24","5304","3081","&#9854;","elianto","#FFFFF080","-1","-1","1","&#10004","[]","0","0","1","","","","","","","",""
"pit-instructions","20","323228","0.0-2.0-7.0","battery-v0.2","","""event"",""trial"",""time""
""fullscreenenter"",""1"",""6741""
","
","
","""event"",""trial"",""time""
""fullscreenenter"",""1"",""6741""
","
","","[{""page_index"":0,""viewing_time"":5471.799999952316},{""page_index"":1,""viewing_time"":6892.900000095367},{""page_index"":2,""viewing_time"":6380.5},{""page_index"":3,""viewing_time"":6984.199999809265},{""page_index"":4,""viewing_time"":5987.400000095367},{""page_index"":5,""viewing_time"":5968.900000095367},{""page_index"":6,""viewing_time"":4776},{""page_index"":7,""viewing_time"":8376.699999809265},{""page_index"":8,""viewing_time"":7075.200000047684},{""page_index"":9,""viewing_time"":6596.299999952316},{""page_index"":10,""viewing_time"":6735},{""page_index"":11,""viewing_time"":4834.600000143051},{""page_index"":12,""viewing_time"":7552.099999904633},{""page_index"":13,""viewing_time"":7387.299999952316},{""page_index"":14,""viewing_time"":8350.5},{""page_index"":15,""viewing_time"":7039.300000190735},{""page_index"":16,""viewing_time"":7020.399999856949},{""page_index"":17,""viewing_time"":7605.900000095367}]","121035.5","","","","","","","","","","","","","","","","","","","","","","","",""
"pit-trial","21","326697","0.0-2.0-8.0-0.0","battery-v0.2","","""event"",""trial"",""time""
""fullscreenenter"",""1"",""6741""
","
","
","""event"",""trial"",""time""
""fullscreenenter"",""1"",""6741""
","
","","","593.8999998569489","","","24","5304","3081","&#9776;","elianto","#3366ff99"," "," ","1","+10","[1447.3000001907349]","1","0","1","","","","","","","",""
"pit-trial","22","330108","0.0-2.0-8.0-1.0","battery-v0.2","","""event"",""trial"",""time""
""fullscreenenter"",""1"",""6741""
","
","
","""event"",""trial"",""time""
""fullscreenenter"",""1"",""6741""
","
","","","539.5","","","24","5304","3081","&#9776;","elianto","#3366ff99"," "," ","1","+10","[1392]","1","0","1","","","","","","","",""
"pit-trial","23","333513","0.0-2.0-8.0-2.0","battery-v0.2","","""event"",""trial"",""time""
""fullscreenenter"",""1"",""6741""
","
","
","""event"",""trial"",""time""
""fullscreenenter"",""1"",""6741""
","
","","","535.7000000476837","","","24","5304","3081","&#9776;","elianto","#3366ff99"," "," ","1","+10","[1391.5]","1","0","1","","","","","","","",""
"pit-trial","24","337002","0.0-2.0-8.0-3.0","battery-v0.2","","""event"",""trial"",""time""
""fullscreenenter"",""1"",""6741""
","
","
","""event"",""trial"",""time""
""fullscreenenter"",""1"",""6741""
","
","","","629.0999999046326","","","24","5304","3081","&#9776;","elianto","#3366ff99"," "," ","1","0","[1479.2999999523163]","1","0","1","","","","","","","",""
"pit-trial","25","340427","0.0-2.0-8.0-4.0","battery-v0.2","","""event"",""trial"",""time""
""fullscreenenter"",""1"",""6741""
","
","
","""event"",""trial"",""time""
""fullscreenenter"",""1"",""6741""
","
","","","553.1000001430511","","","24","5304","3081","&#9776;","elianto","#3366ff99"," "," ","1","+10","[1413.5999999046326]","1","0","1","","","","","","","",""
"pit-trial","26","343847","0.0-2.0-8.1-0.1","battery-v0.2","","""event"",""trial"",""time""
""fullscreenenter"",""1"",""6741""
","
","
","""event"",""trial"",""time""
""fullscreenenter"",""1"",""6741""
","
","","","540.4000000953674","","","24","5304","3081","&#9776;","elianto","#3366ff99"," "," ","1","+10","[1398.2999999523163]","1","0","1","","","","","","","",""
"pit-trial","27","347232","0.0-2.0-8.1-1.1","battery-v0.2","","""event"",""trial"",""time""
""fullscreenenter"",""1"",""6741""
","
","
","""event"",""trial"",""time""
""fullscreenenter"",""1"",""6741""
","
","","","517.1000001430511","","","24","5304","3081","&#9776;","elianto","#3366ff99"," "," ","1","+10","[1373.1000001430511]","1","0","1","","","","","","","",""
"pit-trial","28","350568","0.0-2.0-8.1-2.1","battery-v0.2","","""event"",""trial"",""time""
""fullscreenenter"",""1"",""6741""
","
","
","""event"",""trial"",""time""
""fullscreenenter"",""1"",""6741""
","
","","","466.30000019073486","","","24","5304","3081","&#9776;","elianto","#3366ff99"," "," ","1","+10","[1325.1000001430511]","1","0","1","","","","","","","",""
"pit-trial","29","353971","0.0-2.0-8.1-3.1","battery-v0.2","","""event"",""trial"",""time""
""fullscreenenter"",""1"",""6741""
","
","
","""event"",""trial"",""time""
""fullscreenenter"",""1"",""6741""
","
","","","544.2000000476837","","","24","5304","3081","&#9776;","elianto","#3366ff99"," "," ","1","0","[1397.8999998569489]","1","0","1","","","","","","","",""
"pit-trial","30","357266","0.0-2.0-8.1-4.1","battery-v0.2","","""event"",""trial"",""time""
""fullscreenenter"",""1"",""6741""
","
","
","""event"",""trial"",""time""
""fullscreenenter"",""1"",""6741""
","
","","","433.69999980926514","","","24","5304","3081","&#9776;","elianto","#3366ff99"," "," ","1","+10","[1285.3000001907349]","1","0","1","","","","","","","",""
"pit-trial","31","360631","0.0-2.0-8.2-0.2","battery-v0.2","","""event"",""trial"",""time""
""fullscreenenter"",""1"",""6741""
","
","
","""event"",""trial"",""time""
""fullscreenenter"",""1"",""6741""
","
","","","505.5","","","24","5304","3081","&#9776;","elianto","#3366ff99"," "," ","1","+10","[1357.5999999046326]","1","0","1","","","","","","","",""
"pit-trial","32","364186","0.0-2.0-8.2-1.2","battery-v0.2","","""event"",""trial"",""time""
""fullscreenenter"",""1"",""6741""
","
","
","""event"",""trial"",""time""
""fullscreenenter"",""1"",""6741""
","
","","","691.0999999046326","","","24","5304","3081","&#9776;","elianto","#3366ff99"," "," ","1","+10","[1543.7999999523163]","1","0","1","","","","","","","",""
"pit-trial","33","367543","0.0-2.0-8.2-2.2","battery-v0.2","","""event"",""trial"",""time""
""fullscreenenter"",""1"",""6741""
","
","
","""event"",""trial"",""time""
""fullscreenenter"",""1"",""6741""
","
","","","489.30000019073486","","","24","5304","3081","&#9776;","elianto","#3366ff99"," "," ","1","+10","[1342.2999999523163]","1","0","1","","","","","","","",""
"pit-trial","34","370878","0.0-2.0-8.2-3.2","battery-v0.2","","""event"",""trial"",""time""
""fullscreenenter"",""1"",""6741""
","
","
","""event"",""trial"",""time""
""fullscreenenter"",""1"",""6741""
","
","","","466.7000000476837","","","24","5304","3081","&#9776;","elianto","#3366ff99"," "," ","1","0","[1321.5]","1","0","1","","","","","","","",""
"pit-trial","35","373883","0.0-2.0-8.2-4.2","battery-v0.2","","""event"",""trial"",""time""
""fullscreenenter"",""1"",""6741""
","
","
","""event"",""trial"",""time""
""fullscreenenter"",""1"",""6741""
","
","","","143.20000004768372","","","24","5304","3081","&#9776;","elianto","#3366ff99"," "," ","1","+10","[996.1000001430511]","1","0","1","","","","","","","",""
"call-function","36","373885","0.0-2.0-9.0","battery-v0.2","","""event"",""trial"",""time""
""fullscreenenter"",""1"",""6741""
","
","
","""event"",""trial"",""time""
""fullscreenenter"",""1"",""6741""
","
","","","","","","","","","","","","","","","","","","","","","","","","","","",""
"pit-instructions","37","412937","0.0-2.0-10.0","battery-v0.2","","""event"",""trial"",""time""
""fullscreenenter"",""1"",""6741""
","
","
","""event"",""trial"",""time""
""fullscreenenter"",""1"",""6741""
","
","","[{""page_index"":0,""viewing_time"":5984.799999952316},{""page_index"":1,""viewing_time"":6889},{""page_index"":2,""viewing_time"":9416.299999952316},{""page_index"":3,""viewing_time"":9180},{""page_index"":4,""viewing_time"":7580.299999952316}]","39050.89999985695","","","","","","","","","","","","","","","","","","","","","","","",""
"pit-trial","38","416261","0.0-2.0-11.0-0.0","battery-v0.2","","""event"",""trial"",""time""
""fullscreenenter"",""1"",""6741""
","
","
","""event"",""trial"",""time""
""fullscreenenter"",""1"",""6741""
","
","","","451.7999999523163","","","24","5304","3081","&#9761;","elianto","#3366ff99","-1"," ","0","0","[1306.8999998569489]","1","0","2","","","","","","","",""
"pit-trial","39","421150","0.0-2.0-11.0-1.0","battery-v0.2","","""event"",""trial"",""time""
""fullscreenenter"",""1"",""6741""
","
","
","""event"",""trial"",""time""
""fullscreenenter"",""1"",""6741""
","
","","","-1","","","24","5304","3081","&#9761;","elianto","#3366ff99","-1","-1","1","+10","[]","0","0","2","","","","","","","",""
"pit-trial","40","426031","0.0-2.0-11.0-2.0","battery-v0.2","","""event"",""trial"",""time""
""fullscreenenter"",""1"",""6741""
","
","
","""event"",""trial"",""time""
""fullscreenenter"",""1"",""6741""
","
","","","-1","","","24","5304","3081","&#9761;","elianto","#3366ff99","-1","-1","1","+10","[]","0","0","2","","","","","","","",""
"pit-trial","41","430901","0.0-2.0-11.0-3.0","battery-v0.2","","""event"",""trial"",""time""
""fullscreenenter"",""1"",""6741""
","
","
","""event"",""trial"",""time""
""fullscreenenter"",""1"",""6741""
","
","","","-1","","","24","5304","3081","&#9761;","elianto","#3366ff99","-1","-1","1","0","[]","0","0","2","","","","","","","",""
"pit-trial","42","435781","0.0-2.0-11.0-4.0","battery-v0.2","","""event"",""trial"",""time""
""fullscreenenter"",""1"",""6741""
","
","
","""event"",""trial"",""time""
""fullscreenenter"",""1"",""6741""
","
","","","-1","","","24","5304","3081","&#9761;","elianto","#3366ff99","-1","-1","1","+10","[]","0","0","2","","","","","","","",""
"pit-trial","43","440651","0.0-2.0-11.1-0.1","battery-v0.2","","""event"",""trial"",""time""
""fullscreenenter"",""1"",""6741""
","
","
","""event"",""trial"",""time""
""fullscreenenter"",""1"",""6741""
","
","","","-1","","","24","5304","3081","&#9761;","elianto","#3366ff99","-1","-1","1","+10","[]","0","0","2","","","","","","","",""
"pit-trial","44","445516","0.0-2.0-11.1-1.1","battery-v0.2","","""event"",""trial"",""time""
""fullscreenenter"",""1"",""6741""
","
","
","""event"",""trial"",""time""
""fullscreenenter"",""1"",""6741""
","
","","","-1","","","24","5304","3081","&#9761;","elianto","#3366ff99","-1","-1","1","+10","[]","0","0","2","","","","","","","",""
"pit-trial","45","450398","0.0-2.0-11.1-2.1","battery-v0.2","","""event"",""trial"",""time""
""fullscreenenter"",""1"",""6741""
","
","
","""event"",""trial"",""time""
""fullscreenenter"",""1"",""6741""
","
","","","-1","","","24","5304","3081","&#9761;","elianto","#3366ff99","-1","-1","1","+10","[]","0","0","2","","","","","","","",""
"pit-trial","46","455269","0.0-2.0-11.1-3.1","battery-v0.2","","""event"",""trial"",""time""
""fullscreenenter"",""1"",""6741""
","
","
","""event"",""trial"",""time""
""fullscreenenter"",""1"",""6741""
","
","","","-1","","","24","5304","3081","&#9761;","elianto","#3366ff99","-1","-1","1","0","[]","0","0","2","","","","","","","",""
"pit-trial","47","460159","0.0-2.0-11.1-4.1","battery-v0.2","","""event"",""trial"",""time""
""fullscreenenter"",""1"",""6741""
","
","
","""event"",""trial"",""time""
""fullscreenenter"",""1"",""6741""
","
","","","-1","","","24","5304","3081","&#9761;","elianto","#3366ff99","-1","-1","1","+10","[]","0","0","2","","","","","","","",""
"pit-trial","48","465039","0.0-2.0-11.2-0.2","battery-v0.2","","""event"",""trial"",""time""
""fullscreenenter"",""1"",""6741""
","
","
","""event"",""trial"",""time""
""fullscreenenter"",""1"",""6741""
","
","","","-1","","","24","5304","3081","&#9761;","elianto","#3366ff99","-1","-1","1","+10","[]","0","0","2","","","","","","","",""
"pit-trial","49","469918","0.0-2.0-11.2-1.2","battery-v0.2","","""event"",""trial"",""time""
""fullscreenenter"",""1"",""6741""
","
","
","""event"",""trial"",""time""
""fullscreenenter"",""1"",""6741""
","
","","","-1","","","24","5304","3081","&#9761;","elianto","#3366ff99","-1","-1","1","+10","[]","0","0","2","","","","","","","",""
"pit-trial","50","474797","0.0-2.0-11.2-2.2","battery-v0.2","","""event"",""trial"",""time""
""fullscreenenter"",""1"",""6741""
","
","
","""event"",""trial"",""time""
""fullscreenenter"",""1"",""6741""
","
","","","-1","","","24","5304","3081","&#9761;","elianto","#3366ff99","-1","-1","1","+10","[]","0","0","2","","","","","","","",""
"pit-trial","51","479671","0.0-2.0-11.2-3.2","battery-v0.2","","""event"",""trial"",""time""
""fullscreenenter"",""1"",""6741""
","
","
","""event"",""trial"",""time""
""fullscreenenter"",""1"",""6741""
","
","","","-1","","","24","5304","3081","&#9761;","elianto","#3366ff99","-1","-1","1","0","[]","0","0","2","","","","","","","",""
"pit-trial","52","484543","0.0-2.0-11.2-4.2","battery-v0.2","","""event"",""trial"",""time""
""fullscreenenter"",""1"",""6741""
","
","
","""event"",""trial"",""time""
""fullscreenenter"",""1"",""6741""
","
","","","-1","","","24","5304","3081","&#9761;","elianto","#3366ff99","-1","-1","1","+10","[]","0","0","2","","","","","","","",""
"pit-trial","53","489425","0.0-2.0-11.3-0.3","battery-v0.2","","""event"",""trial"",""time""
""fullscreenenter"",""1"",""6741""
","
","
","""event"",""trial"",""time""
""fullscreenenter"",""1"",""6741""
","
","","","-1","","","24","5304","3081","&#9761;","elianto","#3366ff99","-1","-1","1","+10","[]","0","0","2","","","","","","","",""
"pit-trial","54","494301","0.0-2.0-11.3-1.3","battery-v0.2","","""event"",""trial"",""time""
""fullscreenenter"",""1"",""6741""
","
","
","""event"",""trial"",""time""
""fullscreenenter"",""1"",""6741""
","
","","","-1","","","24","5304","3081","&#9761;","elianto","#3366ff99","-1","-1","1","+10","[]","0","0","2","","","","","","","",""
"pit-trial","55","499173","0.0-2.0-11.3-2.3","battery-v0.2","","""event"",""trial"",""time""
""fullscreenenter"",""1"",""6741""
","
","
","""event"",""trial"",""time""
""fullscreenenter"",""1"",""6741""
","
","","","-1","","","24","5304","3081","&#9761;","elianto","#3366ff99","-1","-1","1","+10","[]","0","0","2","","","","","","","",""
"pit-trial","56","504046","0.0-2.0-11.3-3.3","battery-v0.2","","""event"",""trial"",""time""
""fullscreenenter"",""1"",""6741""
","
","
","""event"",""trial"",""time""
""fullscreenenter"",""1"",""6741""
","
","","","-1","","","24","5304","3081","&#9761;","elianto","#3366ff99","-1","-1","1","0","[]","0","0","2","","","","","","","",""
"pit-trial","57","508920","0.0-2.0-11.3-4.3","battery-v0.2","","""event"",""trial"",""time""
""fullscreenenter"",""1"",""6741""
","
","
","""event"",""trial"",""time""
""fullscreenenter"",""1"",""6741""
","
","","","-1","","","24","5304","3081","&#9761;","elianto","#3366ff99","-1","-1","1","+10","[]","0","0","2","","","","","","","",""
"call-function","58","508924","0.0-2.0-12.0","battery-v0.2","","""event"",""trial"",""time""
""fullscreenenter"",""1"",""6741""
","
","
","""event"",""trial"",""time""
""fullscreenenter"",""1"",""6741""
","
","","","","","","","","","","","","","","","","","","","","","","","","","","",""
"pit-instructions","59","542590","0.0-2.0-13.0","battery-v0.2","","""event"",""trial"",""time""
""fullscreenenter"",""1"",""6741""
","
","
","""event"",""trial"",""time""
""fullscreenenter"",""1"",""6741""
","
","","[{""page_index"":0,""viewing_time"":5559.700000047684},{""page_index"":1,""viewing_time"":7501.799999952316},{""page_index"":2,""viewing_time"":4543.799999952316},{""page_index"":3,""viewing_time"":10872.400000095367},{""page_index"":4,""viewing_time"":5186.299999952316}]","33664.40000009537","","","","","","","","","","","","","","","","","","","","","","","",""
"pit-trial","60","546002","0.0-2.0-14.0-0.0","battery-v0.2","","""event"",""trial"",""time""
""fullscreenenter"",""1"",""6741""
","
","
","""event"",""trial"",""time""
""fullscreenenter"",""1"",""6741""
","
","","","552.8000001907349","","","24","5304","3081","&#9826;","elianto","#f73b6a7A","-1"," ","0","-10","[1408.3000001907349]","1","0","3","","","","","","","",""
"pit-trial","61","550892","0.0-2.0-14.0-1.0","battery-v0.2","","""event"",""trial"",""time""
""fullscreenenter"",""1"",""6741""
","
","
","""event"",""trial"",""time""
""fullscreenenter"",""1"",""6741""
","
","","","-1","","","24","5304","3081","&#9826;","elianto","#f73b6a7A","-1","-1","1","0","[]","0","0","3","","","","","","","",""
"pit-trial","62","555772","0.0-2.0-14.0-2.0","battery-v0.2","","""event"",""trial"",""time""
""fullscreenenter"",""1"",""6741""
","
","
","""event"",""trial"",""time""
""fullscreenenter"",""1"",""6741""
","
","","","-1","","","24","5304","3081","&#9826;","elianto","#f73b6a7A","-1","-1","1","0","[]","0","0","3","","","","","","","",""
"pit-trial","63","560643","0.0-2.0-14.0-3.0","battery-v0.2","","""event"",""trial"",""time""
""fullscreenenter"",""1"",""6741""
","
","
","""event"",""trial"",""time""
""fullscreenenter"",""1"",""6741""
","
","","","-1","","","24","5304","3081","&#9826;","elianto","#f73b6a7A","-1","-1","1","-10","[]","0","0","3","","","","","","","",""
"pit-trial","64","565522","0.0-2.0-14.0-4.0","battery-v0.2","","""event"",""trial"",""time""
""fullscreenenter"",""1"",""6741""
","
","
","""event"",""trial"",""time""
""fullscreenenter"",""1"",""6741""
","
","","","-1","","","24","5304","3081","&#9826;","elianto","#f73b6a7A","-1","-1","1","0","[]","0","0","3","","","","","","","",""
"pit-trial","65","570392","0.0-2.0-14.1-0.1","battery-v0.2","","""event"",""trial"",""time""
""fullscreenenter"",""1"",""6741""
","
","
","""event"",""trial"",""time""
""fullscreenenter"",""1"",""6741""
","
","","","-1","","","24","5304","3081","&#9826;","elianto","#f73b6a7A","-1","-1","1","0","[]","0","0","3","","","","","","","",""
"pit-trial","66","575269","0.0-2.0-14.1-1.1","battery-v0.2","","""event"",""trial"",""time""
""fullscreenenter"",""1"",""6741""
","
","
","""event"",""trial"",""time""
""fullscreenenter"",""1"",""6741""
","
","","","-1","","","24","5304","3081","&#9826;","elianto","#f73b6a7A","-1","-1","1","0","[]","0","0","3","","","","","","","",""
"pit-trial","67","580141","0.0-2.0-14.1-2.1","battery-v0.2","","""event"",""trial"",""time""
""fullscreenenter"",""1"",""6741""
","
","
","""event"",""trial"",""time""
""fullscreenenter"",""1"",""6741""
","
","","","-1","","","24","5304","3081","&#9826;","elianto","#f73b6a7A","-1","-1","1","0","[]","0","0","3","","","","","","","",""
"pit-trial","68","585023","0.0-2.0-14.1-3.1","battery-v0.2","","""event"",""trial"",""time""
""fullscreenenter"",""1"",""6741""
","
","
","""event"",""trial"",""time""
""fullscreenenter"",""1"",""6741""
","
","","","-1","","","24","5304","3081","&#9826;","elianto","#f73b6a7A","-1","-1","1","-10","[]","0","0","3","","","","","","","",""
"pit-trial","69","589895","0.0-2.0-14.1-4.1","battery-v0.2","","""event"",""trial"",""time""
""fullscreenenter"",""1"",""6741""
","
","
","""event"",""trial"",""time""
""fullscreenenter"",""1"",""6741""
","
","","","-1","","","24","5304","3081","&#9826;","elianto","#f73b6a7A","-1","-1","1","0","[]","0","0","3","","","","","","","",""
"pit-trial","70","594768","0.0-2.0-14.2-0.2","battery-v0.2","","""event"",""trial"",""time""
""fullscreenenter"",""1"",""6741""
","
","
","""event"",""trial"",""time""
""fullscreenenter"",""1"",""6741""
","
","","","-1","","","24","5304","3081","&#9826;","elianto","#f73b6a7A","-1","-1","1","0","[]","0","0","3","","","","","","","",""
"pit-trial","71","599639","0.0-2.0-14.2-1.2","battery-v0.2","","""event"",""trial"",""time""
""fullscreenenter"",""1"",""6741""
","
","
","""event"",""trial"",""time""
""fullscreenenter"",""1"",""6741""
","
","","","-1","","","24","5304","3081","&#9826;","elianto","#f73b6a7A","-1","-1","1","0","[]","0","0","3","","","","","","","",""
"pit-trial","72","604502","0.0-2.0-14.2-2.2","battery-v0.2","","""event"",""trial"",""time""
""fullscreenenter"",""1"",""6741""
","
","
","""event"",""trial"",""time""
""fullscreenenter"",""1"",""6741""
","
","","","-1","","","24","5304","3081","&#9826;","elianto","#f73b6a7A","-1","-1","1","0","[]","0","0","3","","","","","","","",""
"pit-trial","73","609383","0.0-2.0-14.2-3.2","battery-v0.2","","""event"",""trial"",""time""
""fullscreenenter"",""1"",""6741""
","
","
","""event"",""trial"",""time""
""fullscreenenter"",""1"",""6741""
","
","","","-1","","","24","5304","3081","&#9826;","elianto","#f73b6a7A","-1","-1","1","-10","[]","0","0","3","","","","","","","",""
"pit-trial","74","614263","0.0-2.0-14.2-4.2","battery-v0.2","","""event"",""trial"",""time""
""fullscreenenter"",""1"",""6741""
","
","
","""event"",""trial"",""time""
""fullscreenenter"",""1"",""6741""
","
","","","-1","","","24","5304","3081","&#9826;","elianto","#f73b6a7A","-1","-1","1","0","[]","0","0","3","","","","","","","",""
"pit-trial","75","619136","0.0-2.0-14.3-0.3","battery-v0.2","","""event"",""trial"",""time""
""fullscreenenter"",""1"",""6741""
","
","
","""event"",""trial"",""time""
""fullscreenenter"",""1"",""6741""
","
","","","-1","","","24","5304","3081","&#9826;","elianto","#f73b6a7A","-1","-1","1","0","[]","0","0","3","","","","","","","",""
"pit-trial","76","624000","0.0-2.0-14.3-1.3","battery-v0.2","","""event"",""trial"",""time""
""fullscreenenter"",""1"",""6741""
","
","
","""event"",""trial"",""time""
""fullscreenenter"",""1"",""6741""
","
","","","-1","","","24","5304","3081","&#9826;","elianto","#f73b6a7A","-1","-1","1","0","[]","0","0","3","","","","","","","",""
"pit-trial","77","628869","0.0-2.0-14.3-2.3","battery-v0.2","","""event"",""trial"",""time""
""fullscreenenter"",""1"",""6741""
","
","
","""event"",""trial"",""time""
""fullscreenenter"",""1"",""6741""
","
","","","-1","","","24","5304","3081","&#9826;","elianto","#f73b6a7A","-1","-1","1","0","[]","0","0","3","","","","","","","",""
"pit-trial","78","633740","0.0-2.0-14.3-3.3","battery-v0.2","","""event"",""trial"",""time""
""fullscreenenter"",""1"",""6741""
","
","
","""event"",""trial"",""time""
""fullscreenenter"",""1"",""6741""
","
","","","-1","","","24","5304","3081","&#9826;","elianto","#f73b6a7A","-1","-1","1","-10","[]","0","0","3","","","","","","","",""
"pit-trial","79","638611","0.0-2.0-14.3-4.3","battery-v0.2","","""event"",""trial"",""time""
""fullscreenenter"",""1"",""6741""
","
","
","""event"",""trial"",""time""
""fullscreenenter"",""1"",""6741""
","
","","","-1","","","24","5304","3081","&#9826;","elianto","#f73b6a7A","-1","-1","1","0","[]","0","0","3","","","","","","","",""
"call-function","80","638615","0.0-2.0-15.0","battery-v0.2","","""event"",""trial"",""time""
""fullscreenenter"",""1"",""6741""
","
","
","""event"",""trial"",""time""
""fullscreenenter"",""1"",""6741""
","
","","","","","","","","","","","","","","","","","","","","","","","","","","",""
"pit-instructions","81","663269","0.0-2.0-16.0","battery-v0.2","","""event"",""trial"",""time""
""fullscreenenter"",""1"",""6741""
","
","
","""event"",""trial"",""time""
""fullscreenenter"",""1"",""6741""
","
","","[{""page_index"":0,""viewing_time"":6564.400000095367},{""page_index"":1,""viewing_time"":8247.200000047684},{""page_index"":2,""viewing_time"":4774.399999856949},{""page_index"":3,""viewing_time"":5066.800000190735}]","24653.200000047684","","","","","","","","","","","","","","","","","","","","","","","",""
"pit-trial","82","666542","0.0-2.0-17.0-0.0","battery-v0.2","","""event"",""trial"",""time""
""fullscreenenter"",""1"",""6741""
","
","
","""event"",""trial"",""time""
""fullscreenenter"",""1"",""6741""
","
","","","395.09999990463257","","","24","5304","3081","&#9789;","elianto","#f73b6a7A"," "," ","1","0","[1245]","1","0","4","","","","","","","",""
"pit-trial","83","669512","0.0-2.0-17.0-1.0","battery-v0.2","","""event"",""trial"",""time""
""fullscreenenter"",""1"",""6741""
","
","
","""event"",""trial"",""time""
""fullscreenenter"",""1"",""6741""
","
","","","102.29999995231628","","","24","5304","3081","&#9789;","elianto","#f73b6a7A"," "," ","1","0","[959.5999999046326]","1","0","4","","","","","","","",""
"pit-trial","84","672512","0.0-2.0-17.0-2.0","battery-v0.2","","""event"",""trial"",""time""
""fullscreenenter"",""1"",""6741""
","
","
","""event"",""trial"",""time""
""fullscreenenter"",""1"",""6741""
","
","","","135.70000004768372","","","24","5304","3081","&#9789;","elianto","#f73b6a7A"," "," ","1","0","[988]","1","0","4","","","","","","","",""
"pit-trial","85","675531","0.0-2.0-17.0-3.0","battery-v0.2","","""event"",""trial"",""time""
""fullscreenenter"",""1"",""6741""
","
","
","""event"",""trial"",""time""
""fullscreenenter"",""1"",""6741""
","
","","","148.79999995231628","","","24","5304","3081","&#9789;","elianto","#f73b6a7A"," "," ","1","-10","[999.6000001430511]","1","0","4","","","","","","","",""
"pit-trial","86","678822","0.0-2.0-17.0-4.0","battery-v0.2","","""event"",""trial"",""time""
""fullscreenenter"",""1"",""6741""
","
","
","""event"",""trial"",""time""
""fullscreenenter"",""1"",""6741""
","
","","","434.69999980926514","","","24","5304","3081","&#9789;","elianto","#f73b6a7A"," "," ","1","0","[1285.1999998092651]","1","0","4","","","","","","","",""
"pit-trial","87","682212","0.0-2.0-17.1-0.1","battery-v0.2","","""event"",""trial"",""time""
""fullscreenenter"",""1"",""6741""
","
","
","""event"",""trial"",""time""
""fullscreenenter"",""1"",""6741""
","
","","","520.5","","","24","5304","3081","&#9789;","elianto","#f73b6a7A"," "," ","1","0","[1375.2999999523163]","1","0","4","","","","","","","",""
"pit-trial","88","685162","0.0-2.0-17.1-1.1","battery-v0.2","","""event"",""trial"",""time""
""fullscreenenter"",""1"",""6741""
","
","
","""event"",""trial"",""time""
""fullscreenenter"",""1"",""6741""
","
","","","86.20000004768372","","","24","5304","3081","&#9789;","elianto","#f73b6a7A"," "," ","1","0","[937.2999999523163]","1","0","4","","","","","","","",""
"pit-trial","89","688062","0.0-2.0-17.1-2.1","battery-v0.2","","""event"",""trial"",""time""
""fullscreenenter"",""1"",""6741""
","
","
","""event"",""trial"",""time""
""fullscreenenter"",""1"",""6741""
","
","","","27.5","","","24","5304","3081","&#9789;","elianto","#f73b6a7A"," "," ","1","0","[882.2000000476837]","1","0","4","","","","","","","",""
"pit-trial","90","691172","0.0-2.0-17.1-3.1","battery-v0.2","","""event"",""trial"",""time""
""fullscreenenter"",""1"",""6741""
","
","
","""event"",""trial"",""time""
""fullscreenenter"",""1"",""6741""
","
","","","226.59999990463257","","","24","5304","3081","&#9789;","elianto","#f73b6a7A"," "," ","1","-10","[1086.8000001907349]","1","0","4","","","","","","","",""
"pit-trial","91","694086","0.0-2.0-17.1-4.1","battery-v0.2","","""event"",""trial"",""time""
""fullscreenenter"",""1"",""6741""
","
","
","""event"",""trial"",""time""
""fullscreenenter"",""1"",""6741""
","
","","","41.39999985694885","","","24","5304","3081","&#9789;","elianto","#f73b6a7A"," "," ","1","0","[892.7999999523163]","1","0","4","","","","","","","",""
"pit-trial","92","697277","0.0-2.0-17.2-0.2","battery-v0.2","","""event"",""trial"",""time""
""fullscreenenter"",""1"",""6741""
","
","
","""event"",""trial"",""time""
""fullscreenenter"",""1"",""6741""
","
","","","330.2999999523163","","","24","5304","3081","&#9789;","elianto","#f73b6a7A"," "," ","1","0","[1181.5]","1","0","4","","","","","","","",""
"pit-trial","93","700301","0.0-2.0-17.2-1.2","battery-v0.2","","""event"",""trial"",""time""
""fullscreenenter"",""1"",""6741""
","
","
","""event"",""trial"",""time""
""fullscreenenter"",""1"",""6741""
","
","","","162","","","24","5304","3081","&#9789;","elianto","#f73b6a7A"," "," ","1","0","[1015.6999998092651]","1","0","4","","","","","","","",""
"pit-trial","94","703257","0.0-2.0-17.2-2.2","battery-v0.2","","""event"",""trial"",""time""
""fullscreenenter"",""1"",""6741""
","
","
","""event"",""trial"",""time""
""fullscreenenter"",""1"",""6741""
","
","","","91.10000014305115","","","24","5304","3081","&#9789;","elianto","#f73b6a7A"," "," ","1","0","[941.7999999523163]","1","0","4","","","","","","","",""
"pit-trial","95","706351","0.0-2.0-17.2-3.2","battery-v0.2","","""event"",""trial"",""time""
""fullscreenenter"",""1"",""6741""
","
","
","""event"",""trial"",""time""
""fullscreenenter"",""1"",""6741""
","
","","","226.5","","","24","5304","3081","&#9789;","elianto","#f73b6a7A"," "," ","1","-10","[1082.4000000953674]","1","0","4","","","","","","","",""
"pit-trial","96","709291","0.0-2.0-17.2-4.2","battery-v0.2","","""event"",""trial"",""time""
""fullscreenenter"",""1"",""6741""
","
","
","""event"",""trial"",""time""
""fullscreenenter"",""1"",""6741""
","
","","","61.39999985694885","","","24","5304","3081","&#9789;","elianto","#f73b6a7A"," "," ","1","0","[924.7000000476837]","1","0","4","","","","","","","",""
"pit-trial","97","712251","0.0-2.0-17.3-0.3","battery-v0.2","","""event"",""trial"",""time""
""fullscreenenter"",""1"",""6741""
","
","
","""event"",""trial"",""time""
""fullscreenenter"",""1"",""6741""
","
","","","97.09999990463257","","","24","5304","3081","&#9789;","elianto","#f73b6a7A"," "," ","1","0","[953]","1","0","4","","","","","","","",""
"pit-trial","98","715270","0.0-2.0-17.3-1.3","battery-v0.2","","""event"",""trial"",""time""
""fullscreenenter"",""1"",""6741""
","
","
","""event"",""trial"",""time""
""fullscreenenter"",""1"",""6741""
","
","","","155.20000004768372","","","24","5304","3081","&#9789;","elianto","#f73b6a7A"," "," ","1","0","[1009.1999998092651]","1","0","4","","","","","","","",""
"pit-trial","99","718189","0.0-2.0-17.3-2.3","battery-v0.2","","""event"",""trial"",""time""
""fullscreenenter"",""1"",""6741""
","
","
","""event"",""trial"",""time""
""fullscreenenter"",""1"",""6741""
","
","","","51.799999952316284","","","24","5304","3081","&#9789;","elianto","#f73b6a7A"," "," ","1","0","[907.7000000476837]","1","0","4","","","","","","","",""
"pit-trial","100","721193","0.0-2.0-17.3-3.3","battery-v0.2","","""event"",""trial"",""time""
""fullscreenenter"",""1"",""6741""
","
","
","""event"",""trial"",""time""
""fullscreenenter"",""1"",""6741""
","
","","","142.29999995231628","","","24","5304","3081","&#9789;","elianto","#f73b6a7A"," "," ","1","-10","[995]","1","0","4","","","","","","","",""
"pit-trial","101","724299","0.0-2.0-17.3-4.3","battery-v0.2","","""event"",""trial"",""time""
""fullscreenenter"",""1"",""6741""
","
","
","""event"",""trial"",""time""
""fullscreenenter"",""1"",""6741""
","
","","","225","","","24","5304","3081","&#9789;","elianto","#f73b6a7A"," "," ","1","0","[1087.0999999046326]","1","0","4","","","","","","","",""
"call-function","102","724303","0.0-2.0-18.0","battery-v0.2","","""event"",""trial"",""time""
""fullscreenenter"",""1"",""6741""
","
","
","""event"",""trial"",""time""
""fullscreenenter"",""1"",""6741""
","
","","","","","","","","","","","","","","","","","","","","","","","","","","",""
"pit-instructions","103","797369","0.0-2.0-19.0","battery-v0.2","","""event"",""trial"",""time""
""fullscreenenter"",""1"",""6741""
","
","
","""event"",""trial"",""time""
""fullscreenenter"",""1"",""6741""
","
","","[{""page_index"":0,""viewing_time"":6406.700000047684},{""page_index"":1,""viewing_time"":6145.700000047684},{""page_index"":2,""viewing_time"":14028.799999952316},{""page_index"":3,""viewing_time"":9613.100000143051},{""page_index"":4,""viewing_time"":8879.399999856949},{""page_index"":5,""viewing_time"":8283.700000047684},{""page_index"":6,""viewing_time"":8734},{""page_index"":7,""viewing_time"":6479.599999904633},{""page_index"":8,""viewing_time"":4493}]","73064.60000014305","","","","","","","","","","","","","","","","","","","","","","","",""
"pit-comprehension","104","801897","0.0-2.0-20.0-0.0","battery-v0.2","","""event"",""trial"",""time""
""fullscreenenter"",""1"",""6741""
","
","
","""event"",""trial"",""time""
""fullscreenenter"",""1"",""6741""
","
","","","4522.5","[""SPACE""]","0","24","5304","3081","","","","","","","","","","","","","","","","","","",""
"pit-instructions","105","805469","0.0-2.0-20.0-1.0","battery-v0.2","","""event"",""trial"",""time""
""fullscreenenter"",""1"",""6741""
","
","
","""event"",""trial"",""time""
""fullscreenenter"",""1"",""6741""
","
","","[{""page_index"":0,""viewing_time"":3516.199999809265}]","3516.699999809265","","","","","","","","","","","","","","","","","","","","","","","",""
"pit-comprehension","106","811529","0.0-2.0-21.0-0.0","battery-v0.2","","""event"",""trial"",""time""
""fullscreenenter"",""1"",""6741""
","
","
","""event"",""trial"",""time""
""fullscreenenter"",""1"",""6741""
","
","","","6056.400000095367","[""10""]","0","24","5304","3081","","","","","","","","","","","","","","","","","","",""
"pit-instructions","107","814312","0.0-2.0-21.0-1.0","battery-v0.2","","""event"",""trial"",""time""
""fullscreenenter"",""1"",""6741""
","
","
","""event"",""trial"",""time""
""fullscreenenter"",""1"",""6741""
","
","","[{""page_index"":0,""viewing_time"":2734.5}]","2735","","","","","","","","","","","","","","","","","","","","","","","",""
"pit-comprehension","108","820934","0.0-2.0-22.0-0.0","battery-v0.2","","""event"",""trial"",""time""
""fullscreenenter"",""1"",""6741""
","
","
","""event"",""trial"",""time""
""fullscreenenter"",""1"",""6741""
","
","","","6617.299999952316","[""0""]","0","24","5304","3081","","","","","","","","","","","","","","","","","","",""
"pit-instructions","109","822926","0.0-2.0-22.0-1.0","battery-v0.2","","""event"",""trial"",""time""
""fullscreenenter"",""1"",""6741""
","
","
","""event"",""trial"",""time""
""fullscreenenter"",""1"",""6741""
","
","","[{""page_index"":0,""viewing_time"":1954.5}]","1955","","","","","","","","","","","","","","","","","","","","","","","",""
"pit-comprehension","110","831751","0.0-2.0-23.0-0.0","battery-v0.2","","""event"",""trial"",""time""
""fullscreenenter"",""1"",""6741""
","
","
","""event"",""trial"",""time""
""fullscreenenter"",""1"",""6741""
","
","","","8821.200000047684","[""True""]","0","24","5304","3081","","","","","","","","","","","","","","","","","","",""
"pit-instructions","111","833664","0.0-2.0-23.0-1.0","battery-v0.2","","""event"",""trial"",""time""
""fullscreenenter"",""1"",""6741""
","
","
","""event"",""trial"",""time""
""fullscreenenter"",""1"",""6741""
","
","","[{""page_index"":0,""viewing_time"":1854.2000000476837}]","1854.5999999046326","","","","","","","","","","","","","","","","","","","","","","","",""
"pit-comprehension","112","841377","0.0-2.0-24.0-0.0","battery-v0.2","","""event"",""trial"",""time""
""fullscreenenter"",""1"",""6741""
","
","
","""event"",""trial"",""time""
""fullscreenenter"",""1"",""6741""
","
","","","7708.600000143051","[""True""]","0","24","5304","3081","","","","","","","","","","","","","","","","","","",""
"pit-instructions","113","844556","0.0-2.0-24.0-1.0","battery-v0.2","","""event"",""trial"",""time""
""fullscreenenter"",""1"",""6741""
","
","
","""event"",""trial"",""time""
""fullscreenenter"",""1"",""6741""
","
","","[{""page_index"":0,""viewing_time"":3121.9000000953674}]","3122.2999999523163","","","","","","","","","","","","","","","","","","","","","","","",""
"pit-comprehension","114","851022","0.0-2.0-25.0-0.0","battery-v0.2","","""event"",""trial"",""time""
""fullscreenenter"",""1"",""6741""
","
","
","""event"",""trial"",""time""
""fullscreenenter"",""1"",""6741""
","
","","","6461.900000095367","[""True""]","0","24","5304","3081","","","","","","","","","","","","","","","","","","",""
"pit-instructions","115","852878","0.0-2.0-25.0-1.0","battery-v0.2","","""event"",""trial"",""time""
""fullscreenenter"",""1"",""6741""
","
","
","""event"",""trial"",""time""
""fullscreenenter"",""1"",""6741""
","
","","[{""page_index"":0,""viewing_time"":1805.5}]","1806","","","","","","","","","","","","","","","","","","","","","","","",""
"pit-comprehension","116","857685","0.0-2.0-26.0-0.0","battery-v0.2","","""event"",""trial"",""time""
""fullscreenenter"",""1"",""6741""
","
","
","""event"",""trial"",""time""
""fullscreenenter"",""1"",""6741""
","
","","","4804.400000095367","[""False""]","0","24","5304","3081","","","","","","","","","","","","","","","","","","",""
"pit-instructions","117","860373","0.0-2.0-26.0-1.0","battery-v0.2","","""event"",""trial"",""time""
""fullscreenenter"",""1"",""6741""
","
","
","""event"",""trial"",""time""
""fullscreenenter"",""1"",""6741""
","
","","[{""page_index"":0,""viewing_time"":2634.2000000476837}]","2634.7000000476837","","","","","","","","","","","","","","","","","","","","","","","",""
"pit-instructions","118","877514","0.0-3.0","battery-v0.2","","""event"",""trial"",""time""
""fullscreenenter"",""1"",""6741""
","
","
","""event"",""trial"",""time""
""fullscreenenter"",""1"",""6741""
","
","","[{""page_index"":0,""viewing_time"":4340.5},{""page_index"":1,""viewing_time"":5045.799999952316},{""page_index"":2,""viewing_time"":7751.399999856949}]","17138.199999809265","","","","","","","","","","","","","","","","","","","","","","","",""
"pit-trial","119","880933","0.0-4.0","battery-v0.2","","""event"",""trial"",""time""
""fullscreenenter"",""1"",""6741""
","
","
","""event"",""trial"",""time""
""fullscreenenter"",""1"",""6741""
","
","","","554","","","24","5304","3081","&#9733;","elianto","#3366ff99","-1"," ","0","0","[1405]","1","1","","","5304","1","2","2","win","no-go","0"
"pit-trial","120","884363","0.0-5.0","battery-v0.2","","""event"",""trial"",""time""
""fullscreenenter"",""1"",""6741""
","
","
","""event"",""trial"",""time""
""fullscreenenter"",""1"",""6741""
","
","","","553.1000001430511","","","24","5304","3081","&#9730;","elianto","#3366ff99"," "," ","1","+10","[1413.5999999046326]","1","1","","","5304","2","1","1","win","go","0"
"pit-trial","121","889245","0.0-6.0","battery-v0.2","","""event"",""trial"",""time""
""fullscreenenter"",""1"",""6741""
","
","
","""event"",""trial"",""time""
""fullscreenenter"",""1"",""6741""
","
","","","-1","","","24","5304","3081","&#9752;","elianto","#f73b6a7A"," ","-1","0","0","[]","0","1","","","5304","3","3","3","lose","go","1"
"pit-trial","122","893083","0.0-7.0","battery-v0.2","","""event"",""trial"",""time""
""fullscreenenter"",""1"",""6741""
","
","
","""event"",""trial"",""time""
""fullscreenenter"",""1"",""6741""
","
","","","963.3999998569489","","","24","5304","3081","&#9728;","elianto","#f73b6a7A","-1"," ","0","-10","[1824.4000000953674]","1","1","","","5304","4","0","4","lose","no-go","0"
"pit-trial","123","897972","0.0-8.0","battery-v0.2","","""event"",""trial"",""time""
""fullscreenenter"",""1"",""6741""
","
","
","""event"",""trial"",""time""
""fullscreenenter"",""1"",""6741""
","
","","","-1","","","24","5304","3081","&#9728;","elianto","#f73b6a7A","-1","-1","1","0","[]","0","1","","","5304","5","0","4","lose","no-go","0"
"pit-trial","124","902853","0.0-9.0","battery-v0.2","","""event"",""trial"",""time""
""fullscreenenter"",""1"",""6741""
","
","
","""event"",""trial"",""time""
""fullscreenenter"",""1"",""6741""
","
","","","-1","","","24","5304","3081","&#9752;","elianto","#f73b6a7A"," ","-1","0","-10","[]","0","1","","","5304","6","3","3","lose","go","0"
"pit-trial","125","906483","0.0-10.0","battery-v0.2","","""event"",""trial"",""time""
""fullscreenenter"",""1"",""6741""
","
","
","""event"",""trial"",""time""
""fullscreenenter"",""1"",""6741""
","
","","","740.7000000476837","","","24","5304","3081","&#9730;","elianto","#3366ff99"," "," ","1","0","[1603.6000001430511]","1","1","","","5304","7","1","1","win","go","1"
"pit-trial","126","910547","0.0-11.0","battery-v0.2","","""event"",""trial"",""time""
""fullscreenenter"",""1"",""6741""
","
","
","""event"",""trial"",""time""
""fullscreenenter"",""1"",""6741""
","
","","","1194.7000000476837","","","24","5304","3081","&#9733;","elianto","#3366ff99","-1"," ","0","0","[2044.7999999523163]","1","1","","","5304","8","2","2","win","no-go","0"
"pit-trial","127","914672","0.0-12.0","battery-v0.2","","""event"",""trial"",""time""
""fullscreenenter"",""1"",""6741""
","
","
","""event"",""trial"",""time""
""fullscreenenter"",""1"",""6741""
","
","","","1263.2000000476837","","","24","5304","3081","&#9752;","elianto","#f73b6a7A"," "," ","1","0","[2113.7000000476837]","1","1","","","5304","9","3","3","lose","go","0"
"pit-trial","128","919540","0.0-13.0","battery-v0.2","","""event"",""trial"",""time""
""fullscreenenter"",""1"",""6741""
","
","
","""event"",""trial"",""time""
""fullscreenenter"",""1"",""6741""
","
","","","-1","","","24","5304","3081","&#9728;","elianto","#f73b6a7A","-1","-1","1","-10","[]","0","1","","","5304","10","0","4","lose","no-go","1"
"pit-trial","129","923518","0.0-14.0","battery-v0.2","","""event"",""trial"",""time""
""fullscreenenter"",""1"",""6741""
","
","
","""event"",""trial"",""time""
""fullscreenenter"",""1"",""6741""
","
","","","1112.0999999046326","","","24","5304","3081","&#9730;","elianto","#3366ff99"," "," ","1","+10","[1963.2999999523163]","1","1","","","5304","11","1","1","win","go","0"
"pit-trial","130","928390","0.0-15.0","battery-v0.2","","""event"",""trial"",""time""
""fullscreenenter"",""1"",""6741""
","
","
","""event"",""trial"",""time""
""fullscreenenter"",""1"",""6741""
","
","","","-1","","","24","5304","3081","&#9733;","elianto","#3366ff99","-1","-1","1","+10","[]","0","1","","","5304","12","2","2","win","no-go","0"
"pit-trial","131","932014","0.0-16.0","battery-v0.2","","""event"",""trial"",""time""
""fullscreenenter"",""1"",""6741""
","
","
","""event"",""trial"",""time""
""fullscreenenter"",""1"",""6741""
","
","","","748.4000000953674","","","24","5304","3081","&#9752;","elianto","#f73b6a7A"," "," ","1","0","[1609.3000001907349]","1","1","","","5304","13","3","3","lose","go","0"
"pit-trial","132","935734","0.0-17.0","battery-v0.2","","""event"",""trial"",""time""
""fullscreenenter"",""1"",""6741""
","
","
","""event"",""trial"",""time""
""fullscreenenter"",""1"",""6741""
","
","","","852.2000000476837","","","24","5304","3081","&#9733;","elianto","#3366ff99","-1"," ","0","0","[1707.8999998569489]","1","1","","","5304","14","2","2","win","no-go","0"
"pit-trial","133","940615","0.0-18.0","battery-v0.2","","""event"",""trial"",""time""
""fullscreenenter"",""1"",""6741""
","
","
","""event"",""trial"",""time""
""fullscreenenter"",""1"",""6741""
","
","","","-1","","","24","5304","3081","&#9728;","elianto","#f73b6a7A","-1","-1","1","0","[]","0","1","","","5304","15","0","4","lose","no-go","0"
"pit-trial","134","944356","0.0-19.0","battery-v0.2","","""event"",""trial"",""time""
""fullscreenenter"",""1"",""6741""
","
","
","""event"",""trial"",""time""
""fullscreenenter"",""1"",""6741""
","
","","","885.5999999046326","","","24","5304","3081","&#9730;","elianto","#3366ff99"," "," ","1","0","[1736.6999998092651]","1","1","","","5304","16","1","1","win","go","1"
"pit-trial","135","949233","0.0-20.0","battery-v0.2","","""event"",""trial"",""time""
""fullscreenenter"",""1"",""6741""
","
","
","""event"",""trial"",""time""
""fullscreenenter"",""1"",""6741""
","
","","","-1","","","24","5304","3081","&#9728;","elianto","#f73b6a7A","-1","-1","1","0","[]","0","1","","","5304","17","0","4","lose","no-go","0"
"pit-trial","136","952941","0.0-21.0","battery-v0.2","","""event"",""trial"",""time""
""fullscreenenter"",""1"",""6741""
","
","
","""event"",""trial"",""time""
""fullscreenenter"",""1"",""6741""
","
","","","837.5999999046326","","","24","5304","3081","&#9752;","elianto","#f73b6a7A"," "," ","1","-10","[1699.8999998569489]","1","1","","","5304","18","3","3","lose","go","1"
"pit-trial","137","956685","0.0-22.0","battery-v0.2","","""event"",""trial"",""time""
""fullscreenenter"",""1"",""6741""
","
","
","""event"",""trial"",""time""
""fullscreenenter"",""1"",""6741""
","
","","","886.2000000476837","","","24","5304","3081","&#9730;","elianto","#3366ff99"," "," ","1","+10","[1737.2999999523163]","1","1","","","5304","19","1","1","win","go","0"
"pit-trial","138","960700","0.0-23.0","battery-v0.2","","""event"",""trial"",""time""
""fullscreenenter"",""1"",""6741""
","
","
","""event"",""trial"",""time""
""fullscreenenter"",""1"",""6741""
","
","","","1154.2999999523163","","","24","5304","3081","&#9733;","elianto","#3366ff99","-1"," ","0","0","[2008]","1","1","","","5304","20","2","2","win","no-go","0"
"pit-instructions","139","991310","0.0-24.0","battery-v0.2","","""event"",""trial"",""time""
""fullscreenenter"",""1"",""6741""
","
","
","""event"",""trial"",""time""
""fullscreenenter"",""1"",""6741""
","
","","[{""page_index"":0,""viewing_time"":6244.899999856949},{""page_index"":1,""viewing_time"":24368.400000095367}]","30613.799999952316","","","","","","","","","","","","","","","","","","","","","","","",""
"pit-trial","140","995039","0.0-25.0","battery-v0.2","","""event"",""trial"",""time""
""fullscreenenter"",""1"",""6741""
","
","
","""event"",""trial"",""time""
""fullscreenenter"",""1"",""6741""
","
","","","863.2000000476837","","","24","5304","3081","b","elianto","#f73b6a7A"," "," ","1","0","[1718.1000001430511]","1","2","","","5304","21","3","3","lose","go","0"
"pit-trial","141","999909","0.0-26.0","battery-v0.2","","""event"",""trial"",""time""
""fullscreenenter"",""1"",""6741""
","
","
","""event"",""trial"",""time""
""fullscreenenter"",""1"",""6741""
","
","","","-1","","","24","5304","3081","n","elianto","#f73b6a7A","-1","-1","1","-10","[]","0","2","","","5304","22","0","4","lose","no-go","1"
"pit-trial","142","1003828","0.0-27.0","battery-v0.2","","""event"",""trial"",""time""
""fullscreenenter"",""1"",""6741""
","
","
","""event"",""trial"",""time""
""fullscreenenter"",""1"",""6741""
","
","","","1048.9000000953674","","","24","5304","3081","f","elianto","#3366ff99"," "," ","1","+10","[1901.6000001430511]","1","2","","","5304","23","1","1","win","go","0"
"pit-trial","143","1008693","0.0-28.0","battery-v0.2","","""event"",""trial"",""time""
""fullscreenenter"",""1"",""6741""
","
","
","""event"",""trial"",""time""
""fullscreenenter"",""1"",""6741""
","
","","","-1","","","24","5304","3081","t","elianto","#f73b6a7A","-1","-1","1","-10","[]","0","2","","","5304","24","2","4","lose","no-go","1"
"pit-trial","144","1013561","0.0-29.0","battery-v0.2","","""event"",""trial"",""time""
""fullscreenenter"",""1"",""6741""
","
","
","""event"",""trial"",""time""
""fullscreenenter"",""1"",""6741""
","
","","","-1","","","24","5304","3081","n","elianto","#f73b6a7A","-1","-1","1","0","[2884.2999999523163]","1","2","","","5304","25","0","4","lose","no-go","0"
"pit-trial","145","1017745","0.0-30.0","battery-v0.2","","""event"",""trial"",""time""
""fullscreenenter"",""1"",""6741""
","
","
","""event"",""trial"",""time""
""fullscreenenter"",""1"",""6741""
","
","","","1310.5999999046326","","","24","5304","3081","f","elianto","#3366ff99"," "," ","1","+10","[2171.0999999046326]","1","2","","","5304","26","1","1","win","go","0"
"pit-trial","146","1021972","0.0-31.0","battery-v0.2","","""event"",""trial"",""time""
""fullscreenenter"",""1"",""6741""
","
","
","""event"",""trial"",""time""
""fullscreenenter"",""1"",""6741""
","
","","","1356.8999998569489","","","24","5304","3081","b","elianto","#f73b6a7A"," "," ","1","0","[2214.5]","1","2","","","5304","27","3","3","lose","go","0"
"pit-trial","147","1025964","0.0-32.0","battery-v0.2","","""event"",""trial"",""time""
""fullscreenenter"",""1"",""6741""
","
","
","""event"",""trial"",""time""
""fullscreenenter"",""1"",""6741""
","
","","","1122.0999999046326","","","24","5304","3081","t","elianto","#f73b6a7A","-1"," ","0","-10","[1976.2999999523163]","1","2","","","5304","28","2","4","lose","no-go","0"
"pit-trial","148","1030844","0.0-33.0","battery-v0.2","","""event"",""trial"",""time""
""fullscreenenter"",""1"",""6741""
","
","
","""event"",""trial"",""time""
""fullscreenenter"",""1"",""6741""
","
","","","-1","","","24","5304","3081","t","elianto","#f73b6a7A","-1","-1","1","0","[]","0","2","","","5304","29","2","4","lose","no-go","0"
"pit-trial","149","1034630","0.0-34.0","battery-v0.2","","""event"",""trial"",""time""
""fullscreenenter"",""1"",""6741""
","
","
","""event"",""trial"",""time""
""fullscreenenter"",""1"",""6741""
","
","","","909.5999999046326","","","24","5304","3081","b","elianto","#f73b6a7A"," "," ","1","0","[1764.0999999046326]","1","2","","","5304","30","3","3","lose","go","0"
"pit-trial","150","1038814","0.0-35.0","battery-v0.2","","""event"",""trial"",""time""
""fullscreenenter"",""1"",""6741""
","
","
","""event"",""trial"",""time""
""fullscreenenter"",""1"",""6741""
","
","","","1314.2999999523163","","","24","5304","3081","n","elianto","#f73b6a7A","-1"," ","0","-10","[2168.7999999523163]","1","2","","","5304","31","0","4","lose","no-go","0"
"pit-trial","151","1042996","0.0-36.0","battery-v0.2","","""event"",""trial"",""time""
""fullscreenenter"",""1"",""6741""
","
","
","""event"",""trial"",""time""
""fullscreenenter"",""1"",""6741""
","
","","","1322","","","24","5304","3081","f","elianto","#3366ff99"," "," ","1","+10","[2173.5999999046326]","1","2","","","5304","32","1","1","win","go","0"
"pit-trial","152","1047071","0.0-37.0","battery-v0.2","","""event"",""trial"",""time""
""fullscreenenter"",""1"",""6741""
","
","
","""event"",""trial"",""time""
""fullscreenenter"",""1"",""6741""
","
","","","1212","","","24","5304","3081","b","elianto","#f73b6a7A"," "," ","1","0","[2063.300000190735]","1","2","","","5304","33","3","3","lose","go","0"
"pit-trial","153","1051945","0.0-38.0","battery-v0.2","","""event"",""trial"",""time""
""fullscreenenter"",""1"",""6741""
","
","
","""event"",""trial"",""time""
""fullscreenenter"",""1"",""6741""
","
","","","-1","","","24","5304","3081","t","elianto","#f73b6a7A","-1","-1","1","0","[]","0","2","","","5304","34","2","4","lose","no-go","0"
"pit-trial","154","1056009","0.0-39.0","battery-v0.2","","""event"",""trial"",""time""
""fullscreenenter"",""1"",""6741""
","
","
","""event"",""trial"",""time""
""fullscreenenter"",""1"",""6741""
","
","","","1195.0999999046326","","","24","5304","3081","f","elianto","#3366ff99"," "," ","1","+10","[2046.4000000953674]","1","2","","","5304","35","1","1","win","go","0"
"pit-trial","155","1059804","0.0-40.0","battery-v0.2","","""event"",""trial"",""time""
""fullscreenenter"",""1"",""6741""
","
","
","""event"",""trial"",""time""
""fullscreenenter"",""1"",""6741""
","
","","","934.1000001430511","","","24","5304","3081","n","elianto","#f73b6a7A","-1"," ","0","-10","[1784.2000000476837]","1","2","","","5304","36","0","4","lose","no-go","0"
"pit-trial","156","1064083","0.0-41.0","battery-v0.2","","""event"",""trial"",""time""
""fullscreenenter"",""1"",""6741""
","
","
","""event"",""trial"",""time""
""fullscreenenter"",""1"",""6741""
","
","","","1409.2000000476837","","","24","5304","3081","f","elianto","#3366ff99"," "," ","1","+10","[2260.7000000476837]","1","2","","","5304","37","1","1","win","go","0"
"pit-trial","157","1068962","0.0-42.0","battery-v0.2","","""event"",""trial"",""time""
""fullscreenenter"",""1"",""6741""
","
","
","""event"",""trial"",""time""
""fullscreenenter"",""1"",""6741""
","
","","","-1","","","24","5304","3081","t","elianto","#f73b6a7A","-1","-1","1","0","[]","0","2","","","5304","38","2","4","lose","no-go","0"
"pit-trial","158","1073849","0.0-43.0","battery-v0.2","","""event"",""trial"",""time""
""fullscreenenter"",""1"",""6741""
","
","
","""event"",""trial"",""time""
""fullscreenenter"",""1"",""6741""
","
","","","-1","","","24","5304","3081","n","elianto","#f73b6a7A","-1","-1","1","0","[]","0","2","","","5304","39","0","4","lose","no-go","0"
"pit-trial","159","1077890","0.0-44.0","battery-v0.2","","""event"",""trial"",""time""
""fullscreenenter"",""1"",""6741""
","
","
","""event"",""trial"",""time""
""fullscreenenter"",""1"",""6741""
","
","","","1186.7999999523163","","","24","5304","3081","b","elianto","#f73b6a7A"," "," ","1","0","[2038]","1","2","","","5304","40","3","3","lose","go","0"
"pit-trial","160","1082772","0.0-45.0","battery-v0.2","","""event"",""trial"",""time""
""fullscreenenter"",""1"",""6741""
","
","
","""event"",""trial"",""time""
""fullscreenenter"",""1"",""6741""
","
","","","-1","","","24","5304","3081","t","elianto","#f73b6a7A","-1","-1","1","0","[]","0","2","","","5304","41","2","4","lose","no-go","0"
"pit-trial","161","1086323","0.0-46.0","battery-v0.2","","""event"",""trial"",""time""
""fullscreenenter"",""1"",""6741""
","
","
","""event"",""trial"",""time""
""fullscreenenter"",""1"",""6741""
","
","","","691.5","","","24","5304","3081","f","elianto","#3366ff99"," "," ","1","+10","[1545.5999999046326]","1","2","","","5304","42","1","1","win","go","0"
"pit-trial","162","1090562","0.0-47.0","battery-v0.2","","""event"",""trial"",""time""
""fullscreenenter"",""1"",""6741""
","
","
","""event"",""trial"",""time""
""fullscreenenter"",""1"",""6741""
","
","","","1373.7999999523163","","","24","5304","3081","b","elianto","#f73b6a7A"," "," ","1","0","[2226.2999999523163]","1","2","","","5304","43","3","3","lose","go","0"
"pit-trial","163","1095436","0.0-48.0","battery-v0.2","","""event"",""trial"",""time""
""fullscreenenter"",""1"",""6741""
","
","
","""event"",""trial"",""time""
""fullscreenenter"",""1"",""6741""
","
","","","-1","","","24","5304","3081","n","elianto","#f73b6a7A","-1","-1","1","0","[]","0","2","","","5304","44","0","4","lose","no-go","0"
"pit-trial","164","1100305","0.0-49.0","battery-v0.2","","""event"",""trial"",""time""
""fullscreenenter"",""1"",""6741""
","
","
","""event"",""trial"",""time""
""fullscreenenter"",""1"",""6741""
","
","","","-1","","","24","5304","3081","t","elianto","#f73b6a7A","-1","-1","1","0","[]","0","2","","","5304","45","2","4","lose","no-go","0"
"pit-trial","165","1104611","0.0-50.0","battery-v0.2","","""event"",""trial"",""time""
""fullscreenenter"",""1"",""6741""
","
","
","""event"",""trial"",""time""
""fullscreenenter"",""1"",""6741""
","
","","","1444.2000000476837","","","24","5304","3081","c","elianto","#3366ff99","-1"," ","0","0","[2295.0999999046326]","1","2","","","5304","46","4","2","win","no-go","0"
"pit-trial","166","1109282","0.0-51.0","battery-v0.2","","""event"",""trial"",""time""
""fullscreenenter"",""1"",""6741""
","
","
","""event"",""trial"",""time""
""fullscreenenter"",""1"",""6741""
","
","","","1804.3000001907349","","","24","5304","3081","b","elianto","#f73b6a7A"," "," ","1","0","[2657.5999999046326]","1","2","","","5304","47","3","3","lose","go","0"
"pit-trial","167","1114154","0.0-52.0","battery-v0.2","","""event"",""trial"",""time""
""fullscreenenter"",""1"",""6741""
","
","
","""event"",""trial"",""time""
""fullscreenenter"",""1"",""6741""
","
","","","-1","","","24","5304","3081","n","elianto","#f73b6a7A","-1","-1","1","0","[]","0","2","","","5304","48","0","4","lose","no-go","0"
"pit-trial","168","1117858","0.0-53.0","battery-v0.2","","""event"",""trial"",""time""
""fullscreenenter"",""1"",""6741""
","
","
","""event"",""trial"",""time""
""fullscreenenter"",""1"",""6741""
","
","","","832.5999999046326","","","24","5304","3081","b","elianto","#f73b6a7A"," "," ","1","0","[1691]","1","2","","","5304","49","3","3","lose","go","0"
"pit-trial","169","1121674","0.0-54.0","battery-v0.2","","""event"",""trial"",""time""
""fullscreenenter"",""1"",""6741""
","
","
","""event"",""trial"",""time""
""fullscreenenter"",""1"",""6741""
","
","","","952.7000000476837","","","24","5304","3081","c","elianto","#3366ff99","-1"," ","0","+10","[1805]","1","2","","","5304","50","4","2","win","no-go","1"
"pit-trial","170","1126355","0.0-55.0","battery-v0.2","","""event"",""trial"",""time""
""fullscreenenter"",""1"",""6741""
","
","
","""event"",""trial"",""time""
""fullscreenenter"",""1"",""6741""
","
","","","1810.6999998092651","","","24","5304","3081","f","elianto","#3366ff99"," "," ","1","0","[2662.2999999523163]","1","2","","","5304","51","1","1","win","go","1"
"pit-trial","171","1131222","0.0-56.0","battery-v0.2","","""event"",""trial"",""time""
""fullscreenenter"",""1"",""6741""
","
","
","""event"",""trial"",""time""
""fullscreenenter"",""1"",""6741""
","
","","","-1","","","24","5304","3081","n","elianto","#f73b6a7A","-1","-1","1","-10","[]","0","2","","","5304","52","0","4","lose","no-go","1"
"pit-trial","172","1135382","0.0-57.0","battery-v0.2","","""event"",""trial"",""time""
""fullscreenenter"",""1"",""6741""
","
","
","""event"",""trial"",""time""
""fullscreenenter"",""1"",""6741""
","
","","","1297.3000001907349","","","24","5304","3081","f","elianto","#3366ff99"," "," ","1","+10","[2147.4000000953674]","1","2","","","5304","53","1","1","win","go","0"
"pit-trial","173","1140258","0.0-58.0","battery-v0.2","","""event"",""trial"",""time""
""fullscreenenter"",""1"",""6741""
","
","
","""event"",""trial"",""time""
""fullscreenenter"",""1"",""6741""
","
","","","-1","","","24","5304","3081","n","elianto","#f73b6a7A","-1","-1","1","0","[]","0","2","","","5304","54","0","4","lose","no-go","0"
"pit-trial","174","1144475","0.0-59.0","battery-v0.2","","""event"",""trial"",""time""
""fullscreenenter"",""1"",""6741""
","
","
","""event"",""trial"",""time""
""fullscreenenter"",""1"",""6741""
","
","","","1348.3999998569489","","","24","5304","3081","c","elianto","#3366ff99","-1"," ","0","0","[2202.2000000476837]","1","2","","","5304","55","4","2","win","no-go","0"
"pit-trial","175","1149337","0.0-60.0","battery-v0.2","","""event"",""trial"",""time""
""fullscreenenter"",""1"",""6741""
","
","
","""event"",""trial"",""time""
""fullscreenenter"",""1"",""6741""
","
","","","-1","","","24","5304","3081","t","elianto","#f73b6a7A","-1","-1","1","0","[]","0","2","","","5304","56","2","4","lose","no-go","0"
"pit-trial","176","1154201","0.0-61.0","battery-v0.2","","""event"",""trial"",""time""
""fullscreenenter"",""1"",""6741""
","
","
","""event"",""trial"",""time""
""fullscreenenter"",""1"",""6741""
","
","","","-1","","","24","5304","3081","n","elianto","#f73b6a7A","-1","-1","1","0","[]","0","2","","","5304","57","0","4","lose","no-go","0"
"pit-trial","177","1157919","0.0-62.0","battery-v0.2","","""event"",""trial"",""time""
""fullscreenenter"",""1"",""6741""
","
","
","""event"",""trial"",""time""
""fullscreenenter"",""1"",""6741""
","
","","","850.8999998569489","","","24","5304","3081","b","elianto","#f73b6a7A"," "," ","1","0","[1703.7999999523163]","1","2","","","5304","58","3","3","lose","go","0"
"pit-trial","178","1162789","0.0-63.0","battery-v0.2","","""event"",""trial"",""time""
""fullscreenenter"",""1"",""6741""
","
","
","""event"",""trial"",""time""
""fullscreenenter"",""1"",""6741""
","
","","","-1","","","24","5304","3081","c","elianto","#3366ff99","-1","-1","1","+10","[]","0","2","","","5304","59","4","2","win","no-go","0"
"pit-trial","179","1166491","0.0-64.0","battery-v0.2","","""event"",""trial"",""time""
""fullscreenenter"",""1"",""6741""
","
","
","""event"",""trial"",""time""
""fullscreenenter"",""1"",""6741""
","
","","","836.5999999046326","","","24","5304","3081","f","elianto","#3366ff99"," "," ","1","0","[1692.2000000476837]","1","2","","","5304","60","1","1","win","go","1"
"pit-trial","180","1171370","0.0-65.0","battery-v0.2","","""event"",""trial"",""time""
""fullscreenenter"",""1"",""6741""
","
","
","""event"",""trial"",""time""
""fullscreenenter"",""1"",""6741""
","
","","","-1","","","24","5304","3081","t","elianto","#f73b6a7A","-1","-1","1","0","[]","0","2","","","5304","61","2","4","lose","no-go","0"
"pit-trial","181","1176251","0.0-66.0","battery-v0.2","","""event"",""trial"",""time""
""fullscreenenter"",""1"",""6741""
","
","
","""event"",""trial"",""time""
""fullscreenenter"",""1"",""6741""
","
","","","-1","","","24","5304","3081","c","elianto","#3366ff99","-1","-1","1","+10","[]","0","2","","","5304","62","4","2","win","no-go","0"
"pit-trial","182","1180001","0.0-67.0","battery-v0.2","","""event"",""trial"",""time""
""fullscreenenter"",""1"",""6741""
","
","
","""event"",""trial"",""time""
""fullscreenenter"",""1"",""6741""
","
","","","881.2999999523163","","","24","5304","3081","b","elianto","#f73b6a7A"," "," ","1","0","[1741.6999998092651]","1","2","","","5304","63","3","3","lose","go","0"
"pit-trial","183","1183532","0.0-68.0","battery-v0.2","","""event"",""trial"",""time""
""fullscreenenter"",""1"",""6741""
","
","
","""event"",""trial"",""time""
""fullscreenenter"",""1"",""6741""
","
","","","663.2999999523163","","","24","5304","3081","f","elianto","#3366ff99"," "," ","1","+10","[1517.2000000476837]","1","2","","","5304","64","1","1","win","go","0"
"pit-trial","184","1188401","0.0-69.0","battery-v0.2","","""event"",""trial"",""time""
""fullscreenenter"",""1"",""6741""
","
","
","""event"",""trial"",""time""
""fullscreenenter"",""1"",""6741""
","
","","","-1","","","24","5304","3081","t","elianto","#f73b6a7A","-1","-1","1","0","[]","0","2","","","5304","65","2","4","lose","no-go","0"
"pit-trial","185","1193271","0.0-70.0","battery-v0.2","","""event"",""trial"",""time""
""fullscreenenter"",""1"",""6741""
","
","
","""event"",""trial"",""time""
""fullscreenenter"",""1"",""6741""
","
","","","-1","","","24","5304","3081","c","elianto","#3366ff99","-1","-1","1","0","[]","0","2","","","5304","66","4","2","win","no-go","1"
"pit-trial","186","1197377","0.0-71.0","battery-v0.2","","""event"",""trial"",""time""
""fullscreenenter"",""1"",""6741""
","
","
","""event"",""trial"",""time""
""fullscreenenter"",""1"",""6741""
","
","","","1245.7999999523163","","","24","5304","3081","b","elianto","#f73b6a7A"," "," ","1","0","[2098.9000000953674]","1","2","","","5304","67","3","3","lose","go","0"
"pit-trial","187","1200886","0.0-72.0","battery-v0.2","","""event"",""trial"",""time""
""fullscreenenter"",""1"",""6741""
","
","
","""event"",""trial"",""time""
""fullscreenenter"",""1"",""6741""
","
","","","643.1999998092651","","","24","5304","3081","f","elianto","#3366ff99"," "," ","1","+10","[1496]","1","2","","","5304","68","1","1","win","go","0"
"pit-trial","188","1205752","0.0-73.0","battery-v0.2","","""event"",""trial"",""time""
""fullscreenenter"",""1"",""6741""
","
","
","""event"",""trial"",""time""
""fullscreenenter"",""1"",""6741""
","
","","","-1","","","24","5304","3081","f","elianto","#3366ff99"," ","-1","0","0","[3522.5]","1","2","","","5304","69","1","1","win","go","0"
"pit-trial","189","1210223","0.0-74.0","battery-v0.2","","""event"",""trial"",""time""
""fullscreenenter"",""1"",""6741""
","
","
","""event"",""trial"",""time""
""fullscreenenter"",""1"",""6741""
","
","","","1603","","","24","5304","3081","z","elianto","#3366ff99"," "," ","1","0","[2458.600000143051]","1","2","","","5304","70","5","1","win","go","1"
"pit-trial","190","1213943","0.0-75.0","battery-v0.2","","""event"",""trial"",""time""
""fullscreenenter"",""1"",""6741""
","
","
","""event"",""trial"",""time""
""fullscreenenter"",""1"",""6741""
","
","","","848.6000001430511","","","24","5304","3081","c","elianto","#3366ff99","-1"," ","0","0","[1703.5]","1","2","","","5304","71","4","2","win","no-go","0"
"pit-trial","191","1218006","0.0-76.0","battery-v0.2","","""event"",""trial"",""time""
""fullscreenenter"",""1"",""6741""
","
","
","""event"",""trial"",""time""
""fullscreenenter"",""1"",""6741""
","
","","","1197.5","","","24","5304","3081","b","elianto","#f73b6a7A"," "," ","1","0","[2047.6999998092651]","1","2","","","5304","72","3","3","lose","go","0"
"pit-trial","192","1221748","0.0-77.0","battery-v0.2","","""event"",""trial"",""time""
""fullscreenenter"",""1"",""6741""
","
","
","""event"",""trial"",""time""
""fullscreenenter"",""1"",""6741""
","
","","","873.3999998569489","","","24","5304","3081","f","elianto","#3366ff99"," "," ","1","+10","[1725.8999998569489]","1","2","","","5304","73","1","1","win","go","0"
"pit-trial","193","1225828","0.0-78.0","battery-v0.2","","""event"",""trial"",""time""
""fullscreenenter"",""1"",""6741""
","
","
","""event"",""trial"",""time""
""fullscreenenter"",""1"",""6741""
","
","","","1215.3999998569489","","","24","5304","3081","b","elianto","#f73b6a7A"," "," ","1","0","[2072.2000000476837]","1","2","","","5304","74","3","3","lose","go","0"
"pit-trial","194","1230702","0.0-79.0","battery-v0.2","","""event"",""trial"",""time""
""fullscreenenter"",""1"",""6741""
","
","
","""event"",""trial"",""time""
""fullscreenenter"",""1"",""6741""
","
","","","-1","","","24","5304","3081","c","elianto","#3366ff99","-1","-1","1","0","[]","0","2","","","5304","75","4","2","win","no-go","1"
"pit-trial","195","1235579","0.0-80.0","battery-v0.2","","""event"",""trial"",""time""
""fullscreenenter"",""1"",""6741""
","
","
","""event"",""trial"",""time""
""fullscreenenter"",""1"",""6741""
","
","","","-1","","","24","5304","3081","z","elianto","#3366ff99"," ","-1","0","0","[]","0","2","","","5304","76","5","1","win","go","0"
"pit-trial","196","1240448","0.0-81.0","battery-v0.2","","""event"",""trial"",""time""
""fullscreenenter"",""1"",""6741""
","
","
","""event"",""trial"",""time""
""fullscreenenter"",""1"",""6741""
","
","","","-1","","","24","5304","3081","c","elianto","#3366ff99","-1","-1","1","0","[]","0","2","","","5304","77","4","2","win","no-go","1"
"pit-trial","197","1245319","0.0-82.0","battery-v0.2","","""event"",""trial"",""time""
""fullscreenenter"",""1"",""6741""
","
","
","""event"",""trial"",""time""
""fullscreenenter"",""1"",""6741""
","
","","","-1","","","24","5304","3081","h","elianto","#f73b6a7A","-1","-1","1","0","[]","0","2","","","5304","78","6","4","lose","no-go","0"
"pit-trial","198","1249846","0.0-83.0","battery-v0.2","","""event"",""trial"",""time""
""fullscreenenter"",""1"",""6741""
","
","
","""event"",""trial"",""time""
""fullscreenenter"",""1"",""6741""
","
","","","1667.9000000953674","","","24","5304","3081","z","elianto","#3366ff99"," "," ","1","0","[2524.2999999523163]","1","2","","","5304","79","5","1","win","go","1"
"pit-trial","199","1253739","0.0-84.0","battery-v0.2","","""event"",""trial"",""time""
""fullscreenenter"",""1"",""6741""
","
","
","""event"",""trial"",""time""
""fullscreenenter"",""1"",""6741""
","
","","","1032","","","24","5304","3081","b","elianto","#f73b6a7A"," "," ","1","0","[1882.6000001430511]","1","2","","","5304","80","3","3","lose","go","0"
"pit-trial","200","1257680","0.0-85.0","battery-v0.2","","""event"",""trial"",""time""
""fullscreenenter"",""1"",""6741""
","
","
","""event"",""trial"",""time""
""fullscreenenter"",""1"",""6741""
","
","","","1073.7999999523163","","","24","5304","3081","z","elianto","#3366ff99"," "," ","1","+10","[1926.4000000953674]","1","2","","","5304","81","5","1","win","go","0"
"pit-trial","201","1262557","0.0-86.0","battery-v0.2","","""event"",""trial"",""time""
""fullscreenenter"",""1"",""6741""
","
","
","""event"",""trial"",""time""
""fullscreenenter"",""1"",""6741""
","
","","","-1","","","24","5304","3081","c","elianto","#3366ff99","-1","-1","1","+10","[]","0","2","","","5304","82","4","2","win","no-go","0"
"pit-trial","202","1267427","0.0-87.0","battery-v0.2","","""event"",""trial"",""time""
""fullscreenenter"",""1"",""6741""
","
","
","""event"",""trial"",""time""
""fullscreenenter"",""1"",""6741""
","
","","","-1","","","24","5304","3081","h","elianto","#f73b6a7A","-1","-1","1","0","[]","0","2","","","5304","83","6","4","lose","no-go","0"
"pit-trial","203","1271460","0.0-88.0","battery-v0.2","","""event"",""trial"",""time""
""fullscreenenter"",""1"",""6741""
","
","
","""event"",""trial"",""time""
""fullscreenenter"",""1"",""6741""
","
","","","1164.7000000476837","","","24","5304","3081","y","elianto","#f73b6a7A"," "," ","1","0","[2018.8999998569489]","1","2","","","5304","84","7","3","lose","go","0"
"pit-trial","204","1276284","0.0-89.0","battery-v0.2","","""event"",""trial"",""time""
""fullscreenenter"",""1"",""6741""
","
","
","""event"",""trial"",""time""
""fullscreenenter"",""1"",""6741""
","
","","","1958.5","","","24","5304","3081","z","elianto","#3366ff99"," "," ","1","+10","[2811.399999856949]","1","2","","","5304","85","5","1","win","go","0"
"pit-trial","205","1281155","0.0-90.0","battery-v0.2","","""event"",""trial"",""time""
""fullscreenenter"",""1"",""6741""
","
","
","""event"",""trial"",""time""
""fullscreenenter"",""1"",""6741""
","
","","","-1","","","24","5304","3081","y","elianto","#f73b6a7A"," ","-1","0","-10","[2991.399999856949]","1","2","","","5304","86","7","3","lose","go","0"
"pit-trial","206","1286026","0.0-91.0","battery-v0.2","","""event"",""trial"",""time""
""fullscreenenter"",""1"",""6741""
","
","
","""event"",""trial"",""time""
""fullscreenenter"",""1"",""6741""
","
","","","-1","","","24","5304","3081","h","elianto","#f73b6a7A","-1","-1","1","0","[]","0","2","","","5304","87","6","4","lose","no-go","0"
"pit-trial","207","1290899","0.0-92.0","battery-v0.2","","""event"",""trial"",""time""
""fullscreenenter"",""1"",""6741""
","
","
","""event"",""trial"",""time""
""fullscreenenter"",""1"",""6741""
","
","","","-1","","","24","5304","3081","c","elianto","#3366ff99","-1","-1","1","0","[]","0","2","","","5304","88","4","2","win","no-go","1"
"pit-trial","208","1295773","0.0-93.0","battery-v0.2","","""event"",""trial"",""time""
""fullscreenenter"",""1"",""6741""
","
","
","""event"",""trial"",""time""
""fullscreenenter"",""1"",""6741""
","
","","","-1","","","24","5304","3081","h","elianto","#f73b6a7A","-1","-1","1","0","[]","0","2","","","5304","89","6","4","lose","no-go","0"
"pit-trial","209","1300235","0.0-94.0","battery-v0.2","","""event"",""trial"",""time""
""fullscreenenter"",""1"",""6741""
","
","
","""event"",""trial"",""time""
""fullscreenenter"",""1"",""6741""
","
","","","1602.2999999523163","","","24","5304","3081","z","elianto","#3366ff99"," "," ","1","+10","[2454.4000000953674]","1","2","","","5304","90","5","1","win","go","0"
"pit-trial","210","1304526","0.0-95.0","battery-v0.2","","""event"",""trial"",""time""
""fullscreenenter"",""1"",""6741""
","
","
","""event"",""trial"",""time""
""fullscreenenter"",""1"",""6741""
","
","","","1427.7000000476837","","","24","5304","3081","y","elianto","#f73b6a7A"," "," ","1","0","[2279]","1","2","","","5304","91","7","3","lose","go","0"
"pit-trial","211","1308048","0.0-96.0","battery-v0.2","","""event"",""trial"",""time""
""fullscreenenter"",""1"",""6741""
","
","
","""event"",""trial"",""time""
""fullscreenenter"",""1"",""6741""
","
","","","641.2999999523163","","","24","5304","3081","c","elianto","#3366ff99","-1"," ","0","0","[1501.2000000476837]","1","2","","","5304","92","4","2","win","no-go","0"
"pit-trial","212","1312914","0.0-97.0","battery-v0.2","","""event"",""trial"",""time""
""fullscreenenter"",""1"",""6741""
","
","
","""event"",""trial"",""time""
""fullscreenenter"",""1"",""6741""
","
","","","-1","","","24","5304","3081","r","elianto","#3366ff99","-1","-1","1","+10","[]","0","2","","","5304","93","8","2","win","no-go","0"
"pit-trial","213","1317792","0.0-98.0","battery-v0.2","","""event"",""trial"",""time""
""fullscreenenter"",""1"",""6741""
","
","
","""event"",""trial"",""time""
""fullscreenenter"",""1"",""6741""
","
","","","-1","","","24","5304","3081","z","elianto","#3366ff99"," ","-1","0","0","[3082.7999999523163]","1","2","","","5304","94","5","1","win","go","0"
"pit-trial","214","1322671","0.0-99.0","battery-v0.2","","""event"",""trial"",""time""
""fullscreenenter"",""1"",""6741""
","
","
","""event"",""trial"",""time""
""fullscreenenter"",""1"",""6741""
","
","","","-1","","","24","5304","3081","h","elianto","#f73b6a7A","-1","-1","1","0","[]","0","2","","","5304","95","6","4","lose","no-go","0"
"pit-trial","215","1327153","0.0-100.0","battery-v0.2","","""event"",""trial"",""time""
""fullscreenenter"",""1"",""6741""
","
","
","""event"",""trial"",""time""
""fullscreenenter"",""1"",""6741""
","
","","","1610","","","24","5304","3081","y","elianto","#f73b6a7A"," "," ","1","0","[2466.7000000476837]","1","2","","","5304","96","7","3","lose","go","0"
"pit-trial","216","1331753","0.0-101.0","battery-v0.2","","""event"",""trial"",""time""
""fullscreenenter"",""1"",""6741""
","
","
","""event"",""trial"",""time""
""fullscreenenter"",""1"",""6741""
","
","","","1730.7999999523163","","","24","5304","3081","r","elianto","#3366ff99","-1"," ","0","+10","[2584.399999856949]","1","2","","","5304","97","8","2","win","no-go","1"
"pit-trial","217","1336418","0.0-102.0","battery-v0.2","","""event"",""trial"",""time""
""fullscreenenter"",""1"",""6741""
","
","
","""event"",""trial"",""time""
""fullscreenenter"",""1"",""6741""
","
","","","1796.3999998569489","","","24","5304","3081","z","elianto","#3366ff99"," "," ","1","+10","[2649.399999856949]","1","2","","","5304","98","5","1","win","go","0"
"pit-trial","218","1341284","0.0-103.0","battery-v0.2","","""event"",""trial"",""time""
""fullscreenenter"",""1"",""6741""
","
","
","""event"",""trial"",""time""
""fullscreenenter"",""1"",""6741""
","
","","","-1","","","24","5304","3081","h","elianto","#f73b6a7A","-1","-1","1","0","[]","0","2","","","5304","99","6","4","lose","no-go","0"
"pit-trial","219","1346147","0.0-104.0","battery-v0.2","","""event"",""trial"",""time""
""fullscreenenter"",""1"",""6741""
","
","
","""event"",""trial"",""time""
""fullscreenenter"",""1"",""6741""
","
","","","-1","","","24","5304","3081","y","elianto","#f73b6a7A"," ","-1","0","-10","[2952.7000000476837]","1","2","","","5304","100","7","3","lose","go","0"
"pit-trial","220","1351017","0.0-105.0","battery-v0.2","","""event"",""trial"",""time""
""fullscreenenter"",""1"",""6741""
","
","
","""event"",""trial"",""time""
""fullscreenenter"",""1"",""6741""
","
","","","-1","","","24","5304","3081","m","elianto","#3366ff99","-1","-1","1","+10","[]","0","2","","","5304","101","9","2","win","no-go","0"
"pit-trial","221","1355895","0.0-106.0","battery-v0.2","","""event"",""trial"",""time""
""fullscreenenter"",""1"",""6741""
","
","
","""event"",""trial"",""time""
""fullscreenenter"",""1"",""6741""
","
","","","-1","","","24","5304","3081","h","elianto","#f73b6a7A","-1","-1","1","0","[]","0","2","","","5304","102","6","4","lose","no-go","0"
"pit-trial","222","1359973","0.0-107.0","battery-v0.2","","""event"",""trial"",""time""
""fullscreenenter"",""1"",""6741""
","
","
","""event"",""trial"",""time""
""fullscreenenter"",""1"",""6741""
","
","","","1217.9000000953674","","","24","5304","3081","z","elianto","#3366ff99"," "," ","1","+10","[2069.300000190735]","1","2","","","5304","103","5","1","win","go","0"
"pit-trial","223","1364848","0.0-108.0","battery-v0.2","","""event"",""trial"",""time""
""fullscreenenter"",""1"",""6741""
","
","
","""event"",""trial"",""time""
""fullscreenenter"",""1"",""6741""
","
","","","-1","","","24","5304","3081","r","elianto","#3366ff99","-1","-1","1","+10","[]","0","2","","","5304","104","8","2","win","no-go","0"
"pit-trial","224","1369716","0.0-109.0","battery-v0.2","","""event"",""trial"",""time""
""fullscreenenter"",""1"",""6741""
","
","
","""event"",""trial"",""time""
""fullscreenenter"",""1"",""6741""
","
","","","-1","","","24","5304","3081","h","elianto","#f73b6a7A","-1","-1","1","0","[]","0","2","","","5304","105","6","4","lose","no-go","0"
"pit-trial","225","1374539","0.0-110.0","battery-v0.2","","""event"",""trial"",""time""
""fullscreenenter"",""1"",""6741""
","
","
","""event"",""trial"",""time""
""fullscreenenter"",""1"",""6741""
","
","","","1951.7000000476837","","","24","5304","3081","z","elianto","#3366ff99"," "," ","1","+10","[2805.2000000476837]","1","2","","","5304","106","5","1","win","go","0"
"pit-trial","226","1379404","0.0-111.0","battery-v0.2","","""event"",""trial"",""time""
""fullscreenenter"",""1"",""6741""
","
","
","""event"",""trial"",""time""
""fullscreenenter"",""1"",""6741""
","
","","","-1","","","24","5304","3081","r","elianto","#3366ff99","-1","-1","1","0","[]","0","2","","","5304","107","8","2","win","no-go","1"
"pit-trial","227","1384271","0.0-112.0","battery-v0.2","","""event"",""trial"",""time""
""fullscreenenter"",""1"",""6741""
","
","
","""event"",""trial"",""time""
""fullscreenenter"",""1"",""6741""
","
","","","-1","","","24","5304","3081","m","elianto","#3366ff99","-1","-1","1","+10","[]","0","2","","","5304","108","9","2","win","no-go","0"
"pit-trial","228","1388892","0.0-113.0","battery-v0.2","","""event"",""trial"",""time""
""fullscreenenter"",""1"",""6741""
","
","
","""event"",""trial"",""time""
""fullscreenenter"",""1"",""6741""
","
","","","1752.1999998092651","","","24","5304","3081","z","elianto","#3366ff99"," "," ","1","+10","[2610.2999999523163]","1","2","","","5304","109","5","1","win","go","0"
"pit-trial","229","1393764","0.0-114.0","battery-v0.2","","""event"",""trial"",""time""
""fullscreenenter"",""1"",""6741""
","
","
","""event"",""trial"",""time""
""fullscreenenter"",""1"",""6741""
","
","","","-1","","","24","5304","3081","m","elianto","#3366ff99","-1","-1","1","0","[]","0","2","","","5304","110","9","2","win","no-go","1"
"pit-trial","230","1398650","0.0-115.0","battery-v0.2","","""event"",""trial"",""time""
""fullscreenenter"",""1"",""6741""
","
","
","""event"",""trial"",""time""
""fullscreenenter"",""1"",""6741""
","
","","","-1","","","24","5304","3081","r","elianto","#3366ff99","-1","-1","1","+10","[]","0","2","","","5304","111","8","2","win","no-go","0"
"pit-trial","231","1403513","0.0-116.0","battery-v0.2","","""event"",""trial"",""time""
""fullscreenenter"",""1"",""6741""
","
","
","""event"",""trial"",""time""
""fullscreenenter"",""1"",""6741""
","
","","","-1","","","24","5304","3081","h","elianto","#f73b6a7A","-1","-1","1","0","[]","0","2","","","5304","112","6","4","lose","no-go","0"
"pit-trial","232","1407572","0.0-117.0","battery-v0.2","","""event"",""trial"",""time""
""fullscreenenter"",""1"",""6741""
","
","
","""event"",""trial"",""time""
""fullscreenenter"",""1"",""6741""
","
","","","1195.5999999046326","","","24","5304","3081","y","elianto","#f73b6a7A"," "," ","1","0","[2052]","1","2","","","5304","113","7","3","lose","go","0"
"pit-trial","233","1412435","0.0-118.0","battery-v0.2","","""event"",""trial"",""time""
""fullscreenenter"",""1"",""6741""
","
","
","""event"",""trial"",""time""
""fullscreenenter"",""1"",""6741""
","
","","","-1","","","24","5304","3081","r","elianto","#3366ff99","-1","-1","1","+10","[]","0","2","","","5304","114","8","2","win","no-go","0"
"pit-trial","234","1417303","0.0-119.0","battery-v0.2","","""event"",""trial"",""time""
""fullscreenenter"",""1"",""6741""
","
","
","""event"",""trial"",""time""
""fullscreenenter"",""1"",""6741""
","
","","","-1","","","24","5304","3081","m","elianto","#3366ff99","-1","-1","1","+10","[]","0","2","","","5304","115","9","2","win","no-go","0"
"pit-trial","235","1421530","0.0-120.0","battery-v0.2","","""event"",""trial"",""time""
""fullscreenenter"",""1"",""6741""
","
","
","""event"",""trial"",""time""
""fullscreenenter"",""1"",""6741""
","
","","","1351.9000000953674","","","24","5304","3081","z","elianto","#3366ff99"," "," ","1","+10","[2211.2999999523163]","1","2","","","5304","116","5","1","win","go","0"
"pit-trial","236","1425623","0.0-121.0","battery-v0.2","","""event"",""trial"",""time""
""fullscreenenter"",""1"",""6741""
","
","
","""event"",""trial"",""time""
""fullscreenenter"",""1"",""6741""
","
","","","1234.1999998092651","","","24","5304","3081","z","elianto","#3366ff99"," "," ","1","+10","[2085.0999999046326]","1","2","","","5304","117","5","1","win","go","0"
"pit-trial","237","1430493","0.0-122.0","battery-v0.2","","""event"",""trial"",""time""
""fullscreenenter"",""1"",""6741""
","
","
","""event"",""trial"",""time""
""fullscreenenter"",""1"",""6741""
","
","","","-1","","","24","5304","3081","r","elianto","#3366ff99","-1","-1","1","+10","[]","0","2","","","5304","118","8","2","win","no-go","0"
"pit-trial","238","1435364","0.0-123.0","battery-v0.2","","""event"",""trial"",""time""
""fullscreenenter"",""1"",""6741""
","
","
","""event"",""trial"",""time""
""fullscreenenter"",""1"",""6741""
","
","","","-1","","","24","5304","3081","m","elianto","#3366ff99","-1","-1","1","+10","[]","0","2","","","5304","119","9","2","win","no-go","0"
"pit-trial","239","1440247","0.0-124.0","battery-v0.2","","""event"",""trial"",""time""
""fullscreenenter"",""1"",""6741""
","
","
","""event"",""trial"",""time""
""fullscreenenter"",""1"",""6741""
","
","","","-1","","","24","5304","3081","h","elianto","#f73b6a7A","-1","-1","1","0","[]","0","2","","","5304","120","6","4","lose","no-go","0"
"pit-trial","240","1445126","0.0-125.0","battery-v0.2","","""event"",""trial"",""time""
""fullscreenenter"",""1"",""6741""
","
","
","""event"",""trial"",""time""
""fullscreenenter"",""1"",""6741""
","
","","","-1","","","24","5304","3081","m","elianto","#3366ff99","-1","-1","1","+10","[]","0","2","","","5304","121","9","2","win","no-go","0"
"pit-trial","241","1448965","0.0-126.0","battery-v0.2","","""event"",""trial"",""time""
""fullscreenenter"",""1"",""6741""
","
","
","""event"",""trial"",""time""
""fullscreenenter"",""1"",""6741""
","
","","","959.7999999523163","","","24","5304","3081","z","elianto","#3366ff99"," "," ","1","+10","[1816.2999999523163]","1","2","","","5304","122","5","1","win","go","0"
"pit-trial","242","1453167","0.0-127.0","battery-v0.2","","""event"",""trial"",""time""
""fullscreenenter"",""1"",""6741""
","
","
","""event"",""trial"",""time""
""fullscreenenter"",""1"",""6741""
","
","","","1333.6000001430511","","","24","5304","3081","y","elianto","#f73b6a7A"," "," ","1","0","[2184.2000000476837]","1","2","","","5304","123","7","3","lose","go","0"
"pit-trial","243","1457463","0.0-128.0","battery-v0.2","","""event"",""trial"",""time""
""fullscreenenter"",""1"",""6741""
","
","
","""event"",""trial"",""time""
""fullscreenenter"",""1"",""6741""
","
","","","1422.2999999523163","","","24","5304","3081","r","elianto","#3366ff99","-1"," ","0","+10","[2284.9000000953674]","1","2","","","5304","124","8","2","win","no-go","1"
"pit-trial","244","1462343","0.0-129.0","battery-v0.2","","""event"",""trial"",""time""
""fullscreenenter"",""1"",""6741""
","
","
","""event"",""trial"",""time""
""fullscreenenter"",""1"",""6741""
","
","","","-1","","","24","5304","3081","h","elianto","#f73b6a7A","-1","-1","1","0","[]","0","2","","","5304","125","6","4","lose","no-go","0"
"pit-trial","245","1467214","0.0-130.0","battery-v0.2","","""event"",""trial"",""time""
""fullscreenenter"",""1"",""6741""
","
","
","""event"",""trial"",""time""
""fullscreenenter"",""1"",""6741""
","
","","","-1","","","24","5304","3081","r","elianto","#3366ff99","-1","-1","1","+10","[]","0","2","","","5304","126","8","2","win","no-go","0"
"pit-trial","246","1472084","0.0-131.0","battery-v0.2","","""event"",""trial"",""time""
""fullscreenenter"",""1"",""6741""
","
","
","""event"",""trial"",""time""
""fullscreenenter"",""1"",""6741""
","
","","","-1","","","24","5304","3081","m","elianto","#3366ff99","-1","-1","1","+10","[]","0","2","","","5304","127","9","2","win","no-go","0"
"pit-trial","247","1476141","0.0-132.0","battery-v0.2","","""event"",""trial"",""time""
""fullscreenenter"",""1"",""6741""
","
","
","""event"",""trial"",""time""
""fullscreenenter"",""1"",""6741""
","
","","","1197.2999999523163","","","24","5304","3081","y","elianto","#f73b6a7A"," "," ","1","0","[2049.5]","1","2","","","5304","128","7","3","lose","go","0"
"pit-trial","248","1481005","0.0-133.0","battery-v0.2","","""event"",""trial"",""time""
""fullscreenenter"",""1"",""6741""
","
","
","""event"",""trial"",""time""
""fullscreenenter"",""1"",""6741""
","
","","","-1","","","24","5304","3081","r","elianto","#3366ff99","-1","-1","1","+10","[]","0","2","","","5304","129","8","2","win","no-go","0"
"pit-trial","249","1485884","0.0-134.0","battery-v0.2","","""event"",""trial"",""time""
""fullscreenenter"",""1"",""6741""
","
","
","""event"",""trial"",""time""
""fullscreenenter"",""1"",""6741""
","
","","","-1","","","24","5304","3081","h","elianto","#f73b6a7A","-1","-1","1","0","[]","0","2","","","5304","130","6","4","lose","no-go","0"
"pit-trial","250","1489775","0.0-135.0","battery-v0.2","","""event"",""trial"",""time""
""fullscreenenter"",""1"",""6741""
","
","
","""event"",""trial"",""time""
""fullscreenenter"",""1"",""6741""
","
","","","1019.6000001430511","","","24","5304","3081","y","elianto","#f73b6a7A"," "," ","1","0","[1880.5]","1","2","","","5304","131","7","3","lose","go","0"
"pit-trial","251","1494653","0.0-136.0","battery-v0.2","","""event"",""trial"",""time""
""fullscreenenter"",""1"",""6741""
","
","
","""event"",""trial"",""time""
""fullscreenenter"",""1"",""6741""
","
","","","-1","","","24","5304","3081","m","elianto","#3366ff99","-1","-1","1","+10","[]","0","2","","","5304","132","9","2","win","no-go","0"
"pit-trial","252","1499524","0.0-137.0","battery-v0.2","","""event"",""trial"",""time""
""fullscreenenter"",""1"",""6741""
","
","
","""event"",""trial"",""time""
""fullscreenenter"",""1"",""6741""
","
","","","-1","","","24","5304","3081","h","elianto","#f73b6a7A","-1","-1","1","0","[]","0","2","","","5304","133","6","4","lose","no-go","0"
"pit-trial","253","1504396","0.0-138.0","battery-v0.2","","""event"",""trial"",""time""
""fullscreenenter"",""1"",""6741""
","
","
","""event"",""trial"",""time""
""fullscreenenter"",""1"",""6741""
","
","","","-1","","","24","5304","3081","m","elianto","#3366ff99","-1","-1","1","+10","[]","0","2","","","5304","134","9","2","win","no-go","0"
"pit-trial","254","1509262","0.0-139.0","battery-v0.2","","""event"",""trial"",""time""
""fullscreenenter"",""1"",""6741""
","
","
","""event"",""trial"",""time""
""fullscreenenter"",""1"",""6741""
","
","","","-1","","","24","5304","3081","r","elianto","#3366ff99","-1","-1","1","+10","[]","0","2","","","5304","135","8","2","win","no-go","0"
"pit-trial","255","1513124","0.0-140.0","battery-v0.2","","""event"",""trial"",""time""
""fullscreenenter"",""1"",""6741""
","
","
","""event"",""trial"",""time""
""fullscreenenter"",""1"",""6741""
","
","","","985.0999999046326","","","24","5304","3081","y","elianto","#f73b6a7A"," "," ","1","-10","[1845.2999999523163]","1","2","","","5304","136","7","3","lose","go","1"
"pit-trial","256","1517995","0.0-141.0","battery-v0.2","","""event"",""trial"",""time""
""fullscreenenter"",""1"",""6741""
","
","
","""event"",""trial"",""time""
""fullscreenenter"",""1"",""6741""
","
","","","-1","","","24","5304","3081","r","elianto","#3366ff99","-1","-1","1","+10","[]","0","2","","","5304","137","8","2","win","no-go","0"
"pit-trial","257","1522862","0.0-142.0","battery-v0.2","","""event"",""trial"",""time""
""fullscreenenter"",""1"",""6741""
","
","
","""event"",""trial"",""time""
""fullscreenenter"",""1"",""6741""
","
","","","-1","","","24","5304","3081","m","elianto","#3366ff99","-1","-1","1","+10","[]","0","2","","","5304","138","9","2","win","no-go","0"
"pit-trial","258","1526743","0.0-143.0","battery-v0.2","","""event"",""trial"",""time""
""fullscreenenter"",""1"",""6741""
","
","
","""event"",""trial"",""time""
""fullscreenenter"",""1"",""6741""
","
","","","1012.6000001430511","","","24","5304","3081","y","elianto","#f73b6a7A"," "," ","1","0","[1864.2999999523163]","1","2","","","5304","139","7","3","lose","go","0"
"pit-trial","259","1531614","0.0-144.0","battery-v0.2","","""event"",""trial"",""time""
""fullscreenenter"",""1"",""6741""
","
","
","""event"",""trial"",""time""
""fullscreenenter"",""1"",""6741""
","
","","","-1","","","24","5304","3081","h","elianto","#f73b6a7A","-1","-1","1","-10","[]","0","2","","","5304","140","6","4","lose","no-go","1"
"pit-instructions","260","1555876","0.0-145.0","battery-v0.2","","""event"",""trial"",""time""
""fullscreenenter"",""1"",""6741""
","
","
","""event"",""trial"",""time""
""fullscreenenter"",""1"",""6741""
","
","","[{""page_index"":0,""viewing_time"":13045.400000095367},{""page_index"":1,""viewing_time"":11213.5}]","24259.299999952316","","","","","","","","","","","","","","","","","","","","","","","",""
"pit-trial","261","1560749","0.0-146.0","battery-v0.2","","""event"",""trial"",""time""
""fullscreenenter"",""1"",""6741""
","
","
","""event"",""trial"",""time""
""fullscreenenter"",""1"",""6741""
","
","","","-1","","","24","5304","3081","e","elianto","#f73b6a7A"," ","-1","0","-10","[]","0","3","","","5304","141","2","3","lose","go","0"
"pit-trial","262","1565539","0.0-147.0","battery-v0.2","","""event"",""trial"",""time""
""fullscreenenter"",""1"",""6741""
","
","
","""event"",""trial"",""time""
""fullscreenenter"",""1"",""6741""
","
","","","1907.2000000476837","","","24","5304","3081","j","elianto","#f73b6a7A"," "," ","1","0","[2766.800000190735]","1","3","","","5304","142","0","3","lose","go","0"
"pit-trial","263","1570418","0.0-148.0","battery-v0.2","","""event"",""trial"",""time""
""fullscreenenter"",""1"",""6741""
","
","
","""event"",""trial"",""time""
""fullscreenenter"",""1"",""6741""
","
","","","-1","","","24","5304","3081","w","elianto","#f73b6a7A","-1","-1","1","-10","[]","0","3","","","5304","143","3","4","lose","no-go","1"
"pit-trial","264","1574625","0.0-149.0","battery-v0.2","","""event"",""trial"",""time""
""fullscreenenter"",""1"",""6741""
","
","
","""event"",""trial"",""time""
""fullscreenenter"",""1"",""6741""
","
","","","1327.6000001430511","","","24","5304","3081","d","elianto","#3366ff99","-1"," ","0","0","[2181.9000000953674]","1","3","","","5304","144","1","2","win","no-go","0"
"pit-trial","265","1579498","0.0-150.0","battery-v0.2","","""event"",""trial"",""time""
""fullscreenenter"",""1"",""6741""
","
","
","""event"",""trial"",""time""
""fullscreenenter"",""1"",""6741""
","
","","","-1","","","24","5304","3081","d","elianto","#3366ff99","-1","-1","1","+10","[]","0","3","","","5304","145","1","2","win","no-go","0"
"pit-trial","266","1583913","0.0-151.0","battery-v0.2","","""event"",""trial"",""time""
""fullscreenenter"",""1"",""6741""
","
","
","""event"",""trial"",""time""
""fullscreenenter"",""1"",""6741""
","
","","","1542.9000000953674","","","24","5304","3081","e","elianto","#f73b6a7A"," "," ","1","0","[2395.5]","1","3","","","5304","146","2","3","lose","go","0"
"pit-trial","267","1588291","0.0-152.0","battery-v0.2","","""event"",""trial"",""time""
""fullscreenenter"",""1"",""6741""
","
","
","""event"",""trial"",""time""
""fullscreenenter"",""1"",""6741""
","
","","","1506.8000001907349","","","24","5304","3081","j","elianto","#f73b6a7A"," "," ","1","-10","[2358.300000190735]","1","3","","","5304","147","0","3","lose","go","1"
"pit-trial","268","1593072","0.0-153.0","battery-v0.2","","""event"",""trial"",""time""
