"trial_type","trial_index","time_elapsed","internal_node_id","task_version","subject_id","interactions","blur_events","focus_events","fullscreenenter_events","fullscreenexit_events","success","view_history","rt","responses","num_errors","age","subject","participantId","rune","rune_set","hex","correct","choice","accuracy","outcome","keys","total_keys","block","practice","value","sub","trial","stimulus","robot","valence","action","sham"
"pavlovia","0","10","0.0-0.0","battery-v0.2","","""event"",""trial"",""time""
""fullscreenenter"",""1"",""2021""
","
","
","""event"",""trial"",""time""
""fullscreenenter"",""1"",""2021""
","
","","","","","","","","","","","","","","","","","","","","","","","","","","",""
"fullscreen","1","2975","0.0-1.0","battery-v0.2","","""event"",""trial"",""time""
""fullscreenenter"",""1"",""2021""
""blur"",""2"",""8581""
""focus"",""2"",""15026""
""blur"",""2"",""29563""
""focus"",""2"",""45257""
","""event"",""trial"",""time""
""blur"",""2"",""8581""
""blur"",""2"",""29563""
","""event"",""trial"",""time""
""focus"",""2"",""15026""
""focus"",""2"",""45257""
","""event"",""trial"",""time""
""fullscreenenter"",""1"",""2021""
","
","true","","","","","","","","","","","","","","","","","","","","","","","","","",""
"pit-instructions","2","45328","0.0-2.0-0.0","battery-v0.2","","""event"",""trial"",""time""
""fullscreenenter"",""1"",""2021""
""blur"",""2"",""8581""
""focus"",""2"",""15026""
""blur"",""2"",""29563""
""focus"",""2"",""45257""
","""event"",""trial"",""time""
""blur"",""2"",""8581""
""blur"",""2"",""29563""
","""event"",""trial"",""time""
""focus"",""2"",""15026""
""focus"",""2"",""45257""
","""event"",""trial"",""time""
""fullscreenenter"",""1"",""2021""
","
","","[{""page_index"":0,""viewing_time"":42349.30000001192}]","42349.80000001192","","","","","","","","","","","","","","","","","","","","","","","",""
"pit-comprehension","3","100149","0.0-2.0-1.0-0.0","battery-v0.2","","""event"",""trial"",""time""
""fullscreenenter"",""1"",""2021""
""blur"",""2"",""8581""
""focus"",""2"",""15026""
""blur"",""2"",""29563""
""focus"",""2"",""45257""
","""event"",""trial"",""time""
""blur"",""2"",""8581""
""blur"",""2"",""29563""
","""event"",""trial"",""time""
""focus"",""2"",""15026""
""focus"",""2"",""45257""
","""event"",""trial"",""time""
""fullscreenenter"",""1"",""2021""
","
","","","54817.70000001788","[""shark""]","0","23","10839","5196","","","","","","","","","","","","","","","","","","",""
"pit-instructions","4","104898","0.0-2.0-1.0-1.0","battery-v0.2","","""event"",""trial"",""time""
""fullscreenenter"",""1"",""2021""
""blur"",""2"",""8581""
""focus"",""2"",""15026""
""blur"",""2"",""29563""
""focus"",""2"",""45257""
","""event"",""trial"",""time""
""blur"",""2"",""8581""
""blur"",""2"",""29563""
","""event"",""trial"",""time""
""focus"",""2"",""15026""
""focus"",""2"",""45257""
","""event"",""trial"",""time""
""fullscreenenter"",""1"",""2021""
","
","","[{""page_index"":0,""viewing_time"":4731.5}]","4731.9000000059605","","","","","","","","","","","","","","","","","","","","","","","",""
"pit-comprehension","5","106848","0.0-2.0-2.0-0.0","battery-v0.2","","""event"",""trial"",""time""
""fullscreenenter"",""1"",""2021""
""blur"",""2"",""8581""
""focus"",""2"",""15026""
""blur"",""2"",""29563""
""focus"",""2"",""45257""
","""event"",""trial"",""time""
""blur"",""2"",""8581""
""blur"",""2"",""29563""
","""event"",""trial"",""time""
""focus"",""2"",""15026""
""focus"",""2"",""45257""
","""event"",""trial"",""time""
""fullscreenenter"",""1"",""2021""
","
","","","1946.0999999940395","[""tiger""]","0","23","10839","5196","","","","","","","","","","","","","","","","","","",""
"pit-instructions","6","107887","0.0-2.0-2.0-1.0","battery-v0.2","","""event"",""trial"",""time""
""fullscreenenter"",""1"",""2021""
""blur"",""2"",""8581""
""focus"",""2"",""15026""
""blur"",""2"",""29563""
""focus"",""2"",""45257""
","""event"",""trial"",""time""
""blur"",""2"",""8581""
""blur"",""2"",""29563""
","""event"",""trial"",""time""
""focus"",""2"",""15026""
""focus"",""2"",""45257""
","""event"",""trial"",""time""
""fullscreenenter"",""1"",""2021""
","
","","[{""page_index"":0,""viewing_time"":1034.5999999940395}]","1035.0999999940395","","","","","","","","","","","","","","","","","","","","","","","",""
"pit-instructions","7","223670","0.0-2.0-3.0","battery-v0.2","","""event"",""trial"",""time""
""fullscreenenter"",""1"",""2021""
""blur"",""2"",""8581""
""focus"",""2"",""15026""
""blur"",""2"",""29563""
""focus"",""2"",""45257""
","""event"",""trial"",""time""
""blur"",""2"",""8581""
""blur"",""2"",""29563""
","""event"",""trial"",""time""
""focus"",""2"",""15026""
""focus"",""2"",""45257""
","""event"",""trial"",""time""
""fullscreenenter"",""1"",""2021""
","
","","[{""page_index"":0,""viewing_time"":21475.79999998212},{""page_index"":1,""viewing_time"":7249.800000011921},{""page_index"":2,""viewing_time"":7222.4000000059605},{""page_index"":3,""viewing_time"":6711.9000000059605},{""page_index"":4,""viewing_time"":6873.799999982119},{""page_index"":5,""viewing_time"":5932.0999999940395},{""page_index"":6,""viewing_time"":7592.200000017881},{""page_index"":7,""viewing_time"":6849.699999988079},{""page_index"":8,""viewing_time"":7310.9000000059605},{""page_index"":9,""viewing_time"":9427.40000000596},{""page_index"":10,""viewing_time"":7021.5999999940395},{""page_index"":11,""viewing_time"":8692.09999999404},{""page_index"":12,""viewing_time"":7812.0999999940395},{""page_index"":13,""viewing_time"":5606.4000000059605}]","115778.5","","","","","","","","","","","","","","","","","","","","","","","",""
"pit-trial","8","227138","0.0-2.0-4.0-0.0","battery-v0.2","","""event"",""trial"",""time""
""fullscreenenter"",""1"",""2021""
""blur"",""2"",""8581""
""focus"",""2"",""15026""
""blur"",""2"",""29563""
""focus"",""2"",""45257""
","""event"",""trial"",""time""
""blur"",""2"",""8581""
""blur"",""2"",""29563""
","""event"",""trial"",""time""
""focus"",""2"",""15026""
""focus"",""2"",""45257""
","""event"",""trial"",""time""
""fullscreenenter"",""1"",""2021""
","
","","","609.4000000059605","","","23","10839","5196","&#9784;","elianto","#FFFFF080"," "," ","1","&#10004","[1460.7999999821186]","1","0","0","","","","","","","",""
"pit-trial","9","230620","0.0-2.0-4.1-0.1","battery-v0.2","","""event"",""trial"",""time""
""fullscreenenter"",""1"",""2021""
""blur"",""2"",""8581""
""focus"",""2"",""15026""
""blur"",""2"",""29563""
""focus"",""2"",""45257""
","""event"",""trial"",""time""
""blur"",""2"",""8581""
""blur"",""2"",""29563""
","""event"",""trial"",""time""
""focus"",""2"",""15026""
""focus"",""2"",""45257""
","""event"",""trial"",""time""
""fullscreenenter"",""1"",""2021""
","
","","","619.9000000059605","","","23","10839","5196","&#9784;","elianto","#FFFFF080"," "," ","1","&#10004","[1474.199999988079]","1","0","0","","","","","","","",""
"pit-trial","10","234059","0.0-2.0-4.2-0.2","battery-v0.2","","""event"",""trial"",""time""
""fullscreenenter"",""1"",""2021""
""blur"",""2"",""8581""
""focus"",""2"",""15026""
""blur"",""2"",""29563""
""focus"",""2"",""45257""
","""event"",""trial"",""time""
""blur"",""2"",""8581""
""blur"",""2"",""29563""
","""event"",""trial"",""time""
""focus"",""2"",""15026""
""focus"",""2"",""45257""
","""event"",""trial"",""time""
""fullscreenenter"",""1"",""2021""
","
","","","575.1999999880791","","","23","10839","5196","&#9784;","elianto","#FFFFF080"," "," ","1","&#10004","[1428.0999999940395]","1","0","0","","","","","","","",""
"pit-trial","11","237499","0.0-2.0-4.3-0.3","battery-v0.2","","""event"",""trial"",""time""
""fullscreenenter"",""1"",""2021""
""blur"",""2"",""8581""
""focus"",""2"",""15026""
""blur"",""2"",""29563""
""focus"",""2"",""45257""
","""event"",""trial"",""time""
""blur"",""2"",""8581""
""blur"",""2"",""29563""
","""event"",""trial"",""time""
""focus"",""2"",""15026""
""focus"",""2"",""45257""
","""event"",""trial"",""time""
""fullscreenenter"",""1"",""2021""
","
","","","571.4000000059605","","","23","10839","5196","&#9784;","elianto","#FFFFF080"," "," ","1","&#10004","[1423.7000000178814]","1","0","0","","","","","","","",""
"pit-trial","12","240844","0.0-2.0-4.4-0.4","battery-v0.2","","""event"",""trial"",""time""
""fullscreenenter"",""1"",""2021""
""blur"",""2"",""8581""
""focus"",""2"",""15026""
""blur"",""2"",""29563""
""focus"",""2"",""45257""
","""event"",""trial"",""time""
""blur"",""2"",""8581""
""blur"",""2"",""29563""
","""event"",""trial"",""time""
""focus"",""2"",""15026""
""focus"",""2"",""45257""
","""event"",""trial"",""time""
""fullscreenenter"",""1"",""2021""
","
","","","484.19999998807907","","","23","10839","5196","&#9784;","elianto","#FFFFF080"," "," ","1","&#10004","[1335.7000000178814]","1","0","0","","","","","","","",""
"pit-instructions","13","269129","0.0-2.0-5.0","battery-v0.2","","""event"",""trial"",""time""
""fullscreenenter"",""1"",""2021""
""blur"",""2"",""8581""
""focus"",""2"",""15026""
""blur"",""2"",""29563""
""focus"",""2"",""45257""
","""event"",""trial"",""time""
""blur"",""2"",""8581""
""blur"",""2"",""29563""
","""event"",""trial"",""time""
""focus"",""2"",""15026""
""focus"",""2"",""45257""
","""event"",""trial"",""time""
""fullscreenenter"",""1"",""2021""
","
","","[{""page_index"":0,""viewing_time"":10137.40000000596},{""page_index"":1,""viewing_time"":7000.300000011921},{""page_index"":2,""viewing_time"":5304},{""page_index"":3,""viewing_time"":5837.799999982119}]","28279.90000000596","","","","","","","","","","","","","","","","","","","","","","","",""
"pit-trial","14","273989","0.0-2.0-6.0-0.0","battery-v0.2","","""event"",""trial"",""time""
""fullscreenenter"",""1"",""2021""
""blur"",""2"",""8581""
""focus"",""2"",""15026""
""blur"",""2"",""29563""
""focus"",""2"",""45257""
","""event"",""trial"",""time""
""blur"",""2"",""8581""
""blur"",""2"",""29563""
","""event"",""trial"",""time""
""focus"",""2"",""15026""
""focus"",""2"",""45257""
","""event"",""trial"",""time""
""fullscreenenter"",""1"",""2021""
","
","","","-1","","","23","10839","5196","&#9854;","elianto","#FFFFF080","-1","-1","1","&#10004","[]","0","0","1","","","","","","","",""
"pit-trial","15","278853","0.0-2.0-6.1-0.1","battery-v0.2","","""event"",""trial"",""time""
""fullscreenenter"",""1"",""2021""
""blur"",""2"",""8581""
""focus"",""2"",""15026""
""blur"",""2"",""29563""
""focus"",""2"",""45257""
","""event"",""trial"",""time""
""blur"",""2"",""8581""
""blur"",""2"",""29563""
","""event"",""trial"",""time""
""focus"",""2"",""15026""
""focus"",""2"",""45257""
","""event"",""trial"",""time""
""fullscreenenter"",""1"",""2021""
","
","","","-1","","","23","10839","5196","&#9854;","elianto","#FFFFF080","-1","-1","1","&#10004","[]","0","0","1","","","","","","","",""
"pit-trial","16","283727","0.0-2.0-6.2-0.2","battery-v0.2","","""event"",""trial"",""time""
""fullscreenenter"",""1"",""2021""
""blur"",""2"",""8581""
""focus"",""2"",""15026""
""blur"",""2"",""29563""
""focus"",""2"",""45257""
","""event"",""trial"",""time""
""blur"",""2"",""8581""
""blur"",""2"",""29563""
","""event"",""trial"",""time""
""focus"",""2"",""15026""
""focus"",""2"",""45257""
","""event"",""trial"",""time""
""fullscreenenter"",""1"",""2021""
","
","","","-1","","","23","10839","5196","&#9854;","elianto","#FFFFF080","-1","-1","1","&#10004","[]","0","0","1","","","","","","","",""
"pit-trial","17","288586","0.0-2.0-6.3-0.3","battery-v0.2","","""event"",""trial"",""time""
""fullscreenenter"",""1"",""2021""
""blur"",""2"",""8581""
""focus"",""2"",""15026""
""blur"",""2"",""29563""
""focus"",""2"",""45257""
","""event"",""trial"",""time""
""blur"",""2"",""8581""
""blur"",""2"",""29563""
","""event"",""trial"",""time""
""focus"",""2"",""15026""
""focus"",""2"",""45257""
","""event"",""trial"",""time""
""fullscreenenter"",""1"",""2021""
","
","","","-1","","","23","10839","5196","&#9854;","elianto","#FFFFF080","-1","-1","1","&#10004","[]","0","0","1","","","","","","","",""
"pit-trial","18","293453","0.0-2.0-6.4-0.4","battery-v0.2","","""event"",""trial"",""time""
""fullscreenenter"",""1"",""2021""
""blur"",""2"",""8581""
""focus"",""2"",""15026""
""blur"",""2"",""29563""
""focus"",""2"",""45257""
","""event"",""trial"",""time""
""blur"",""2"",""8581""
""blur"",""2"",""29563""
","""event"",""trial"",""time""
""focus"",""2"",""15026""
""focus"",""2"",""45257""
","""event"",""trial"",""time""
""fullscreenenter"",""1"",""2021""
","
","","","-1","","","23","10839","5196","&#9854;","elianto","#FFFFF080","-1","-1","1","&#10004","[]","0","0","1","","","","","","","",""
"pit-instructions","19","416893","0.0-2.0-7.0","battery-v0.2","","""event"",""trial"",""time""
""fullscreenenter"",""1"",""2021""
""blur"",""2"",""8581""
""focus"",""2"",""15026""
""blur"",""2"",""29563""
""focus"",""2"",""45257""
","""event"",""trial"",""time""
""blur"",""2"",""8581""
""blur"",""2"",""29563""
","""event"",""trial"",""time""
""focus"",""2"",""15026""
""focus"",""2"",""45257""
","""event"",""trial"",""time""
""fullscreenenter"",""1"",""2021""
","
","","[{""page_index"":0,""viewing_time"":5730.299999982119},{""page_index"":1,""viewing_time"":12573.90000000596},{""page_index"":2,""viewing_time"":7430.5},{""page_index"":3,""viewing_time"":6749.5},{""page_index"":4,""viewing_time"":5652.300000011921},{""page_index"":5,""viewing_time"":6022.5},{""page_index"":6,""viewing_time"":4075.0999999940395},{""page_index"":7,""viewing_time"":7854.5},{""page_index"":8,""viewing_time"":6582.4000000059605},{""page_index"":9,""viewing_time"":6704.0999999940395},{""page_index"":10,""viewing_time"":6411.699999988079},{""page_index"":11,""viewing_time"":4429.800000011921},{""page_index"":12,""viewing_time"":7158.199999988079},{""page_index"":13,""viewing_time"":7691.600000023842},{""page_index"":14,""viewing_time"":7817.799999982119},{""page_index"":15,""viewing_time"":6668.200000017881},{""page_index"":16,""viewing_time"":6690.0999999940395},{""page_index"":17,""viewing_time"":7193.9000000059605}]","123436.79999998212","","","","","","","","","","","","","","","","","","","","","","","",""
"pit-trial","20","420371","0.0-2.0-8.0-0.0","battery-v0.2","","""event"",""trial"",""time""
""fullscreenenter"",""1"",""2021""
""blur"",""2"",""8581""
""focus"",""2"",""15026""
""blur"",""2"",""29563""
""focus"",""2"",""45257""
","""event"",""trial"",""time""
""blur"",""2"",""8581""
""blur"",""2"",""29563""
","""event"",""trial"",""time""
""focus"",""2"",""15026""
""focus"",""2"",""45257""
","""event"",""trial"",""time""
""fullscreenenter"",""1"",""2021""
","
","","","611.6999999880791","","","23","10839","5196","&#9776;","elianto","#3366ff99"," "," ","1","+10","[1471.300000011921]","1","0","1","","","","","","","",""
"pit-trial","21","424059","0.0-2.0-8.0-1.0","battery-v0.2","","""event"",""trial"",""time""
""fullscreenenter"",""1"",""2021""
""blur"",""2"",""8581""
""focus"",""2"",""15026""
""blur"",""2"",""29563""
""focus"",""2"",""45257""
","""event"",""trial"",""time""
""blur"",""2"",""8581""
""blur"",""2"",""29563""
","""event"",""trial"",""time""
""focus"",""2"",""15026""
""focus"",""2"",""45257""
","""event"",""trial"",""time""
""fullscreenenter"",""1"",""2021""
","
","","","823.8999999761581","","","23","10839","5196","&#9776;","elianto","#3366ff99"," "," ","1","+10","[1675]","1","0","1","","","","","","","",""
"pit-trial","22","427468","0.0-2.0-8.0-2.0","battery-v0.2","","""event"",""trial"",""time""
""fullscreenenter"",""1"",""2021""
""blur"",""2"",""8581""
""focus"",""2"",""15026""
""blur"",""2"",""29563""
""focus"",""2"",""45257""
","""event"",""trial"",""time""
""blur"",""2"",""8581""
""blur"",""2"",""29563""
","""event"",""trial"",""time""
""focus"",""2"",""15026""
""focus"",""2"",""45257""
","""event"",""trial"",""time""
""fullscreenenter"",""1"",""2021""
","
","","","545.1999999880791","","","23","10839","5196","&#9776;","elianto","#3366ff99"," "," ","1","+10","[1400.7999999821186]","1","0","1","","","","","","","",""
"pit-trial","23","430953","0.0-2.0-8.0-3.0","battery-v0.2","","""event"",""trial"",""time""
""fullscreenenter"",""1"",""2021""
""blur"",""2"",""8581""
""focus"",""2"",""15026""
""blur"",""2"",""29563""
""focus"",""2"",""45257""
","""event"",""trial"",""time""
""blur"",""2"",""8581""
""blur"",""2"",""29563""
","""event"",""trial"",""time""
""focus"",""2"",""15026""
""focus"",""2"",""45257""
","""event"",""trial"",""time""
""fullscreenenter"",""1"",""2021""
","
","","","622.1999999880791","","","23","10839","5196","&#9776;","elianto","#3366ff99"," "," ","1","0","[1472.5999999940395]","1","0","1","","","","","","","",""
"pit-trial","24","434337","0.0-2.0-8.0-4.0","battery-v0.2","","""event"",""trial"",""time""
""fullscreenenter"",""1"",""2021""
""blur"",""2"",""8581""
""focus"",""2"",""15026""
""blur"",""2"",""29563""
""focus"",""2"",""45257""
","""event"",""trial"",""time""
""blur"",""2"",""8581""
""blur"",""2"",""29563""
","""event"",""trial"",""time""
""focus"",""2"",""15026""
""focus"",""2"",""45257""
","""event"",""trial"",""time""
""fullscreenenter"",""1"",""2021""
","
","","","516.5","","","23","10839","5196","&#9776;","elianto","#3366ff99"," "," ","1","+10","[1367.3999999761581]","1","0","1","","","","","","","",""
"pit-trial","25","437706","0.0-2.0-8.1-0.1","battery-v0.2","","""event"",""trial"",""time""
""fullscreenenter"",""1"",""2021""
""blur"",""2"",""8581""
""focus"",""2"",""15026""
""blur"",""2"",""29563""
""focus"",""2"",""45257""
","""event"",""trial"",""time""
""blur"",""2"",""8581""
""blur"",""2"",""29563""
","""event"",""trial"",""time""
""focus"",""2"",""15026""
""focus"",""2"",""45257""
","""event"",""trial"",""time""
""fullscreenenter"",""1"",""2021""
","
","","","508.39999997615814","","","23","10839","5196","&#9776;","elianto","#3366ff99"," "," ","1","+10","[1359.699999988079]","1","0","1","","","","","","","",""
"pit-trial","26","441119","0.0-2.0-8.1-1.1","battery-v0.2","","""event"",""trial"",""time""
""fullscreenenter"",""1"",""2021""
""blur"",""2"",""8581""
""focus"",""2"",""15026""
""blur"",""2"",""29563""
""focus"",""2"",""45257""
","""event"",""trial"",""time""
""blur"",""2"",""8581""
""blur"",""2"",""29563""
","""event"",""trial"",""time""
""focus"",""2"",""15026""
""focus"",""2"",""45257""
","""event"",""trial"",""time""
""fullscreenenter"",""1"",""2021""
","
","","","542.7000000178814","","","23","10839","5196","&#9776;","elianto","#3366ff99"," "," ","1","+10","[1396.0999999940395]","1","0","1","","","","","","","",""
"pit-trial","27","444488","0.0-2.0-8.1-2.1","battery-v0.2","","""event"",""trial"",""time""
""fullscreenenter"",""1"",""2021""
""blur"",""2"",""8581""
""focus"",""2"",""15026""
""blur"",""2"",""29563""
""focus"",""2"",""45257""
","""event"",""trial"",""time""
""blur"",""2"",""8581""
""blur"",""2"",""29563""
","""event"",""trial"",""time""
""focus"",""2"",""15026""
""focus"",""2"",""45257""
","""event"",""trial"",""time""
""fullscreenenter"",""1"",""2021""
","
","","","496.40000000596046","","","23","10839","5196","&#9776;","elianto","#3366ff99"," "," ","1","+10","[1352.4000000059605]","1","0","1","","","","","","","",""
"pit-trial","28","447900","0.0-2.0-8.1-3.1","battery-v0.2","","""event"",""trial"",""time""
""fullscreenenter"",""1"",""2021""
""blur"",""2"",""8581""
""focus"",""2"",""15026""
""blur"",""2"",""29563""
""focus"",""2"",""45257""
","""event"",""trial"",""time""
""blur"",""2"",""8581""
""blur"",""2"",""29563""
","""event"",""trial"",""time""
""focus"",""2"",""15026""
""focus"",""2"",""45257""
","""event"",""trial"",""time""
""fullscreenenter"",""1"",""2021""
","
","","","553.7999999821186","","","23","10839","5196","&#9776;","elianto","#3366ff99"," "," ","1","0","[1409]","1","0","1","","","","","","","",""
"pit-trial","29","451358","0.0-2.0-8.1-4.1","battery-v0.2","","""event"",""trial"",""time""
""fullscreenenter"",""1"",""2021""
""blur"",""2"",""8581""
""focus"",""2"",""15026""
""blur"",""2"",""29563""
""focus"",""2"",""45257""
","""event"",""trial"",""time""
""blur"",""2"",""8581""
""blur"",""2"",""29563""
","""event"",""trial"",""time""
""focus"",""2"",""15026""
""focus"",""2"",""45257""
","""event"",""trial"",""time""
""fullscreenenter"",""1"",""2021""
","
","","","605.1000000238419","","","23","10839","5196","&#9776;","elianto","#3366ff99"," "," ","1","+10","[1455.800000011921]","1","0","1","","","","","","","",""
"pit-trial","30","454702","0.0-2.0-8.2-0.2","battery-v0.2","","""event"",""trial"",""time""
""fullscreenenter"",""1"",""2021""
""blur"",""2"",""8581""
""focus"",""2"",""15026""
""blur"",""2"",""29563""
""focus"",""2"",""45257""
","""event"",""trial"",""time""
""blur"",""2"",""8581""
""blur"",""2"",""29563""
","""event"",""trial"",""time""
""focus"",""2"",""15026""
""focus"",""2"",""45257""
","""event"",""trial"",""time""
""fullscreenenter"",""1"",""2021""
","
","","","489.90000000596046","","","23","10839","5196","&#9776;","elianto","#3366ff99"," "," ","1","+10","[1340.9000000059605]","1","0","1","","","","","","","",""
"pit-trial","31","458257","0.0-2.0-8.2-1.2","battery-v0.2","","""event"",""trial"",""time""
""fullscreenenter"",""1"",""2021""
""blur"",""2"",""8581""
""focus"",""2"",""15026""
""blur"",""2"",""29563""
""focus"",""2"",""45257""
","""event"",""trial"",""time""
""blur"",""2"",""8581""
""blur"",""2"",""29563""
","""event"",""trial"",""time""
""focus"",""2"",""15026""
""focus"",""2"",""45257""
","""event"",""trial"",""time""
""fullscreenenter"",""1"",""2021""
","
","","","701.8000000119209","","","23","10839","5196","&#9776;","elianto","#3366ff99"," "," ","1","+10","[1552.5]","1","0","1","","","","","","","",""
"pit-trial","32","461686","0.0-2.0-8.2-2.2","battery-v0.2","","""event"",""trial"",""time""
""fullscreenenter"",""1"",""2021""
""blur"",""2"",""8581""
""focus"",""2"",""15026""
""blur"",""2"",""29563""
""focus"",""2"",""45257""
","""event"",""trial"",""time""
""blur"",""2"",""8581""
""blur"",""2"",""29563""
","""event"",""trial"",""time""
""focus"",""2"",""15026""
""focus"",""2"",""45257""
","""event"",""trial"",""time""
""fullscreenenter"",""1"",""2021""
","
","","","575.1000000238419","","","23","10839","5196","&#9776;","elianto","#3366ff99"," "," ","1","+10","[1426.5999999940395]","1","0","1","","","","","","","",""
"pit-trial","33","465187","0.0-2.0-8.2-3.2","battery-v0.2","","""event"",""trial"",""time""
""fullscreenenter"",""1"",""2021""
""blur"",""2"",""8581""
""focus"",""2"",""15026""
""blur"",""2"",""29563""
""focus"",""2"",""45257""
","""event"",""trial"",""time""
""blur"",""2"",""8581""
""blur"",""2"",""29563""
","""event"",""trial"",""time""
""focus"",""2"",""15026""
""focus"",""2"",""45257""
","""event"",""trial"",""time""
""fullscreenenter"",""1"",""2021""
","
","","","647.1999999880791","","","23","10839","5196","&#9776;","elianto","#3366ff99"," "," ","1","0","[1499.0999999940395]","1","0","1","","","","","","","",""
"pit-trial","34","468563","0.0-2.0-8.2-4.2","battery-v0.2","","""event"",""trial"",""time""
""fullscreenenter"",""1"",""2021""
""blur"",""2"",""8581""
""focus"",""2"",""15026""
""blur"",""2"",""29563""
""focus"",""2"",""45257""
","""event"",""trial"",""time""
""blur"",""2"",""8581""
""blur"",""2"",""29563""
","""event"",""trial"",""time""
""focus"",""2"",""15026""
""focus"",""2"",""45257""
","""event"",""trial"",""time""
""fullscreenenter"",""1"",""2021""
","
","","","522.0999999940395","","","23","10839","5196","&#9776;","elianto","#3366ff99"," "," ","1","+10","[1373.5999999940395]","1","0","1","","","","","","","",""
"call-function","35","468565","0.0-2.0-9.0","battery-v0.2","","""event"",""trial"",""time""
""fullscreenenter"",""1"",""2021""
""blur"",""2"",""8581""
""focus"",""2"",""15026""
""blur"",""2"",""29563""
""focus"",""2"",""45257""
","""event"",""trial"",""time""
""blur"",""2"",""8581""
""blur"",""2"",""29563""
","""event"",""trial"",""time""
""focus"",""2"",""15026""
""focus"",""2"",""45257""
","""event"",""trial"",""time""
""fullscreenenter"",""1"",""2021""
","
","","","","","","","","","","","","","","","","","","","","","","","","","","",""
"pit-instructions","36","513202","0.0-2.0-10.0","battery-v0.2","","""event"",""trial"",""time""
""fullscreenenter"",""1"",""2021""
""blur"",""2"",""8581""
""focus"",""2"",""15026""
""blur"",""2"",""29563""
""focus"",""2"",""45257""
","""event"",""trial"",""time""
""blur"",""2"",""8581""
""blur"",""2"",""29563""
","""event"",""trial"",""time""
""focus"",""2"",""15026""
""focus"",""2"",""45257""
","""event"",""trial"",""time""
""fullscreenenter"",""1"",""2021""
","
","","[{""page_index"":0,""viewing_time"":8712.799999982119},{""page_index"":1,""viewing_time"":7118.200000017881},{""page_index"":2,""viewing_time"":10034},{""page_index"":3,""viewing_time"":10846},{""page_index"":4,""viewing_time"":7925.799999982119}]","44637.09999999404","","","","","","","","","","","","","","","","","","","","","","","",""
"pit-trial","37","516866","0.0-2.0-11.0-0.0","battery-v0.2","","""event"",""trial"",""time""
""fullscreenenter"",""1"",""2021""
""blur"",""2"",""8581""
""focus"",""2"",""15026""
""blur"",""2"",""29563""
""focus"",""2"",""45257""
","""event"",""trial"",""time""
""blur"",""2"",""8581""
""blur"",""2"",""29563""
","""event"",""trial"",""time""
""focus"",""2"",""15026""
""focus"",""2"",""45257""
","""event"",""trial"",""time""
""fullscreenenter"",""1"",""2021""
","
","","","796.4000000059605","","","23","10839","5196","&#9761;","elianto","#3366ff99","-1"," ","0","0","[1650.699999988079]","1","0","2","","","","","","","",""
"pit-trial","38","520456","0.0-2.0-11.0-1.0","battery-v0.2","","""event"",""trial"",""time""
""fullscreenenter"",""1"",""2021""
""blur"",""2"",""8581""
""focus"",""2"",""15026""
""blur"",""2"",""29563""
""focus"",""2"",""45257""
","""event"",""trial"",""time""
""blur"",""2"",""8581""
""blur"",""2"",""29563""
","""event"",""trial"",""time""
""focus"",""2"",""15026""
""focus"",""2"",""45257""
","""event"",""trial"",""time""
""fullscreenenter"",""1"",""2021""
","
","","","719.8999999761581","","","23","10839","5196","&#9761;","elianto","#3366ff99","-1"," ","0","0","[1572.2999999821186]","1","0","2","","","","","","","",""
"pit-trial","39","525327","0.0-2.0-11.0-2.0","battery-v0.2","","""event"",""trial"",""time""
""fullscreenenter"",""1"",""2021""
""blur"",""2"",""8581""
""focus"",""2"",""15026""
""blur"",""2"",""29563""
""focus"",""2"",""45257""
","""event"",""trial"",""time""
""blur"",""2"",""8581""
""blur"",""2"",""29563""
","""event"",""trial"",""time""
""focus"",""2"",""15026""
""focus"",""2"",""45257""
","""event"",""trial"",""time""
""fullscreenenter"",""1"",""2021""
","
","","","-1","","","23","10839","5196","&#9761;","elianto","#3366ff99","-1","-1","1","+10","[]","0","0","2","","","","","","","",""
"pit-trial","40","530198","0.0-2.0-11.0-3.0","battery-v0.2","","""event"",""trial"",""time""
""fullscreenenter"",""1"",""2021""
""blur"",""2"",""8581""
""focus"",""2"",""15026""
""blur"",""2"",""29563""
""focus"",""2"",""45257""
","""event"",""trial"",""time""
""blur"",""2"",""8581""
""blur"",""2"",""29563""
","""event"",""trial"",""time""
""focus"",""2"",""15026""
""focus"",""2"",""45257""
","""event"",""trial"",""time""
""fullscreenenter"",""1"",""2021""
","
","","","-1","","","23","10839","5196","&#9761;","elianto","#3366ff99","-1","-1","1","0","[]","0","0","2","","","","","","","",""
"pit-trial","41","535078","0.0-2.0-11.0-4.0","battery-v0.2","","""event"",""trial"",""time""
""fullscreenenter"",""1"",""2021""
""blur"",""2"",""8581""
""focus"",""2"",""15026""
""blur"",""2"",""29563""
""focus"",""2"",""45257""
","""event"",""trial"",""time""
""blur"",""2"",""8581""
""blur"",""2"",""29563""
","""event"",""trial"",""time""
""focus"",""2"",""15026""
""focus"",""2"",""45257""
","""event"",""trial"",""time""
""fullscreenenter"",""1"",""2021""
","
","","","-1","","","23","10839","5196","&#9761;","elianto","#3366ff99","-1","-1","1","+10","[]","0","0","2","","","","","","","",""
"pit-trial","42","539947","0.0-2.0-11.1-0.1","battery-v0.2","","""event"",""trial"",""time""
""fullscreenenter"",""1"",""2021""
""blur"",""2"",""8581""
""focus"",""2"",""15026""
""blur"",""2"",""29563""
""focus"",""2"",""45257""
","""event"",""trial"",""time""
""blur"",""2"",""8581""
""blur"",""2"",""29563""
","""event"",""trial"",""time""
""focus"",""2"",""15026""
""focus"",""2"",""45257""
","""event"",""trial"",""time""
""fullscreenenter"",""1"",""2021""
","
","","","-1","","","23","10839","5196","&#9761;","elianto","#3366ff99","-1","-1","1","+10","[]","0","0","2","","","","","","","",""
"pit-trial","43","544813","0.0-2.0-11.1-1.1","battery-v0.2","","""event"",""trial"",""time""
""fullscreenenter"",""1"",""2021""
""blur"",""2"",""8581""
""focus"",""2"",""15026""
""blur"",""2"",""29563""
""focus"",""2"",""45257""
","""event"",""trial"",""time""
""blur"",""2"",""8581""
""blur"",""2"",""29563""
","""event"",""trial"",""time""
""focus"",""2"",""15026""
""focus"",""2"",""45257""
","""event"",""trial"",""time""
""fullscreenenter"",""1"",""2021""
","
","","","-1","","","23","10839","5196","&#9761;","elianto","#3366ff99","-1","-1","1","+10","[]","0","0","2","","","","","","","",""
"pit-trial","44","549667","0.0-2.0-11.1-2.1","battery-v0.2","","""event"",""trial"",""time""
""fullscreenenter"",""1"",""2021""
""blur"",""2"",""8581""
""focus"",""2"",""15026""
""blur"",""2"",""29563""
""focus"",""2"",""45257""
","""event"",""trial"",""time""
""blur"",""2"",""8581""
""blur"",""2"",""29563""
","""event"",""trial"",""time""
""focus"",""2"",""15026""
""focus"",""2"",""45257""
","""event"",""trial"",""time""
""fullscreenenter"",""1"",""2021""
","
","","","-1","","","23","10839","5196","&#9761;","elianto","#3366ff99","-1","-1","1","+10","[]","0","0","2","","","","","","","",""
"pit-trial","45","554520","0.0-2.0-11.1-3.1","battery-v0.2","","""event"",""trial"",""time""
""fullscreenenter"",""1"",""2021""
""blur"",""2"",""8581""
""focus"",""2"",""15026""
""blur"",""2"",""29563""
""focus"",""2"",""45257""
","""event"",""trial"",""time""
""blur"",""2"",""8581""
""blur"",""2"",""29563""
","""event"",""trial"",""time""
""focus"",""2"",""15026""
""focus"",""2"",""45257""
","""event"",""trial"",""time""
""fullscreenenter"",""1"",""2021""
","
","","","-1","","","23","10839","5196","&#9761;","elianto","#3366ff99","-1","-1","1","0","[]","0","0","2","","","","","","","",""
"pit-trial","46","559375","0.0-2.0-11.1-4.1","battery-v0.2","","""event"",""trial"",""time""
""fullscreenenter"",""1"",""2021""
""blur"",""2"",""8581""
""focus"",""2"",""15026""
""blur"",""2"",""29563""
""focus"",""2"",""45257""
","""event"",""trial"",""time""
""blur"",""2"",""8581""
""blur"",""2"",""29563""
","""event"",""trial"",""time""
""focus"",""2"",""15026""
""focus"",""2"",""45257""
","""event"",""trial"",""time""
""fullscreenenter"",""1"",""2021""
","
","","","-1","","","23","10839","5196","&#9761;","elianto","#3366ff99","-1","-1","1","+10","[]","0","0","2","","","","","","","",""
"pit-trial","47","564231","0.0-2.0-11.2-0.2","battery-v0.2","","""event"",""trial"",""time""
""fullscreenenter"",""1"",""2021""
""blur"",""2"",""8581""
""focus"",""2"",""15026""
""blur"",""2"",""29563""
""focus"",""2"",""45257""
","""event"",""trial"",""time""
""blur"",""2"",""8581""
""blur"",""2"",""29563""
","""event"",""trial"",""time""
""focus"",""2"",""15026""
""focus"",""2"",""45257""
","""event"",""trial"",""time""
""fullscreenenter"",""1"",""2021""
","
","","","-1","","","23","10839","5196","&#9761;","elianto","#3366ff99","-1","-1","1","+10","[]","0","0","2","","","","","","","",""
"pit-trial","48","569085","0.0-2.0-11.2-1.2","battery-v0.2","","""event"",""trial"",""time""
""fullscreenenter"",""1"",""2021""
""blur"",""2"",""8581""
""focus"",""2"",""15026""
""blur"",""2"",""29563""
""focus"",""2"",""45257""
","""event"",""trial"",""time""
""blur"",""2"",""8581""
""blur"",""2"",""29563""
","""event"",""trial"",""time""
""focus"",""2"",""15026""
""focus"",""2"",""45257""
","""event"",""trial"",""time""
""fullscreenenter"",""1"",""2021""
","
","","","-1","","","23","10839","5196","&#9761;","elianto","#3366ff99","-1","-1","1","+10","[]","0","0","2","","","","","","","",""
"pit-trial","49","573938","0.0-2.0-11.2-2.2","battery-v0.2","","""event"",""trial"",""time""
""fullscreenenter"",""1"",""2021""
""blur"",""2"",""8581""
""focus"",""2"",""15026""
""blur"",""2"",""29563""
""focus"",""2"",""45257""
","""event"",""trial"",""time""
""blur"",""2"",""8581""
""blur"",""2"",""29563""
","""event"",""trial"",""time""
""focus"",""2"",""15026""
""focus"",""2"",""45257""
","""event"",""trial"",""time""
""fullscreenenter"",""1"",""2021""
","
","","","-1","","","23","10839","5196","&#9761;","elianto","#3366ff99","-1","-1","1","+10","[]","0","0","2","","","","","","","",""
"pit-trial","50","578794","0.0-2.0-11.2-3.2","battery-v0.2","","""event"",""trial"",""time""
""fullscreenenter"",""1"",""2021""
""blur"",""2"",""8581""
""focus"",""2"",""15026""
""blur"",""2"",""29563""
""focus"",""2"",""45257""
","""event"",""trial"",""time""
""blur"",""2"",""8581""
""blur"",""2"",""29563""
","""event"",""trial"",""time""
""focus"",""2"",""15026""
""focus"",""2"",""45257""
","""event"",""trial"",""time""
""fullscreenenter"",""1"",""2021""
","
","","","-1","","","23","10839","5196","&#9761;","elianto","#3366ff99","-1","-1","1","0","[]","0","0","2","","","","","","","",""
"pit-trial","51","583649","0.0-2.0-11.2-4.2","battery-v0.2","","""event"",""trial"",""time""
""fullscreenenter"",""1"",""2021""
""blur"",""2"",""8581""
""focus"",""2"",""15026""
""blur"",""2"",""29563""
""focus"",""2"",""45257""
","""event"",""trial"",""time""
""blur"",""2"",""8581""
""blur"",""2"",""29563""
","""event"",""trial"",""time""
""focus"",""2"",""15026""
""focus"",""2"",""45257""
","""event"",""trial"",""time""
""fullscreenenter"",""1"",""2021""
","
","","","-1","","","23","10839","5196","&#9761;","elianto","#3366ff99","-1","-1","1","+10","[]","0","0","2","","","","","","","",""
"pit-trial","52","588503","0.0-2.0-11.3-0.3","battery-v0.2","","""event"",""trial"",""time""
""fullscreenenter"",""1"",""2021""
""blur"",""2"",""8581""
""focus"",""2"",""15026""
""blur"",""2"",""29563""
""focus"",""2"",""45257""
","""event"",""trial"",""time""
""blur"",""2"",""8581""
""blur"",""2"",""29563""
","""event"",""trial"",""time""
""focus"",""2"",""15026""
""focus"",""2"",""45257""
","""event"",""trial"",""time""
""fullscreenenter"",""1"",""2021""
","
","","","-1","","","23","10839","5196","&#9761;","elianto","#3366ff99","-1","-1","1","+10","[]","0","0","2","","","","","","","",""
"pit-trial","53","593357","0.0-2.0-11.3-1.3","battery-v0.2","","""event"",""trial"",""time""
""fullscreenenter"",""1"",""2021""
""blur"",""2"",""8581""
""focus"",""2"",""15026""
""blur"",""2"",""29563""
""focus"",""2"",""45257""
","""event"",""trial"",""time""
""blur"",""2"",""8581""
""blur"",""2"",""29563""
","""event"",""trial"",""time""
""focus"",""2"",""15026""
""focus"",""2"",""45257""
","""event"",""trial"",""time""
""fullscreenenter"",""1"",""2021""
","
","","","-1","","","23","10839","5196","&#9761;","elianto","#3366ff99","-1","-1","1","+10","[]","0","0","2","","","","","","","",""
"pit-trial","54","598211","0.0-2.0-11.3-2.3","battery-v0.2","","""event"",""trial"",""time""
""fullscreenenter"",""1"",""2021""
""blur"",""2"",""8581""
""focus"",""2"",""15026""
""blur"",""2"",""29563""
""focus"",""2"",""45257""
","""event"",""trial"",""time""
""blur"",""2"",""8581""
""blur"",""2"",""29563""
","""event"",""trial"",""time""
""focus"",""2"",""15026""
""focus"",""2"",""45257""
","""event"",""trial"",""time""
""fullscreenenter"",""1"",""2021""
","
","","","-1","","","23","10839","5196","&#9761;","elianto","#3366ff99","-1","-1","1","+10","[]","0","0","2","","","","","","","",""
"pit-trial","55","603064","0.0-2.0-11.3-3.3","battery-v0.2","","""event"",""trial"",""time""
""fullscreenenter"",""1"",""2021""
""blur"",""2"",""8581""
""focus"",""2"",""15026""
""blur"",""2"",""29563""
""focus"",""2"",""45257""
","""event"",""trial"",""time""
""blur"",""2"",""8581""
""blur"",""2"",""29563""
","""event"",""trial"",""time""
""focus"",""2"",""15026""
""focus"",""2"",""45257""
","""event"",""trial"",""time""
""fullscreenenter"",""1"",""2021""
","
","","","-1","","","23","10839","5196","&#9761;","elianto","#3366ff99","-1","-1","1","0","[]","0","0","2","","","","","","","",""
"pit-trial","56","607923","0.0-2.0-11.3-4.3","battery-v0.2","","""event"",""trial"",""time""
""fullscreenenter"",""1"",""2021""
""blur"",""2"",""8581""
""focus"",""2"",""15026""
""blur"",""2"",""29563""
""focus"",""2"",""45257""
","""event"",""trial"",""time""
""blur"",""2"",""8581""
""blur"",""2"",""29563""
","""event"",""trial"",""time""
""focus"",""2"",""15026""
""focus"",""2"",""45257""
","""event"",""trial"",""time""
""fullscreenenter"",""1"",""2021""
","
","","","-1","","","23","10839","5196","&#9761;","elianto","#3366ff99","-1","-1","1","+10","[]","0","0","2","","","","","","","",""
"call-function","57","607925","0.0-2.0-12.0","battery-v0.2","","""event"",""trial"",""time""
""fullscreenenter"",""1"",""2021""
""blur"",""2"",""8581""
""focus"",""2"",""15026""
""blur"",""2"",""29563""
""focus"",""2"",""45257""
","""event"",""trial"",""time""
""blur"",""2"",""8581""
""blur"",""2"",""29563""
","""event"",""trial"",""time""
""focus"",""2"",""15026""
""focus"",""2"",""45257""
","""event"",""trial"",""time""
""fullscreenenter"",""1"",""2021""
","
","","","","","","","","","","","","","","","","","","","","","","","","","","",""
"pit-instructions","58","643174","0.0-2.0-13.0","battery-v0.2","","""event"",""trial"",""time""
""fullscreenenter"",""1"",""2021""
""blur"",""2"",""8581""
""focus"",""2"",""15026""
""blur"",""2"",""29563""
""focus"",""2"",""45257""
","""event"",""trial"",""time""
""blur"",""2"",""8581""
""blur"",""2"",""29563""
","""event"",""trial"",""time""
""focus"",""2"",""15026""
""focus"",""2"",""45257""
","""event"",""trial"",""time""
""fullscreenenter"",""1"",""2021""
","
","","[{""page_index"":0,""viewing_time"":6627.0999999940395},{""page_index"":1,""viewing_time"":7949.700000017881},{""page_index"":2,""viewing_time"":4858.299999982119},{""page_index"":3,""viewing_time"":10841.800000011921},{""page_index"":4,""viewing_time"":4972.299999982119}]","35249.5","","","","","","","","","","","","","","","","","","","","","","","",""
"pit-trial","59","646807","0.0-2.0-14.0-0.0","battery-v0.2","","""event"",""trial"",""time""
""fullscreenenter"",""1"",""2021""
""blur"",""2"",""8581""
""focus"",""2"",""15026""
""blur"",""2"",""29563""
""focus"",""2"",""45257""
","""event"",""trial"",""time""
""blur"",""2"",""8581""
""blur"",""2"",""29563""
","""event"",""trial"",""time""
""focus"",""2"",""15026""
""focus"",""2"",""45257""
","""event"",""trial"",""time""
""fullscreenenter"",""1"",""2021""
","
","","","763.2999999821186","","","23","10839","5196","&#9826;","elianto","#f73b6a7A","-1"," ","0","-10","[1618.5999999940395]","1","0","3","","","","","","","",""
"pit-trial","60","650477","0.0-2.0-14.0-1.0","battery-v0.2","","""event"",""trial"",""time""
""fullscreenenter"",""1"",""2021""
""blur"",""2"",""8581""
""focus"",""2"",""15026""
""blur"",""2"",""29563""
""focus"",""2"",""45257""
","""event"",""trial"",""time""
""blur"",""2"",""8581""
""blur"",""2"",""29563""
","""event"",""trial"",""time""
""focus"",""2"",""15026""
""focus"",""2"",""45257""
","""event"",""trial"",""time""
""fullscreenenter"",""1"",""2021""
","
","","","806.9000000059605","","","23","10839","5196","&#9826;","elianto","#f73b6a7A","-1"," ","0","-10","[1658.5]","1","0","3","","","","","","","",""
"pit-trial","61","655339","0.0-2.0-14.0-2.0","battery-v0.2","","""event"",""trial"",""time""
""fullscreenenter"",""1"",""2021""
""blur"",""2"",""8581""
""focus"",""2"",""15026""
""blur"",""2"",""29563""
""focus"",""2"",""45257""
","""event"",""trial"",""time""
""blur"",""2"",""8581""
""blur"",""2"",""29563""
","""event"",""trial"",""time""
""focus"",""2"",""15026""
""focus"",""2"",""45257""
","""event"",""trial"",""time""
""fullscreenenter"",""1"",""2021""
","
","","","-1","","","23","10839","5196","&#9826;","elianto","#f73b6a7A","-1","-1","1","0","[]","0","0","3","","","","","","","",""
"pit-trial","62","660204","0.0-2.0-14.0-3.0","battery-v0.2","","""event"",""trial"",""time""
""fullscreenenter"",""1"",""2021""
""blur"",""2"",""8581""
""focus"",""2"",""15026""
""blur"",""2"",""29563""
""focus"",""2"",""45257""
","""event"",""trial"",""time""
""blur"",""2"",""8581""
""blur"",""2"",""29563""
","""event"",""trial"",""time""
""focus"",""2"",""15026""
""focus"",""2"",""45257""
","""event"",""trial"",""time""
""fullscreenenter"",""1"",""2021""
","
","","","-1","","","23","10839","5196","&#9826;","elianto","#f73b6a7A","-1","-1","1","-10","[]","0","0","3","","","","","","","",""
"pit-trial","63","665068","0.0-2.0-14.0-4.0","battery-v0.2","","""event"",""trial"",""time""
""fullscreenenter"",""1"",""2021""
""blur"",""2"",""8581""
""focus"",""2"",""15026""
""blur"",""2"",""29563""
""focus"",""2"",""45257""
","""event"",""trial"",""time""
""blur"",""2"",""8581""
""blur"",""2"",""29563""
","""event"",""trial"",""time""
""focus"",""2"",""15026""
""focus"",""2"",""45257""
","""event"",""trial"",""time""
""fullscreenenter"",""1"",""2021""
","
","","","-1","","","23","10839","5196","&#9826;","elianto","#f73b6a7A","-1","-1","1","0","[]","0","0","3","","","","","","","",""
"pit-trial","64","669929","0.0-2.0-14.1-0.1","battery-v0.2","","""event"",""trial"",""time""
""fullscreenenter"",""1"",""2021""
""blur"",""2"",""8581""
""focus"",""2"",""15026""
""blur"",""2"",""29563""
""focus"",""2"",""45257""
","""event"",""trial"",""time""
""blur"",""2"",""8581""
""blur"",""2"",""29563""
","""event"",""trial"",""time""
""focus"",""2"",""15026""
""focus"",""2"",""45257""
","""event"",""trial"",""time""
""fullscreenenter"",""1"",""2021""
","
","","","-1","","","23","10839","5196","&#9826;","elianto","#f73b6a7A","-1","-1","1","0","[]","0","0","3","","","","","","","",""
"pit-trial","65","674794","0.0-2.0-14.1-1.1","battery-v0.2","","""event"",""trial"",""time""
""fullscreenenter"",""1"",""2021""
""blur"",""2"",""8581""
""focus"",""2"",""15026""
""blur"",""2"",""29563""
""focus"",""2"",""45257""
","""event"",""trial"",""time""
""blur"",""2"",""8581""
""blur"",""2"",""29563""
","""event"",""trial"",""time""
""focus"",""2"",""15026""
""focus"",""2"",""45257""
","""event"",""trial"",""time""
""fullscreenenter"",""1"",""2021""
","
","","","-1","","","23","10839","5196","&#9826;","elianto","#f73b6a7A","-1","-1","1","0","[]","0","0","3","","","","","","","",""
"pit-trial","66","679647","0.0-2.0-14.1-2.1","battery-v0.2","","""event"",""trial"",""time""
""fullscreenenter"",""1"",""2021""
""blur"",""2"",""8581""
""focus"",""2"",""15026""
""blur"",""2"",""29563""
""focus"",""2"",""45257""
","""event"",""trial"",""time""
""blur"",""2"",""8581""
""blur"",""2"",""29563""
","""event"",""trial"",""time""
""focus"",""2"",""15026""
""focus"",""2"",""45257""
","""event"",""trial"",""time""
""fullscreenenter"",""1"",""2021""
","
","","","-1","","","23","10839","5196","&#9826;","elianto","#f73b6a7A","-1","-1","1","0","[]","0","0","3","","","","","","","",""
"pit-trial","67","684502","0.0-2.0-14.1-3.1","battery-v0.2","","""event"",""trial"",""time""
""fullscreenenter"",""1"",""2021""
""blur"",""2"",""8581""
""focus"",""2"",""15026""
""blur"",""2"",""29563""
""focus"",""2"",""45257""
","""event"",""trial"",""time""
""blur"",""2"",""8581""
""blur"",""2"",""29563""
","""event"",""trial"",""time""
""focus"",""2"",""15026""
""focus"",""2"",""45257""
","""event"",""trial"",""time""
""fullscreenenter"",""1"",""2021""
","
","","","-1","","","23","10839","5196","&#9826;","elianto","#f73b6a7A","-1","-1","1","-10","[]","0","0","3","","","","","","","",""
"pit-trial","68","689356","0.0-2.0-14.1-4.1","battery-v0.2","","""event"",""trial"",""time""
""fullscreenenter"",""1"",""2021""
""blur"",""2"",""8581""
""focus"",""2"",""15026""
""blur"",""2"",""29563""
""focus"",""2"",""45257""
","""event"",""trial"",""time""
""blur"",""2"",""8581""
""blur"",""2"",""29563""
","""event"",""trial"",""time""
""focus"",""2"",""15026""
""focus"",""2"",""45257""
","""event"",""trial"",""time""
""fullscreenenter"",""1"",""2021""
","
","","","-1","","","23","10839","5196","&#9826;","elianto","#f73b6a7A","-1","-1","1","0","[]","0","0","3","","","","","","","",""
"pit-trial","69","694213","0.0-2.0-14.2-0.2","battery-v0.2","","""event"",""trial"",""time""
""fullscreenenter"",""1"",""2021""
""blur"",""2"",""8581""
""focus"",""2"",""15026""
""blur"",""2"",""29563""
""focus"",""2"",""45257""
","""event"",""trial"",""time""
""blur"",""2"",""8581""
""blur"",""2"",""29563""
","""event"",""trial"",""time""
""focus"",""2"",""15026""
""focus"",""2"",""45257""
","""event"",""trial"",""time""
""fullscreenenter"",""1"",""2021""
","
","","","-1","","","23","10839","5196","&#9826;","elianto","#f73b6a7A","-1","-1","1","0","[]","0","0","3","","","","","","","",""
"pit-trial","70","699068","0.0-2.0-14.2-1.2","battery-v0.2","","""event"",""trial"",""time""
""fullscreenenter"",""1"",""2021""
""blur"",""2"",""8581""
""focus"",""2"",""15026""
""blur"",""2"",""29563""
""focus"",""2"",""45257""
","""event"",""trial"",""time""
""blur"",""2"",""8581""
""blur"",""2"",""29563""
","""event"",""trial"",""time""
""focus"",""2"",""15026""
""focus"",""2"",""45257""
","""event"",""trial"",""time""
""fullscreenenter"",""1"",""2021""
","
","","","-1","","","23","10839","5196","&#9826;","elianto","#f73b6a7A","-1","-1","1","0","[]","0","0","3","","","","","","","",""
"pit-trial","71","703921","0.0-2.0-14.2-2.2","battery-v0.2","","""event"",""trial"",""time""
""fullscreenenter"",""1"",""2021""
""blur"",""2"",""8581""
""focus"",""2"",""15026""
""blur"",""2"",""29563""
""focus"",""2"",""45257""
","""event"",""trial"",""time""
""blur"",""2"",""8581""
""blur"",""2"",""29563""
","""event"",""trial"",""time""
""focus"",""2"",""15026""
""focus"",""2"",""45257""
","""event"",""trial"",""time""
""fullscreenenter"",""1"",""2021""
","
","","","-1","","","23","10839","5196","&#9826;","elianto","#f73b6a7A","-1","-1","1","0","[]","0","0","3","","","","","","","",""
"pit-trial","72","708775","0.0-2.0-14.2-3.2","battery-v0.2","","""event"",""trial"",""time""
""fullscreenenter"",""1"",""2021""
""blur"",""2"",""8581""
""focus"",""2"",""15026""
""blur"",""2"",""29563""
""focus"",""2"",""45257""
","""event"",""trial"",""time""
""blur"",""2"",""8581""
""blur"",""2"",""29563""
","""event"",""trial"",""time""
""focus"",""2"",""15026""
""focus"",""2"",""45257""
","""event"",""trial"",""time""
""fullscreenenter"",""1"",""2021""
","
","","","-1","","","23","10839","5196","&#9826;","elianto","#f73b6a7A","-1","-1","1","-10","[]","0","0","3","","","","","","","",""
"pit-trial","73","713629","0.0-2.0-14.2-4.2","battery-v0.2","","""event"",""trial"",""time""
""fullscreenenter"",""1"",""2021""
""blur"",""2"",""8581""
""focus"",""2"",""15026""
""blur"",""2"",""29563""
""focus"",""2"",""45257""
","""event"",""trial"",""time""
""blur"",""2"",""8581""
""blur"",""2"",""29563""
","""event"",""trial"",""time""
""focus"",""2"",""15026""
""focus"",""2"",""45257""
","""event"",""trial"",""time""
""fullscreenenter"",""1"",""2021""
","
","","","-1","","","23","10839","5196","&#9826;","elianto","#f73b6a7A","-1","-1","1","0","[]","0","0","3","","","","","","","",""
"pit-trial","74","718483","0.0-2.0-14.3-0.3","battery-v0.2","","""event"",""trial"",""time""
""fullscreenenter"",""1"",""2021""
""blur"",""2"",""8581""
""focus"",""2"",""15026""
""blur"",""2"",""29563""
""focus"",""2"",""45257""
","""event"",""trial"",""time""
""blur"",""2"",""8581""
""blur"",""2"",""29563""
","""event"",""trial"",""time""
""focus"",""2"",""15026""
""focus"",""2"",""45257""
","""event"",""trial"",""time""
""fullscreenenter"",""1"",""2021""
","
","","","-1","","","23","10839","5196","&#9826;","elianto","#f73b6a7A","-1","-1","1","0","[]","0","0","3","","","","","","","",""
"pit-trial","75","723338","0.0-2.0-14.3-1.3","battery-v0.2","","""event"",""trial"",""time""
""fullscreenenter"",""1"",""2021""
""blur"",""2"",""8581""
""focus"",""2"",""15026""
""blur"",""2"",""29563""
""focus"",""2"",""45257""
","""event"",""trial"",""time""
""blur"",""2"",""8581""
""blur"",""2"",""29563""
","""event"",""trial"",""time""
""focus"",""2"",""15026""
""focus"",""2"",""45257""
","""event"",""trial"",""time""
""fullscreenenter"",""1"",""2021""
","
","","","-1","","","23","10839","5196","&#9826;","elianto","#f73b6a7A","-1","-1","1","0","[]","0","0","3","","","","","","","",""
"pit-trial","76","728191","0.0-2.0-14.3-2.3","battery-v0.2","","""event"",""trial"",""time""
""fullscreenenter"",""1"",""2021""
""blur"",""2"",""8581""
""focus"",""2"",""15026""
""blur"",""2"",""29563""
""focus"",""2"",""45257""
","""event"",""trial"",""time""
""blur"",""2"",""8581""
""blur"",""2"",""29563""
","""event"",""trial"",""time""
""focus"",""2"",""15026""
""focus"",""2"",""45257""
","""event"",""trial"",""time""
""fullscreenenter"",""1"",""2021""
","
","","","-1","","","23","10839","5196","&#9826;","elianto","#f73b6a7A","-1","-1","1","0","[]","0","0","3","","","","","","","",""
"pit-trial","77","733044","0.0-2.0-14.3-3.3","battery-v0.2","","""event"",""trial"",""time""
""fullscreenenter"",""1"",""2021""
""blur"",""2"",""8581""
""focus"",""2"",""15026""
""blur"",""2"",""29563""
""focus"",""2"",""45257""
","""event"",""trial"",""time""
""blur"",""2"",""8581""
""blur"",""2"",""29563""
","""event"",""trial"",""time""
""focus"",""2"",""15026""
""focus"",""2"",""45257""
","""event"",""trial"",""time""
""fullscreenenter"",""1"",""2021""
","
","","","-1","","","23","10839","5196","&#9826;","elianto","#f73b6a7A","-1","-1","1","-10","[]","0","0","3","","","","","","","",""
"pit-trial","78","737897","0.0-2.0-14.3-4.3","battery-v0.2","","""event"",""trial"",""time""
""fullscreenenter"",""1"",""2021""
""blur"",""2"",""8581""
""focus"",""2"",""15026""
""blur"",""2"",""29563""
""focus"",""2"",""45257""
","""event"",""trial"",""time""
""blur"",""2"",""8581""
""blur"",""2"",""29563""
","""event"",""trial"",""time""
""focus"",""2"",""15026""
""focus"",""2"",""45257""
","""event"",""trial"",""time""
""fullscreenenter"",""1"",""2021""
","
","","","-1","","","23","10839","5196","&#9826;","elianto","#f73b6a7A","-1","-1","1","0","[]","0","0","3","","","","","","","",""
"call-function","79","737899","0.0-2.0-15.0","battery-v0.2","","""event"",""trial"",""time""
""fullscreenenter"",""1"",""2021""
""blur"",""2"",""8581""
""focus"",""2"",""15026""
""blur"",""2"",""29563""
""focus"",""2"",""45257""
","""event"",""trial"",""time""
""blur"",""2"",""8581""
""blur"",""2"",""29563""
","""event"",""trial"",""time""
""focus"",""2"",""15026""
""focus"",""2"",""45257""
","""event"",""trial"",""time""
""fullscreenenter"",""1"",""2021""
","
","","","","","","","","","","","","","","","","","","","","","","","","","","",""
"pit-instructions","80","762785","0.0-2.0-16.0","battery-v0.2","","""event"",""trial"",""time""
""fullscreenenter"",""1"",""2021""
""blur"",""2"",""8581""
""focus"",""2"",""15026""
""blur"",""2"",""29563""
""focus"",""2"",""45257""
","""event"",""trial"",""time""
""blur"",""2"",""8581""
""blur"",""2"",""29563""
","""event"",""trial"",""time""
""focus"",""2"",""15026""
""focus"",""2"",""45257""
","""event"",""trial"",""time""
""fullscreenenter"",""1"",""2021""
","
","","[{""page_index"":0,""viewing_time"":6656.4000000059605},{""page_index"":1,""viewing_time"":8730.59999999404},{""page_index"":2,""viewing_time"":4739.5},{""page_index"":3,""viewing_time"":4758.4000000059605}]","24885.30000001192","","","","","","","","","","","","","","","","","","","","","","","",""
"pit-trial","81","766381","0.0-2.0-17.0-0.0","battery-v0.2","","""event"",""trial"",""time""
""fullscreenenter"",""1"",""2021""
""blur"",""2"",""8581""
""focus"",""2"",""15026""
""blur"",""2"",""29563""
""focus"",""2"",""45257""
","""event"",""trial"",""time""
""blur"",""2"",""8581""
""blur"",""2"",""29563""
","""event"",""trial"",""time""
""focus"",""2"",""15026""
""focus"",""2"",""45257""
","""event"",""trial"",""time""
""fullscreenenter"",""1"",""2021""
","
","","","734.7000000178814","","","23","10839","5196","&#9789;","elianto","#f73b6a7A"," "," ","1","0","[1586.800000011921]","1","0","4","","","","","","","",""
"pit-trial","82","769887","0.0-2.0-17.0-1.0","battery-v0.2","","""event"",""trial"",""time""
""fullscreenenter"",""1"",""2021""
""blur"",""2"",""8581""
""focus"",""2"",""15026""
""blur"",""2"",""29563""
""focus"",""2"",""45257""
","""event"",""trial"",""time""
""blur"",""2"",""8581""
""blur"",""2"",""29563""
","""event"",""trial"",""time""
""focus"",""2"",""15026""
""focus"",""2"",""45257""
","""event"",""trial"",""time""
""fullscreenenter"",""1"",""2021""
","
","","","643.6999999880791","","","23","10839","5196","&#9789;","elianto","#f73b6a7A"," "," ","1","0","[1501]","1","0","4","","","","","","","",""
"pit-trial","83","773337","0.0-2.0-17.0-2.0","battery-v0.2","","""event"",""trial"",""time""
""fullscreenenter"",""1"",""2021""
""blur"",""2"",""8581""
""focus"",""2"",""15026""
""blur"",""2"",""29563""
""focus"",""2"",""45257""
","""event"",""trial"",""time""
""blur"",""2"",""8581""
""blur"",""2"",""29563""
","""event"",""trial"",""time""
""focus"",""2"",""15026""
""focus"",""2"",""45257""
","""event"",""trial"",""time""
""fullscreenenter"",""1"",""2021""
","
","","","590.3000000119209","","","23","10839","5196","&#9789;","elianto","#f73b6a7A"," "," ","1","0","[1445.5999999940395]","1","0","4","","","","","","","",""
"pit-trial","84","776799","0.0-2.0-17.0-3.0","battery-v0.2","","""event"",""trial"",""time""
""fullscreenenter"",""1"",""2021""
""blur"",""2"",""8581""
""focus"",""2"",""15026""
""blur"",""2"",""29563""
""focus"",""2"",""45257""
","""event"",""trial"",""time""
""blur"",""2"",""8581""
""blur"",""2"",""29563""
","""event"",""trial"",""time""
""focus"",""2"",""15026""
""focus"",""2"",""45257""
","""event"",""trial"",""time""
""fullscreenenter"",""1"",""2021""
","
","","","598.1000000238419","","","23","10839","5196","&#9789;","elianto","#f73b6a7A"," "," ","1","-10","[1452.6000000238419]","1","0","4","","","","","","","",""
"pit-trial","85","780178","0.0-2.0-17.0-4.0","battery-v0.2","","""event"",""trial"",""time""
""fullscreenenter"",""1"",""2021""
""blur"",""2"",""8581""
""focus"",""2"",""15026""
""blur"",""2"",""29563""
""focus"",""2"",""45257""
","""event"",""trial"",""time""
""blur"",""2"",""8581""
""blur"",""2"",""29563""
","""event"",""trial"",""time""
""focus"",""2"",""15026""
""focus"",""2"",""45257""
","""event"",""trial"",""time""
""fullscreenenter"",""1"",""2021""
","
","","","507.7000000178814","","","23","10839","5196","&#9789;","elianto","#f73b6a7A"," "," ","1","0","[1363.4000000059605]","1","0","4","","","","","","","",""
"pit-trial","86","783452","0.0-2.0-17.1-0.1","battery-v0.2","","""event"",""trial"",""time""
""fullscreenenter"",""1"",""2021""
""blur"",""2"",""8581""
""focus"",""2"",""15026""
""blur"",""2"",""29563""
""focus"",""2"",""45257""
","""event"",""trial"",""time""
""blur"",""2"",""8581""
""blur"",""2"",""29563""
","""event"",""trial"",""time""
""focus"",""2"",""15026""
""focus"",""2"",""45257""
","""event"",""trial"",""time""
""fullscreenenter"",""1"",""2021""
","
","","","412.59999999403954","","","23","10839","5196","&#9789;","elianto","#f73b6a7A"," "," ","1","0","[1271.4000000059605]","1","0","4","","","","","","","",""
"pit-trial","87","786773","0.0-2.0-17.1-1.1","battery-v0.2","","""event"",""trial"",""time""
""fullscreenenter"",""1"",""2021""
""blur"",""2"",""8581""
""focus"",""2"",""15026""
""blur"",""2"",""29563""
""focus"",""2"",""45257""
","""event"",""trial"",""time""
""blur"",""2"",""8581""
""blur"",""2"",""29563""
","""event"",""trial"",""time""
""focus"",""2"",""15026""
""focus"",""2"",""45257""
","""event"",""trial"",""time""
""fullscreenenter"",""1"",""2021""
","
","","","458.59999999403954","","","23","10839","5196","&#9789;","elianto","#f73b6a7A"," "," ","1","0","[1311.699999988079]","1","0","4","","","","","","","",""
"pit-trial","88","790145","0.0-2.0-17.1-2.1","battery-v0.2","","""event"",""trial"",""time""
""fullscreenenter"",""1"",""2021""
""blur"",""2"",""8581""
""focus"",""2"",""15026""
""blur"",""2"",""29563""
""focus"",""2"",""45257""
","""event"",""trial"",""time""
""blur"",""2"",""8581""
""blur"",""2"",""29563""
","""event"",""trial"",""time""
""focus"",""2"",""15026""
""focus"",""2"",""45257""
","""event"",""trial"",""time""
""fullscreenenter"",""1"",""2021""
","
","","","506.80000001192093","","","23","10839","5196","&#9789;","elianto","#f73b6a7A"," "," ","1","0","[1358.300000011921]","1","0","4","","","","","","","",""
"pit-trial","89","793676","0.0-2.0-17.1-3.1","battery-v0.2","","""event"",""trial"",""time""
""fullscreenenter"",""1"",""2021""
""blur"",""2"",""8581""
""focus"",""2"",""15026""
""blur"",""2"",""29563""
""focus"",""2"",""45257""
","""event"",""trial"",""time""
""blur"",""2"",""8581""
""blur"",""2"",""29563""
","""event"",""trial"",""time""
""focus"",""2"",""15026""
""focus"",""2"",""45257""
","""event"",""trial"",""time""
""fullscreenenter"",""1"",""2021""
","
","","","675.4000000059605","","","23","10839","5196","&#9789;","elianto","#f73b6a7A"," "," ","1","-10","[1528.5999999940395]","1","0","4","","","","","","","",""
"pit-trial","90","797223","0.0-2.0-17.1-4.1","battery-v0.2","","""event"",""trial"",""time""
""fullscreenenter"",""1"",""2021""
""blur"",""2"",""8581""
""focus"",""2"",""15026""
""blur"",""2"",""29563""
""focus"",""2"",""45257""
","""event"",""trial"",""time""
""blur"",""2"",""8581""
""blur"",""2"",""29563""
","""event"",""trial"",""time""
""focus"",""2"",""15026""
""focus"",""2"",""45257""
","""event"",""trial"",""time""
""fullscreenenter"",""1"",""2021""
","
","","","693.5","","","23","10839","5196","&#9789;","elianto","#f73b6a7A"," "," ","1","0","[1544.2999999821186]","1","0","4","","","","","","","",""
"pit-trial","91","800441","0.0-2.0-17.2-0.2","battery-v0.2","","""event"",""trial"",""time""
""fullscreenenter"",""1"",""2021""
""blur"",""2"",""8581""
""focus"",""2"",""15026""
""blur"",""2"",""29563""
""focus"",""2"",""45257""
","""event"",""trial"",""time""
""blur"",""2"",""8581""
""blur"",""2"",""29563""
","""event"",""trial"",""time""
""focus"",""2"",""15026""
""focus"",""2"",""45257""
","""event"",""trial"",""time""
""fullscreenenter"",""1"",""2021""
","
","","","363.2999999821186","","","23","10839","5196","&#9789;","elianto","#f73b6a7A"," "," ","1","0","[1213.4000000059605]","1","0","4","","","","","","","",""
"pit-trial","92","803847","0.0-2.0-17.2-1.2","battery-v0.2","","""event"",""trial"",""time""
""fullscreenenter"",""1"",""2021""
""blur"",""2"",""8581""
""focus"",""2"",""15026""
""blur"",""2"",""29563""
""focus"",""2"",""45257""
","""event"",""trial"",""time""
""blur"",""2"",""8581""
""blur"",""2"",""29563""
","""event"",""trial"",""time""
""focus"",""2"",""15026""
""focus"",""2"",""45257""
","""event"",""trial"",""time""
""fullscreenenter"",""1"",""2021""
","
","","","551.3000000119209","","","23","10839","5196","&#9789;","elianto","#f73b6a7A"," "," ","1","0","[1401.9000000059605]","1","0","4","","","","","","","",""
"pit-trial","93","807205","0.0-2.0-17.2-2.2","battery-v0.2","","""event"",""trial"",""time""
""fullscreenenter"",""1"",""2021""
""blur"",""2"",""8581""
""focus"",""2"",""15026""
""blur"",""2"",""29563""
""focus"",""2"",""45257""
","""event"",""trial"",""time""
""blur"",""2"",""8581""
""blur"",""2"",""29563""
","""event"",""trial"",""time""
""focus"",""2"",""15026""
""focus"",""2"",""45257""
","""event"",""trial"",""time""
""fullscreenenter"",""1"",""2021""
","
","","","502.7999999821186","","","23","10839","5196","&#9789;","elianto","#f73b6a7A"," "," ","1","0","[1355.199999988079]","1","0","4","","","","","","","",""
"pit-trial","94","810640","0.0-2.0-17.2-3.2","battery-v0.2","","""event"",""trial"",""time""
""fullscreenenter"",""1"",""2021""
""blur"",""2"",""8581""
""focus"",""2"",""15026""
""blur"",""2"",""29563""
""focus"",""2"",""45257""
","""event"",""trial"",""time""
""blur"",""2"",""8581""
""blur"",""2"",""29563""
","""event"",""trial"",""time""
""focus"",""2"",""15026""
""focus"",""2"",""45257""
","""event"",""trial"",""time""
""fullscreenenter"",""1"",""2021""
","
","","","581.2000000178814","","","23","10839","5196","&#9789;","elianto","#f73b6a7A"," "," ","1","-10","[1432.300000011921]","1","0","4","","","","","","","",""
"pit-trial","95","814007","0.0-2.0-17.2-4.2","battery-v0.2","","""event"",""trial"",""time""
""fullscreenenter"",""1"",""2021""
""blur"",""2"",""8581""
""focus"",""2"",""15026""
""blur"",""2"",""29563""
""focus"",""2"",""45257""
","""event"",""trial"",""time""
""blur"",""2"",""8581""
""blur"",""2"",""29563""
","""event"",""trial"",""time""
""focus"",""2"",""15026""
""focus"",""2"",""45257""
","""event"",""trial"",""time""
""fullscreenenter"",""1"",""2021""
","
","","","513.6999999880791","","","23","10839","5196","&#9789;","elianto","#f73b6a7A"," "," ","1","0","[1364.699999988079]","1","0","4","","","","","","","",""
"pit-trial","96","817600","0.0-2.0-17.3-0.3","battery-v0.2","","""event"",""trial"",""time""
""fullscreenenter"",""1"",""2021""
""blur"",""2"",""8581""
""focus"",""2"",""15026""
""blur"",""2"",""29563""
""focus"",""2"",""45257""
","""event"",""trial"",""time""
""blur"",""2"",""8581""
""blur"",""2"",""29563""
","""event"",""trial"",""time""
""focus"",""2"",""15026""
""focus"",""2"",""45257""
","""event"",""trial"",""time""
""fullscreenenter"",""1"",""2021""
","
","","","739.8000000119209","","","23","10839","5196","&#9789;","elianto","#f73b6a7A"," "," ","1","0","[1590]","1","0","4","","","","","","","",""
"pit-trial","97","821118","0.0-2.0-17.3-1.3","battery-v0.2","","""event"",""trial"",""time""
""fullscreenenter"",""1"",""2021""
""blur"",""2"",""8581""
""focus"",""2"",""15026""
""blur"",""2"",""29563""
""focus"",""2"",""45257""
","""event"",""trial"",""time""
""blur"",""2"",""8581""
""blur"",""2"",""29563""
","""event"",""trial"",""time""
""focus"",""2"",""15026""
""focus"",""2"",""45257""
","""event"",""trial"",""time""
""fullscreenenter"",""1"",""2021""
","
","","","663.6000000238419","","","23","10839","5196","&#9789;","elianto","#f73b6a7A"," "," ","1","0","[1514.800000011921]","1","0","4","","","","","","","",""
"pit-trial","98","824554","0.0-2.0-17.3-2.3","battery-v0.2","","""event"",""trial"",""time""
""fullscreenenter"",""1"",""2021""
""blur"",""2"",""8581""
""focus"",""2"",""15026""
""blur"",""2"",""29563""
""focus"",""2"",""45257""
","""event"",""trial"",""time""
""blur"",""2"",""8581""
""blur"",""2"",""29563""
","""event"",""trial"",""time""
""focus"",""2"",""15026""
""focus"",""2"",""45257""
","""event"",""trial"",""time""
""fullscreenenter"",""1"",""2021""
","
","","","581.6999999880791","","","23","10839","5196","&#9789;","elianto","#f73b6a7A"," "," ","1","0","[1432.199999988079]","1","0","4","","","","","","","",""
"pit-trial","99","827935","0.0-2.0-17.3-3.3","battery-v0.2","","""event"",""trial"",""time""
""fullscreenenter"",""1"",""2021""
""blur"",""2"",""8581""
""focus"",""2"",""15026""
""blur"",""2"",""29563""
""focus"",""2"",""45257""
","""event"",""trial"",""time""
""blur"",""2"",""8581""
""blur"",""2"",""29563""
","""event"",""trial"",""time""
""focus"",""2"",""15026""
""focus"",""2"",""45257""
","""event"",""trial"",""time""
""fullscreenenter"",""1"",""2021""
","
","","","526.2000000178814","","","23","10839","5196","&#9789;","elianto","#f73b6a7A"," "," ","1","-10","[1378.5999999940395]","1","0","4","","","","","","","",""
"pit-trial","100","831275","0.0-2.0-17.3-4.3","battery-v0.2","","""event"",""trial"",""time""
""fullscreenenter"",""1"",""2021""
""blur"",""2"",""8581""
""focus"",""2"",""15026""
""blur"",""2"",""29563""
""focus"",""2"",""45257""
","""event"",""trial"",""time""
""blur"",""2"",""8581""
""blur"",""2"",""29563""
","""event"",""trial"",""time""
""focus"",""2"",""15026""
""focus"",""2"",""45257""
","""event"",""trial"",""time""
""fullscreenenter"",""1"",""2021""
","
","","","484.2000000178814","","","23","10839","5196","&#9789;","elianto","#f73b6a7A"," "," ","1","0","[1335.2999999821186]","1","0","4","","","","","","","",""
"call-function","101","831280","0.0-2.0-18.0","battery-v0.2","","""event"",""trial"",""time""
""fullscreenenter"",""1"",""2021""
""blur"",""2"",""8581""
""focus"",""2"",""15026""
""blur"",""2"",""29563""
""focus"",""2"",""45257""
","""event"",""trial"",""time""
""blur"",""2"",""8581""
""blur"",""2"",""29563""
","""event"",""trial"",""time""
""focus"",""2"",""15026""
""focus"",""2"",""45257""
","""event"",""trial"",""time""
""fullscreenenter"",""1"",""2021""
","
","","","","","","","","","","","","","","","","","","","","","","","","","","",""
"pit-instructions","102","914813","0.0-2.0-19.0","battery-v0.2","","""event"",""trial"",""time""
""fullscreenenter"",""1"",""2021""
""blur"",""2"",""8581""
""focus"",""2"",""15026""
""blur"",""2"",""29563""
""focus"",""2"",""45257""
","""event"",""trial"",""time""
""blur"",""2"",""8581""
""blur"",""2"",""29563""
","""event"",""trial"",""time""
""focus"",""2"",""15026""
""focus"",""2"",""45257""
","""event"",""trial"",""time""
""fullscreenenter"",""1"",""2021""
","
","","[{""page_index"":0,""viewing_time"":8434.40000000596},{""page_index"":1,""viewing_time"":7213.5},{""page_index"":2,""viewing_time"":15166.300000011921},{""page_index"":3,""viewing_time"":15499.90000000596},{""page_index"":4,""viewing_time"":8617.799999982119},{""page_index"":5,""viewing_time"":8708.300000011921},{""page_index"":6,""viewing_time"":8841.90000000596},{""page_index"":7,""viewing_time"":6549.699999988079},{""page_index"":8,""viewing_time"":4500.4000000059605}]","83532.60000002384","","","","","","","","","","","","","","","","","","","","","","","",""
"pit-comprehension","103","920131","0.0-2.0-20.0-0.0","battery-v0.2","","""event"",""trial"",""time""
""fullscreenenter"",""1"",""2021""
""blur"",""2"",""8581""
""focus"",""2"",""15026""
""blur"",""2"",""29563""
""focus"",""2"",""45257""
","""event"",""trial"",""time""
""blur"",""2"",""8581""
""blur"",""2"",""29563""
","""event"",""trial"",""time""
""focus"",""2"",""15026""
""focus"",""2"",""45257""
","""event"",""trial"",""time""
""fullscreenenter"",""1"",""2021""
","
","","","5312.4000000059605","[""SPACE""]","0","23","10839","5196","","","","","","","","","","","","","","","","","","",""
"pit-instructions","104","923981","0.0-2.0-20.0-1.0","battery-v0.2","","""event"",""trial"",""time""
""fullscreenenter"",""1"",""2021""
""blur"",""2"",""8581""
""focus"",""2"",""15026""
""blur"",""2"",""29563""
""focus"",""2"",""45257""
","""event"",""trial"",""time""
""blur"",""2"",""8581""
""blur"",""2"",""29563""
","""event"",""trial"",""time""
""focus"",""2"",""15026""
""focus"",""2"",""45257""
","""event"",""trial"",""time""
""fullscreenenter"",""1"",""2021""
","
","","[{""page_index"":0,""viewing_time"":3796.199999988079}]","3796.5","","","","","","","","","","","","","","","","","","","","","","","",""
"pit-comprehension","105","932426","0.0-2.0-21.0-0.0","battery-v0.2","","""event"",""trial"",""time""
""fullscreenenter"",""1"",""2021""
""blur"",""2"",""8581""
""focus"",""2"",""15026""
""blur"",""2"",""29563""
""focus"",""2"",""45257""
","""event"",""trial"",""time""
""blur"",""2"",""8581""
""blur"",""2"",""29563""
","""event"",""trial"",""time""
""focus"",""2"",""15026""
""focus"",""2"",""45257""
","""event"",""trial"",""time""
""fullscreenenter"",""1"",""2021""
","
","","","8442.09999999404","[""10""]","0","23","10839","5196","","","","","","","","","","","","","","","","","","",""
"pit-instructions","106","934687","0.0-2.0-21.0-1.0","battery-v0.2","","""event"",""trial"",""time""
""fullscreenenter"",""1"",""2021""
""blur"",""2"",""8581""
""focus"",""2"",""15026""
""blur"",""2"",""29563""
""focus"",""2"",""45257""
","""event"",""trial"",""time""
""blur"",""2"",""8581""
""blur"",""2"",""29563""
","""event"",""trial"",""time""
""focus"",""2"",""15026""
""focus"",""2"",""45257""
","""event"",""trial"",""time""
""fullscreenenter"",""1"",""2021""
","
","","[{""page_index"":0,""viewing_time"":2195}]","2195.4000000059605","","","","","","","","","","","","","","","","","","","","","","","",""
"pit-comprehension","107","941580","0.0-2.0-22.0-0.0","battery-v0.2","","""event"",""trial"",""time""
""fullscreenenter"",""1"",""2021""
""blur"",""2"",""8581""
""focus"",""2"",""15026""
""blur"",""2"",""29563""
""focus"",""2"",""45257""
","""event"",""trial"",""time""
""blur"",""2"",""8581""
""blur"",""2"",""29563""
","""event"",""trial"",""time""
""focus"",""2"",""15026""
""focus"",""2"",""45257""
","""event"",""trial"",""time""
""fullscreenenter"",""1"",""2021""
","
","","","6887.800000011921","[""0""]","0","23","10839","5196","","","","","","","","","","","","","","","","","","",""
"pit-instructions","108","943521","0.0-2.0-22.0-1.0","battery-v0.2","","""event"",""trial"",""time""
""fullscreenenter"",""1"",""2021""
""blur"",""2"",""8581""
""focus"",""2"",""15026""
""blur"",""2"",""29563""
""focus"",""2"",""45257""
","""event"",""trial"",""time""
""blur"",""2"",""8581""
""blur"",""2"",""29563""
","""event"",""trial"",""time""
""focus"",""2"",""15026""
""focus"",""2"",""45257""
","""event"",""trial"",""time""
""fullscreenenter"",""1"",""2021""
","
","","[{""page_index"":0,""viewing_time"":1882.2999999821186}]","1882.699999988079","","","","","","","","","","","","","","","","","","","","","","","",""
"pit-comprehension","109","955541","0.0-2.0-23.0-0.0","battery-v0.2","","""event"",""trial"",""time""
""fullscreenenter"",""1"",""2021""
""blur"",""2"",""8581""
""focus"",""2"",""15026""
""blur"",""2"",""29563""
""focus"",""2"",""45257""
","""event"",""trial"",""time""
""blur"",""2"",""8581""
""blur"",""2"",""29563""
","""event"",""trial"",""time""
""focus"",""2"",""15026""
""focus"",""2"",""45257""
","""event"",""trial"",""time""
""fullscreenenter"",""1"",""2021""
","
","","","12017.40000000596","[""False""]","1","23","10839","5196","","","","","","","","","","","","","","","","","","",""
"pit-instructions","110","963723","0.0-2.0-23.0-1.0","battery-v0.2","","""event"",""trial"",""time""
""fullscreenenter"",""1"",""2021""
""blur"",""2"",""8581""
""focus"",""2"",""15026""
""blur"",""2"",""29563""
""focus"",""2"",""45257""
","""event"",""trial"",""time""
""blur"",""2"",""8581""
""blur"",""2"",""29563""
","""event"",""trial"",""time""
""focus"",""2"",""15026""
""focus"",""2"",""45257""
","""event"",""trial"",""time""
""fullscreenenter"",""1"",""2021""
","
","","[{""page_index"":0,""viewing_time"":8125.800000011921}]","8126.0999999940395","","","","","","","","","","","","","","","","","","","","","","","",""
"pit-instructions","111","964979","0.0-2.0-23.0-2.0-0.0","battery-v0.2","","""event"",""trial"",""time""
""fullscreenenter"",""1"",""2021""
""blur"",""2"",""8581""
""focus"",""2"",""15026""
""blur"",""2"",""29563""
""focus"",""2"",""45257""
","""event"",""trial"",""time""
""blur"",""2"",""8581""
""blur"",""2"",""29563""
","""event"",""trial"",""time""
""focus"",""2"",""15026""
""focus"",""2"",""45257""
","""event"",""trial"",""time""
""fullscreenenter"",""1"",""2021""
","
","","[{""page_index"":0,""viewing_time"":1252.2999999821186}]","1252.5","","","","","","","","","","","","","","","","","","","","","","","",""
"pit-comprehension","112","973464","0.0-2.0-23.1-0.1","battery-v0.2","","""event"",""trial"",""time""
""fullscreenenter"",""1"",""2021""
""blur"",""2"",""8581""
""focus"",""2"",""15026""
""blur"",""2"",""29563""
""focus"",""2"",""45257""
","""event"",""trial"",""time""
""blur"",""2"",""8581""
""blur"",""2"",""29563""
","""event"",""trial"",""time""
""focus"",""2"",""15026""
""focus"",""2"",""45257""
","""event"",""trial"",""time""
""fullscreenenter"",""1"",""2021""
","
","","","8482.200000017881","[""True""]","0","23","10839","5196","","","","","","","","","","","","","","","","","","",""
"pit-instructions","113","975795","0.0-2.0-23.1-1.1","battery-v0.2","","""event"",""trial"",""time""
""fullscreenenter"",""1"",""2021""
""blur"",""2"",""8581""
""focus"",""2"",""15026""
""blur"",""2"",""29563""
""focus"",""2"",""45257""
","""event"",""trial"",""time""
""blur"",""2"",""8581""
""blur"",""2"",""29563""
","""event"",""trial"",""time""
""focus"",""2"",""15026""
""focus"",""2"",""45257""
","""event"",""trial"",""time""
""fullscreenenter"",""1"",""2021""
","
","","[{""page_index"":0,""viewing_time"":2278.5999999940395}]","2279","","","","","","","","","","","","","","","","","","","","","","","",""
"pit-comprehension","114","984776","0.0-2.0-24.0-0.0","battery-v0.2","","""event"",""trial"",""time""
""fullscreenenter"",""1"",""2021""
""blur"",""2"",""8581""
""focus"",""2"",""15026""
""blur"",""2"",""29563""
""focus"",""2"",""45257""
","""event"",""trial"",""time""
""blur"",""2"",""8581""
""blur"",""2"",""29563""
","""event"",""trial"",""time""
""focus"",""2"",""15026""
""focus"",""2"",""45257""
","""event"",""trial"",""time""
""fullscreenenter"",""1"",""2021""
","
","","","8978","[""True""]","0","23","10839","5196","","","","","","","","","","","","","","","","","","",""
"pit-instructions","115","987145","0.0-2.0-24.0-1.0","battery-v0.2","","""event"",""trial"",""time""
""fullscreenenter"",""1"",""2021""
""blur"",""2"",""8581""
""focus"",""2"",""15026""
""blur"",""2"",""29563""
""focus"",""2"",""45257""
","""event"",""trial"",""time""
""blur"",""2"",""8581""
""blur"",""2"",""29563""
","""event"",""trial"",""time""
""focus"",""2"",""15026""
""focus"",""2"",""45257""
","""event"",""trial"",""time""
""fullscreenenter"",""1"",""2021""
","
","","[{""page_index"":0,""viewing_time"":2313.9000000059605}]","2314.300000011921","","","","","","","","","","","","","","","","","","","","","","","",""
"pit-comprehension","116","993768","0.0-2.0-25.0-0.0","battery-v0.2","","""event"",""trial"",""time""
""fullscreenenter"",""1"",""2021""
""blur"",""2"",""8581""
""focus"",""2"",""15026""
""blur"",""2"",""29563""
""focus"",""2"",""45257""
","""event"",""trial"",""time""
""blur"",""2"",""8581""
""blur"",""2"",""29563""
","""event"",""trial"",""time""
""focus"",""2"",""15026""
""focus"",""2"",""45257""
","""event"",""trial"",""time""
""fullscreenenter"",""1"",""2021""
","
","","","6619.700000017881","[""True""]","0","23","10839","5196","","","","","","","","","","","","","","","","","","",""
"pit-instructions","117","998075","0.0-2.0-25.0-1.0","battery-v0.2","","""event"",""trial"",""time""
""fullscreenenter"",""1"",""2021""
""blur"",""2"",""8581""
""focus"",""2"",""15026""
""blur"",""2"",""29563""
""focus"",""2"",""45257""
","""event"",""trial"",""time""
""blur"",""2"",""8581""
""blur"",""2"",""29563""
","""event"",""trial"",""time""
""focus"",""2"",""15026""
""focus"",""2"",""45257""
","""event"",""trial"",""time""
""fullscreenenter"",""1"",""2021""
","
","","[{""page_index"":0,""viewing_time"":4256.699999988079}]","4257.0999999940395","","","","","","","","","","","","","","","","","","","","","","","",""
"pit-comprehension","118","1004720","0.0-2.0-26.0-0.0","battery-v0.2","","""event"",""trial"",""time""
""fullscreenenter"",""1"",""2021""
""blur"",""2"",""8581""
""focus"",""2"",""15026""
""blur"",""2"",""29563""
""focus"",""2"",""45257""
","""event"",""trial"",""time""
""blur"",""2"",""8581""
""blur"",""2"",""29563""
","""event"",""trial"",""time""
""focus"",""2"",""15026""
""focus"",""2"",""45257""
","""event"",""trial"",""time""
""fullscreenenter"",""1"",""2021""
","
","","","6641.5999999940395","[""False""]","0","23","10839","5196","","","","","","","","","","","","","","","","","","",""
"pit-instructions","119","1008103","0.0-2.0-26.0-1.0","battery-v0.2","","""event"",""trial"",""time""
""fullscreenenter"",""1"",""2021""
""blur"",""2"",""8581""
""focus"",""2"",""15026""
""blur"",""2"",""29563""
""focus"",""2"",""45257""
","""event"",""trial"",""time""
""blur"",""2"",""8581""
""blur"",""2"",""29563""
","""event"",""trial"",""time""
""focus"",""2"",""15026""
""focus"",""2"",""45257""
","""event"",""trial"",""time""
""fullscreenenter"",""1"",""2021""
","
","","[{""page_index"":0,""viewing_time"":3324.4000000059605}]","3324.7000000178814","","","","","","","","","","","","","","","","","","","","","","","",""
"pit-instructions","120","1028889","0.0-3.0","battery-v0.2","","""event"",""trial"",""time""
""fullscreenenter"",""1"",""2021""
""blur"",""2"",""8581""
""focus"",""2"",""15026""
""blur"",""2"",""29563""
""focus"",""2"",""45257""
","""event"",""trial"",""time""
""blur"",""2"",""8581""
""blur"",""2"",""29563""
","""event"",""trial"",""time""
""focus"",""2"",""15026""
""focus"",""2"",""45257""
","""event"",""trial"",""time""
""fullscreenenter"",""1"",""2021""
","
","","[{""page_index"":0,""viewing_time"":5232.799999982119},{""page_index"":1,""viewing_time"":6526.200000017881},{""page_index"":2,""viewing_time"":9024.09999999404}]","20783.29999998212","","","","","","","","","","","","","","","","","","","","","","","",""
"pit-trial","121","1032522","0.0-4.0","battery-v0.2","","""event"",""trial"",""time""
""fullscreenenter"",""1"",""2021""
""blur"",""2"",""8581""
""focus"",""2"",""15026""
""blur"",""2"",""29563""
""focus"",""2"",""45257""
","""event"",""trial"",""time""
""blur"",""2"",""8581""
""blur"",""2"",""29563""
","""event"",""trial"",""time""
""focus"",""2"",""15026""
""focus"",""2"",""45257""
","""event"",""trial"",""time""
""fullscreenenter"",""1"",""2021""
","
","","","767.6999999880791","","","23","10839","5196","&#9730;","elianto","#3366ff99"," "," ","1","+10","[1621.199999988079]","1","1","","","10839","1","1","1","win","go","0"
"pit-trial","122","1036182","0.0-5.0","battery-v0.2","","""event"",""trial"",""time""
""fullscreenenter"",""1"",""2021""
""blur"",""2"",""8581""
""focus"",""2"",""15026""
""blur"",""2"",""29563""
""focus"",""2"",""45257""
","""event"",""trial"",""time""
""blur"",""2"",""8581""
""blur"",""2"",""29563""
","""event"",""trial"",""time""
""focus"",""2"",""15026""
""focus"",""2"",""45257""
","""event"",""trial"",""time""
""fullscreenenter"",""1"",""2021""
","
","","","796.0999999940395","","","23","10839","5196","&#9728;","elianto","#f73b6a7A","-1"," ","0","-10","[1648.5]","1","1","","","10839","2","0","4","lose","no-go","0"
"pit-trial","123","1039934","0.0-6.0","battery-v0.2","","""event"",""trial"",""time""
""fullscreenenter"",""1"",""2021""
""blur"",""2"",""8581""
""focus"",""2"",""15026""
""blur"",""2"",""29563""
""focus"",""2"",""45257""
","""event"",""trial"",""time""
""blur"",""2"",""8581""
""blur"",""2"",""29563""
","""event"",""trial"",""time""
""focus"",""2"",""15026""
""focus"",""2"",""45257""
","""event"",""trial"",""time""
""fullscreenenter"",""1"",""2021""
","
","","","894.3000000119209","","","23","10839","5196","&#9752;","elianto","#f73b6a7A"," "," ","1","0","[1748]","1","1","","","10839","3","3","3","lose","go","0"
"pit-trial","124","1043575","0.0-7.0","battery-v0.2","","""event"",""trial"",""time""
""fullscreenenter"",""1"",""2021""
""blur"",""2"",""8581""
""focus"",""2"",""15026""
""blur"",""2"",""29563""
""focus"",""2"",""45257""
","""event"",""trial"",""time""
""blur"",""2"",""8581""
""blur"",""2"",""29563""
","""event"",""trial"",""time""
""focus"",""2"",""15026""
""focus"",""2"",""45257""
","""event"",""trial"",""time""
""fullscreenenter"",""1"",""2021""
","
","","","768.0999999940395","","","23","10839","5196","&#9733;","elianto","#3366ff99","-1"," ","0","0","[1625.2999999821186]","1","1","","","10839","4","2","2","win","no-go","0"
"pit-trial","125","1048449","0.0-8.0","battery-v0.2","","""event"",""trial"",""time""
""fullscreenenter"",""1"",""2021""
""blur"",""2"",""8581""
""focus"",""2"",""15026""
""blur"",""2"",""29563""
""focus"",""2"",""45257""
","""event"",""trial"",""time""
""blur"",""2"",""8581""
""blur"",""2"",""29563""
","""event"",""trial"",""time""
""focus"",""2"",""15026""
""focus"",""2"",""45257""
","""event"",""trial"",""time""
""fullscreenenter"",""1"",""2021""
","
","","","-1","","","23","10839","5196","&#9733;","elianto","#3366ff99","-1","-1","1","+10","[]","0","1","","","10839","5","2","2","win","no-go","0"
"pit-trial","126","1052054","0.0-9.0","battery-v0.2","","""event"",""trial"",""time""
""fullscreenenter"",""1"",""2021""
""blur"",""2"",""8581""
""focus"",""2"",""15026""
""blur"",""2"",""29563""
""focus"",""2"",""45257""
","""event"",""trial"",""time""
""blur"",""2"",""8581""
""blur"",""2"",""29563""
","""event"",""trial"",""time""
""focus"",""2"",""15026""
""focus"",""2"",""45257""
","""event"",""trial"",""time""
""fullscreenenter"",""1"",""2021""
","
","","","745.6000000238419","","","23","10839","5196","&#9730;","elianto","#3366ff99"," "," ","1","+10","[1598.9000000059605]","1","1","","","10839","6","1","1","win","go","0"
"pit-trial","127","1055956","0.0-10.0","battery-v0.2","","""event"",""trial"",""time""
""fullscreenenter"",""1"",""2021""
""blur"",""2"",""8581""
""focus"",""2"",""15026""
""blur"",""2"",""29563""
""focus"",""2"",""45257""
","""event"",""trial"",""time""
""blur"",""2"",""8581""
""blur"",""2"",""29563""
","""event"",""trial"",""time""
""focus"",""2"",""15026""
""focus"",""2"",""45257""
","""event"",""trial"",""time""
""fullscreenenter"",""1"",""2021""
","
","","","1034.5999999940395","","","23","10839","5196","&#9728;","elianto","#f73b6a7A","-1"," ","0","0","[1886]","1","1","","","10839","7","0","4","lose","no-go","1"
"pit-trial","128","1060586","0.0-11.0","battery-v0.2","","""event"",""trial"",""time""
""fullscreenenter"",""1"",""2021""
""blur"",""2"",""8581""
""focus"",""2"",""15026""
""blur"",""2"",""29563""
""focus"",""2"",""45257""
","""event"",""trial"",""time""
""blur"",""2"",""8581""
""blur"",""2"",""29563""
","""event"",""trial"",""time""
""focus"",""2"",""15026""
""focus"",""2"",""45257""
","""event"",""trial"",""time""
""fullscreenenter"",""1"",""2021""
","
","","","1776.0999999940395","","","23","10839","5196","&#9752;","elianto","#f73b6a7A"," "," ","1","0","[2627]","1","1","","","10839","8","3","3","lose","go","0"
"pit-trial","129","1065440","0.0-12.0","battery-v0.2","","""event"",""trial"",""time""
""fullscreenenter"",""1"",""2021""
""blur"",""2"",""8581""
""focus"",""2"",""15026""
""blur"",""2"",""29563""
""focus"",""2"",""45257""
","""event"",""trial"",""time""
""blur"",""2"",""8581""
""blur"",""2"",""29563""
","""event"",""trial"",""time""
""focus"",""2"",""15026""
""focus"",""2"",""45257""
","""event"",""trial"",""time""
""fullscreenenter"",""1"",""2021""
","
","","","-1","","","23","10839","5196","&#9728;","elianto","#f73b6a7A","-1","-1","1","0","[]","0","1","","","10839","9","0","4","lose","no-go","0"
"pit-trial","130","1069407","0.0-13.0","battery-v0.2","","""event"",""trial"",""time""
""fullscreenenter"",""1"",""2021""
""blur"",""2"",""8581""
""focus"",""2"",""15026""
""blur"",""2"",""29563""
""focus"",""2"",""45257""
","""event"",""trial"",""time""
""blur"",""2"",""8581""
""blur"",""2"",""29563""
","""event"",""trial"",""time""
""focus"",""2"",""15026""
""focus"",""2"",""45257""
","""event"",""trial"",""time""
""fullscreenenter"",""1"",""2021""
","
","","","1113.199999988079","","","23","10839","5196","&#9752;","elianto","#f73b6a7A"," "," ","1","0","[1963.800000011921]","1","1","","","10839","10","3","3","lose","go","0"
"pit-trial","131","1072916","0.0-14.0","battery-v0.2","","""event"",""trial"",""time""
""fullscreenenter"",""1"",""2021""
""blur"",""2"",""8581""
""focus"",""2"",""15026""
""blur"",""2"",""29563""
""focus"",""2"",""45257""
","""event"",""trial"",""time""
""blur"",""2"",""8581""
""blur"",""2"",""29563""
","""event"",""trial"",""time""
""focus"",""2"",""15026""
""focus"",""2"",""45257""
","""event"",""trial"",""time""
""fullscreenenter"",""1"",""2021""
","
","","","655.3000000119209","","","23","10839","5196","&#9730;","elianto","#3366ff99"," "," ","1","+10","[1506.5]","1","1","","","10839","11","1","1","win","go","0"
"pit-trial","132","1077770","0.0-15.0","battery-v0.2","","""event"",""trial"",""time""
""fullscreenenter"",""1"",""2021""
""blur"",""2"",""8581""
""focus"",""2"",""15026""
""blur"",""2"",""29563""
""focus"",""2"",""45257""
","""event"",""trial"",""time""
""blur"",""2"",""8581""
""blur"",""2"",""29563""
","""event"",""trial"",""time""
""focus"",""2"",""15026""
""focus"",""2"",""45257""
","""event"",""trial"",""time""
""fullscreenenter"",""1"",""2021""
","
","","","-1","","","23","10839","5196","&#9733;","elianto","#3366ff99","-1","-1","1","+10","[]","0","1","","","10839","12","2","2","win","no-go","0"
"pit-trial","133","1082628","0.0-16.0","battery-v0.2","","""event"",""trial"",""time""
""fullscreenenter"",""1"",""2021""
""blur"",""2"",""8581""
""focus"",""2"",""15026""
""blur"",""2"",""29563""
""focus"",""2"",""45257""
","""event"",""trial"",""time""
""blur"",""2"",""8581""
""blur"",""2"",""29563""
","""event"",""trial"",""time""
""focus"",""2"",""15026""
""focus"",""2"",""45257""
","""event"",""trial"",""time""
""fullscreenenter"",""1"",""2021""
","
","","","-1","","","23","10839","5196","&#9733;","elianto","#3366ff99","-1","-1","1","0","[]","0","1","","","10839","13","2","2","win","no-go","1"
"pit-trial","134","1086424","0.0-17.0","battery-v0.2","","""event"",""trial"",""time""
""fullscreenenter"",""1"",""2021""
""blur"",""2"",""8581""
""focus"",""2"",""15026""
""blur"",""2"",""29563""
""focus"",""2"",""45257""
","""event"",""trial"",""time""
""blur"",""2"",""8581""
""blur"",""2"",""29563""
","""event"",""trial"",""time""
""focus"",""2"",""15026""
""focus"",""2"",""45257""
","""event"",""trial"",""time""
""fullscreenenter"",""1"",""2021""
","
","","","943.4000000059605","","","23","10839","5196","&#9752;","elianto","#f73b6a7A"," "," ","1","0","[1793.7999999821186]","1","1","","","10839","14","3","3","lose","go","0"
"pit-trial","135","1089927","0.0-18.0","battery-v0.2","","""event"",""trial"",""time""
""fullscreenenter"",""1"",""2021""
""blur"",""2"",""8581""
""focus"",""2"",""15026""
""blur"",""2"",""29563""
""focus"",""2"",""45257""
","""event"",""trial"",""time""
""blur"",""2"",""8581""
""blur"",""2"",""29563""
","""event"",""trial"",""time""
""focus"",""2"",""15026""
""focus"",""2"",""45257""
","""event"",""trial"",""time""
""fullscreenenter"",""1"",""2021""
","
","","","649.3000000119209","","","23","10839","5196","&#9730;","elianto","#3366ff99"," "," ","1","+10","[1499.4000000059605]","1","1","","","10839","15","1","1","win","go","0"
"pit-trial","136","1094779","0.0-19.0","battery-v0.2","","""event"",""trial"",""time""
""fullscreenenter"",""1"",""2021""
""blur"",""2"",""8581""
""focus"",""2"",""15026""
""blur"",""2"",""29563""
""focus"",""2"",""45257""
","""event"",""trial"",""time""
""blur"",""2"",""8581""
""blur"",""2"",""29563""
","""event"",""trial"",""time""
""focus"",""2"",""15026""
""focus"",""2"",""45257""
","""event"",""trial"",""time""
""fullscreenenter"",""1"",""2021""
","
","","","-1","","","23","10839","5196","&#9728;","elianto","#f73b6a7A","-1","-1","1","0","[]","0","1","","","10839","16","0","4","lose","no-go","0"
"pit-trial","137","1099635","0.0-20.0","battery-v0.2","","""event"",""trial"",""time""
""fullscreenenter"",""1"",""2021""
""blur"",""2"",""8581""
""focus"",""2"",""15026""
""blur"",""2"",""29563""
""focus"",""2"",""45257""
","""event"",""trial"",""time""
""blur"",""2"",""8581""
""blur"",""2"",""29563""
","""event"",""trial"",""time""
""focus"",""2"",""15026""
""focus"",""2"",""45257""
","""event"",""trial"",""time""
""fullscreenenter"",""1"",""2021""
","
","","","-1","","","23","10839","5196","&#9733;","elianto","#3366ff99","-1","-1","1","+10","[]","0","1","","","10839","17","2","2","win","no-go","0"
"pit-trial","138","1104489","0.0-21.0","battery-v0.2","","""event"",""trial"",""time""
""fullscreenenter"",""1"",""2021""
""blur"",""2"",""8581""
""focus"",""2"",""15026""
""blur"",""2"",""29563""
""focus"",""2"",""45257""
","""event"",""trial"",""time""
""blur"",""2"",""8581""
""blur"",""2"",""29563""
","""event"",""trial"",""time""
""focus"",""2"",""15026""
""focus"",""2"",""45257""
","""event"",""trial"",""time""
""fullscreenenter"",""1"",""2021""
","
","","","-1","","","23","10839","5196","&#9752;","elianto","#f73b6a7A"," ","-1","0","-10","[]","0","1","","","10839","18","3","3","lose","go","0"
"pit-trial","139","1109342","0.0-22.0","battery-v0.2","","""event"",""trial"",""time""
""fullscreenenter"",""1"",""2021""
""blur"",""2"",""8581""
""focus"",""2"",""15026""
""blur"",""2"",""29563""
""focus"",""2"",""45257""
","""event"",""trial"",""time""
""blur"",""2"",""8581""
""blur"",""2"",""29563""
","""event"",""trial"",""time""
""focus"",""2"",""15026""
""focus"",""2"",""45257""
","""event"",""trial"",""time""
""fullscreenenter"",""1"",""2021""
","
","","","-1","","","23","10839","5196","&#9728;","elianto","#f73b6a7A","-1","-1","1","0","[]","0","1","","","10839","19","0","4","lose","no-go","0"
"pit-trial","140","1113192","0.0-23.0","battery-v0.2","","""event"",""trial"",""time""
""fullscreenenter"",""1"",""2021""
""blur"",""2"",""8581""
""focus"",""2"",""15026""
""blur"",""2"",""29563""
""focus"",""2"",""45257""
""blur"",""141"",""1121043""
""focus"",""141"",""1136801""
""blur"",""141"",""1143047""
""focus"",""141"",""1145087""
","""event"",""trial"",""time""
""blur"",""2"",""8581""
""blur"",""2"",""29563""
""blur"",""141"",""1121043""
""blur"",""141"",""1143047""
","""event"",""trial"",""time""
""focus"",""2"",""15026""
""focus"",""2"",""45257""
""focus"",""141"",""1136801""
""focus"",""141"",""1145087""
","""event"",""trial"",""time""
""fullscreenenter"",""1"",""2021""
","
","","","996.6999999880791","","","23","10839","5196","&#9730;","elianto","#3366ff99"," "," ","1","+10","[1847.4000000059605]","1","1","","","10839","20","1","1","win","go","0"
"pit-instructions","141","1145206","0.0-24.0","battery-v0.2","","""event"",""trial"",""time""
""fullscreenenter"",""1"",""2021""
""blur"",""2"",""8581""
""focus"",""2"",""15026""
""blur"",""2"",""29563""
""focus"",""2"",""45257""
""blur"",""141"",""1121043""
""focus"",""141"",""1136801""
""blur"",""141"",""1143047""
""focus"",""141"",""1145087""
","""event"",""trial"",""time""
""blur"",""2"",""8581""
""blur"",""2"",""29563""
""blur"",""141"",""1121043""
""blur"",""141"",""1143047""
","""event"",""trial"",""time""
""focus"",""2"",""15026""
""focus"",""2"",""45257""
""focus"",""141"",""1136801""
""focus"",""141"",""1145087""
","""event"",""trial"",""time""
""fullscreenenter"",""1"",""2021""
","
","","[{""page_index"":0,""viewing_time"":23718.5},{""page_index"":1,""viewing_time"":8294.09999999404}]","32013","","","","","","","","","","","","","","","","","","","","","","","",""
"pit-trial","142","1148965","0.0-25.0","battery-v0.2","","""event"",""trial"",""time""
""fullscreenenter"",""1"",""2021""
""blur"",""2"",""8581""
""focus"",""2"",""15026""
""blur"",""2"",""29563""
""focus"",""2"",""45257""
""blur"",""141"",""1121043""
""focus"",""141"",""1136801""
""blur"",""141"",""1143047""
""focus"",""141"",""1145087""
","""event"",""trial"",""time""
""blur"",""2"",""8581""
""blur"",""2"",""29563""
""blur"",""141"",""1121043""
""blur"",""141"",""1143047""
","""event"",""trial"",""time""
""focus"",""2"",""15026""
""focus"",""2"",""45257""
""focus"",""141"",""1136801""
""focus"",""141"",""1145087""
","""event"",""trial"",""time""
""fullscreenenter"",""1"",""2021""
","
","","","890.3000000119209","","","23","10839","5196","d","elianto","#3366ff99"," "," ","1","+10","[1741.7000000178814]","1","2","","","10839","21","1","1","win","go","0"
"pit-trial","143","1152502","0.0-26.0","battery-v0.2","","""event"",""trial"",""time""
""fullscreenenter"",""1"",""2021""
""blur"",""2"",""8581""
""focus"",""2"",""15026""
""blur"",""2"",""29563""
""focus"",""2"",""45257""
""blur"",""141"",""1121043""
""focus"",""141"",""1136801""
""blur"",""141"",""1143047""
""focus"",""141"",""1145087""
","""event"",""trial"",""time""
""blur"",""2"",""8581""
""blur"",""2"",""29563""
""blur"",""141"",""1121043""
""blur"",""141"",""1143047""
","""event"",""trial"",""time""
""focus"",""2"",""15026""
""focus"",""2"",""45257""
""focus"",""141"",""1136801""
""focus"",""141"",""1145087""
","""event"",""trial"",""time""
""fullscreenenter"",""1"",""2021""
","
","","","662.9000000059605","","","23","10839","5196","j","elianto","#f73b6a7A","-1"," ","0","-10","[1524.300000011921]","1","2","","","10839","22","0","4","lose","no-go","0"
"pit-trial","144","1156040","0.0-27.0","battery-v0.2","","""event"",""trial"",""time""
""fullscreenenter"",""1"",""2021""
""blur"",""2"",""8581""
""focus"",""2"",""15026""
""blur"",""2"",""29563""
""focus"",""2"",""45257""
""blur"",""141"",""1121043""
""focus"",""141"",""1136801""
""blur"",""141"",""1143047""
""focus"",""141"",""1145087""
","""event"",""trial"",""time""
""blur"",""2"",""8581""
""blur"",""2"",""29563""
""blur"",""141"",""1121043""
""blur"",""141"",""1143047""
","""event"",""trial"",""time""
""focus"",""2"",""15026""
""focus"",""2"",""45257""
""focus"",""141"",""1136801""
""focus"",""141"",""1145087""
","""event"",""trial"",""time""
""fullscreenenter"",""1"",""2021""
","
","","","672.0999999940395","","","23","10839","5196","w","elianto","#f73b6a7A"," "," ","1","0","[1534]","1","2","","","10839","23","3","3","lose","go","0"
"pit-trial","145","1159641","0.0-28.0","battery-v0.2","","""event"",""trial"",""time""
""fullscreenenter"",""1"",""2021""
""blur"",""2"",""8581""
""focus"",""2"",""15026""
""blur"",""2"",""29563""
""focus"",""2"",""45257""
""blur"",""141"",""1121043""
""focus"",""141"",""1136801""
""blur"",""141"",""1143047""
""focus"",""141"",""1145087""
","""event"",""trial"",""time""
""blur"",""2"",""8581""
""blur"",""2"",""29563""
""blur"",""141"",""1121043""
""blur"",""141"",""1143047""
","""event"",""trial"",""time""
""focus"",""2"",""15026""
""focus"",""2"",""45257""
""focus"",""141"",""1136801""
""focus"",""141"",""1145087""
","""event"",""trial"",""time""
""fullscreenenter"",""1"",""2021""
","
","","","732","","","23","10839","5196","e","elianto","#f73b6a7A","-1"," ","0","-10","[1595.7999999821186]","1","2","","","10839","24","2","4","lose","no-go","0"
"pit-trial","146","1164513","0.0-29.0","battery-v0.2","","""event"",""trial"",""time""
""fullscreenenter"",""1"",""2021""
""blur"",""2"",""8581""
""focus"",""2"",""15026""
""blur"",""2"",""29563""
""focus"",""2"",""45257""
""blur"",""141"",""1121043""
""focus"",""141"",""1136801""
""blur"",""141"",""1143047""
""focus"",""141"",""1145087""
","""event"",""trial"",""time""
""blur"",""2"",""8581""
""blur"",""2"",""29563""
""blur"",""141"",""1121043""
""blur"",""141"",""1143047""
","""event"",""trial"",""time""
""focus"",""2"",""15026""
""focus"",""2"",""45257""
""focus"",""141"",""1136801""
""focus"",""141"",""1145087""
","""event"",""trial"",""time""
""fullscreenenter"",""1"",""2021""
","
","","","-1","","","23","10839","5196","j","elianto","#f73b6a7A","-1","-1","1","0","[]","0","2","","","10839","25","0","4","lose","no-go","0"
"pit-trial","147","1169381","0.0-30.0","battery-v0.2","","""event"",""trial"",""time""
""fullscreenenter"",""1"",""2021""
""blur"",""2"",""8581""
""focus"",""2"",""15026""
""blur"",""2"",""29563""
""focus"",""2"",""45257""
""blur"",""141"",""1121043""
""focus"",""141"",""1136801""
""blur"",""141"",""1143047""
""focus"",""141"",""1145087""
","""event"",""trial"",""time""
""blur"",""2"",""8581""
""blur"",""2"",""29563""
""blur"",""141"",""1121043""
""blur"",""141"",""1143047""
","""event"",""trial"",""time""
""focus"",""2"",""15026""
""focus"",""2"",""45257""
""focus"",""141"",""1136801""
""focus"",""141"",""1145087""
","""event"",""trial"",""time""
""fullscreenenter"",""1"",""2021""
","
","","","-1","","","23","10839","5196","w","elianto","#f73b6a7A"," ","-1","0","-10","[]","0","2","","","10839","26","3","3","lose","go","0"
"pit-trial","148","1173106","0.0-31.0","battery-v0.2","","""event"",""trial"",""time""
""fullscreenenter"",""1"",""2021""
""blur"",""2"",""8581""
""focus"",""2"",""15026""
""blur"",""2"",""29563""
""focus"",""2"",""45257""
""blur"",""141"",""1121043""
""focus"",""141"",""1136801""
""blur"",""141"",""1143047""
""focus"",""141"",""1145087""
","""event"",""trial"",""time""
""blur"",""2"",""8581""
""blur"",""2"",""29563""
""blur"",""141"",""1121043""
""blur"",""141"",""1143047""
","""event"",""trial"",""time""
""focus"",""2"",""15026""
""focus"",""2"",""45257""
""focus"",""141"",""1136801""
""focus"",""141"",""1145087""
","""event"",""trial"",""time""
""fullscreenenter"",""1"",""2021""
","
","","","859.2000000178814","","","23","10839","5196","d","elianto","#3366ff99"," "," ","1","+10","[1709.2000000178814]","1","2","","","10839","27","1","1","win","go","0"
"pit-trial","149","1177962","0.0-32.0","battery-v0.2","","""event"",""trial"",""time""
""fullscreenenter"",""1"",""2021""
""blur"",""2"",""8581""
""focus"",""2"",""15026""
""blur"",""2"",""29563""
""focus"",""2"",""45257""
""blur"",""141"",""1121043""
""focus"",""141"",""1136801""
""blur"",""141"",""1143047""
""focus"",""141"",""1145087""
","""event"",""trial"",""time""
""blur"",""2"",""8581""
""blur"",""2"",""29563""
""blur"",""141"",""1121043""
""blur"",""141"",""1143047""
","""event"",""trial"",""time""
""focus"",""2"",""15026""
""focus"",""2"",""45257""
""focus"",""141"",""1136801""
""focus"",""141"",""1145087""
","""event"",""trial"",""time""
""fullscreenenter"",""1"",""2021""
","
","","","-1","","","23","10839","5196","e","elianto","#f73b6a7A","-1","-1","1","0","[]","0","2","","","10839","28","2","4","lose","no-go","0"
"pit-trial","150","1181630","0.0-33.0","battery-v0.2","","""event"",""trial"",""time""
""fullscreenenter"",""1"",""2021""
""blur"",""2"",""8581""
""focus"",""2"",""15026""
""blur"",""2"",""29563""
""focus"",""2"",""45257""
""blur"",""141"",""1121043""
""focus"",""141"",""1136801""
""blur"",""141"",""1143047""
""focus"",""141"",""1145087""
","""event"",""trial"",""time""
""blur"",""2"",""8581""
""blur"",""2"",""29563""
""blur"",""141"",""1121043""
""blur"",""141"",""1143047""
","""event"",""trial"",""time""
""focus"",""2"",""15026""
