"trial_type","trial_index","time_elapsed","internal_node_id","task_version","subject_id","interactions","blur_events","focus_events","fullscreenenter_events","fullscreenexit_events","success","view_history","rt","responses","num_errors","age","subject","participantId","rune","rune_set","hex","correct","choice","accuracy","outcome","keys","total_keys","block","practice","value","sub","trial","stimulus","robot","valence","action","sham"
"pavlovia","0","12","0.0-0.0","battery-v0.2","","""event"",""trial"",""time""
""fullscreenenter"",""1"",""6006""
","
","
","""event"",""trial"",""time""
""fullscreenenter"",""1"",""6006""
","
","","","","","","","","","","","","","","","","","","","","","","","","","","",""
"fullscreen","1","6995","0.0-1.0","battery-v0.2","","""event"",""trial"",""time""
""fullscreenenter"",""1"",""6006""
","
","
","""event"",""trial"",""time""
""fullscreenenter"",""1"",""6006""
","
","true","","","","","","","","","","","","","","","","","","","","","","","","","",""
"pit-instructions","2","17167","0.0-2.0-0.0","battery-v0.2","","""event"",""trial"",""time""
""fullscreenenter"",""1"",""6006""
","
","
","""event"",""trial"",""time""
""fullscreenenter"",""1"",""6006""
","
","","[{""page_index"":0,""viewing_time"":10167.200000000186}]","10168.30000000028","","","","","","","","","","","","","","","","","","","","","","","",""
"pit-comprehension","3","24553","0.0-2.0-1.0-0.0","battery-v0.2","","""event"",""trial"",""time""
""fullscreenenter"",""1"",""6006""
","
","
","""event"",""trial"",""time""
""fullscreenenter"",""1"",""6006""
","
","","","7381.800000000279","[""shark""]","0","10","10829","5085","","","","","","","","","","","","","","","","","","",""
"pit-instructions","4","27126","0.0-2.0-1.0-1.0","battery-v0.2","","""event"",""trial"",""time""
""fullscreenenter"",""1"",""6006""
","
","
","""event"",""trial"",""time""
""fullscreenenter"",""1"",""6006""
","
","","[{""page_index"":0,""viewing_time"":2565.600000000093}]","2566.399999999907","","","","","","","","","","","","","","","","","","","","","","","",""
"pit-comprehension","5","31927","0.0-2.0-2.0-0.0","battery-v0.2","","""event"",""trial"",""time""
""fullscreenenter"",""1"",""6006""
","
","
","""event"",""trial"",""time""
""fullscreenenter"",""1"",""6006""
","
","","","4798","[""tiger""]","0","10","10829","5085","","","","","","","","","","","","","","","","","","",""
"pit-instructions","6","34221","0.0-2.0-2.0-1.0","battery-v0.2","","""event"",""trial"",""time""
""fullscreenenter"",""1"",""6006""
","
","
","""event"",""trial"",""time""
""fullscreenenter"",""1"",""6006""
","
","","[{""page_index"":0,""viewing_time"":2289.600000000093}]","2290","","","","","","","","","","","","","","","","","","","","","","","",""
"pit-instructions","7","182776","0.0-2.0-3.0","battery-v0.2","","""event"",""trial"",""time""
""fullscreenenter"",""1"",""6006""
","
","
","""event"",""trial"",""time""
""fullscreenenter"",""1"",""6006""
","
","","[{""page_index"":0,""viewing_time"":11715.299999999814},{""page_index"":1,""viewing_time"":7985.600000000093},{""page_index"":2,""viewing_time"":8528.700000000186},{""page_index"":3,""viewing_time"":7070.5},{""page_index"":4,""viewing_time"":8281.899999999907},{""page_index"":5,""viewing_time"":11883.899999999907},{""page_index"":6,""viewing_time"":8295.799999999814},{""page_index"":7,""viewing_time"":8021.200000000186},{""page_index"":8,""viewing_time"":6918.399999999907},{""page_index"":9,""viewing_time"":40362},{""page_index"":10,""viewing_time"":7970.5},{""page_index"":11,""viewing_time"":8730.600000000093},{""page_index"":12,""viewing_time"":6141.399999999907},{""page_index"":13,""viewing_time"":6646.300000000279}]","148552.3999999999","","","","","","","","","","","","","","","","","","","","","","","",""
"pit-trial","8","186258","0.0-2.0-4.0-0.0","battery-v0.2","","""event"",""trial"",""time""
""fullscreenenter"",""1"",""6006""
","
","
","""event"",""trial"",""time""
""fullscreenenter"",""1"",""6006""
","
","","","623.5999999996275","","","10","10829","5085","&#9784;","elianto","#FFFFF080"," "," ","1","&#10004","[1476.3000000002794]","1","0","0","","","","","","","",""
"pit-trial","9","189624","0.0-2.0-4.1-0.1","battery-v0.2","","""event"",""trial"",""time""
""fullscreenenter"",""1"",""6006""
","
","
","""event"",""trial"",""time""
""fullscreenenter"",""1"",""6006""
","
","","","508.5","","","10","10829","5085","&#9784;","elianto","#FFFFF080"," "," ","1","&#10004","[1361.5]","1","0","0","","","","","","","",""
"pit-trial","10","192947","0.0-2.0-4.2-0.2","battery-v0.2","","""event"",""trial"",""time""
""fullscreenenter"",""1"",""6006""
","
","
","""event"",""trial"",""time""
""fullscreenenter"",""1"",""6006""
","
","","","463.40000000037253","","","10","10829","5085","&#9784;","elianto","#FFFFF080"," "," ","1","&#10004","[1315.5]","1","0","0","","","","","","","",""
"pit-trial","11","196010","0.0-2.0-4.3-0.3","battery-v0.2","","""event"",""trial"",""time""
""fullscreenenter"",""1"",""6006""
","
","
","""event"",""trial"",""time""
""fullscreenenter"",""1"",""6006""
","
","","","207.5","","","10","10829","5085","&#9784;","elianto","#FFFFF080"," "," ","1","&#10004","[1058.6999999997206]","1","0","0","","","","","","","",""
"pit-trial","12","199296","0.0-2.0-4.4-0.4","battery-v0.2","","""event"",""trial"",""time""
""fullscreenenter"",""1"",""6006""
","
","
","""event"",""trial"",""time""
""fullscreenenter"",""1"",""6006""
","
","","","425.29999999981374","","","10","10829","5085","&#9784;","elianto","#FFFFF080"," "," ","1","&#10004","[1276.8999999999069]","1","0","0","","","","","","","",""
"pit-instructions","13","228998","0.0-2.0-5.0","battery-v0.2","","""event"",""trial"",""time""
""fullscreenenter"",""1"",""6006""
","
","
","""event"",""trial"",""time""
""fullscreenenter"",""1"",""6006""
","
","","[{""page_index"":0,""viewing_time"":6332.100000000093},{""page_index"":1,""viewing_time"":8365.5},{""page_index"":2,""viewing_time"":8504.5},{""page_index"":3,""viewing_time"":6496.5999999996275}]","29699","","","","","","","","","","","","","","","","","","","","","","","",""
"pit-trial","14","233854","0.0-2.0-6.0-0.0","battery-v0.2","","""event"",""trial"",""time""
""fullscreenenter"",""1"",""6006""
","
","
","""event"",""trial"",""time""
""fullscreenenter"",""1"",""6006""
","
","","","-1","","","10","10829","5085","&#9854;","elianto","#FFFFF080","-1","-1","1","&#10004","[]","0","0","1","","","","","","","",""
"pit-trial","15","238712","0.0-2.0-6.1-0.1","battery-v0.2","","""event"",""trial"",""time""
""fullscreenenter"",""1"",""6006""
","
","
","""event"",""trial"",""time""
""fullscreenenter"",""1"",""6006""
","
","","","-1","","","10","10829","5085","&#9854;","elianto","#FFFFF080","-1","-1","1","&#10004","[]","0","0","1","","","","","","","",""
"pit-trial","16","243571","0.0-2.0-6.2-0.2","battery-v0.2","","""event"",""trial"",""time""
""fullscreenenter"",""1"",""6006""
","
","
","""event"",""trial"",""time""
""fullscreenenter"",""1"",""6006""
","
","","","-1","","","10","10829","5085","&#9854;","elianto","#FFFFF080","-1","-1","1","&#10004","[]","0","0","1","","","","","","","",""
"pit-trial","17","248429","0.0-2.0-6.3-0.3","battery-v0.2","","""event"",""trial"",""time""
""fullscreenenter"",""1"",""6006""
","
","
","""event"",""trial"",""time""
""fullscreenenter"",""1"",""6006""
","
","","","-1","","","10","10829","5085","&#9854;","elianto","#FFFFF080","-1","-1","1","&#10004","[]","0","0","1","","","","","","","",""
"pit-trial","18","253288","0.0-2.0-6.4-0.4","battery-v0.2","","""event"",""trial"",""time""
""fullscreenenter"",""1"",""6006""
","
","
","""event"",""trial"",""time""
""fullscreenenter"",""1"",""6006""
","
","","","-1","","","10","10829","5085","&#9854;","elianto","#FFFFF080","-1","-1","1","&#10004","[]","0","0","1","","","","","","","",""
"pit-instructions","19","386748","0.0-2.0-7.0","battery-v0.2","","""event"",""trial"",""time""
""fullscreenenter"",""1"",""6006""
","
","
","""event"",""trial"",""time""
""fullscreenenter"",""1"",""6006""
","
","","[{""page_index"":0,""viewing_time"":6537.299999999814},{""page_index"":1,""viewing_time"":8312},{""page_index"":2,""viewing_time"":7688.4000000003725},{""page_index"":3,""viewing_time"":7598.899999999907},{""page_index"":4,""viewing_time"":7368.100000000093},{""page_index"":5,""viewing_time"":6598.199999999721},{""page_index"":6,""viewing_time"":6195},{""page_index"":7,""viewing_time"":8770},{""page_index"":8,""viewing_time"":7248.100000000093},{""page_index"":9,""viewing_time"":6927.5},{""page_index"":10,""viewing_time"":7139.299999999814},{""page_index"":11,""viewing_time"":6733.300000000279},{""page_index"":12,""viewing_time"":7397.5},{""page_index"":13,""viewing_time"":7667.399999999907},{""page_index"":14,""viewing_time"":8403.100000000093},{""page_index"":15,""viewing_time"":6779},{""page_index"":16,""viewing_time"":7814.699999999721},{""page_index"":17,""viewing_time"":8277.700000000186}]","133456.6000000001","","","","","","","","","","","","","","","","","","","","","","","",""
"pit-trial","20","390060","0.0-2.0-8.0-0.0","battery-v0.2","","""event"",""trial"",""time""
""fullscreenenter"",""1"",""6006""
","
","
","""event"",""trial"",""time""
""fullscreenenter"",""1"",""6006""
","
","","","453.70000000018626","","","10","10829","5085","&#9776;","elianto","#3366ff99"," "," ","1","+10","[1309.7000000001863]","1","0","1","","","","","","","",""
"pit-trial","21","393333","0.0-2.0-8.0-1.0","battery-v0.2","","""event"",""trial"",""time""
""fullscreenenter"",""1"",""6006""
","
","
","""event"",""trial"",""time""
""fullscreenenter"",""1"",""6006""
","
","","","418","","","10","10829","5085","&#9776;","elianto","#3366ff99"," "," ","1","+10","[1270.5]","1","0","1","","","","","","","",""
"pit-trial","22","396277","0.0-2.0-8.0-2.0","battery-v0.2","","""event"",""trial"",""time""
""fullscreenenter"",""1"",""6006""
","
","
","""event"",""trial"",""time""
""fullscreenenter"",""1"",""6006""
","
","","","86.60000000009313","","","10","10829","5085","&#9776;","elianto","#3366ff99"," "," ","1","+10","[939.4000000003725]","1","0","1","","","","","","","",""
"pit-trial","23","399580","0.0-2.0-8.0-3.0","battery-v0.2","","""event"",""trial"",""time""
""fullscreenenter"",""1"",""6006""
","
","
","""event"",""trial"",""time""
""fullscreenenter"",""1"",""6006""
","
","","","446.1999999997206","","","10","10829","5085","&#9776;","elianto","#3366ff99"," "," ","1","0","[1298]","1","0","1","","","","","","","",""
"pit-trial","24","403260","0.0-2.0-8.0-4.0","battery-v0.2","","""event"",""trial"",""time""
""fullscreenenter"",""1"",""6006""
","
","
","""event"",""trial"",""time""
""fullscreenenter"",""1"",""6006""
","
","","","821.3000000002794","","","10","10829","5085","&#9776;","elianto","#3366ff99"," "," ","1","+10","[1672.5]","1","0","1","","","","","","","",""
"pit-trial","25","406965","0.0-2.0-8.1-0.1","battery-v0.2","","""event"",""trial"",""time""
""fullscreenenter"",""1"",""6006""
","
","
","""event"",""trial"",""time""
""fullscreenenter"",""1"",""6006""
","
","","","850.5","","","10","10829","5085","&#9776;","elianto","#3366ff99"," "," ","1","+10","[1702.1999999997206]","1","0","1","","","","","","","",""
"pit-trial","26","411822","0.0-2.0-8.1-1.1","battery-v0.2","","""event"",""trial"",""time""
""fullscreenenter"",""1"",""6006""
","
","
","""event"",""trial"",""time""
""fullscreenenter"",""1"",""6006""
","
","","","-1","","","10","10829","5085","&#9776;","elianto","#3366ff99"," ","-1","0","0","[]","0","0","1","","","","","","","",""
"pit-trial","27","415323","0.0-2.0-8.1-2.1","battery-v0.2","","""event"",""trial"",""time""
""fullscreenenter"",""1"",""6006""
","
","
","""event"",""trial"",""time""
""fullscreenenter"",""1"",""6006""
","
","","","644.0999999996275","","","10","10829","5085","&#9776;","elianto","#3366ff99"," "," ","1","+10","[1496.5999999996275]","1","0","1","","","","","","","",""
"pit-trial","28","418378","0.0-2.0-8.1-3.1","battery-v0.2","","""event"",""trial"",""time""
""fullscreenenter"",""1"",""6006""
","
","
","""event"",""trial"",""time""
""fullscreenenter"",""1"",""6006""
","
","","","198.5","","","10","10829","5085","&#9776;","elianto","#3366ff99"," "," ","1","0","[1049.8999999999069]","1","0","1","","","","","","","",""
"pit-trial","29","421519","0.0-2.0-8.1-4.1","battery-v0.2","","""event"",""trial"",""time""
""fullscreenenter"",""1"",""6006""
","
","
","""event"",""trial"",""time""
""fullscreenenter"",""1"",""6006""
","
","","","284.89999999990687","","","10","10829","5085","&#9776;","elianto","#3366ff99"," "," ","1","+10","[1135.6000000000931]","1","0","1","","","","","","","",""
"pit-trial","30","424752","0.0-2.0-8.2-0.2","battery-v0.2","","""event"",""trial"",""time""
""fullscreenenter"",""1"",""6006""
","
","
","""event"",""trial"",""time""
""fullscreenenter"",""1"",""6006""
","
","","","374.10000000009313","","","10","10829","5085","&#9776;","elianto","#3366ff99"," "," ","1","+10","[1226]","1","0","1","","","","","","","",""
"pit-trial","31","427991","0.0-2.0-8.2-1.2","battery-v0.2","","""event"",""trial"",""time""
""fullscreenenter"",""1"",""6006""
","
","
","""event"",""trial"",""time""
""fullscreenenter"",""1"",""6006""
","
","","","380.70000000018626","","","10","10829","5085","&#9776;","elianto","#3366ff99"," "," ","1","+10","[1231.7000000001863]","1","0","1","","","","","","","",""
"pit-trial","32","432853","0.0-2.0-8.2-2.2","battery-v0.2","","""event"",""trial"",""time""
""fullscreenenter"",""1"",""6006""
","
","
","""event"",""trial"",""time""
""fullscreenenter"",""1"",""6006""
","
","","","-1","","","10","10829","5085","&#9776;","elianto","#3366ff99"," ","-1","0","0","[]","0","0","1","","","","","","","",""
"pit-trial","33","436316","0.0-2.0-8.2-3.2","battery-v0.2","","""event"",""trial"",""time""
""fullscreenenter"",""1"",""6006""
","
","
","""event"",""trial"",""time""
""fullscreenenter"",""1"",""6006""
","
","","","606.1000000000931","","","10","10829","5085","&#9776;","elianto","#3366ff99"," "," ","1","0","[1460.5]","1","0","1","","","","","","","",""
"pit-trial","34","439630","0.0-2.0-8.2-4.2","battery-v0.2","","""event"",""trial"",""time""
""fullscreenenter"",""1"",""6006""
","
","
","""event"",""trial"",""time""
""fullscreenenter"",""1"",""6006""
","
","","","458.70000000018626","","","10","10829","5085","&#9776;","elianto","#3366ff99"," "," ","1","+10","[1310.4000000003725]","1","0","1","","","","","","","",""
"call-function","35","439632","0.0-2.0-9.0","battery-v0.2","","""event"",""trial"",""time""
""fullscreenenter"",""1"",""6006""
","
","
","""event"",""trial"",""time""
""fullscreenenter"",""1"",""6006""
","
","","","","","","","","","","","","","","","","","","","","","","","","","","",""
"pit-instructions","36","486273","0.0-2.0-10.0","battery-v0.2","","""event"",""trial"",""time""
""fullscreenenter"",""1"",""6006""
","
","
","""event"",""trial"",""time""
""fullscreenenter"",""1"",""6006""
","
","","[{""page_index"":0,""viewing_time"":7598.800000000279},{""page_index"":1,""viewing_time"":8302.5},{""page_index"":2,""viewing_time"":11401.5},{""page_index"":3,""viewing_time"":9958.899999999907},{""page_index"":4,""viewing_time"":9377.69999999972}]","46640.30000000028","","","","","","","","","","","","","","","","","","","","","","","",""
"pit-trial","37","489781","0.0-2.0-11.0-0.0","battery-v0.2","","""event"",""trial"",""time""
""fullscreenenter"",""1"",""6006""
","
","
","""event"",""trial"",""time""
""fullscreenenter"",""1"",""6006""
","
","","","654.1000000000931","","","10","10829","5085","&#9761;","elianto","#3366ff99","-1"," ","0","0","[1505.6000000000931]","1","0","2","","","","","","","",""
"pit-trial","38","494640","0.0-2.0-11.0-1.0","battery-v0.2","","""event"",""trial"",""time""
""fullscreenenter"",""1"",""6006""
","
","
","""event"",""trial"",""time""
""fullscreenenter"",""1"",""6006""
","
","","","-1","","","10","10829","5085","&#9761;","elianto","#3366ff99","-1","-1","1","+10","[]","0","0","2","","","","","","","",""
"pit-trial","39","499499","0.0-2.0-11.0-2.0","battery-v0.2","","""event"",""trial"",""time""
""fullscreenenter"",""1"",""6006""
","
","
","""event"",""trial"",""time""
""fullscreenenter"",""1"",""6006""
","
","","","-1","","","10","10829","5085","&#9761;","elianto","#3366ff99","-1","-1","1","+10","[]","0","0","2","","","","","","","",""
"pit-trial","40","504357","0.0-2.0-11.0-3.0","battery-v0.2","","""event"",""trial"",""time""
""fullscreenenter"",""1"",""6006""
","
","
","""event"",""trial"",""time""
""fullscreenenter"",""1"",""6006""
","
","","","-1","","","10","10829","5085","&#9761;","elianto","#3366ff99","-1","-1","1","0","[]","0","0","2","","","","","","","",""
"pit-trial","41","507840","0.0-2.0-11.0-4.0","battery-v0.2","","""event"",""trial"",""time""
""fullscreenenter"",""1"",""6006""
","
","
","""event"",""trial"",""time""
""fullscreenenter"",""1"",""6006""
","
","","","623.3000000002794","","","10","10829","5085","&#9761;","elianto","#3366ff99","-1"," ","0","0","[690.5,1475.5]","2","0","2","","","","","","","",""
"pit-trial","42","511091","0.0-2.0-11.1-0.1","battery-v0.2","","""event"",""trial"",""time""
""fullscreenenter"",""1"",""6006""
","
","
","""event"",""trial"",""time""
""fullscreenenter"",""1"",""6006""
","
","","","394.90000000037253","","","10","10829","5085","&#9761;","elianto","#3366ff99","-1"," ","0","0","[1246.9000000003725]","1","0","2","","","","","","","",""
"pit-trial","43","515951","0.0-2.0-11.1-1.1","battery-v0.2","","""event"",""trial"",""time""
""fullscreenenter"",""1"",""6006""
","
","
","""event"",""trial"",""time""
""fullscreenenter"",""1"",""6006""
","
","","","-1","","","10","10829","5085","&#9761;","elianto","#3366ff99","-1","-1","1","+10","[]","0","0","2","","","","","","","",""
"pit-trial","44","520812","0.0-2.0-11.1-2.1","battery-v0.2","","""event"",""trial"",""time""
""fullscreenenter"",""1"",""6006""
","
","
","""event"",""trial"",""time""
""fullscreenenter"",""1"",""6006""
","
","","","-1","","","10","10829","5085","&#9761;","elianto","#3366ff99","-1","-1","1","+10","[]","0","0","2","","","","","","","",""
"pit-trial","45","524165","0.0-2.0-11.1-3.1","battery-v0.2","","""event"",""trial"",""time""
""fullscreenenter"",""1"",""6006""
","
","
","""event"",""trial"",""time""
""fullscreenenter"",""1"",""6006""
","
","","","500.40000000037253","","","10","10829","5085","&#9761;","elianto","#3366ff99","-1"," ","0","+10","[1350.5]","1","0","2","","","","","","","",""
"pit-trial","46","529024","0.0-2.0-11.1-4.1","battery-v0.2","","""event"",""trial"",""time""
""fullscreenenter"",""1"",""6006""
","
","
","""event"",""trial"",""time""
""fullscreenenter"",""1"",""6006""
","
","","","-1","","","10","10829","5085","&#9761;","elianto","#3366ff99","-1","-1","1","+10","[]","0","0","2","","","","","","","",""
"pit-trial","47","533882","0.0-2.0-11.2-0.2","battery-v0.2","","""event"",""trial"",""time""
""fullscreenenter"",""1"",""6006""
","
","
","""event"",""trial"",""time""
""fullscreenenter"",""1"",""6006""
","
","","","-1","","","10","10829","5085","&#9761;","elianto","#3366ff99","-1","-1","1","+10","[]","0","0","2","","","","","","","",""
"pit-trial","48","537238","0.0-2.0-11.2-1.2","battery-v0.2","","""event"",""trial"",""time""
""fullscreenenter"",""1"",""6006""
","
","
","""event"",""trial"",""time""
""fullscreenenter"",""1"",""6006""
","
","","","502.3000000002794","","","10","10829","5085","&#9761;","elianto","#3366ff99","-1"," ","0","0","[1353]","1","0","2","","","","","","","",""
"pit-trial","49","541058","0.0-2.0-11.2-2.2","battery-v0.2","","""event"",""trial"",""time""
""fullscreenenter"",""1"",""6006""
","
","
","""event"",""trial"",""time""
""fullscreenenter"",""1"",""6006""
","
","","","964.6000000000931","","","10","10829","5085","&#9761;","elianto","#3366ff99","-1"," ","0","0","[1816.3999999999069]","1","0","2","","","","","","","",""
"pit-trial","50","545915","0.0-2.0-11.2-3.2","battery-v0.2","","""event"",""trial"",""time""
""fullscreenenter"",""1"",""6006""
","
","
","""event"",""trial"",""time""
""fullscreenenter"",""1"",""6006""
","
","","","-1","","","10","10829","5085","&#9761;","elianto","#3366ff99","-1","-1","1","0","[]","0","0","2","","","","","","","",""
"pit-trial","51","550775","0.0-2.0-11.2-4.2","battery-v0.2","","""event"",""trial"",""time""
""fullscreenenter"",""1"",""6006""
","
","
","""event"",""trial"",""time""
""fullscreenenter"",""1"",""6006""
","
","","","-1","","","10","10829","5085","&#9761;","elianto","#3366ff99","-1","-1","1","+10","[]","0","0","2","","","","","","","",""
"pit-trial","52","555634","0.0-2.0-11.3-0.3","battery-v0.2","","""event"",""trial"",""time""
""fullscreenenter"",""1"",""6006""
","
","
","""event"",""trial"",""time""
""fullscreenenter"",""1"",""6006""
","
","","","-1","","","10","10829","5085","&#9761;","elianto","#3366ff99","-1","-1","1","+10","[]","0","0","2","","","","","","","",""
"pit-trial","53","560493","0.0-2.0-11.3-1.3","battery-v0.2","","""event"",""trial"",""time""
""fullscreenenter"",""1"",""6006""
","
","
","""event"",""trial"",""time""
""fullscreenenter"",""1"",""6006""
","
","","","-1","","","10","10829","5085","&#9761;","elianto","#3366ff99","-1","-1","1","+10","[]","0","0","2","","","","","","","",""
"pit-trial","54","564504","0.0-2.0-11.3-2.3","battery-v0.2","","""event"",""trial"",""time""
""fullscreenenter"",""1"",""6006""
","
","
","""event"",""trial"",""time""
""fullscreenenter"",""1"",""6006""
","
","","","1148.8999999999069","","","10","10829","5085","&#9761;","elianto","#3366ff99","-1"," ","0","0","[2007.7999999998137]","1","0","2","","","","","","","",""
"pit-trial","55","569360","0.0-2.0-11.3-3.3","battery-v0.2","","""event"",""trial"",""time""
""fullscreenenter"",""1"",""6006""
","
","
","""event"",""trial"",""time""
""fullscreenenter"",""1"",""6006""
","
","","","-1","","","10","10829","5085","&#9761;","elianto","#3366ff99","-1","-1","1","0","[]","0","0","2","","","","","","","",""
"pit-trial","56","572654","0.0-2.0-11.3-4.3","battery-v0.2","","""event"",""trial"",""time""
""fullscreenenter"",""1"",""6006""
","
","
","""event"",""trial"",""time""
""fullscreenenter"",""1"",""6006""
","
","","","438.89999999990687","","","10","10829","5085","&#9761;","elianto","#3366ff99","-1"," ","0","0","[1290.5]","1","0","2","","","","","","","",""
"call-function","57","572656","0.0-2.0-12.0","battery-v0.2","","""event"",""trial"",""time""
""fullscreenenter"",""1"",""6006""
","
","
","""event"",""trial"",""time""
""fullscreenenter"",""1"",""6006""
","
","","","","","","","","","","","","","","","","","","","","","","","","","","",""
"pit-instructions","58","614701","0.0-2.0-13.0","battery-v0.2","","""event"",""trial"",""time""
""fullscreenenter"",""1"",""6006""
","
","
","""event"",""trial"",""time""
""fullscreenenter"",""1"",""6006""
","
","","[{""page_index"":0,""viewing_time"":8693.899999999907},{""page_index"":1,""viewing_time"":9831.5},{""page_index"":2,""viewing_time"":4683.300000000279},{""page_index"":3,""viewing_time"":13753.5},{""page_index"":4,""viewing_time"":5082.5}]","42045.200000000186","","","","","","","","","","","","","","","","","","","","","","","",""
"pit-trial","59","619558","0.0-2.0-14.0-0.0","battery-v0.2","","""event"",""trial"",""time""
""fullscreenenter"",""1"",""6006""
","
","
","""event"",""trial"",""time""
""fullscreenenter"",""1"",""6006""
","
","","","-1","","","10","10829","5085","&#9826;","elianto","#f73b6a7A","-1","-1","1","0","[]","0","0","3","","","","","","","",""
"pit-trial","60","622995","0.0-2.0-14.0-1.0","battery-v0.2","","""event"",""trial"",""time""
""fullscreenenter"",""1"",""6006""
","
","
","""event"",""trial"",""time""
""fullscreenenter"",""1"",""6006""
","
","","","578.2000000001863","","","10","10829","5085","&#9826;","elianto","#f73b6a7A","-1"," ","0","-10","[1431.7000000001863]","1","0","3","","","","","","","",""
"pit-trial","61","627853","0.0-2.0-14.0-2.0","battery-v0.2","","""event"",""trial"",""time""
""fullscreenenter"",""1"",""6006""
","
","
","""event"",""trial"",""time""
""fullscreenenter"",""1"",""6006""
","
","","","-1","","","10","10829","5085","&#9826;","elianto","#f73b6a7A","-1","-1","1","0","[]","0","0","3","","","","","","","",""
"pit-trial","62","632712","0.0-2.0-14.0-3.0","battery-v0.2","","""event"",""trial"",""time""
""fullscreenenter"",""1"",""6006""
","
","
","""event"",""trial"",""time""
""fullscreenenter"",""1"",""6006""
","
","","","-1","","","10","10829","5085","&#9826;","elianto","#f73b6a7A","-1","-1","1","-10","[]","0","0","3","","","","","","","",""
"pit-trial","63","637572","0.0-2.0-14.0-4.0","battery-v0.2","","""event"",""trial"",""time""
""fullscreenenter"",""1"",""6006""
","
","
","""event"",""trial"",""time""
""fullscreenenter"",""1"",""6006""
","
","","","-1","","","10","10829","5085","&#9826;","elianto","#f73b6a7A","-1","-1","1","0","[]","0","0","3","","","","","","","",""
"pit-trial","64","642432","0.0-2.0-14.1-0.1","battery-v0.2","","""event"",""trial"",""time""
""fullscreenenter"",""1"",""6006""
","
","
","""event"",""trial"",""time""
""fullscreenenter"",""1"",""6006""
","
","","","-1","","","10","10829","5085","&#9826;","elianto","#f73b6a7A","-1","-1","1","0","[]","0","0","3","","","","","","","",""
"pit-trial","65","647289","0.0-2.0-14.1-1.1","battery-v0.2","","""event"",""trial"",""time""
""fullscreenenter"",""1"",""6006""
","
","
","""event"",""trial"",""time""
""fullscreenenter"",""1"",""6006""
","
","","","-1","","","10","10829","5085","&#9826;","elianto","#f73b6a7A","-1","-1","1","0","[]","0","0","3","","","","","","","",""
"pit-trial","66","652151","0.0-2.0-14.1-2.1","battery-v0.2","","""event"",""trial"",""time""
""fullscreenenter"",""1"",""6006""
","
","
","""event"",""trial"",""time""
""fullscreenenter"",""1"",""6006""
","
","","","-1","","","10","10829","5085","&#9826;","elianto","#f73b6a7A","-1","-1","1","0","[]","0","0","3","","","","","","","",""
"pit-trial","67","657008","0.0-2.0-14.1-3.1","battery-v0.2","","""event"",""trial"",""time""
""fullscreenenter"",""1"",""6006""
","
","
","""event"",""trial"",""time""
""fullscreenenter"",""1"",""6006""
","
","","","-1","","","10","10829","5085","&#9826;","elianto","#f73b6a7A","-1","-1","1","-10","[]","0","0","3","","","","","","","",""
"pit-trial","68","661866","0.0-2.0-14.1-4.1","battery-v0.2","","""event"",""trial"",""time""
""fullscreenenter"",""1"",""6006""
","
","
","""event"",""trial"",""time""
""fullscreenenter"",""1"",""6006""
","
","","","-1","","","10","10829","5085","&#9826;","elianto","#f73b6a7A","-1","-1","1","0","[]","0","0","3","","","","","","","",""
"pit-trial","69","666725","0.0-2.0-14.2-0.2","battery-v0.2","","""event"",""trial"",""time""
""fullscreenenter"",""1"",""6006""
","
","
","""event"",""trial"",""time""
""fullscreenenter"",""1"",""6006""
","
","","","-1","","","10","10829","5085","&#9826;","elianto","#f73b6a7A","-1","-1","1","0","[]","0","0","3","","","","","","","",""
"pit-trial","70","670190","0.0-2.0-14.2-1.2","battery-v0.2","","""event"",""trial"",""time""
""fullscreenenter"",""1"",""6006""
","
","
","""event"",""trial"",""time""
""fullscreenenter"",""1"",""6006""
","
","","","609.2000000001863","","","10","10829","5085","&#9826;","elianto","#f73b6a7A","-1"," ","0","-10","[1462]","1","0","3","","","","","","","",""
"pit-trial","71","675049","0.0-2.0-14.2-2.2","battery-v0.2","","""event"",""trial"",""time""
""fullscreenenter"",""1"",""6006""
","
","
","""event"",""trial"",""time""
""fullscreenenter"",""1"",""6006""
","
","","","-1","","","10","10829","5085","&#9826;","elianto","#f73b6a7A","-1","-1","1","0","[]","0","0","3","","","","","","","",""
"pit-trial","72","679908","0.0-2.0-14.2-3.2","battery-v0.2","","""event"",""trial"",""time""
""fullscreenenter"",""1"",""6006""
","
","
","""event"",""trial"",""time""
""fullscreenenter"",""1"",""6006""
","
","","","-1","","","10","10829","5085","&#9826;","elianto","#f73b6a7A","-1","-1","1","-10","[]","0","0","3","","","","","","","",""
"pit-trial","73","684767","0.0-2.0-14.2-4.2","battery-v0.2","","""event"",""trial"",""time""
""fullscreenenter"",""1"",""6006""
","
","
","""event"",""trial"",""time""
""fullscreenenter"",""1"",""6006""
","
","","","-1","","","10","10829","5085","&#9826;","elianto","#f73b6a7A","-1","-1","1","0","[]","0","0","3","","","","","","","",""
"pit-trial","74","688221","0.0-2.0-14.3-0.3","battery-v0.2","","""event"",""trial"",""time""
""fullscreenenter"",""1"",""6006""
","
","
","""event"",""trial"",""time""
""fullscreenenter"",""1"",""6006""
","
","","","595.5","","","10","10829","5085","&#9826;","elianto","#f73b6a7A","-1"," ","0","-10","[1446.2999999998137]","1","0","3","","","","","","","",""
"pit-trial","75","693080","0.0-2.0-14.3-1.3","battery-v0.2","","""event"",""trial"",""time""
""fullscreenenter"",""1"",""6006""
","
","
","""event"",""trial"",""time""
""fullscreenenter"",""1"",""6006""
","
","","","-1","","","10","10829","5085","&#9826;","elianto","#f73b6a7A","-1","-1","1","0","[]","0","0","3","","","","","","","",""
"pit-trial","76","697939","0.0-2.0-14.3-2.3","battery-v0.2","","""event"",""trial"",""time""
""fullscreenenter"",""1"",""6006""
","
","
","""event"",""trial"",""time""
""fullscreenenter"",""1"",""6006""
","
","","","-1","","","10","10829","5085","&#9826;","elianto","#f73b6a7A","-1","-1","1","0","[]","0","0","3","","","","","","","",""
"pit-trial","77","700808","0.0-2.0-14.3-3.3","battery-v0.2","","""event"",""trial"",""time""
""fullscreenenter"",""1"",""6006""
","
","
","""event"",""trial"",""time""
""fullscreenenter"",""1"",""6006""
","
","","","12.600000000093132","","","10","10829","5085","&#9826;","elianto","#f73b6a7A","-1"," ","0","0","[863.8000000002794]","1","0","3","","","","","","","",""
"pit-trial","78","705665","0.0-2.0-14.3-4.3","battery-v0.2","","""event"",""trial"",""time""
""fullscreenenter"",""1"",""6006""
","
","
","""event"",""trial"",""time""
""fullscreenenter"",""1"",""6006""
","
","","","-1","","","10","10829","5085","&#9826;","elianto","#f73b6a7A","-1","-1","1","0","[]","0","0","3","","","","","","","",""
"call-function","79","705667","0.0-2.0-15.0","battery-v0.2","","""event"",""trial"",""time""
""fullscreenenter"",""1"",""6006""
","
","
","""event"",""trial"",""time""
""fullscreenenter"",""1"",""6006""
","
","","","","","","","","","","","","","","","","","","","","","","","","","","",""
"pit-instructions","80","735302","0.0-2.0-16.0","battery-v0.2","","""event"",""trial"",""time""
""fullscreenenter"",""1"",""6006""
","
","
","""event"",""trial"",""time""
""fullscreenenter"",""1"",""6006""
","
","","[{""page_index"":0,""viewing_time"":8679.600000000093},{""page_index"":1,""viewing_time"":9708.299999999814},{""page_index"":2,""viewing_time"":4991.600000000093},{""page_index"":3,""viewing_time"":6254.399999999907}]","29634.399999999907","","","","","","","","","","","","","","","","","","","","","","","",""
"pit-trial","81","740160","0.0-2.0-17.0-0.0","battery-v0.2","","""event"",""trial"",""time""
""fullscreenenter"",""1"",""6006""
","
","
","""event"",""trial"",""time""
""fullscreenenter"",""1"",""6006""
","
","","","-1","","","10","10829","5085","&#9789;","elianto","#f73b6a7A"," ","-1","0","-10","[]","0","0","4","","","","","","","",""
"pit-trial","82","744358","0.0-2.0-17.0-1.0","battery-v0.2","","""event"",""trial"",""time""
""fullscreenenter"",""1"",""6006""
","
","
","""event"",""trial"",""time""
""fullscreenenter"",""1"",""6006""
","
","","","1340.7999999998137","","","10","10829","5085","&#9789;","elianto","#f73b6a7A"," "," ","1","0","[2191.3000000002794]","1","0","4","","","","","","","",""
"pit-trial","83","747585","0.0-2.0-17.0-2.0","battery-v0.2","","""event"",""trial"",""time""
""fullscreenenter"",""1"",""6006""
","
","
","""event"",""trial"",""time""
""fullscreenenter"",""1"",""6006""
","
","","","371.6999999997206","","","10","10829","5085","&#9789;","elianto","#f73b6a7A"," "," ","1","0","[1222.6999999997206]","1","0","4","","","","","","","",""
"pit-trial","84","750587","0.0-2.0-17.0-3.0","battery-v0.2","","""event"",""trial"",""time""
""fullscreenenter"",""1"",""6006""
","
","
","""event"",""trial"",""time""
""fullscreenenter"",""1"",""6006""
","
","","","137.5","","","10","10829","5085","&#9789;","elianto","#f73b6a7A"," "," ","1","-10","[993.6999999997206]","1","0","4","","","","","","","",""
"pit-trial","85","755445","0.0-2.0-17.0-4.0","battery-v0.2","","""event"",""trial"",""time""
""fullscreenenter"",""1"",""6006""
","
","
","""event"",""trial"",""time""
""fullscreenenter"",""1"",""6006""
","
","","","-1","","","10","10829","5085","&#9789;","elianto","#f73b6a7A"," ","-1","0","-10","[]","0","0","4","","","","","","","",""
"pit-trial","86","760304","0.0-2.0-17.1-0.1","battery-v0.2","","""event"",""trial"",""time""
""fullscreenenter"",""1"",""6006""
","
","
","""event"",""trial"",""time""
""fullscreenenter"",""1"",""6006""
","
","","","-1","","","10","10829","5085","&#9789;","elianto","#f73b6a7A"," ","-1","0","-10","[]","0","0","4","","","","","","","",""
"pit-trial","87","765164","0.0-2.0-17.1-1.1","battery-v0.2","","""event"",""trial"",""time""
""fullscreenenter"",""1"",""6006""
","
","
","""event"",""trial"",""time""
""fullscreenenter"",""1"",""6006""
","
","","","-1","","","10","10829","5085","&#9789;","elianto","#f73b6a7A"," ","-1","0","-10","[]","0","0","4","","","","","","","",""
"pit-trial","88","770023","0.0-2.0-17.1-2.1","battery-v0.2","","""event"",""trial"",""time""
""fullscreenenter"",""1"",""6006""
","
","
","""event"",""trial"",""time""
""fullscreenenter"",""1"",""6006""
","
","","","-1","","","10","10829","5085","&#9789;","elianto","#f73b6a7A"," ","-1","0","-10","[]","0","0","4","","","","","","","",""
"pit-trial","89","773054","0.0-2.0-17.1-3.1","battery-v0.2","","""event"",""trial"",""time""
""fullscreenenter"",""1"",""6006""
","
","
","""event"",""trial"",""time""
""fullscreenenter"",""1"",""6006""
","
","","","174.79999999981374","","","10","10829","5085","&#9789;","elianto","#f73b6a7A"," "," ","1","-10","[1025.6000000000931]","1","0","4","","","","","","","",""
"pit-trial","90","777009","0.0-2.0-17.1-4.1","battery-v0.2","","""event"",""trial"",""time""
""fullscreenenter"",""1"",""6006""
","
","
","""event"",""trial"",""time""
""fullscreenenter"",""1"",""6006""
","
","","","1101.2999999998137","","","10","10829","5085","&#9789;","elianto","#f73b6a7A"," "," ","1","0","[1952.7999999998137]","1","0","4","","","","","","","",""
"pit-trial","91","780757","0.0-2.0-17.2-0.2","battery-v0.2","","""event"",""trial"",""time""
""fullscreenenter"",""1"",""6006""
","
","
","""event"",""trial"",""time""
""fullscreenenter"",""1"",""6006""
","
","","","890.1000000000931","","","10","10829","5085","&#9789;","elianto","#f73b6a7A"," "," ","1","0","[1741.9000000003725]","1","0","4","","","","","","","",""
"pit-trial","92","784718","0.0-2.0-17.2-1.2","battery-v0.2","","""event"",""trial"",""time""
""fullscreenenter"",""1"",""6006""
","
","
","""event"",""trial"",""time""
""fullscreenenter"",""1"",""6006""
","
","","","1106.9000000003725","","","10","10829","5085","&#9789;","elianto","#f73b6a7A"," "," ","1","0","[1958]","1","0","4","","","","","","","",""
"pit-trial","93","787740","0.0-2.0-17.2-2.2","battery-v0.2","","""event"",""trial"",""time""
""fullscreenenter"",""1"",""6006""
","
","
","""event"",""trial"",""time""
""fullscreenenter"",""1"",""6006""
","
","","","163.5","","","10","10829","5085","&#9789;","elianto","#f73b6a7A"," "," ","1","0","[1017.1999999997206]","1","0","4","","","","","","","",""
"pit-trial","94","790817","0.0-2.0-17.2-3.2","battery-v0.2","","""event"",""trial"",""time""
""fullscreenenter"",""1"",""6006""
","
","
","""event"",""trial"",""time""
""fullscreenenter"",""1"",""6006""
","
","","","222.8000000002794","","","10","10829","5085","&#9789;","elianto","#f73b6a7A"," "," ","1","-10","[1073.1000000000931]","1","0","4","","","","","","","",""
"pit-trial","95","794062","0.0-2.0-17.2-4.2","battery-v0.2","","""event"",""trial"",""time""
""fullscreenenter"",""1"",""6006""
","
","
","""event"",""trial"",""time""
""fullscreenenter"",""1"",""6006""
","
","","","386.40000000037253","","","10","10829","5085","&#9789;","elianto","#f73b6a7A"," "," ","1","0","[576.0999999996275,1238]","2","0","4","","","","","","","",""
"pit-trial","96","797061","0.0-2.0-17.3-0.3","battery-v0.2","","""event"",""trial"",""time""
""fullscreenenter"",""1"",""6006""
","
","
","""event"",""trial"",""time""
""fullscreenenter"",""1"",""6006""
","
","","","139.6999999997206","","","10","10829","5085","&#9789;","elianto","#f73b6a7A"," "," ","1","0","[990.3999999999069]","1","0","4","","","","","","","",""
"pit-trial","97","801922","0.0-2.0-17.3-1.3","battery-v0.2","","""event"",""trial"",""time""
""fullscreenenter"",""1"",""6006""
","
","
","""event"",""trial"",""time""
""fullscreenenter"",""1"",""6006""
","
","","","-1","","","10","10829","5085","&#9789;","elianto","#f73b6a7A"," ","-1","0","-10","[]","0","0","4","","","","","","","",""
"pit-trial","98","805332","0.0-2.0-17.3-2.3","battery-v0.2","","""event"",""trial"",""time""
""fullscreenenter"",""1"",""6006""
","
","
","""event"",""trial"",""time""
""fullscreenenter"",""1"",""6006""
","
","","","555.5","","","10","10829","5085","&#9789;","elianto","#f73b6a7A"," "," ","1","0","[625.3999999999069,1406.5]","2","0","4","","","","","","","",""
"pit-trial","99","808313","0.0-2.0-17.3-3.3","battery-v0.2","","""event"",""trial"",""time""
""fullscreenenter"",""1"",""6006""
","
","
","""event"",""trial"",""time""
""fullscreenenter"",""1"",""6006""
","
","","","119.89999999990687","","","10","10829","5085","&#9789;","elianto","#f73b6a7A"," "," ","1","-10","[973.2999999998137,1842.0999999996275,2122.7999999998137,2319,2530,2777.0999999996275]","6","0","4","","","","","","","",""
"pit-trial","100","811716","0.0-2.0-17.3-4.3","battery-v0.2","","""event"",""trial"",""time""
""fullscreenenter"",""1"",""6006""
","
","
","""event"",""trial"",""time""
""fullscreenenter"",""1"",""6006""
","
","","","544.3999999999069","","","10","10829","5085","&#9789;","elianto","#f73b6a7A"," "," ","1","0","[614.1999999997206,1397.1999999997206,2015.6999999997206]","3","0","4","","","","","","","",""
"call-function","101","811718","0.0-2.0-18.0","battery-v0.2","","""event"",""trial"",""time""
""fullscreenenter"",""1"",""6006""
","
","
","""event"",""trial"",""time""
""fullscreenenter"",""1"",""6006""
","
","","","","","","","","","","","","","","","","","","","","","","","","","","",""
"pit-instructions","102","897088","0.0-2.0-19.0","battery-v0.2","","""event"",""trial"",""time""
""fullscreenenter"",""1"",""6006""
","
","
","""event"",""trial"",""time""
""fullscreenenter"",""1"",""6006""
","
","","[{""page_index"":0,""viewing_time"":7705.5},{""page_index"":1,""viewing_time"":8487.19999999972},{""page_index"":2,""viewing_time"":15862},{""page_index"":3,""viewing_time"":9571.100000000093},{""page_index"":4,""viewing_time"":10717.399999999907},{""page_index"":5,""viewing_time"":8251.200000000186},{""page_index"":6,""viewing_time"":9651.19999999972},{""page_index"":7,""viewing_time"":9427.900000000373},{""page_index"":8,""viewing_time"":5695.5}]","85369.3999999999","","","","","","","","","","","","","","","","","","","","","","","",""
"pit-comprehension","103","907611","0.0-2.0-20.0-0.0","battery-v0.2","","""event"",""trial"",""time""
""fullscreenenter"",""1"",""6006""
","
","
","""event"",""trial"",""time""
""fullscreenenter"",""1"",""6006""
","
","","","10519.80000000028","[""SPACE""]","0","10","10829","5085","","","","","","","","","","","","","","","","","","",""
"pit-instructions","104","912172","0.0-2.0-20.0-1.0","battery-v0.2","","""event"",""trial"",""time""
""fullscreenenter"",""1"",""6006""
","
","
","""event"",""trial"",""time""
""fullscreenenter"",""1"",""6006""
","
","","[{""page_index"":0,""viewing_time"":4530.200000000186}]","4530.800000000279","","","","","","","","","","","","","","","","","","","","","","","",""
"pit-comprehension","105","924464","0.0-2.0-21.0-0.0","battery-v0.2","","""event"",""trial"",""time""
""fullscreenenter"",""1"",""6006""
","
","
","""event"",""trial"",""time""
""fullscreenenter"",""1"",""6006""
","
","","","12287.69999999972","[""10""]","0","10","10829","5085","","","","","","","","","","","","","","","","","","",""
"pit-instructions","106","926587","0.0-2.0-21.0-1.0","battery-v0.2","","""event"",""trial"",""time""
""fullscreenenter"",""1"",""6006""
","
","
","""event"",""trial"",""time""
""fullscreenenter"",""1"",""6006""
","
","","[{""page_index"":0,""viewing_time"":2092.1999999997206}]","2092.399999999907","","","","","","","","","","","","","","","","","","","","","","","",""
"pit-comprehension","107","937363","0.0-2.0-22.0-0.0","battery-v0.2","","""event"",""trial"",""time""
""fullscreenenter"",""1"",""6006""
","
","
","""event"",""trial"",""time""
""fullscreenenter"",""1"",""6006""
","
","","","10772.80000000028","[""-10""]","1","10","10829","5085","","","","","","","","","","","","","","","","","","",""
"pit-instructions","108","947578","0.0-2.0-22.0-1.0","battery-v0.2","","""event"",""trial"",""time""
""fullscreenenter"",""1"",""6006""
","
","
","""event"",""trial"",""time""
""fullscreenenter"",""1"",""6006""
","
","","[{""page_index"":0,""viewing_time"":10181.899999999907}]","10182.399999999907","","","","","","","","","","","","","","","","","","","","","","","",""
"pit-instructions","109","949535","0.0-2.0-22.0-2.0-0.0","battery-v0.2","","""event"",""trial"",""time""
""fullscreenenter"",""1"",""6006""
","
","
","""event"",""trial"",""time""
""fullscreenenter"",""1"",""6006""
","
","","[{""page_index"":0,""viewing_time"":1955}]","1955.3999999999069","","","","","","","","","","","","","","","","","","","","","","","",""
"pit-comprehension","110","971774","0.0-2.0-22.1-0.1","battery-v0.2","","""event"",""trial"",""time""
""fullscreenenter"",""1"",""6006""
","
","
","""event"",""trial"",""time""
""fullscreenenter"",""1"",""6006""
","
","","","22236.900000000373","[""0""]","0","10","10829","5085","","","","","","","","","","","","","","","","","","",""
"pit-instructions","111","973939","0.0-2.0-22.1-1.1","battery-v0.2","","""event"",""trial"",""time""
""fullscreenenter"",""1"",""6006""
","
","
","""event"",""trial"",""time""
""fullscreenenter"",""1"",""6006""
","
","","[{""page_index"":0,""viewing_time"":2133.2000000001863}]","2133.4000000003725","","","","","","","","","","","","","","","","","","","","","","","",""
"pit-comprehension","112","985537","0.0-2.0-23.0-0.0","battery-v0.2","","""event"",""trial"",""time""
""fullscreenenter"",""1"",""6006""
","
","
","""event"",""trial"",""time""
""fullscreenenter"",""1"",""6006""
","
","","","11594.5","[""False""]","1","10","10829","5085","","","","","","","","","","","","","","","","","","",""
"pit-instructions","113","991300","0.0-2.0-23.0-1.0","battery-v0.2","","""event"",""trial"",""time""
""fullscreenenter"",""1"",""6006""
","
","
","""event"",""trial"",""time""
""fullscreenenter"",""1"",""6006""
","
","","[{""page_index"":0,""viewing_time"":5729.799999999814}]","5730.199999999721","","","","","","","","","","","","","","","","","","","","","","","",""
"pit-instructions","114","992186","0.0-2.0-23.0-2.0-0.0","battery-v0.2","","""event"",""trial"",""time""
""fullscreenenter"",""1"",""6006""
","
","
","""event"",""trial"",""time""
""fullscreenenter"",""1"",""6006""
","
","","[{""page_index"":0,""viewing_time"":884.2000000001863}]","884.6000000000931","","","","","","","","","","","","","","","","","","","","","","","",""
"pit-comprehension","115","1000843","0.0-2.0-23.1-0.1","battery-v0.2","","""event"",""trial"",""time""
""fullscreenenter"",""1"",""6006""
","
","
","""event"",""trial"",""time""
""fullscreenenter"",""1"",""6006""
","
","","","8654","[""True""]","0","10","10829","5085","","","","","","","","","","","","","","","","","","",""
"pit-instructions","116","1002715","0.0-2.0-23.1-1.1","battery-v0.2","","""event"",""trial"",""time""
""fullscreenenter"",""1"",""6006""
","
","
","""event"",""trial"",""time""
""fullscreenenter"",""1"",""6006""
","
","","[{""page_index"":0,""viewing_time"":1838.0999999996275}]","1838.3999999999069","","","","","","","","","","","","","","","","","","","","","","","",""
"pit-comprehension","117","1014825","0.0-2.0-24.0-0.0","battery-v0.2","","""event"",""trial"",""time""
""fullscreenenter"",""1"",""6006""
","
","
","""event"",""trial"",""time""
""fullscreenenter"",""1"",""6006""
","
","","","12107.299999999814","[""True""]","0","10","10829","5085","","","","","","","","","","","","","","","","","","",""
"pit-instructions","118","1016486","0.0-2.0-24.0-1.0","battery-v0.2","","""event"",""trial"",""time""
""fullscreenenter"",""1"",""6006""
","
","
","""event"",""trial"",""time""
""fullscreenenter"",""1"",""6006""
","
","","[{""page_index"":0,""viewing_time"":1626.8999999999069}]","1627.3000000002794","","","","","","","","","","","","","","","","","","","","","","","",""
"pit-comprehension","119","1026600","0.0-2.0-25.0-0.0","battery-v0.2","","""event"",""trial"",""time""
""fullscreenenter"",""1"",""6006""
","
","
","""event"",""trial"",""time""
""fullscreenenter"",""1"",""6006""
","
","","","10110","[""True""]","0","10","10829","5085","","","","","","","","","","","","","","","","","","",""
"pit-instructions","120","1028026","0.0-2.0-25.0-1.0","battery-v0.2","","""event"",""trial"",""time""
""fullscreenenter"",""1"",""6006""
","
","
","""event"",""trial"",""time""
""fullscreenenter"",""1"",""6006""
","
","","[{""page_index"":0,""viewing_time"":1392}]","1392.2999999998137","","","","","","","","","","","","","","","","","","","","","","","",""
"pit-comprehension","121","1035785","0.0-2.0-26.0-0.0","battery-v0.2","","""event"",""trial"",""time""
""fullscreenenter"",""1"",""6006""
","
","
","""event"",""trial"",""time""
""fullscreenenter"",""1"",""6006""
","
","","","7756","[""False""]","0","10","10829","5085","","","","","","","","","","","","","","","","","","",""
"pit-instructions","122","1037468","0.0-2.0-26.0-1.0","battery-v0.2","","""event"",""trial"",""time""
""fullscreenenter"",""1"",""6006""
","
","
","""event"",""trial"",""time""
""fullscreenenter"",""1"",""6006""
","
","","[{""page_index"":0,""viewing_time"":1648.5}]","1648.7000000001863","","","","","","","","","","","","","","","","","","","","","","","",""
"pit-instructions","123","1059914","0.0-3.0","battery-v0.2","","""event"",""trial"",""time""
""fullscreenenter"",""1"",""6006""
","
","
","""event"",""trial"",""time""
""fullscreenenter"",""1"",""6006""
","
","","[{""page_index"":0,""viewing_time"":8470},{""page_index"":1,""viewing_time"":5825.899999999907},{""page_index"":2,""viewing_time"":8147.700000000186}]","22444.100000000093","","","","","","","","","","","","","","","","","","","","","","","",""
"pit-trial","124","1064774","0.0-4.0","battery-v0.2","","""event"",""trial"",""time""
""fullscreenenter"",""1"",""6006""
","
","
","""event"",""trial"",""time""
""fullscreenenter"",""1"",""6006""
","
","","","-1","","","10","10829","5085","&#9752;","elianto","#f73b6a7A"," ","-1","0","0","[]","0","1","","","10829","1","3","3","lose","go","1"
"pit-trial","125","1068431","0.0-5.0","battery-v0.2","","""event"",""trial"",""time""
""fullscreenenter"",""1"",""6006""
","
","
","""event"",""trial"",""time""
""fullscreenenter"",""1"",""6006""
","
","","","798.1000000000931","","","10","10829","5085","&#9730;","elianto","#3366ff99"," "," ","1","+10","[1650.1000000000931]","1","1","","","10829","2","1","1","win","go","0"
"pit-trial","126","1072831","0.0-6.0","battery-v0.2","","""event"",""trial"",""time""
""fullscreenenter"",""1"",""6006""
","
","
","""event"",""trial"",""time""
""fullscreenenter"",""1"",""6006""
","
","","","1544.6000000000931","","","10","10829","5085","&#9733;","elianto","#3366ff99","-1"," ","0","0","[2395.8000000002794]","1","1","","","10829","3","2","2","win","no-go","0"
"pit-trial","127","1077690","0.0-7.0","battery-v0.2","","""event"",""trial"",""time""
""fullscreenenter"",""1"",""6006""
","
","
","""event"",""trial"",""time""
""fullscreenenter"",""1"",""6006""
","
","","","-1","","","10","10829","5085","&#9728;","elianto","#f73b6a7A","-1","-1","1","0","[]","0","1","","","10829","4","0","4","lose","no-go","0"
"pit-trial","128","1082548","0.0-8.0","battery-v0.2","","""event"",""trial"",""time""
""fullscreenenter"",""1"",""6006""
","
","
","""event"",""trial"",""time""
""fullscreenenter"",""1"",""6006""
","
","","","-1","","","10","10829","5085","&#9728;","elianto","#f73b6a7A","-1","-1","1","-10","[]","0","1","","","10829","5","0","4","lose","no-go","1"
"pit-trial","129","1087407","0.0-9.0","battery-v0.2","","""event"",""trial"",""time""
""fullscreenenter"",""1"",""6006""
","
","
","""event"",""trial"",""time""
""fullscreenenter"",""1"",""6006""
","
","","","-1","","","10","10829","5085","&#9730;","elianto","#3366ff99"," ","-1","0","0","[3231.2000000001863]","1","1","","","10829","6","1","1","win","go","0"
"pit-trial","130","1092264","0.0-10.0","battery-v0.2","","""event"",""trial"",""time""
""fullscreenenter"",""1"",""6006""
","
","
","""event"",""trial"",""time""
""fullscreenenter"",""1"",""6006""
","
","","","-1","","","10","10829","5085","&#9752;","elianto","#f73b6a7A"," ","-1","0","-10","[]","0","1","","","10829","7","3","3","lose","go","0"
"pit-trial","131","1095757","0.0-11.0","battery-v0.2","","""event"",""trial"",""time""
""fullscreenenter"",""1"",""6006""
","
","
","""event"",""trial"",""time""
""fullscreenenter"",""1"",""6006""
","
","","","638","","","10","10829","5085","&#9733;","elianto","#3366ff99","-1"," ","0","0","[1488.8000000002794]","1","1","","","10829","8","2","2","win","no-go","0"
"pit-trial","132","1098812","0.0-12.0","battery-v0.2","","""event"",""trial"",""time""
""fullscreenenter"",""1"",""6006""
","
","
","""event"",""trial"",""time""
""fullscreenenter"",""1"",""6006""
","
","","","198","","","10","10829","5085","&#9730;","elianto","#3366ff99"," "," ","1","+10","[1049.2000000001863]","1","1","","","10829","9","1","1","win","go","0"
"pit-trial","133","1102153","0.0-13.0","battery-v0.2","","""event"",""trial"",""time""
""fullscreenenter"",""1"",""6006""
","
","
","""event"",""trial"",""time""
""fullscreenenter"",""1"",""6006""
","
","","","484.90000000037253","","","10","10829","5085","&#9752;","elianto","#f73b6a7A"," "," ","1","0","[1335.5]","1","1","","","10829","10","3","3","lose","go","0"
"pit-trial","134","1105391","0.0-14.0","battery-v0.2","","""event"",""trial"",""time""
""fullscreenenter"",""1"",""6006""
","
","
","""event"",""trial"",""time""
""fullscreenenter"",""1"",""6006""
","
","","","380","","","10","10829","5085","&#9728;","elianto","#f73b6a7A","-1"," ","0","0","[1232.7999999998137]","1","1","","","10829","11","0","4","lose","no-go","1"
"pit-trial","135","1108818","0.0-15.0","battery-v0.2","","""event"",""trial"",""time""
""fullscreenenter"",""1"",""6006""
","
","
","""event"",""trial"",""time""
""fullscreenenter"",""1"",""6006""
","
","","","571.6000000000931","","","10","10829","5085","&#9733;","elianto","#3366ff99","-1"," ","0","+10","[1422.8999999999069]","1","1","","","10829","12","2","2","win","no-go","1"
"pit-trial","136","1112835","0.0-16.0","battery-v0.2","","""event"",""trial"",""time""
""fullscreenenter"",""1"",""6006""
","
","
","""event"",""trial"",""time""
""fullscreenenter"",""1"",""6006""
","
","","","1157.3000000002794","","","10","10829","5085","&#9728;","elianto","#f73b6a7A","-1"," ","0","-10","[2008.6000000000931]","1","1","","","10829","13","0","4","lose","no-go","0"
"pit-trial","137","1116660","0.0-17.0","battery-v0.2","","""event"",""trial"",""time""
""fullscreenenter"",""1"",""6006""
","
","
","""event"",""trial"",""time""
""fullscreenenter"",""1"",""6006""
","
","","","969.5","","","10","10829","5085","&#9752;","elianto","#f73b6a7A"," "," ","1","0","[1822.5]","1","1","","","10829","14","3","3","lose","go","0"
"pit-trial","138","1120039","0.0-18.0","battery-v0.2","","""event"",""trial"",""time""
""fullscreenenter"",""1"",""6006""
","
","
","""event"",""trial"",""time""
""fullscreenenter"",""1"",""6006""
","
","","","517.8999999999069","","","10","10829","5085","&#9733;","elianto","#3366ff99","-1"," ","0","0","[1375.0999999996275]","1","1","","","10829","15","2","2","win","no-go","0"
"pit-trial","139","1123039","0.0-19.0","battery-v0.2","","""event"",""trial"",""time""
""fullscreenenter"",""1"",""6006""
","
","
","""event"",""trial"",""time""
""fullscreenenter"",""1"",""6006""
","
","","","144.39999999990687","","","10","10829","5085","&#9730;","elianto","#3366ff99"," "," ","1","0","[995.7999999998137]","1","1","","","10829","16","1","1","win","go","1"
"pit-trial","140","1126755","0.0-20.0","battery-v0.2","","""event"",""trial"",""time""
""fullscreenenter"",""1"",""6006""
","
","
","""event"",""trial"",""time""
""fullscreenenter"",""1"",""6006""
","
","","","861.6000000000931","","","10","10829","5085","&#9733;","elianto","#3366ff99","-1"," ","0","+10","[1711.8999999999069]","1","1","","","10829","17","2","2","win","no-go","1"
"pit-trial","141","1130110","0.0-21.0","battery-v0.2","","""event"",""trial"",""time""
""fullscreenenter"",""1"",""6006""
","
","
","""event"",""trial"",""time""
""fullscreenenter"",""1"",""6006""
","
","","","499.5","","","10","10829","5085","&#9730;","elianto","#3366ff99"," "," ","1","0","[1350.6000000000931]","1","1","","","10829","18","1","1","win","go","1"
"pit-trial","142","1134636","0.0-22.0","battery-v0.2","","""event"",""trial"",""time""
""fullscreenenter"",""1"",""6006""
","
","
","""event"",""trial"",""time""
""fullscreenenter"",""1"",""6006""
","
","","","1670.3999999999069","","","10","10829","5085","&#9752;","elianto","#f73b6a7A"," "," ","1","-10","[2522.4000000003725]","1","1","","","10829","19","3","3","lose","go","1"
"pit-trial","143","1138034","0.0-23.0","battery-v0.2","","""event"",""trial"",""time""
""fullscreenenter"",""1"",""6006""
","
","
","""event"",""trial"",""time""
""fullscreenenter"",""1"",""6006""
","
","","","543.1000000000931","","","10","10829","5085","&#9728;","elianto","#f73b6a7A","-1"," ","0","0","[1395]","1","1","","","10829","20","0","4","lose","no-go","1"
"pit-instructions","144","1163198","0.0-24.0","battery-v0.2","","""event"",""trial"",""time""
""fullscreenenter"",""1"",""6006""
","
","
","""event"",""trial"",""time""
""fullscreenenter"",""1"",""6006""
","
","","[{""page_index"":0,""viewing_time"":7493.4000000003725},{""page_index"":1,""viewing_time"":17667.69999999972}]","25161.80000000028","","","","","","","","","","","","","","","","","","","","","","","",""
"pit-trial","145","1167248","0.0-25.0","battery-v0.2","","""event"",""trial"",""time""
""fullscreenenter"",""1"",""6006""
","
","
","""event"",""trial"",""time""
""fullscreenenter"",""1"",""6006""
","
","","","1187.5","","","10","10829","5085","m","elianto","#f73b6a7A"," "," ","1","0","[2045.8999999999069]","1","2","","","10829","21","0","3","lose","go","0"
"pit-trial","146","1171014","0.0-26.0","battery-v0.2","","""event"",""trial"",""time""
""fullscreenenter"",""1"",""6006""
","
","
","""event"",""trial"",""time""
""fullscreenenter"",""1"",""6006""
","
","","","906.3000000002794","","","10","10829","5085","r","elianto","#3366ff99","-1"," ","0","0","[1761.4000000003725]","1","2","","","10829","22","1","2","win","no-go","0"
"pit-trial","147","1175103","0.0-27.0","battery-v0.2","","""event"",""trial"",""time""
""fullscreenenter"",""1"",""6006""
","
","
","""event"",""trial"",""time""
""fullscreenenter"",""1"",""6006""
","
","","","1231.3999999999069","","","10","10829","5085","h","elianto","#f73b6a7A","-1"," ","0","0","[2084.100000000093]","1","2","","","10829","23","3","4","lose","no-go","1"
"pit-trial","148","1179175","0.0-28.0","battery-v0.2","","""event"",""trial"",""time""
""fullscreenenter"",""1"",""6006""
","
","
","""event"",""trial"",""time""
""fullscreenenter"",""1"",""6006""
","
","","","1213.1999999997206","","","10","10829","5085","y","elianto","#f73b6a7A"," "," ","1","0","[2065.7999999998137]","1","2","","","10829","24","2","3","lose","go","0"
"pit-trial","149","1183329","0.0-29.0","battery-v0.2","","""event"",""trial"",""time""
""fullscreenenter"",""1"",""6006""
","
","
","""event"",""trial"",""time""
""fullscreenenter"",""1"",""6006""
","
","","","1291.1000000000931","","","10","10829","5085","m","elianto","#f73b6a7A"," "," ","1","0","[2146.5]","1","2","","","10829","25","0","3","lose","go","0"
"pit-trial","150","1186966","0.0-30.0","battery-v0.2","","""event"",""trial"",""time""
""fullscreenenter"",""1"",""6006""
","
","
","""event"",""trial"",""time""
""fullscreenenter"",""1"",""6006""
","
","","","783","","","10","10829","5085","y","elianto","#f73b6a7A"," "," ","1","0","[1634.3999999999069]","1","2","","","10829","26","2","3","lose","go","0"
"pit-trial","151","1190533","0.0-31.0","battery-v0.2","","""event"",""trial"",""time""
""fullscreenenter"",""1"",""6006""
","
","
","""event"",""trial"",""time""
""fullscreenenter"",""1"",""6006""
","
","","","711","","","10","10829","5085","r","elianto","#3366ff99","-1"," ","0","+10","[1562.1000000000931]","1","2","","","10829","27","1","2","win","no-go","1"
"pit-trial","152","1194690","0.0-32.0","battery-v0.2","","""event"",""trial"",""time""
""fullscreenenter"",""1"",""6006""
","
","
","""event"",""trial"",""time""
""fullscreenenter"",""1"",""6006""
","
","","","1298.5","","","10","10829","5085","h","elianto","#f73b6a7A","-1"," ","0","0","[2149.5999999996275]","1","2","","","10829","28","3","4","lose","no-go","1"
"pit-trial","153","1198468","0.0-33.0","battery-v0.2","","""event"",""trial"",""time""
""fullscreenenter"",""1"",""6006""
","
","
","""event"",""trial"",""time""
""fullscreenenter"",""1"",""6006""
","
","","","921.8999999999069","","","10","10829","5085","y","elianto","#f73b6a7A"," "," ","1","0","[1773.3000000002794]","1","2","","","10829","29","2","3","lose","go","0"
"pit-trial","154","1202166","0.0-34.0","battery-v0.2","","""event"",""trial"",""time""
""fullscreenenter"",""1"",""6006""
","
","
","""event"",""trial"",""time""
""fullscreenenter"",""1"",""6006""
","
","","","839.6999999997206","","","10","10829","5085","h","elianto","#f73b6a7A","-1"," ","0","-10","[1692.9000000003725]","1","2","","","10829","30","3","4","lose","no-go","0"
"pit-trial","155","1205806","0.0-35.0","battery-v0.2","","""event"",""trial"",""time""
""fullscreenenter"",""1"",""6006""
","
","
","""event"",""trial"",""time""
""fullscreenenter"",""1"",""6006""
","
","","","784.6000000000931","","","10","10829","5085","m","elianto","#f73b6a7A"," "," ","1","-10","[1635.2999999998137]","1","2","","","10829","31","0","3","lose","go","1"
"pit-trial","156","1209373","0.0-36.0","battery-v0.2","","""event"",""trial"",""time""
""fullscreenenter"",""1"",""6006""
","
","
","""event"",""trial"",""time""
""fullscreenenter"",""1"",""6006""
","
","","","711.6000000000931","","","10","10829","5085","r","elianto","#3366ff99","-1"," ","0","0","[1562.5]","1","2","","","10829","32","1","2","win","no-go","0"
"pit-trial","157","1212923","0.0-37.0","battery-v0.2","","""event"",""trial"",""time""
""fullscreenenter"",""1"",""6006""
","
","
","""event"",""trial"",""time""
""fullscreenenter"",""1"",""6006""
","
","","","688.5","","","10","10829","5085","r","elianto","#3366ff99","-1"," ","0","0","[1542.4000000003725]","1","2","","","10829","33","1","2","win","no-go","0"
"pit-trial","158","1217784","0.0-38.0","battery-v0.2","","""event"",""trial"",""time""
""fullscreenenter"",""1"",""6006""
","
","
","""event"",""trial"",""time""
""fullscreenenter"",""1"",""6006""
","
","","","-1","","","10","10829","5085","h","elianto","#f73b6a7A","-1","-1","1","0","[]","0","2","","","10829","34","3","4","lose","no-go","0"
"pit-trial","159","1222641","0.0-39.0","battery-v0.2","","""event"",""trial"",""time""
""fullscreenenter"",""1"",""6006""
","
","
","""event"",""trial"",""time""
""fullscreenenter"",""1"",""6006""
","
","","","-1","","","10","10829","5085","y","elianto","#f73b6a7A"," ","-1","0","-10","[]","0","2","","","10829","35","2","3","lose","go","0"
"pit-trial","160","1227499","0.0-40.0","battery-v0.2","","""event"",""trial"",""time""
""fullscreenenter"",""1"",""6006""
","
","
","""event"",""trial"",""time""
""fullscreenenter"",""1"",""6006""
","
","","","-1","","","10","10829","5085","m","elianto","#f73b6a7A"," ","-1","0","-10","[]","0","2","","","10829","36","0","3","lose","go","0"
"pit-trial","161","1232358","0.0-41.0","battery-v0.2","","""event"",""trial"",""time""
""fullscreenenter"",""1"",""6006""
","
","
","""event"",""trial"",""time""
""fullscreenenter"",""1"",""6006""
","
","","","-1","","","10","10829","5085","m","elianto","#f73b6a7A"," ","-1","0","-10","[]","0","2","","","10829","37","0","3","lose","go","0"
"pit-trial","162","1236839","0.0-42.0","battery-v0.2","","""event"",""trial"",""time""
""fullscreenenter"",""1"",""6006""
","
","
","""event"",""trial"",""time""
""fullscreenenter"",""1"",""6006""
","
","","","1625.9000000003725","","","10","10829","5085","y","elianto","#f73b6a7A"," "," ","1","0","[2476]","1","2","","","10829","38","2","3","lose","go","0"
"pit-trial","163","1240317","0.0-43.0","battery-v0.2","","""event"",""trial"",""time""
""fullscreenenter"",""1"",""6006""
","
","
","""event"",""trial"",""time""
""fullscreenenter"",""1"",""6006""
","
","","","619.2999999998137","","","10","10829","5085","h","elianto","#f73b6a7A","-1"," ","0","-10","[1471,3312.3000000002794]","2","2","","","10829","39","3","4","lose","no-go","0"
"pit-trial","164","1243231","0.0-44.0","battery-v0.2","","""event"",""trial"",""time""
""fullscreenenter"",""1"",""6006""
","
","
","""event"",""trial"",""time""
""fullscreenenter"",""1"",""6006""
","
","","","59.39999999990687","","","10","10829","5085","r","elianto","#3366ff99","-1"," ","0","0","[194.8000000002794,592.3000000002794,910.1000000000931,1105.3000000002794,1430.7000000001863]","5","2","","","10829","40","1","2","win","no-go","0"
"pit-trial","165","1248084","0.0-45.0","battery-v0.2","","""event"",""trial"",""time""
""fullscreenenter"",""1"",""6006""
","
","
","""event"",""trial"",""time""
""fullscreenenter"",""1"",""6006""
","
","","","-1","","","10","10829","5085","h","elianto","#f73b6a7A","-1","-1","1","0","[]","0","2","","","10829","41","3","4","lose","no-go","0"
"pit-trial","166","1252942","0.0-46.0","battery-v0.2","","""event"",""trial"",""time""
""fullscreenenter"",""1"",""6006""
","
","
","""event"",""trial"",""time""
""fullscreenenter"",""1"",""6006""
","
","","","-1","","","10","10829","5085","m","elianto","#f73b6a7A"," ","-1","0","-10","[]","0","2","","","10829","42","0","3","lose","go","0"
"pit-trial","167","1257801","0.0-47.0","battery-v0.2","","""event"",""trial"",""time""
""fullscreenenter"",""1"",""6006""
","
","
","""event"",""trial"",""time""
""fullscreenenter"",""1"",""6006""
","
","","","-1","","","10","10829","5085","y","elianto","#f73b6a7A"," ","-1","0","-10","[]","0","2","","","10829","43","2","3","lose","go","0"
"pit-trial","168","1262660","0.0-48.0","battery-v0.2","","""event"",""trial"",""time""
""fullscreenenter"",""1"",""6006""
","
","
","""event"",""trial"",""time""
""fullscreenenter"",""1"",""6006""
","
","","","-1","","","10","10829","5085","r","elianto","#3366ff99","-1","-1","1","+10","[]","0","2","","","10829","44","1","2","win","no-go","0"
"pit-trial","169","1267519","0.0-49.0","battery-v0.2","","""event"",""trial"",""time""
""fullscreenenter"",""1"",""6006""
","
","
","""event"",""trial"",""time""
""fullscreenenter"",""1"",""6006""
","
","","","-1","","","10","10829","5085","m","elianto","#f73b6a7A"," ","-1","0","-10","[]","0","2","","","10829","45","0","3","lose","go","0"
"pit-trial","170","1272255","0.0-50.0","battery-v0.2","","""event"",""trial"",""time""
""fullscreenenter"",""1"",""6006""
","
","
","""event"",""trial"",""time""
""fullscreenenter"",""1"",""6006""
","
","","","1879","","","10","10829","5085","h","elianto","#f73b6a7A","-1"," ","0","-10","[2729.1999999997206,3382.399999999907,3680.5,3905.399999999907,4115.5999999996275,4286,4592.399999999907]","7","2","","","10829","46","3","4","lose","no-go","0"
"pit-trial","171","1275315","0.0-51.0","battery-v0.2","","""event"",""trial"",""time""
""fullscreenenter"",""1"",""6006""
","
","
","""event"",""trial"",""time""
""fullscreenenter"",""1"",""6006""
","
","","","200.60000000009313","","","10","10829","5085","r","elianto","#3366ff99","-1"," ","0","0","[107.6999999997206,299.5,492,787.0999999996275,1056,1349.8999999999069,1541.2999999998137,1805.8999999999069,2234.899999999907,2409.7999999998137,2592.6999999997206,2738.7999999998137,2918.0999999996275]","13","2","","","10829","47","1","2","win","no-go","0"
"pit-trial","172","1278252","0.0-52.0","battery-v0.2","","""event"",""trial"",""time""
""fullscreenenter"",""1"",""6006""
","
","
","""event"",""trial"",""time""
""fullscreenenter"",""1"",""6006""
","
","","","79","","","10","10829","5085","y","elianto","#f73b6a7A"," "," ","1","0","[20.700000000186265,188.39999999990687,349.60000000009313,502.60000000009313,636.2000000001863,775.2000000001863,930.3999999999069,1194.8999999999069,1336,1494.5,1608.7000000001863,1769.6000000000931,1969.7000000001863,2141.899999999907]","14","2","","","10829","48","2","3","lose","go","0"
"pit-trial","173","1281811","0.0-53.0","battery-v0.2","","""event"",""trial"",""time""
""fullscreenenter"",""1"",""6006""
","
","
","""event"",""trial"",""time""
""fullscreenenter"",""1"",""6006""
","
","","","701.1000000000931","","","10","10829","5085","r","elianto","#3366ff99","-1"," ","0","0","[775.1000000000931,1554.9000000003725]","2","2","","","10829","49","1","2","win","no-go","0"
"pit-trial","174","1285376","0.0-54.0","battery-v0.2","","""event"",""trial"",""time""
""fullscreenenter"",""1"",""6006""
","
","
","""event"",""trial"",""time""
""fullscreenenter"",""1"",""6006""
","
","","","711.5","","","10","10829","5085","h","elianto","#f73b6a7A","-1"," ","0","-10","[1562.2999999998137]","1","2","","","10829","50","3","4","lose","no-go","0"
"pit-trial","175","1290234","0.0-55.0","battery-v0.2","","""event"",""trial"",""time""
""fullscreenenter"",""1"",""6006""
","
","
","""event"",""trial"",""time""
""fullscreenenter"",""1"",""6006""
","
","","","-1","","","10","10829","5085","y","elianto","#f73b6a7A"," ","-1","0","-10","[2923.7999999998137]","1","2","","","10829","51","2","3","lose","go","0"
"pit-trial","176","1295092","0.0-56.0","battery-v0.2","","""event"",""trial"",""time""
""fullscreenenter"",""1"",""6006""
","
","
","""event"",""trial"",""time""
""fullscreenenter"",""1"",""6006""
","
","","","-1","","","10","10829","5085","m","elianto","#f73b6a7A"," ","-1","0","-10","[]","0","2","","","10829","52","0","3","lose","go","0"
"pit-trial","177","1299951","0.0-57.0","battery-v0.2","","""event"",""trial"",""time""
""fullscreenenter"",""1"",""6006""
","
","
","""event"",""trial"",""time""
""fullscreenenter"",""1"",""6006""
","
","","","-1","","","10","10829","5085","r","elianto","#3366ff99","-1","-1","1","+10","[]","0","2","","","10829","53","1","2","win","no-go","0"
"pit-trial","178","1303057","0.0-58.0","battery-v0.2","","""event"",""trial"",""time""
""fullscreenenter"",""1"",""6006""
","
","
","""event"",""trial"",""time""
""fullscreenenter"",""1"",""6006""
","
","","","244.20000000018626","","","10","10829","5085","m","elianto","#f73b6a7A"," "," ","1","0","[1100.2000000001863]","1","2","","","10829","54","0","3","lose","go","0"
"pit-trial","179","1306070","0.0-59.0","battery-v0.2","","""event"",""trial"",""time""
""fullscreenenter"",""1"",""6006""
","
","
","""event"",""trial"",""time""
""fullscreenenter"",""1"",""6006""
","
","","","158.60000000009313","","","10","10829","5085","h","elianto","#f73b6a7A","-1"," ","0","-10","[1008.8999999999069]","1","2","","","10829","55","3","4","lose","no-go","0"
"pit-trial","180","1310603","0.0-60.0","battery-v0.2","","""event"",""trial"",""time""
""fullscreenenter"",""1"",""6006""
","
","
","""event"",""trial"",""time""
""fullscreenenter"",""1"",""6006""
","
","","","1677.2000000001863","","","10","10829","5085","y","elianto","#f73b6a7A"," "," ","1","0","[2528.3000000002794]","1","2","","","10829","56","2","3","lose","go","0"
"pit-trial","181","1314301","0.0-61.0","battery-v0.2","","""event"",""trial"",""time""
""fullscreenenter"",""1"",""6006""
","
","
","""event"",""trial"",""time""
""fullscreenenter"",""1"",""6006""
","
","","","841.7999999998137","","","10","10829","5085","z","elianto","#3366ff99"," "," ","1","+10","[1692]","1","2","","","10829","57","4","1","win","go","0"
"pit-trial","182","1318157","0.0-62.0","battery-v0.2","","""event"",""trial"",""time""
""fullscreenenter"",""1"",""6006""
","
","
","""event"",""trial"",""time""
""fullscreenenter"",""1"",""6006""
","
","","","1002","","","10","10829","5085","m","elianto","#f73b6a7A"," "," ","1","0","[1852.8000000002794]","1","2","","","10829","58","0","3","lose","go","0"
"pit-trial","183","1321697","0.0-63.0","battery-v0.2","","""event"",""trial"",""time""
""fullscreenenter"",""1"",""6006""
","
","
","""event"",""trial"",""time""
""fullscreenenter"",""1"",""6006""
","
","","","681.6999999997206","","","10","10829","5085","y","elianto","#f73b6a7A"," "," ","1","0","[1533.2999999998137]","1","2","","","10829","59","2","3","lose","go","0"
"pit-trial","184","1325364","0.0-64.0","battery-v0.2","","""event"",""trial"",""time""
""fullscreenenter"",""1"",""6006""
","
","
","""event"",""trial"",""time""
""fullscreenenter"",""1"",""6006""
","
","","","808.4000000003725","","","10","10829","5085","h","elianto","#f73b6a7A","-1"," ","0","-10","[1659.8000000002794]","1","2","","","10829","60","3","4","lose","no-go","0"
"pit-trial","185","1329284","0.0-65.0","battery-v0.2","","""event"",""trial"",""time""
""fullscreenenter"",""1"",""6006""
","
","
","""event"",""trial"",""time""
""fullscreenenter"",""1"",""6006""
","
","","","1066.1999999997206","","","10","10829","5085","y","elianto","#f73b6a7A"," "," ","1","-10","[1917.2999999998137]","1","2","","","10829","61","2","3","lose","go","1"
"pit-trial","186","1334143","0.0-66.0","battery-v0.2","","""event"",""trial"",""time""
""fullscreenenter"",""1"",""6006""
","
","
","""event"",""trial"",""time""
""fullscreenenter"",""1"",""6006""
","
","","","-1","","","10","10829","5085","r","elianto","#3366ff99","-1","-1","1","+10","[]","0","2","","","10829","62","1","2","win","no-go","0"
"pit-trial","187","1337962","0.0-67.0","battery-v0.2","","""event"",""trial"",""time""
""fullscreenenter"",""1"",""6006""
","
","
","""event"",""trial"",""time""
""fullscreenenter"",""1"",""6006""
","
","","","962.3999999999069","","","10","10829","5085","h","elianto","#f73b6a7A","-1"," ","0","-10","[1812.7000000001863]","1","2","","","10829","63","3","4","lose","no-go","0"
"pit-trial","188","1342821","0.0-68.0","battery-v0.2","","""event"",""trial"",""time""
""fullscreenenter"",""1"",""6006""
","
","
","""event"",""trial"",""time""
""fullscreenenter"",""1"",""6006""
","
","","","-1","","","10","10829","5085","z","elianto","#3366ff99"," ","-1","0","0","[]","0","2","","","10829","64","4","1","win","go","0"
"pit-trial","189","1347680","0.0-69.0","battery-v0.2","","""event"",""trial"",""time""
""fullscreenenter"",""1"",""6006""
","
","
","""event"",""trial"",""time""
""fullscreenenter"",""1"",""6006""
","
","","","-1","","","10","10829","5085","z","elianto","#3366ff99"," ","-1","0","0","[4771.399999999907]","1","2","","","10829","65","4","1","win","go","0"
"pit-trial","190","1352539","0.0-70.0","battery-v0.2","","""event"",""trial"",""time""
""fullscreenenter"",""1"",""6006""
","
","
","""event"",""trial"",""time""
""fullscreenenter"",""1"",""6006""
","
","","","-1","","","10","10829","5085","h","elianto","#f73b6a7A","-1","-1","1","-10","[]","0","2","","","10829","66","3","4","lose","no-go","1"
"pit-trial","191","1356085","0.0-71.0","battery-v0.2","","""event"",""trial"",""time""
""fullscreenenter"",""1"",""6006""
","
","
","""event"",""trial"",""time""
""fullscreenenter"",""1"",""6006""
","
","","","690.7000000001863","","","10","10829","5085","c","elianto","#3366ff99","-1"," ","0","0","[1541]","1","2","","","10829","67","5","2","win","no-go","0"
"pit-trial","192","1359592","0.0-72.0","battery-v0.2","","""event"",""trial"",""time""
""fullscreenenter"",""1"",""6006""
","
","
","""event"",""trial"",""time""
""fullscreenenter"",""1"",""6006""
","
","","","648.3999999999069","","","10","10829","5085","r","elianto","#3366ff99","-1"," ","0","+10","[1499.7999999998137]","1","2","","","10829","68","1","2","win","no-go","1"
"pit-trial","193","1363408","0.0-73.0","battery-v0.2","","""event"",""trial"",""time""
""fullscreenenter"",""1"",""6006""
","
","
","""event"",""trial"",""time""
""fullscreenenter"",""1"",""6006""
","
","","","952.8999999999069","","","10","10829","5085","y","elianto","#f73b6a7A"," "," ","1","0","[1811.7999999998137]","1","2","","","10829","69","2","3","lose","go","0"
"pit-trial","194","1367144","0.0-74.0","battery-v0.2","","""event"",""trial"",""time""
""fullscreenenter"",""1"",""6006""
","
","
","""event"",""trial"",""time""
""fullscreenenter"",""1"",""6006""
","
","","","880.7000000001863","","","10","10829","5085","z","elianto","#3366ff99"," "," ","1","+10","[1732]","1","2","","","10829","70","4","1","win","go","0"
"pit-trial","195","1370813","0.0-75.0","battery-v0.2","","""event"",""trial"",""time""
""fullscreenenter"",""1"",""6006""
","
","
","""event"",""trial"",""time""
""fullscreenenter"",""1"",""6006""
","
","","","814.3999999999069","","","10","10829","5085","r","elianto","#3366ff99","-1"," ","0","+10","[1666.2999999998137]","1","2","","","10829","71","1","2","win","no-go","1"
"pit-trial","196","1375500","0.0-76.0","battery-v0.2","","""event"",""trial"",""time""
""fullscreenenter"",""1"",""6006""
","
","
","""event"",""trial"",""time""
""fullscreenenter"",""1"",""6006""
","
","","","1823.7999999998137","","","10","10829","5085","c","elianto","#3366ff99","-1"," ","0","+10","[2679.6999999997206]","1","2","","","10829","72","5","2","win","no-go","1"
"pit-trial","197","1379079","0.0-77.0","battery-v0.2","","""event"",""trial"",""time""
""fullscreenenter"",""1"",""6006""
","
","
","""event"",""trial"",""time""
""fullscreenenter"",""1"",""6006""
","
","","","726.1000000000931","","","10","10829","5085","z","elianto","#3366ff99"," "," ","1","0","[1576.5]","1","2","","","10829","73","4","1","win","go","1"
"pit-trial","198","1383938","0.0-78.0","battery-v0.2","","""event"",""trial"",""time""
""fullscreenenter"",""1"",""6006""
","
","
","""event"",""trial"",""time""
""fullscreenenter"",""1"",""6006""
","
","","","-1","","","10","10829","5085","h","elianto","#f73b6a7A","-1","-1","1","-10","[]","0","2","","","10829","74","3","4","lose","no-go","1"
"pit-trial","199","1388797","0.0-79.0","battery-v0.2","","""event"",""trial"",""time""
""fullscreenenter"",""1"",""6006""
","
","
","""event"",""trial"",""time""
""fullscreenenter"",""1"",""6006""
","
","","","-1","","","10","10829","5085","c","elianto","#3366ff99","-1","-1","1","+10","[]","0","2","","","10829","75","5","2","win","no-go","0"
"pit-trial","200","1393458","0.0-80.0","battery-v0.2","","""event"",""trial"",""time""
""fullscreenenter"",""1"",""6006""
","
","
","""event"",""trial"",""time""
""fullscreenenter"",""1"",""6006""
","
","","","1804.5999999996275","","","10","10829","5085","r","elianto","#3366ff99","-1"," ","0","0","[2657.2999999998137]","1","2","","","10829","76","1","2","win","no-go","0"
"pit-trial","201","1396964","0.0-81.0","battery-v0.2","","""event"",""trial"",""time""
""fullscreenenter"",""1"",""6006""
","
","
","""event"",""trial"",""time""
""fullscreenenter"",""1"",""6006""
","
","","","646.8999999999069","","","10","10829","5085","c","elianto","#3366ff99","-1"," ","0","0","[1498.2999999998137]","1","2","","","10829","77","5","2","win","no-go","0"
"pit-trial","202","1401823","0.0-82.0","battery-v0.2","","""event"",""trial"",""time""
""fullscreenenter"",""1"",""6006""
","
","
","""event"",""trial"",""time""
""fullscreenenter"",""1"",""6006""
","
","","","-1","","","10","10829","5085","h","elianto","#f73b6a7A","-1","-1","1","0","[]","0","2","","","10829","78","3","4","lose","no-go","0"
"pit-trial","203","1406227","0.0-83.0","battery-v0.2","","""event"",""trial"",""time""
""fullscreenenter"",""1"",""6006""
","
","
","""event"",""trial"",""time""
""fullscreenenter"",""1"",""6006""
","
","","","1546.6000000000931","","","10","10829","5085","z","elianto","#3366ff99"," "," ","1","+10","[2397.399999999907]","1","2","","","10829","79","4","1","win","go","0"
"pit-trial","204","1410449","0.0-84.0","battery-v0.2","","""event"",""trial"",""time""
""fullscreenenter"",""1"",""6006""
","
","
","""event"",""trial"",""time""
""fullscreenenter"",""1"",""6006""
","
","","","1364.1000000000931","","","10","10829","5085","z","elianto","#3366ff99"," "," ","1","+10","[2217]","1","2","","","10829","80","4","1","win","go","0"
"pit-trial","205","1414182","0.0-85.0","battery-v0.2","","""event"",""trial"",""time""
""fullscreenenter"",""1"",""6006""
","
","
","""event"",""trial"",""time""
""fullscreenenter"",""1"",""6006""
","
","","","870.5","","","10","10829","5085","c","elianto","#3366ff99","-1"," ","0","0","[1724.8000000002794]","1","2","","","10829","81","5","2","win","no-go","0"
"pit-trial","206","1417990","0.0-86.0","battery-v0.2","","""event"",""trial"",""time""
""fullscreenenter"",""1"",""6006""
","
","
","""event"",""trial"",""time""
""fullscreenenter"",""1"",""6006""
","
","","","951.1000000000931","","","10","10829","5085","t","elianto","#f73b6a7A","-1"," ","0","0","[1801.5]","1","2","","","10829","82","7","4","lose","no-go","1"
"pit-trial","207","1421514","0.0-87.0","battery-v0.2","","""event"",""trial"",""time""
""fullscreenenter"",""1"",""6006""
","
","
","""event"",""trial"",""time""
""fullscreenenter"",""1"",""6006""
","
","","","665.2000000001863","","","10","10829","5085","z","elianto","#3366ff99"," "," ","1","+10","[1516.7999999998137]","1","2","","","10829","83","4","1","win","go","0"
"pit-trial","208","1425425","0.0-88.0","battery-v0.2","","""event"",""trial"",""time""
""fullscreenenter"",""1"",""6006""
","
","
","""event"",""trial"",""time""
""fullscreenenter"",""1"",""6006""
","
","","","1057.1000000000931","","","10","10829","5085","h","elianto","#f73b6a7A","-1"," ","0","-10","[1908.8999999999069]","1","2","","","10829","84","3","4","lose","no-go","0"
"pit-trial","209","1429234","0.0-89.0","battery-v0.2","","""event"",""trial"",""time""
""fullscreenenter"",""1"",""6006""
","
","
","""event"",""trial"",""time""
""fullscreenenter"",""1"",""6006""
","
","","","946.3000000002794","","","10","10829","5085","b","elianto","#f73b6a7A"," "," ","1","0","[1800.1000000000931]","1","2","","","10829","85","6","3","lose","go","0"
"pit-trial","210","1432939","0.0-90.0","battery-v0.2","","""event"",""trial"",""time""
""fullscreenenter"",""1"",""6006""
","
","
","""event"",""trial"",""time""
""fullscreenenter"",""1"",""6006""
","
","","","852.1000000000931","","","10","10829","5085","t","elianto","#f73b6a7A","-1"," ","0","-10","[1702.8999999999069]","1","2","","","10829","86","7","4","lose","no-go","0"
"pit-trial","211","1437795","0.0-91.0","battery-v0.2","","""event"",""trial"",""time""
""fullscreenenter"",""1"",""6006""
","
","
","""event"",""trial"",""time""
""fullscreenenter"",""1"",""6006""
","
","","","-1","","","10","10829","5085","c","elianto","#3366ff99","-1","-1","1","0","[]","0","2","","","10829","87","5","2","win","no-go","1"
"pit-trial","212","1441245","0.0-92.0","battery-v0.2","","""event"",""trial"",""time""
""fullscreenenter"",""1"",""6006""
","
","
","""event"",""trial"",""time""
""fullscreenenter"",""1"",""6006""
","
","","","587.8000000002794","","","10","10829","5085","z","elianto","#3366ff99"," "," ","1","0","[1442.3999999999069]","1","2","","","10829","88","4","1","win","go","1"
"pit-trial","213","1444932","0.0-93.0","battery-v0.2","","""event"",""trial"",""time""
""fullscreenenter"",""1"",""6006""
","
","
","""event"",""trial"",""time""
""fullscreenenter"",""1"",""6006""
","
","","","834","","","10","10829","5085","b","elianto","#f73b6a7A"," "," ","1","0","[1684.2999999998137]","1","2","","","10829","89","6","3","lose","go","0"
"pit-trial","214","1449790","0.0-94.0","battery-v0.2","","""event"",""trial"",""time""
""fullscreenenter"",""1"",""6006""
","
","
","""event"",""trial"",""time""
""fullscreenenter"",""1"",""6006""
","
","","","-1","","","10","10829","5085","c","elianto","#3366ff99","-1","-1","1","+10","[3186.5]","1","2","","","10829","90","5","2","win","no-go","0"
"pit-trial","215","1454648","0.0-95.0","battery-v0.2","","""event"",""trial"",""time""
""fullscreenenter"",""1"",""6006""
","
","
","""event"",""trial"",""time""
""fullscreenenter"",""1"",""6006""
","
","","","-1","","","10","10829","5085","z","elianto","#3366ff99"," ","-1","0","0","[]","0","2","","","10829","91","4","1","win","go","0"
"pit-trial","216","1458226","0.0-96.0","battery-v0.2","","""event"",""trial"",""time""
""fullscreenenter"",""1"",""6006""
","
","
","""event"",""trial"",""time""
""fullscreenenter"",""1"",""6006""
","
","","","719.1000000000931","","","10","10829","5085","t","elianto","#f73b6a7A","-1"," ","0","-10","[1571.6000000000931]","1","2","","","10829","92","7","4","lose","no-go","0"
"pit-trial","217","1461929","0.0-97.0","battery-v0.2","","""event"",""trial"",""time""
""fullscreenenter"",""1"",""6006""
","
","
","""event"",""trial"",""time""
""fullscreenenter"",""1"",""6006""
","
","","","847.7000000001863","","","10","10829","5085","b","elianto","#f73b6a7A"," "," ","1","-10","[1700.2000000001863]","1","2","","","10829","93","6","3","lose","go","1"
"pit-trial","218","1466787","0.0-98.0","battery-v0.2","","""event"",""trial"",""time""
""fullscreenenter"",""1"",""6006""
","
","
","""event"",""trial"",""time""
""fullscreenenter"",""1"",""6006""
","
","","","-1","","","10","10829","5085","t","elianto","#f73b6a7A","-1","-1","1","0","[]","0","2","","","10829","94","7","4","lose","no-go","0"
"pit-trial","219","1471640","0.0-99.0","battery-v0.2","","""event"",""trial"",""time""
""fullscreenenter"",""1"",""6006""
","
","
","""event"",""trial"",""time""
""fullscreenenter"",""1"",""6006""
","
","","","-1","","","10","10829","5085","c","elianto","#3366ff99","-1","-1","1","+10","[]","0","2","","","10829","95","5","2","win","no-go","0"
"pit-trial","220","1476498","0.0-100.0","battery-v0.2","","""event"",""trial"",""time""
""fullscreenenter"",""1"",""6006""
","
","
","""event"",""trial"",""time""
""fullscreenenter"",""1"",""6006""
","
","","","-1","","","10","10829","5085","f","elianto","#3366ff99"," ","-1","0","+10","[]","0","2","","","10829","96","8","1","win","go","1"
"pit-trial","221","1481357","0.0-101.0","battery-v0.2","","""event"",""trial"",""time""
""fullscreenenter"",""1"",""6006""
","
","
","""event"",""trial"",""time""
""fullscreenenter"",""1"",""6006""
","
","","","-1","","","10","10829","5085","t","elianto","#f73b6a7A","-1","-1","1","0","[]","0","2","","","10829","97","7","4","lose","no-go","0"
"pit-trial","222","1486215","0.0-102.0","battery-v0.2","","""event"",""trial"",""time""
""fullscreenenter"",""1"",""6006""
","
","
","""event"",""trial"",""time""
""fullscreenenter"",""1"",""6006""
","
","","","-1","","","10","10829","5085","c","elianto","#3366ff99","-1","-1","1","+10","[]","0","2","","","10829","98","5","2","win","no-go","0"
"pit-trial","223","1491075","0.0-103.0","battery-v0.2","","""event"",""trial"",""time""
""fullscreenenter"",""1"",""6006""
","
","
","""event"",""trial"",""time""
""fullscreenenter"",""1"",""6006""
","
","","","-1","","","10","10829","5085","f","elianto","#3366ff99"," ","-1","0","0","[]","0","2","","","10829","99","8","1","win","go","0"
"pit-trial","224","1494803","0.0-104.0","battery-v0.2","","""event"",""trial"",""time""
""fullscreenenter"",""1"",""6006""
","
","
","""event"",""trial"",""time""
""fullscreenenter"",""1"",""6006""
","
","","","874.3999999999069","","","10","10829","5085","b","elianto","#f73b6a7A"," "," ","1","-10","[1725.2999999998137]","1","2","","","10829","100","6","3","lose","go","1"
"pit-trial","225","1499661","0.0-105.0","battery-v0.2","","""event"",""trial"",""time""
""fullscreenenter"",""1"",""6006""
","
","
","""event"",""trial"",""time""
""fullscreenenter"",""1"",""6006""
","
","","","-1","","","10","10829","5085","t","elianto","#f73b6a7A","-1","-1","1","0","[]","0","2","","","10829","101","7","4","lose","no-go","0"
"pit-trial","226","1504519","0.0-106.0","battery-v0.2","","""event"",""trial"",""time""
""fullscreenenter"",""1"",""6006""
","
","
","""event"",""trial"",""time""
""fullscreenenter"",""1"",""6006""
","
","","","-1","","","10","10829","5085","c","elianto","#3366ff99","-1","-1","1","+10","[]","0","2","","","10829","102","5","2","win","no-go","0"
"pit-trial","227","1509070","0.0-107.0","battery-v0.2","","""event"",""trial"",""time""
""fullscreenenter"",""1"",""6006""
","
","
","""event"",""trial"",""time""
""fullscreenenter"",""1"",""6006""
","
","","","1693.8000000002794","","","10","10829","5085","n","elianto","#3366ff99"," "," ","1","+10","[2544.5]","1","2","","","10829","103","9","1","win","go","0"
"pit-trial","228","1512791","0.0-108.0","battery-v0.2","","""event"",""trial"",""time""
""fullscreenenter"",""1"",""6006""
","
","
","""event"",""trial"",""time""
""fullscreenenter"",""1"",""6006""
","
","","","863.1999999997206","","","10","10829","5085","f","elianto","#3366ff99"," "," ","1","0","[1714]","1","2","","","10829","104","8","1","win","go","1"
"pit-trial","229","1516907","0.0-109.0","battery-v0.2","","""event"",""trial"",""time""
""fullscreenenter"",""1"",""6006""
","
","
","""event"",""trial"",""time""
""fullscreenenter"",""1"",""6006""
","
","","","1259.8999999999069","","","10","10829","5085","n","elianto","#3366ff99"," "," ","1","+10","[2112.7000000001863]","1","2","","","10829","105","9","1","win","go","0"
"pit-trial","230","1521766","0.0-110.0","battery-v0.2","","""event"",""trial"",""time""
""fullscreenenter"",""1"",""6006""
","
","
","""event"",""trial"",""time""
""fullscreenenter"",""1"",""6006""
","
","","","-1","","","10","10829","5085","z","elianto","#3366ff99"," ","-1","0","0","[]","0","2","","","10829","106","4","1","win","go","0"
"pit-trial","231","1525359","0.0-111.0","battery-v0.2","","""event"",""trial"",""time""
""fullscreenenter"",""1"",""6006""
","
","
","""event"",""trial"",""time""
""fullscreenenter"",""1"",""6006""
","
","","","736.1000000000931","","","10","10829","5085","f","elianto","#3366ff99"," "," ","1","+10","[1587.2999999998137]","1","2","","","10829","107","8","1","win","go","0"
"pit-trial","232","1529202","0.0-112.0","battery-v0.2","","""event"",""trial"",""time""
""fullscreenenter"",""1"",""6006""
","
","
","""event"",""trial"",""time""
""fullscreenenter"",""1"",""6006""
","
","","","985.2000000001863","","","10","10829","5085","b","elianto","#f73b6a7A"," "," ","1","0","[1835.6000000000931]","1","2","","","10829","108","6","3","lose","go","0"
"pit-trial","233","1533364","0.0-113.0","battery-v0.2","","""event"",""trial"",""time""
""fullscreenenter"",""1"",""6006""
","
","
","""event"",""trial"",""time""
""fullscreenenter"",""1"",""6006""
","
","","","1303.3000000002794","","","10","10829","5085","b","elianto","#f73b6a7A"," "," ","1","0","[2159.3000000002794]","1","2","","","10829","109","6","3","lose","go","0"
"pit-trial","234","1537647","0.0-114.0","battery-v0.2","","""event"",""trial"",""time""
""fullscreenenter"",""1"",""6006""
","
","
","""event"",""trial"",""time""
""fullscreenenter"",""1"",""6006""
","
","","","1428.6999999997206","","","10","10829","5085","f","elianto","#3366ff99"," "," ","1","+10","[2279.1999999997206]","1","2","","","10829","110","8","1","win","go","0"
"pit-trial","235","1541230","0.0-115.0","battery-v0.2","","""event"",""trial"",""time""
""fullscreenenter"",""1"",""6006""
","
","
","""event"",""trial"",""time""
""fullscreenenter"",""1"",""6006""
","
","","","729.1999999997206","","","10","10829","5085","n","elianto","#3366ff99"," "," ","1","+10","[1579.7999999998137]","1","2","","","10829","111","9","1","win","go","0"
"pit-trial","236","1544817","0.0-116.0","battery-v0.2","","""event"",""trial"",""time""
""fullscreenenter"",""1"",""6006""
","
","
","""event"",""trial"",""time""
""fullscreenenter"",""1"",""6006""
","
","","","730.1000000000931","","","10","10829","5085","c","elianto","#3366ff99","-1"," ","0","0","[1581.7999999998137]","1","2","","","10829","112","5","2","win","no-go","0"
"pit-trial","237","1549379","0.0-117.0","battery-v0.2","","""event"",""trial"",""time""
""fullscreenenter"",""1"",""6006""
","
","
","""event"",""trial"",""time""
""fullscreenenter"",""1"",""6006""
","
","","","1703.5","","","10","10829","5085","c","elianto","#3366ff99","-1"," ","0","0","[2554.399999999907]","1","2","","","10829","113","5","2","win","no-go","0"
"pit-trial","238","1553455","0.0-118.0","battery-v0.2","","""event"",""trial"",""time""
""fullscreenenter"",""1"",""6006""
","
","
","""event"",""trial"",""time""
""fullscreenenter"",""1"",""6006""
","
","","","1220.6000000000931","","","10","10829","5085","f","elianto","#3366ff99"," "," ","1","+10","[2072.600000000093]","1","2","","","10829","114","8","1","win","go","0"
"pit-trial","239","1557351","0.0-119.0","battery-v0.2","","""event"",""trial"",""time""
""fullscreenenter"",""1"",""6006""
","
","
","""event"",""trial"",""time""
""fullscreenenter"",""1"",""6006""
","
","","","1039.5","","","10","10829","5085","n","elianto","#3366ff99"," "," ","1","+10","[1890.7000000001863]","1","2","","","10829","115","9","1","win","go","0"
"pit-trial","240","1561089","0.0-120.0","battery-v0.2","","""event"",""trial"",""time""
""fullscreenenter"",""1"",""6006""
","
","
","""event"",""trial"",""time""
""fullscreenenter"",""1"",""6006""
","
","","","877.5","","","10","10829","5085","b","elianto","#f73b6a7A"," "," ","1","0","[1729.7000000001863]","1","2","","","10829","116","6","3","lose","go","0"
"pit-trial","241","1564717","0.0-121.0","battery-v0.2","","""event"",""trial"",""time""
""fullscreenenter"",""1"",""6006""
","
","
","""event"",""trial"",""time""
""fullscreenenter"",""1"",""6006""
","
","","","772","","","10","10829","5085","n","elianto","#3366ff99"," "," ","1","+10","[1622.7999999998137]","1","2","","","10829","117","9","1","win","go","0"
"pit-trial","242","1568357","0.0-122.0","battery-v0.2","","""event"",""trial"",""time""
""fullscreenenter"",""1"",""6006""
","
","
","""event"",""trial"",""time""
""fullscreenenter"",""1"",""6006""
","
","","","783","","","10","10829","5085","b","elianto","#f73b6a7A"," "," ","1","0","[1636.2000000001863]","1","2","","","10829","118","6","3","lose","go","0"
"pit-trial","243","1572374","0.0-123.0","battery-v0.2","","""event"",""trial"",""time""
""fullscreenenter"",""1"",""6006""
","
","
","""event"",""trial"",""time""
""fullscreenenter"",""1"",""6006""
","
","","","1150.5","","","10","10829","5085","c","elianto","#3366ff99","-1"," ","0","0","[2009.3999999999069]","1","2","","","10829","119","5","2","win","no-go","0"
"pit-trial","244","1576025","0.0-124.0","battery-v0.2","","""event"",""trial"",""time""
""fullscreenenter"",""1"",""6006""
","
","
","""event"",""trial"",""time""
""fullscreenenter"",""1"",""6006""
","
","","","787.2000000001863","","","10","10829","5085","f","elianto","#3366ff99"," "," ","1","+10","[1644.5]","1","2","","","10829","120","8","1","win","go","0"
"pit-trial","245","1579659","0.0-125.0","battery-v0.2","","""event"",""trial"",""time""
""fullscreenenter"",""1"",""6006""
","
","
","""event"",""trial"",""time""
""fullscreenenter"",""1"",""6006""
","
","","","776","","","10","10829","5085","n","elianto","#3366ff99"," "," ","1","+10","[1630.5]","1","2","","","10829","121","9","1","win","go","0"
"pit-trial","246","1583976","0.0-126.0","battery-v0.2","","""event"",""trial"",""time""
""fullscreenenter"",""1"",""6006""
","
","
","""event"",""trial"",""time""
""fullscreenenter"",""1"",""6006""
","
","","","1458.9000000003725","","","10","10829","5085","f","elianto","#3366ff99"," "," ","1","+10","[2311.4000000003725]","1","2","","","10829","122","8","1","win","go","0"
"pit-trial","247","1587774","0.0-127.0","battery-v0.2","","""event"",""trial"",""time""
""fullscreenenter"",""1"",""6006""
","
","
","""event"",""trial"",""time""
""fullscreenenter"",""1"",""6006""
","
","","","939.8999999999069","","","10","10829","5085","t","elianto","#f73b6a7A","-1"," ","0","-10","[1793.1000000000931]","1","2","","","10829","123","7","4","lose","no-go","0"
"pit-trial","248","1591513","0.0-128.0","battery-v0.2","","""event"",""trial"",""time""
""fullscreenenter"",""1"",""6006""
","
","
","""event"",""trial"",""time""
""fullscreenenter"",""1"",""6006""
","
","","","881.6000000005588","","","10","10829","5085","b","elianto","#f73b6a7A"," "," ","1","0","[1732.8000000002794]","1","2","","","10829","124","6","3","lose","go","0"
"pit-trial","249","1595234","0.0-129.0","battery-v0.2","","""event"",""trial"",""time""
""fullscreenenter"",""1"",""6006""
","
","
","""event"",""trial"",""time""
""fullscreenenter"",""1"",""6006""
","
","","","862.6000000005588","","","10","10829","5085","f","elianto","#3366ff99"," "," ","1","0","[1713.7000000001863]","1","2","","","10829","125","8","1","win","go","1"
"pit-trial","250","1598896","0.0-130.0","battery-v0.2","","""event"",""trial"",""time""
""fullscreenenter"",""1"",""6006""
","
","
","""event"",""trial"",""time""
""fullscreenenter"",""1"",""6006""
","
","","","804.0999999996275","","","10","10829","5085","b","elianto","#f73b6a7A"," "," ","1","-10","[1654.9000000003725]","1","2","","","10829","126","6","3","lose","go","1"
"pit-trial","251","1602484","0.0-131.0","battery-v0.2","","""event"",""trial"",""time""
""fullscreenenter"",""1"",""6006""
","
","
","""event"",""trial"",""time""
""fullscreenenter"",""1"",""6006""
","
","","","732.7999999998137","","","10","10829","5085","n","elianto","#3366ff99"," "," ","1","+10","[1584.6000000005588]","1","2","","","10829","127","9","1","win","go","0"
"pit-trial","252","1607267","0.0-132.0","battery-v0.2","","""event"",""trial"",""time""
""fullscreenenter"",""1"",""6006""
","
","
","""event"",""trial"",""time""
""fullscreenenter"",""1"",""6006""
","
","","","1928.6000000005588","","","10","10829","5085","t","elianto","#f73b6a7A","-1"," ","0","-10","[2780.300000000745]","1","2","","","10829","128","7","4","lose","no-go","0"
"pit-trial","253","1610976","0.0-133.0","battery-v0.2","","""event"",""trial"",""time""
""fullscreenenter"",""1"",""6006""
","
","
","""event"",""trial"",""time""
""fullscreenenter"",""1"",""6006""
","
","","","852","","","10","10829","5085","b","elianto","#f73b6a7A"," "," ","1","0","[1703.2999999998137]","1","2","","","10829","129","6","3","lose","go","0"
"pit-trial","254","1614576","0.0-134.0","battery-v0.2","","""event"",""trial"",""time""
""fullscreenenter"",""1"",""6006""
","
","
","""event"",""trial"",""time""
""fullscreenenter"",""1"",""6006""
","
","","","734.5","","","10","10829","5085","n","elianto","#3366ff99"," "," ","1","+10","[1593.2000000001863]","1","2","","","10829","130","9","1","win","go","0"
"pit-trial","255","1618065","0.0-135.0","battery-v0.2","","""event"",""trial"",""time""
""fullscreenenter"",""1"",""6006""
","
","
","""event"",""trial"",""time""
""fullscreenenter"",""1"",""6006""
","
","","","627.7000000001863","","","10","10829","5085","f","elianto","#3366ff99"," "," ","1","+10","[1485.7999999998137]","1","2","","","10829","131","8","1","win","go","0"
"pit-trial","256","1622024","0.0-136.0","battery-v0.2","","""event"",""trial"",""time""
""fullscreenenter"",""1"",""6006""
","
","
","""event"",""trial"",""time""
""fullscreenenter"",""1"",""6006""
","
","","","1092.5","","","10","10829","5085","t","elianto","#f73b6a7A","-1"," ","0","-10","[1955]","1","2","","","10829","132","7","4","lose","no-go","0"
"pit-trial","257","1625658","0.0-137.0","battery-v0.2","","""event"",""trial"",""time""
""fullscreenenter"",""1"",""6006""
","
","
","""event"",""trial"",""time""
""fullscreenenter"",""1"",""6006""
","
","","","778.5999999996275","","","10","10829","5085","b","elianto","#f73b6a7A"," "," ","1","0","[1629.7000000001863]","1","2","","","10829","133","6","3","lose","go","0"
"pit-trial","258","1629297","0.0-138.0","battery-v0.2","","""event"",""trial"",""time""
""fullscreenenter"",""1"",""6006""
","
","
","""event"",""trial"",""time""
""fullscreenenter"",""1"",""6006""
","
","","","783.5","","","10","10829","5085","t","elianto","#f73b6a7A","-1"," ","0","0","[1634.4000000003725]","1","2","","","10829","134","7","4","lose","no-go","1"
"pit-trial","259","1632974","0.0-139.0","battery-v0.2","","""event"",""trial"",""time""
""fullscreenenter"",""1"",""6006""
","
","
","""event"",""trial"",""time""
""fullscreenenter"",""1"",""6006""
","
","","","822.2000000001863","","","10","10829","5085","n","elianto","#3366ff99"," "," ","1","+10","[1674.2000000001863]","1","2","","","10829","135","9","1","win","go","0"
"pit-trial","260","1636559","0.0-140.0","battery-v0.2","","""event"",""trial"",""time""
""fullscreenenter"",""1"",""6006""
","
","
","""event"",""trial"",""time""
""fullscreenenter"",""1"",""6006""
","
","","","724.1999999992549","","","10","10829","5085","f","elianto","#3366ff99"," "," ","1","+10","[1581.7000000001863]","1","2","","","10829","136","8","1","win","go","0"
"pit-trial","261","1640124","0.0-141.0","battery-v0.2","","""event"",""trial"",""time""
""fullscreenenter"",""1"",""6006""
","
","
","""event"",""trial"",""time""
""fullscreenenter"",""1"",""6006""
","
","","","707.2999999998137","","","10","10829","5085","t","elianto","#f73b6a7A","-1"," ","0","0","[1559.6000000005588]","1","2","","","10829","137","7","4","lose","no-go","1"
"pit-trial","262","1643717","0.0-142.0","battery-v0.2","","""event"",""trial"",""time""
""fullscreenenter"",""1"",""6006""
","
","
","""event"",""trial"",""time""
""fullscreenenter"",""1"",""6006""
","
","","","735.4000000003725","","","10","10829","5085","f","elianto","#3366ff99"," "," ","1","+10","[1585.9000000003725]","1","2","","","10829","138","8","1","win","go","0"
"pit-trial","263","1647264","0.0-143.0","battery-v0.2","","""event"",""trial"",""time""
""fullscreenenter"",""1"",""6006""
","
","
","""event"",""trial"",""time""
""fullscreenenter"",""1"",""6006""
","
