"trial_type","trial_index","time_elapsed","internal_node_id","task_version","subject_id","interactions","blur_events","focus_events","fullscreenenter_events","fullscreenexit_events","success","view_history","rt","responses","num_errors","age","subject","participantId","rune","rune_set","hex","correct","choice","accuracy","outcome","keys","total_keys","block","practice","value","sub","trial","stimulus","robot","valence","action","sham"
"pavlovia","0","8","0.0-0.0","battery-v0.2","","""event"",""trial"",""time""
""fullscreenenter"",""1"",""3271""
","
","
","""event"",""trial"",""time""
""fullscreenenter"",""1"",""3271""
","
","","","","","","","","","","","","","","","","","","","","","","","","","","",""
"fullscreen","1","4240","0.0-1.0","battery-v0.2","","""event"",""trial"",""time""
""fullscreenenter"",""1"",""3271""
","
","
","""event"",""trial"",""time""
""fullscreenenter"",""1"",""3271""
","
","true","","","","","","","","","","","","","","","","","","","","","","","","","",""
"pit-instructions","2","8555","0.0-2.0-0.0","battery-v0.2","","""event"",""trial"",""time""
""fullscreenenter"",""1"",""3271""
","
","
","""event"",""trial"",""time""
""fullscreenenter"",""1"",""3271""
","
","","[{""page_index"":0,""viewing_time"":4312}]","4312.600000023842","","","","","","","","","","","","","","","","","","","","","","","",""
"pit-comprehension","3","11541","0.0-2.0-1.0-0.0","battery-v0.2","","""event"",""trial"",""time""
""fullscreenenter"",""1"",""3271""
","
","
","""event"",""trial"",""time""
""fullscreenenter"",""1"",""3271""
","
","","","2982.1999999284744","[""shark""]","0","24","10210","4300","","","","","","","","","","","","","","","","","","",""
"pit-instructions","4","12780","0.0-2.0-1.0-1.0","battery-v0.2","","""event"",""trial"",""time""
""fullscreenenter"",""1"",""3271""
","
","
","""event"",""trial"",""time""
""fullscreenenter"",""1"",""3271""
","
","","[{""page_index"":0,""viewing_time"":1227.8999999761581}]","1228.2999999523163","","","","","","","","","","","","","","","","","","","","","","","",""
"pit-comprehension","5","16921","0.0-2.0-2.0-0.0","battery-v0.2","","""event"",""trial"",""time""
""fullscreenenter"",""1"",""3271""
","
","
","""event"",""trial"",""time""
""fullscreenenter"",""1"",""3271""
","
","","","4138.200000047684","[""tiger""]","0","24","10210","4300","","","","","","","","","","","","","","","","","","",""
"pit-instructions","6","17915","0.0-2.0-2.0-1.0","battery-v0.2","","""event"",""trial"",""time""
""fullscreenenter"",""1"",""3271""
","
","
","""event"",""trial"",""time""
""fullscreenenter"",""1"",""3271""
","
","","[{""page_index"":0,""viewing_time"":990.6000000238419}]","991","","","","","","","","","","","","","","","","","","","","","","","",""
"pit-instructions","7","125349","0.0-2.0-3.0","battery-v0.2","","""event"",""trial"",""time""
""fullscreenenter"",""1"",""3271""
","
","
","""event"",""trial"",""time""
""fullscreenenter"",""1"",""3271""
","
","","[{""page_index"":0,""viewing_time"":9294.699999928474},{""page_index"":1,""viewing_time"":7648.800000071526},{""page_index"":2,""viewing_time"":7603.099999904633},{""page_index"":3,""viewing_time"":7030.300000071526},{""page_index"":4,""viewing_time"":7093.199999928474},{""page_index"":5,""viewing_time"":6422},{""page_index"":6,""viewing_time"":7889.400000095367},{""page_index"":7,""viewing_time"":7619.299999952316},{""page_index"":8,""viewing_time"":6096},{""page_index"":9,""viewing_time"":6719.100000023842},{""page_index"":10,""viewing_time"":11945.199999928474},{""page_index"":11,""viewing_time"":8526.400000095367},{""page_index"":12,""viewing_time"":7361.099999904633},{""page_index"":13,""viewing_time"":6182.100000023842}]","107431.09999990463","","","","","","","","","","","","","","","","","","","","","","","",""
"pit-trial","8","128549","0.0-2.0-4.0-0.0","battery-v0.2","","""event"",""trial"",""time""
""fullscreenenter"",""1"",""3271""
","
","
","""event"",""trial"",""time""
""fullscreenenter"",""1"",""3271""
","
","","","345.7999999523163","","","24","10210","4300","&#9784;","elianto","#FFFFF080"," "," ","1","&#10004","[1196.6999999284744]","1","0","0","","","","","","","",""
"pit-trial","9","131545","0.0-2.0-4.1-0.1","battery-v0.2","","""event"",""trial"",""time""
""fullscreenenter"",""1"",""3271""
","
","
","""event"",""trial"",""time""
""fullscreenenter"",""1"",""3271""
","
","","","142.60000002384186","","","24","10210","4300","&#9784;","elianto","#FFFFF080"," "," ","1","&#10004","[992.9000000953674]","1","0","0","","","","","","","",""
"pit-trial","10","134525","0.0-2.0-4.2-0.2","battery-v0.2","","""event"",""trial"",""time""
""fullscreenenter"",""1"",""3271""
","
","
","""event"",""trial"",""time""
""fullscreenenter"",""1"",""3271""
","
","","","124.80000007152557","","","24","10210","4300","&#9784;","elianto","#FFFFF080"," "," ","1","&#10004","[977.7000000476837]","1","0","0","","","","","","","",""
"pit-trial","11","137588","0.0-2.0-4.3-0.3","battery-v0.2","","""event"",""trial"",""time""
""fullscreenenter"",""1"",""3271""
","
","
","""event"",""trial"",""time""
""fullscreenenter"",""1"",""3271""
","
","","","211","","","24","10210","4300","&#9784;","elianto","#FFFFF080"," "," ","1","&#10004","[1061]","1","0","0","","","","","","","",""
"pit-trial","12","140991","0.0-2.0-4.4-0.4","battery-v0.2","","""event"",""trial"",""time""
""fullscreenenter"",""1"",""3271""
","
","
","""event"",""trial"",""time""
""fullscreenenter"",""1"",""3271""
","
","","","548","","","24","10210","4300","&#9784;","elianto","#FFFFF080"," "," ","1","&#10004","[1400.1999999284744]","1","0","0","","","","","","","",""
"pit-instructions","13","163012","0.0-2.0-5.0","battery-v0.2","","""event"",""trial"",""time""
""fullscreenenter"",""1"",""3271""
","
","
","""event"",""trial"",""time""
""fullscreenenter"",""1"",""3271""
","
","","[{""page_index"":0,""viewing_time"":5269.699999928474},{""page_index"":1,""viewing_time"":6216},{""page_index"":2,""viewing_time"":4937.200000047684},{""page_index"":3,""viewing_time"":5593.899999976158}]","22017.099999904633","","","","","","","","","","","","","","","","","","","","","","","",""
"pit-trial","14","167866","0.0-2.0-6.0-0.0","battery-v0.2","","""event"",""trial"",""time""
""fullscreenenter"",""1"",""3271""
","
","
","""event"",""trial"",""time""
""fullscreenenter"",""1"",""3271""
","
","","","-1","","","24","10210","4300","&#9854;","elianto","#FFFFF080","-1","-1","1","&#10004","[]","0","0","1","","","","","","","",""
"pit-trial","15","172720","0.0-2.0-6.1-0.1","battery-v0.2","","""event"",""trial"",""time""
""fullscreenenter"",""1"",""3271""
","
","
","""event"",""trial"",""time""
""fullscreenenter"",""1"",""3271""
","
","","","-1","","","24","10210","4300","&#9854;","elianto","#FFFFF080","-1","-1","1","&#10004","[]","0","0","1","","","","","","","",""
"pit-trial","16","177574","0.0-2.0-6.2-0.2","battery-v0.2","","""event"",""trial"",""time""
""fullscreenenter"",""1"",""3271""
","
","
","""event"",""trial"",""time""
""fullscreenenter"",""1"",""3271""
","
","","","-1","","","24","10210","4300","&#9854;","elianto","#FFFFF080","-1","-1","1","&#10004","[]","0","0","1","","","","","","","",""
"pit-trial","17","182426","0.0-2.0-6.3-0.3","battery-v0.2","","""event"",""trial"",""time""
""fullscreenenter"",""1"",""3271""
","
","
","""event"",""trial"",""time""
""fullscreenenter"",""1"",""3271""
","
","","","-1","","","24","10210","4300","&#9854;","elianto","#FFFFF080","-1","-1","1","&#10004","[]","0","0","1","","","","","","","",""
"pit-trial","18","187279","0.0-2.0-6.4-0.4","battery-v0.2","","""event"",""trial"",""time""
""fullscreenenter"",""1"",""3271""
","
","
","""event"",""trial"",""time""
""fullscreenenter"",""1"",""3271""
","
","","","-1","","","24","10210","4300","&#9854;","elianto","#FFFFF080","-1","-1","1","&#10004","[]","0","0","1","","","","","","","",""
"pit-instructions","19","323472","0.0-2.0-7.0","battery-v0.2","","""event"",""trial"",""time""
""fullscreenenter"",""1"",""3271""
","
","
","""event"",""trial"",""time""
""fullscreenenter"",""1"",""3271""
","
","","[{""page_index"":0,""viewing_time"":5978.899999976158},{""page_index"":1,""viewing_time"":6899.799999952316},{""page_index"":2,""viewing_time"":7121.400000095367},{""page_index"":3,""viewing_time"":6872.199999928474},{""page_index"":4,""viewing_time"":7132.100000023842},{""page_index"":5,""viewing_time"":6199.399999976158},{""page_index"":6,""viewing_time"":4840.100000023842},{""page_index"":7,""viewing_time"":9467.100000023842},{""page_index"":8,""viewing_time"":8757.199999928474},{""page_index"":9,""viewing_time"":7114.200000047684},{""page_index"":10,""viewing_time"":8730.299999952316},{""page_index"":11,""viewing_time"":9690.300000071526},{""page_index"":12,""viewing_time"":10429},{""page_index"":13,""viewing_time"":8166.399999976158},{""page_index"":14,""viewing_time"":7858.399999976158},{""page_index"":15,""viewing_time"":7122.100000023842},{""page_index"":16,""viewing_time"":7199.100000023842},{""page_index"":17,""viewing_time"":6612.899999976158}]","136191.19999992847","","","","","","","","","","","","","","","","","","","","","","","",""
"pit-trial","20","326872","0.0-2.0-8.0-0.0","battery-v0.2","","""event"",""trial"",""time""
""fullscreenenter"",""1"",""3271""
","
","
","""event"",""trial"",""time""
""fullscreenenter"",""1"",""3271""
","
","","","542","","","24","10210","4300","&#9776;","elianto","#3366ff99"," "," ","1","+10","[1397.6000000238419]","1","0","1","","","","","","","",""
"pit-trial","21","329963","0.0-2.0-8.0-1.0","battery-v0.2","","""event"",""trial"",""time""
""fullscreenenter"",""1"",""3271""
","
","
","""event"",""trial"",""time""
""fullscreenenter"",""1"",""3271""
","
","","","237.79999995231628","","","24","10210","4300","&#9776;","elianto","#3366ff99"," "," ","1","+10","[1088.6000000238419]","1","0","1","","","","","","","",""
"pit-trial","22","333229","0.0-2.0-8.0-2.0","battery-v0.2","","""event"",""trial"",""time""
""fullscreenenter"",""1"",""3271""
","
","
","""event"",""trial"",""time""
""fullscreenenter"",""1"",""3271""
","
","","","414","","","24","10210","4300","&#9776;","elianto","#3366ff99"," "," ","1","+10","[1264.3000000715256]","1","0","1","","","","","","","",""
"pit-trial","23","336462","0.0-2.0-8.0-3.0","battery-v0.2","","""event"",""trial"",""time""
""fullscreenenter"",""1"",""3271""
","
","
","""event"",""trial"",""time""
""fullscreenenter"",""1"",""3271""
","
","","","380","","","24","10210","4300","&#9776;","elianto","#3366ff99"," "," ","1","0","[1230.7000000476837]","1","0","1","","","","","","","",""
"pit-trial","24","339880","0.0-2.0-8.0-4.0","battery-v0.2","","""event"",""trial"",""time""
""fullscreenenter"",""1"",""3271""
","
","
","""event"",""trial"",""time""
""fullscreenenter"",""1"",""3271""
","
","","","564","","","24","10210","4300","&#9776;","elianto","#3366ff99"," "," ","1","+10","[1415.2999999523163]","1","0","1","","","","","","","",""
"pit-trial","25","343272","0.0-2.0-8.1-0.1","battery-v0.2","","""event"",""trial"",""time""
""fullscreenenter"",""1"",""3271""
","
","
","""event"",""trial"",""time""
""fullscreenenter"",""1"",""3271""
","
","","","537.7999999523163","","","24","10210","4300","&#9776;","elianto","#3366ff99"," "," ","1","+10","[1389.1999999284744]","1","0","1","","","","","","","",""
"pit-trial","26","346543","0.0-2.0-8.1-1.1","battery-v0.2","","""event"",""trial"",""time""
""fullscreenenter"",""1"",""3271""
","
","
","""event"",""trial"",""time""
""fullscreenenter"",""1"",""3271""
","
","","","418.7999999523163","","","24","10210","4300","&#9776;","elianto","#3366ff99"," "," ","1","+10","[1269]","1","0","1","","","","","","","",""
"pit-trial","27","349823","0.0-2.0-8.1-2.1","battery-v0.2","","""event"",""trial"",""time""
""fullscreenenter"",""1"",""3271""
","
","
","""event"",""trial"",""time""
""fullscreenenter"",""1"",""3271""
","
","","","425.8000000715256","","","24","10210","4300","&#9776;","elianto","#3366ff99"," "," ","1","+10","[1277.7000000476837]","1","0","1","","","","","","","",""
"pit-trial","28","353119","0.0-2.0-8.1-3.1","battery-v0.2","","""event"",""trial"",""time""
""fullscreenenter"",""1"",""3271""
","
","
","""event"",""trial"",""time""
""fullscreenenter"",""1"",""3271""
","
","","","441.2000000476837","","","24","10210","4300","&#9776;","elianto","#3366ff99"," "," ","1","0","[1294.6000000238419]","1","0","1","","","","","","","",""
"pit-trial","29","356415","0.0-2.0-8.1-4.1","battery-v0.2","","""event"",""trial"",""time""
""fullscreenenter"",""1"",""3271""
","
","
","""event"",""trial"",""time""
""fullscreenenter"",""1"",""3271""
","
","","","441.7999999523163","","","24","10210","4300","&#9776;","elianto","#3366ff99"," "," ","1","+10","[1293.1999999284744]","1","0","1","","","","","","","",""
"pit-trial","30","359710","0.0-2.0-8.2-0.2","battery-v0.2","","""event"",""trial"",""time""
""fullscreenenter"",""1"",""3271""
","
","
","""event"",""trial"",""time""
""fullscreenenter"",""1"",""3271""
","
","","","440.7000000476837","","","24","10210","4300","&#9776;","elianto","#3366ff99"," "," ","1","+10","[1291.7000000476837]","1","0","1","","","","","","","",""
"pit-trial","31","362680","0.0-2.0-8.2-1.2","battery-v0.2","","""event"",""trial"",""time""
""fullscreenenter"",""1"",""3271""
","
","
","""event"",""trial"",""time""
""fullscreenenter"",""1"",""3271""
","
","","","118.30000007152557","","","24","10210","4300","&#9776;","elianto","#3366ff99"," "," ","1","+10","[968.5]","1","0","1","","","","","","","",""
"pit-trial","32","365750","0.0-2.0-8.2-2.2","battery-v0.2","","""event"",""trial"",""time""
""fullscreenenter"",""1"",""3271""
","
","
","""event"",""trial"",""time""
""fullscreenenter"",""1"",""3271""
","
","","","217","","","24","10210","4300","&#9776;","elianto","#3366ff99"," "," ","1","+10","[1067.5999999046326]","1","0","1","","","","","","","",""
"pit-trial","33","368912","0.0-2.0-8.2-3.2","battery-v0.2","","""event"",""trial"",""time""
""fullscreenenter"",""1"",""3271""
","
","
","""event"",""trial"",""time""
""fullscreenenter"",""1"",""3271""
","
","","","309.39999997615814","","","24","10210","4300","&#9776;","elianto","#3366ff99"," "," ","1","0","[1159.8999999761581]","1","0","1","","","","","","","",""
"pit-trial","34","373029","0.0-2.0-8.2-4.2","battery-v0.2","","""event"",""trial"",""time""
""fullscreenenter"",""1"",""3271""
","
","
","""event"",""trial"",""time""
""fullscreenenter"",""1"",""3271""
","
","","","1263.1000000238419","","","24","10210","4300","&#9776;","elianto","#3366ff99"," "," ","1","+10","[2114.4000000953674]","1","0","1","","","","","","","",""
"call-function","35","373030","0.0-2.0-9.0","battery-v0.2","","""event"",""trial"",""time""
""fullscreenenter"",""1"",""3271""
","
","
","""event"",""trial"",""time""
""fullscreenenter"",""1"",""3271""
","
","","","","","","","","","","","","","","","","","","","","","","","","","","",""
"pit-instructions","36","411875","0.0-2.0-10.0","battery-v0.2","","""event"",""trial"",""time""
""fullscreenenter"",""1"",""3271""
","
","
","""event"",""trial"",""time""
""fullscreenenter"",""1"",""3271""
","
","","[{""page_index"":0,""viewing_time"":7173.800000071526},{""page_index"":1,""viewing_time"":6115.399999976158},{""page_index"":2,""viewing_time"":9068},{""page_index"":3,""viewing_time"":8129.600000023842},{""page_index"":4,""viewing_time"":8357.299999952316}]","38844.300000071526","","","","","","","","","","","","","","","","","","","","","","","",""
"pit-trial","37","416728","0.0-2.0-11.0-0.0","battery-v0.2","","""event"",""trial"",""time""
""fullscreenenter"",""1"",""3271""
","
","
","""event"",""trial"",""time""
""fullscreenenter"",""1"",""3271""
","
","","","-1","","","24","10210","4300","&#9761;","elianto","#3366ff99","-1","-1","1","+10","[]","0","0","2","","","","","","","",""
"pit-trial","38","420036","0.0-2.0-11.0-1.0","battery-v0.2","","""event"",""trial"",""time""
""fullscreenenter"",""1"",""3271""
","
","
","""event"",""trial"",""time""
""fullscreenenter"",""1"",""3271""
","
","","","453","","","24","10210","4300","&#9761;","elianto","#3366ff99","-1"," ","0","0","[1306.5]","1","0","2","","","","","","","",""
"pit-trial","39","423175","0.0-2.0-11.0-2.0","battery-v0.2","","""event"",""trial"",""time""
""fullscreenenter"",""1"",""3271""
","
","
","""event"",""trial"",""time""
""fullscreenenter"",""1"",""3271""
","
","","","283.89999997615814","","","24","10210","4300","&#9761;","elianto","#3366ff99","-1"," ","0","0","[1137.5]","1","0","2","","","","","","","",""
"pit-trial","40","426446","0.0-2.0-11.0-3.0","battery-v0.2","","""event"",""trial"",""time""
""fullscreenenter"",""1"",""3271""
","
","
","""event"",""trial"",""time""
""fullscreenenter"",""1"",""3271""
","
","","","411.10000002384186","","","24","10210","4300","&#9761;","elianto","#3366ff99","-1"," ","0","+10","[1267.5]","1","0","2","","","","","","","",""
"pit-trial","41","429412","0.0-2.0-11.0-4.0","battery-v0.2","","""event"",""trial"",""time""
""fullscreenenter"",""1"",""3271""
","
","
","""event"",""trial"",""time""
""fullscreenenter"",""1"",""3271""
","
","","","111","","","24","10210","4300","&#9761;","elianto","#3366ff99","-1"," ","0","0","[962.6000000238419]","1","0","2","","","","","","","",""
"pit-trial","42","432459","0.0-2.0-11.1-0.1","battery-v0.2","","""event"",""trial"",""time""
""fullscreenenter"",""1"",""3271""
","
","
","""event"",""trial"",""time""
""fullscreenenter"",""1"",""3271""
","
","","","192.5","","","24","10210","4300","&#9761;","elianto","#3366ff99","-1"," ","0","0","[1045.3999999761581,2778]","2","0","2","","","","","","","",""
"pit-trial","43","435866","0.0-2.0-11.1-1.1","battery-v0.2","","""event"",""trial"",""time""
""fullscreenenter"",""1"",""3271""
","
","
","""event"",""trial"",""time""
""fullscreenenter"",""1"",""3271""
","
","","","548.9000000953674","","","24","10210","4300","&#9761;","elianto","#3366ff99","-1"," ","0","0","[1405]","1","0","2","","","","","","","",""
"pit-trial","44","439139","0.0-2.0-11.1-2.1","battery-v0.2","","""event"",""trial"",""time""
""fullscreenenter"",""1"",""3271""
","
","
","""event"",""trial"",""time""
""fullscreenenter"",""1"",""3271""
","
","","","419.8000000715256","","","24","10210","4300","&#9761;","elianto","#3366ff99","-1"," ","0","0","[1270]","1","0","2","","","","","","","",""
"pit-trial","45","443990","0.0-2.0-11.1-3.1","battery-v0.2","","""event"",""trial"",""time""
""fullscreenenter"",""1"",""3271""
","
","
","""event"",""trial"",""time""
""fullscreenenter"",""1"",""3271""
","
","","","-1","","","24","10210","4300","&#9761;","elianto","#3366ff99","-1","-1","1","0","[3420.5]","1","0","2","","","","","","","",""
"pit-trial","46","447956","0.0-2.0-11.1-4.1","battery-v0.2","","""event"",""trial"",""time""
""fullscreenenter"",""1"",""3271""
","
","
","""event"",""trial"",""time""
""fullscreenenter"",""1"",""3271""
","
","","","1112.7999999523163","","","24","10210","4300","&#9761;","elianto","#3366ff99","-1"," ","0","0","[1963.6999999284744]","1","0","2","","","","","","","",""
"pit-trial","47","451288","0.0-2.0-11.2-0.2","battery-v0.2","","""event"",""trial"",""time""
""fullscreenenter"",""1"",""3271""
","
","
","""event"",""trial"",""time""
""fullscreenenter"",""1"",""3271""
","
","","","479.2000000476837","","","24","10210","4300","&#9761;","elianto","#3366ff99","-1"," ","0","0","[1329.5]","1","0","2","","","","","","","",""
"pit-trial","48","454214","0.0-2.0-11.2-1.2","battery-v0.2","","""event"",""trial"",""time""
""fullscreenenter"",""1"",""3271""
","
","
","""event"",""trial"",""time""
""fullscreenenter"",""1"",""3271""
","
","","","72.5","","","24","10210","4300","&#9761;","elianto","#3366ff99","-1"," ","0","0","[362.89999997615814,923.6000000238419,1172.7000000476837,1383.2000000476837,1561.5,1742.2000000476837,1912.7000000476837,2087.5,2281.899999976158]","9","0","2","","","","","","","",""
"pit-trial","49","457577","0.0-2.0-11.2-2.2","battery-v0.2","","""event"",""trial"",""time""
""fullscreenenter"",""1"",""3271""
","
","
","""event"",""trial"",""time""
""fullscreenenter"",""1"",""3271""
","
","","","509.10000002384186","","","24","10210","4300","&#9761;","elianto","#3366ff99","-1"," ","0","0","[1360.3999999761581]","1","0","2","","","","","","","",""
"pit-trial","50","462430","0.0-2.0-11.2-3.2","battery-v0.2","","""event"",""trial"",""time""
""fullscreenenter"",""1"",""3271""
","
","
","""event"",""trial"",""time""
""fullscreenenter"",""1"",""3271""
","
","","","-1","","","24","10210","4300","&#9761;","elianto","#3366ff99","-1","-1","1","0","[]","0","0","2","","","","","","","",""
"pit-trial","51","467282","0.0-2.0-11.2-4.2","battery-v0.2","","""event"",""trial"",""time""
""fullscreenenter"",""1"",""3271""
","
","
","""event"",""trial"",""time""
""fullscreenenter"",""1"",""3271""
","
","","","-1","","","24","10210","4300","&#9761;","elianto","#3366ff99","-1","-1","1","+10","[]","0","0","2","","","","","","","",""
"pit-trial","52","472135","0.0-2.0-11.3-0.3","battery-v0.2","","""event"",""trial"",""time""
""fullscreenenter"",""1"",""3271""
","
","
","""event"",""trial"",""time""
""fullscreenenter"",""1"",""3271""
","
","","","-1","","","24","10210","4300","&#9761;","elianto","#3366ff99","-1","-1","1","+10","[]","0","0","2","","","","","","","",""
"pit-trial","53","476988","0.0-2.0-11.3-1.3","battery-v0.2","","""event"",""trial"",""time""
""fullscreenenter"",""1"",""3271""
","
","
","""event"",""trial"",""time""
""fullscreenenter"",""1"",""3271""
","
","","","-1","","","24","10210","4300","&#9761;","elianto","#3366ff99","-1","-1","1","+10","[]","0","0","2","","","","","","","",""
"pit-trial","54","481840","0.0-2.0-11.3-2.3","battery-v0.2","","""event"",""trial"",""time""
""fullscreenenter"",""1"",""3271""
","
","
","""event"",""trial"",""time""
""fullscreenenter"",""1"",""3271""
","
","","","-1","","","24","10210","4300","&#9761;","elianto","#3366ff99","-1","-1","1","+10","[]","0","0","2","","","","","","","",""
"pit-trial","55","486694","0.0-2.0-11.3-3.3","battery-v0.2","","""event"",""trial"",""time""
""fullscreenenter"",""1"",""3271""
","
","
","""event"",""trial"",""time""
""fullscreenenter"",""1"",""3271""
","
","","","-1","","","24","10210","4300","&#9761;","elianto","#3366ff99","-1","-1","1","0","[]","0","0","2","","","","","","","",""
"pit-trial","56","491546","0.0-2.0-11.3-4.3","battery-v0.2","","""event"",""trial"",""time""
""fullscreenenter"",""1"",""3271""
","
","
","""event"",""trial"",""time""
""fullscreenenter"",""1"",""3271""
","
","","","-1","","","24","10210","4300","&#9761;","elianto","#3366ff99","-1","-1","1","+10","[]","0","0","2","","","","","","","",""
"call-function","57","491547","0.0-2.0-12.0","battery-v0.2","","""event"",""trial"",""time""
""fullscreenenter"",""1"",""3271""
","
","
","""event"",""trial"",""time""
""fullscreenenter"",""1"",""3271""
","
","","","","","","","","","","","","","","","","","","","","","","","","","","",""
"pit-instructions","58","530615","0.0-2.0-13.0","battery-v0.2","","""event"",""trial"",""time""
""fullscreenenter"",""1"",""3271""
","
","
","""event"",""trial"",""time""
""fullscreenenter"",""1"",""3271""
","
","","[{""page_index"":0,""viewing_time"":6188.5},{""page_index"":1,""viewing_time"":7741.300000071526},{""page_index"":2,""viewing_time"":8171.799999952316},{""page_index"":3,""viewing_time"":11775.300000071526},{""page_index"":4,""viewing_time"":5190.199999928474}]","39067.60000002384","","","","","","","","","","","","","","","","","","","","","","","",""
"pit-trial","59","534335","0.0-2.0-14.0-0.0","battery-v0.2","","""event"",""trial"",""time""
""fullscreenenter"",""1"",""3271""
","
","
","""event"",""trial"",""time""
""fullscreenenter"",""1"",""3271""
","
","","","865.7000000476837","","","24","10210","4300","&#9826;","elianto","#f73b6a7A","-1"," ","0","-10","[1718.2000000476837]","1","0","3","","","","","","","",""
"pit-trial","60","539186","0.0-2.0-14.0-1.0","battery-v0.2","","""event"",""trial"",""time""
""fullscreenenter"",""1"",""3271""
","
","
","""event"",""trial"",""time""
""fullscreenenter"",""1"",""3271""
","
","","","-1","","","24","10210","4300","&#9826;","elianto","#f73b6a7A","-1","-1","1","0","[]","0","0","3","","","","","","","",""
"pit-trial","61","544040","0.0-2.0-14.0-2.0","battery-v0.2","","""event"",""trial"",""time""
""fullscreenenter"",""1"",""3271""
","
","
","""event"",""trial"",""time""
""fullscreenenter"",""1"",""3271""
","
","","","-1","","","24","10210","4300","&#9826;","elianto","#f73b6a7A","-1","-1","1","0","[]","0","0","3","","","","","","","",""
"pit-trial","62","548892","0.0-2.0-14.0-3.0","battery-v0.2","","""event"",""trial"",""time""
""fullscreenenter"",""1"",""3271""
","
","
","""event"",""trial"",""time""
""fullscreenenter"",""1"",""3271""
","
","","","-1","","","24","10210","4300","&#9826;","elianto","#f73b6a7A","-1","-1","1","-10","[]","0","0","3","","","","","","","",""
"pit-trial","63","553745","0.0-2.0-14.0-4.0","battery-v0.2","","""event"",""trial"",""time""
""fullscreenenter"",""1"",""3271""
","
","
","""event"",""trial"",""time""
""fullscreenenter"",""1"",""3271""
","
","","","-1","","","24","10210","4300","&#9826;","elianto","#f73b6a7A","-1","-1","1","0","[]","0","0","3","","","","","","","",""
"pit-trial","64","558600","0.0-2.0-14.1-0.1","battery-v0.2","","""event"",""trial"",""time""
""fullscreenenter"",""1"",""3271""
","
","
","""event"",""trial"",""time""
""fullscreenenter"",""1"",""3271""
","
","","","-1","","","24","10210","4300","&#9826;","elianto","#f73b6a7A","-1","-1","1","0","[]","0","0","3","","","","","","","",""
"pit-trial","65","563453","0.0-2.0-14.1-1.1","battery-v0.2","","""event"",""trial"",""time""
""fullscreenenter"",""1"",""3271""
","
","
","""event"",""trial"",""time""
""fullscreenenter"",""1"",""3271""
","
","","","-1","","","24","10210","4300","&#9826;","elianto","#f73b6a7A","-1","-1","1","0","[]","0","0","3","","","","","","","",""
"pit-trial","66","568308","0.0-2.0-14.1-2.1","battery-v0.2","","""event"",""trial"",""time""
""fullscreenenter"",""1"",""3271""
","
","
","""event"",""trial"",""time""
""fullscreenenter"",""1"",""3271""
","
","","","-1","","","24","10210","4300","&#9826;","elianto","#f73b6a7A","-1","-1","1","0","[]","0","0","3","","","","","","","",""
"pit-trial","67","573160","0.0-2.0-14.1-3.1","battery-v0.2","","""event"",""trial"",""time""
""fullscreenenter"",""1"",""3271""
","
","
","""event"",""trial"",""time""
""fullscreenenter"",""1"",""3271""
","
","","","-1","","","24","10210","4300","&#9826;","elianto","#f73b6a7A","-1","-1","1","-10","[]","0","0","3","","","","","","","",""
"pit-trial","68","578014","0.0-2.0-14.1-4.1","battery-v0.2","","""event"",""trial"",""time""
""fullscreenenter"",""1"",""3271""
","
","
","""event"",""trial"",""time""
""fullscreenenter"",""1"",""3271""
","
","","","-1","","","24","10210","4300","&#9826;","elianto","#f73b6a7A","-1","-1","1","0","[]","0","0","3","","","","","","","",""
"pit-trial","69","582867","0.0-2.0-14.2-0.2","battery-v0.2","","""event"",""trial"",""time""
""fullscreenenter"",""1"",""3271""
","
","
","""event"",""trial"",""time""
""fullscreenenter"",""1"",""3271""
","
","","","-1","","","24","10210","4300","&#9826;","elianto","#f73b6a7A","-1","-1","1","0","[]","0","0","3","","","","","","","",""
"pit-trial","70","587719","0.0-2.0-14.2-1.2","battery-v0.2","","""event"",""trial"",""time""
""fullscreenenter"",""1"",""3271""
","
","
","""event"",""trial"",""time""
""fullscreenenter"",""1"",""3271""
","
","","","-1","","","24","10210","4300","&#9826;","elianto","#f73b6a7A","-1","-1","1","0","[]","0","0","3","","","","","","","",""
"pit-trial","71","592572","0.0-2.0-14.2-2.2","battery-v0.2","","""event"",""trial"",""time""
""fullscreenenter"",""1"",""3271""
","
","
","""event"",""trial"",""time""
""fullscreenenter"",""1"",""3271""
","
","","","-1","","","24","10210","4300","&#9826;","elianto","#f73b6a7A","-1","-1","1","0","[]","0","0","3","","","","","","","",""
"pit-trial","72","597425","0.0-2.0-14.2-3.2","battery-v0.2","","""event"",""trial"",""time""
""fullscreenenter"",""1"",""3271""
","
","
","""event"",""trial"",""time""
""fullscreenenter"",""1"",""3271""
","
","","","-1","","","24","10210","4300","&#9826;","elianto","#f73b6a7A","-1","-1","1","-10","[]","0","0","3","","","","","","","",""
"pit-trial","73","602278","0.0-2.0-14.2-4.2","battery-v0.2","","""event"",""trial"",""time""
""fullscreenenter"",""1"",""3271""
","
","
","""event"",""trial"",""time""
""fullscreenenter"",""1"",""3271""
","
","","","-1","","","24","10210","4300","&#9826;","elianto","#f73b6a7A","-1","-1","1","0","[]","0","0","3","","","","","","","",""
"pit-trial","74","607131","0.0-2.0-14.3-0.3","battery-v0.2","","""event"",""trial"",""time""
""fullscreenenter"",""1"",""3271""
","
","
","""event"",""trial"",""time""
""fullscreenenter"",""1"",""3271""
","
","","","-1","","","24","10210","4300","&#9826;","elianto","#f73b6a7A","-1","-1","1","0","[]","0","0","3","","","","","","","",""
"pit-trial","75","611984","0.0-2.0-14.3-1.3","battery-v0.2","","""event"",""trial"",""time""
""fullscreenenter"",""1"",""3271""
","
","
","""event"",""trial"",""time""
""fullscreenenter"",""1"",""3271""
","
","","","-1","","","24","10210","4300","&#9826;","elianto","#f73b6a7A","-1","-1","1","0","[]","0","0","3","","","","","","","",""
"pit-trial","76","616837","0.0-2.0-14.3-2.3","battery-v0.2","","""event"",""trial"",""time""
""fullscreenenter"",""1"",""3271""
","
","
","""event"",""trial"",""time""
""fullscreenenter"",""1"",""3271""
","
","","","-1","","","24","10210","4300","&#9826;","elianto","#f73b6a7A","-1","-1","1","0","[]","0","0","3","","","","","","","",""
"pit-trial","77","621691","0.0-2.0-14.3-3.3","battery-v0.2","","""event"",""trial"",""time""
""fullscreenenter"",""1"",""3271""
","
","
","""event"",""trial"",""time""
""fullscreenenter"",""1"",""3271""
","
","","","-1","","","24","10210","4300","&#9826;","elianto","#f73b6a7A","-1","-1","1","-10","[]","0","0","3","","","","","","","",""
"pit-trial","78","626544","0.0-2.0-14.3-4.3","battery-v0.2","","""event"",""trial"",""time""
""fullscreenenter"",""1"",""3271""
","
","
","""event"",""trial"",""time""
""fullscreenenter"",""1"",""3271""
","
","","","-1","","","24","10210","4300","&#9826;","elianto","#f73b6a7A","-1","-1","1","0","[]","0","0","3","","","","","","","",""
"call-function","79","626546","0.0-2.0-15.0","battery-v0.2","","""event"",""trial"",""time""
""fullscreenenter"",""1"",""3271""
","
","
","""event"",""trial"",""time""
""fullscreenenter"",""1"",""3271""
","
","","","","","","","","","","","","","","","","","","","","","","","","","","",""
"pit-instructions","80","681566","0.0-2.0-16.0","battery-v0.2","","""event"",""trial"",""time""
""fullscreenenter"",""1"",""3271""
","
","
","""event"",""trial"",""time""
""fullscreenenter"",""1"",""3271""
","
","","[{""page_index"":0,""viewing_time"":7471.699999928474},{""page_index"":1,""viewing_time"":27519.700000047684},{""page_index"":2,""viewing_time"":13684.299999952316},{""page_index"":3,""viewing_time"":6343.100000023842}]","55019.09999990463","","","","","","","","","","","","","","","","","","","","","","","",""
"pit-trial","81","684975","0.0-2.0-17.0-0.0","battery-v0.2","","""event"",""trial"",""time""
""fullscreenenter"",""1"",""3271""
","
","
","""event"",""trial"",""time""
""fullscreenenter"",""1"",""3271""
","
","","","551.3999999761581","","","24","10210","4300","&#9789;","elianto","#f73b6a7A"," "," ","1","0","[1406.7000000476837]","1","0","4","","","","","","","",""
"pit-trial","82","688020","0.0-2.0-17.0-1.0","battery-v0.2","","""event"",""trial"",""time""
""fullscreenenter"",""1"",""3271""
","
","
","""event"",""trial"",""time""
""fullscreenenter"",""1"",""3271""
","
","","","188.60000002384186","","","24","10210","4300","&#9789;","elianto","#f73b6a7A"," "," ","1","0","[1043.1999999284744]","1","0","4","","","","","","","",""
"pit-trial","83","691203","0.0-2.0-17.0-2.0","battery-v0.2","","""event"",""trial"",""time""
""fullscreenenter"",""1"",""3271""
","
","
","""event"",""trial"",""time""
""fullscreenenter"",""1"",""3271""
","
","","","328","","","24","10210","4300","&#9789;","elianto","#f73b6a7A"," "," ","1","0","[176.29999995231628,1179]","2","0","4","","","","","","","",""
"pit-trial","84","694530","0.0-2.0-17.0-3.0","battery-v0.2","","""event"",""trial"",""time""
""fullscreenenter"",""1"",""3271""
","
","
","""event"",""trial"",""time""
""fullscreenenter"",""1"",""3271""
","
","","","472.10000002384186","","","24","10210","4300","&#9789;","elianto","#f73b6a7A"," "," ","1","-10","[1324.8000000715256]","1","0","4","","","","","","","",""
"pit-trial","85","697754","0.0-2.0-17.0-4.0","battery-v0.2","","""event"",""trial"",""time""
""fullscreenenter"",""1"",""3271""
","
","
","""event"",""trial"",""time""
""fullscreenenter"",""1"",""3271""
","
","","","370.6999999284744","","","24","10210","4300","&#9789;","elianto","#f73b6a7A"," "," ","1","0","[1220.8999999761581]","1","0","4","","","","","","","",""
"pit-trial","86","700960","0.0-2.0-17.1-0.1","battery-v0.2","","""event"",""trial"",""time""
""fullscreenenter"",""1"",""3271""
","
","
","""event"",""trial"",""time""
""fullscreenenter"",""1"",""3271""
","
","","","352.60000002384186","","","24","10210","4300","&#9789;","elianto","#f73b6a7A"," "," ","1","0","[1202.8999999761581]","1","0","4","","","","","","","",""
"pit-trial","87","704293","0.0-2.0-17.1-1.1","battery-v0.2","","""event"",""trial"",""time""
""fullscreenenter"",""1"",""3271""
","
","
","""event"",""trial"",""time""
""fullscreenenter"",""1"",""3271""
","
","","","476.6999999284744","","","24","10210","4300","&#9789;","elianto","#f73b6a7A"," "," ","1","0","[1331.1000000238419]","1","0","4","","","","","","","",""
"pit-trial","88","707543","0.0-2.0-17.1-2.1","battery-v0.2","","""event"",""trial"",""time""
""fullscreenenter"",""1"",""3271""
","
","
","""event"",""trial"",""time""
""fullscreenenter"",""1"",""3271""
","
","","","396.7000000476837","","","24","10210","4300","&#9789;","elianto","#f73b6a7A"," "," ","1","0","[1248.2999999523163]","1","0","4","","","","","","","",""
"pit-trial","89","710802","0.0-2.0-17.1-3.1","battery-v0.2","","""event"",""trial"",""time""
""fullscreenenter"",""1"",""3271""
","
","
","""event"",""trial"",""time""
""fullscreenenter"",""1"",""3271""
","
","","","404","","","24","10210","4300","&#9789;","elianto","#f73b6a7A"," "," ","1","-10","[394,1257.5]","2","0","4","","","","","","","",""
"pit-trial","90","714196","0.0-2.0-17.1-4.1","battery-v0.2","","""event"",""trial"",""time""
""fullscreenenter"",""1"",""3271""
","
","
","""event"",""trial"",""time""
""fullscreenenter"",""1"",""3271""
","
","","","539.2999999523163","","","24","10210","4300","&#9789;","elianto","#f73b6a7A"," "," ","1","0","[1389.7999999523163]","1","0","4","","","","","","","",""
"pit-trial","91","717643","0.0-2.0-17.2-0.2","battery-v0.2","","""event"",""trial"",""time""
""fullscreenenter"",""1"",""3271""
","
","
","""event"",""trial"",""time""
""fullscreenenter"",""1"",""3271""
","
","","","594.6000000238419","","","24","10210","4300","&#9789;","elianto","#f73b6a7A"," "," ","1","0","[1444.6000000238419]","1","0","4","","","","","","","",""
"pit-trial","92","721107","0.0-2.0-17.2-1.2","battery-v0.2","","""event"",""trial"",""time""
""fullscreenenter"",""1"",""3271""
","
","
","""event"",""trial"",""time""
""fullscreenenter"",""1"",""3271""
","
","","","612.2999999523163","","","24","10210","4300","&#9789;","elianto","#f73b6a7A"," "," ","1","0","[337.5,1462.8999999761581]","2","0","4","","","","","","","",""
"pit-trial","93","724727","0.0-2.0-17.2-2.2","battery-v0.2","","""event"",""trial"",""time""
""fullscreenenter"",""1"",""3271""
","
","
","""event"",""trial"",""time""
""fullscreenenter"",""1"",""3271""
","
","","","768.5999999046326","","","24","10210","4300","&#9789;","elianto","#f73b6a7A"," "," ","1","0","[1618.5999999046326,1671.5]","2","0","4","","","","","","","",""
"pit-trial","94","727858","0.0-2.0-17.2-3.2","battery-v0.2","","""event"",""trial"",""time""
""fullscreenenter"",""1"",""3271""
","
","
","""event"",""trial"",""time""
""fullscreenenter"",""1"",""3271""
","
","","","278.7999999523163","","","24","10210","4300","&#9789;","elianto","#f73b6a7A"," "," ","1","-10","[1128.8999999761581]","1","0","4","","","","","","","",""
"pit-trial","95","731785","0.0-2.0-17.2-4.2","battery-v0.2","","""event"",""trial"",""time""
""fullscreenenter"",""1"",""3271""
","
","
","""event"",""trial"",""time""
""fullscreenenter"",""1"",""3271""
","
","","","1074.4000000953674","","","24","10210","4300","&#9789;","elianto","#f73b6a7A"," "," ","1","0","[12.699999928474426,1924.6000000238419]","2","0","4","","","","","","","",""
"pit-trial","96","735527","0.0-2.0-17.3-0.3","battery-v0.2","","""event"",""trial"",""time""
""fullscreenenter"",""1"",""3271""
","
","
","""event"",""trial"",""time""
""fullscreenenter"",""1"",""3271""
","
","","","888.3999999761581","","","24","10210","4300","&#9789;","elianto","#f73b6a7A"," "," ","1","0","[1739]","1","0","4","","","","","","","",""
"pit-trial","97","738732","0.0-2.0-17.3-1.3","battery-v0.2","","""event"",""trial"",""time""
""fullscreenenter"",""1"",""3271""
","
","
","""event"",""trial"",""time""
""fullscreenenter"",""1"",""3271""
","
","","","351.89999997615814","","","24","10210","4300","&#9789;","elianto","#f73b6a7A"," "," ","1","0","[1203.6999999284744]","1","0","4","","","","","","","",""
"pit-trial","98","742302","0.0-2.0-17.3-2.3","battery-v0.2","","""event"",""trial"",""time""
""fullscreenenter"",""1"",""3271""
","
","
","""event"",""trial"",""time""
""fullscreenenter"",""1"",""3271""
","
","","","716.2999999523163","","","24","10210","4300","&#9789;","elianto","#f73b6a7A"," "," ","1","0","[1567.2999999523163]","1","0","4","","","","","","","",""
"pit-trial","99","745498","0.0-2.0-17.3-3.3","battery-v0.2","","""event"",""trial"",""time""
""fullscreenenter"",""1"",""3271""
","
","
","""event"",""trial"",""time""
""fullscreenenter"",""1"",""3271""
","
","","","342.1999999284744","","","24","10210","4300","&#9789;","elianto","#f73b6a7A"," "," ","1","-10","[1193.6999999284744]","1","0","4","","","","","","","",""
"pit-trial","100","748995","0.0-2.0-17.3-4.3","battery-v0.2","","""event"",""trial"",""time""
""fullscreenenter"",""1"",""3271""
","
","
","""event"",""trial"",""time""
""fullscreenenter"",""1"",""3271""
","
","","","642.9000000953674","","","24","10210","4300","&#9789;","elianto","#f73b6a7A"," "," ","1","0","[1493.9000000953674]","1","0","4","","","","","","","",""
"call-function","101","748996","0.0-2.0-18.0","battery-v0.2","","""event"",""trial"",""time""
""fullscreenenter"",""1"",""3271""
","
","
","""event"",""trial"",""time""
""fullscreenenter"",""1"",""3271""
","
","","","","","","","","","","","","","","","","","","","","","","","","","","",""
"pit-instructions","102","818249","0.0-2.0-19.0","battery-v0.2","","""event"",""trial"",""time""
""fullscreenenter"",""1"",""3271""
","
","
","""event"",""trial"",""time""
""fullscreenenter"",""1"",""3271""
","
","","[{""page_index"":0,""viewing_time"":7386.5},{""page_index"":1,""viewing_time"":4324.100000023842},{""page_index"":2,""viewing_time"":9144},{""page_index"":3,""viewing_time"":10940.399999976158},{""page_index"":4,""viewing_time"":9656.399999976158},{""page_index"":5,""viewing_time"":8651.399999976158},{""page_index"":6,""viewing_time"":8941.100000023842},{""page_index"":7,""viewing_time"":5611.300000071526},{""page_index"":8,""viewing_time"":4596.5}]","69252","","","","","","","","","","","","","","","","","","","","","","","",""
"pit-comprehension","103","823361","0.0-2.0-20.0-0.0","battery-v0.2","","""event"",""trial"",""time""
""fullscreenenter"",""1"",""3271""
","
","
","""event"",""trial"",""time""
""fullscreenenter"",""1"",""3271""
","
","","","5109.299999952316","[""SPACE""]","0","24","10210","4300","","","","","","","","","","","","","","","","","","",""
"pit-instructions","104","826347","0.0-2.0-20.0-1.0","battery-v0.2","","""event"",""trial"",""time""
""fullscreenenter"",""1"",""3271""
","
","
","""event"",""trial"",""time""
""fullscreenenter"",""1"",""3271""
","
","","[{""page_index"":0,""viewing_time"":2957}]","2957.2999999523163","","","","","","","","","","","","","","","","","","","","","","","",""
"pit-comprehension","105","833898","0.0-2.0-21.0-0.0","battery-v0.2","","""event"",""trial"",""time""
""fullscreenenter"",""1"",""3271""
","
","
","""event"",""trial"",""time""
""fullscreenenter"",""1"",""3271""
","
","","","7549.200000047684","[""10""]","0","24","10210","4300","","","","","","","","","","","","","","","","","","",""
"pit-instructions","106","835892","0.0-2.0-21.0-1.0","battery-v0.2","","""event"",""trial"",""time""
""fullscreenenter"",""1"",""3271""
","
","
","""event"",""trial"",""time""
""fullscreenenter"",""1"",""3271""
","
","","[{""page_index"":0,""viewing_time"":1963.2000000476837}]","1963.6000000238419","","","","","","","","","","","","","","","","","","","","","","","",""
"pit-comprehension","107","843068","0.0-2.0-22.0-0.0","battery-v0.2","","""event"",""trial"",""time""
""fullscreenenter"",""1"",""3271""
","
","
","""event"",""trial"",""time""
""fullscreenenter"",""1"",""3271""
","
","","","7174.699999928474","[""0""]","0","24","10210","4300","","","","","","","","","","","","","","","","","","",""
"pit-instructions","108","845232","0.0-2.0-22.0-1.0","battery-v0.2","","""event"",""trial"",""time""
""fullscreenenter"",""1"",""3271""
","
","
","""event"",""trial"",""time""
""fullscreenenter"",""1"",""3271""
","
","","[{""page_index"":0,""viewing_time"":2138.600000023842}]","2138.899999976158","","","","","","","","","","","","","","","","","","","","","","","",""
"pit-comprehension","109","855323","0.0-2.0-23.0-0.0","battery-v0.2","","""event"",""trial"",""time""
""fullscreenenter"",""1"",""3271""
","
","
","""event"",""trial"",""time""
""fullscreenenter"",""1"",""3271""
","
","","","10088.100000023842","[""True""]","0","24","10210","4300","","","","","","","","","","","","","","","","","","",""
"pit-instructions","110","857698","0.0-2.0-23.0-1.0","battery-v0.2","","""event"",""trial"",""time""
""fullscreenenter"",""1"",""3271""
","
","
","""event"",""trial"",""time""
""fullscreenenter"",""1"",""3271""
","
","","[{""page_index"":0,""viewing_time"":2349.600000023842}]","2350","","","","","","","","","","","","","","","","","","","","","","","",""
"pit-comprehension","111","867046","0.0-2.0-24.0-0.0","battery-v0.2","","""event"",""trial"",""time""
""fullscreenenter"",""1"",""3271""
","
","
","""event"",""trial"",""time""
""fullscreenenter"",""1"",""3271""
","
","","","9346.199999928474","[""True""]","0","24","10210","4300","","","","","","","","","","","","","","","","","","",""
"pit-instructions","112","870284","0.0-2.0-24.0-1.0","battery-v0.2","","""event"",""trial"",""time""
""fullscreenenter"",""1"",""3271""
","
","
","""event"",""trial"",""time""
""fullscreenenter"",""1"",""3271""
","
","","[{""page_index"":0,""viewing_time"":3207.1999999284744}]","3207.600000023842","","","","","","","","","","","","","","","","","","","","","","","",""
"pit-comprehension","113","876719","0.0-2.0-25.0-0.0","battery-v0.2","","""event"",""trial"",""time""
""fullscreenenter"",""1"",""3271""
","
","
","""event"",""trial"",""time""
""fullscreenenter"",""1"",""3271""
","
","","","6433","[""True""]","0","24","10210","4300","","","","","","","","","","","","","","","","","","",""
"pit-instructions","114","879365","0.0-2.0-25.0-1.0","battery-v0.2","","""event"",""trial"",""time""
""fullscreenenter"",""1"",""3271""
","
","
","""event"",""trial"",""time""
""fullscreenenter"",""1"",""3271""
","
","","[{""page_index"":0,""viewing_time"":2619}]","2619.4000000953674","","","","","","","","","","","","","","","","","","","","","","","",""
"pit-comprehension","115","884058","0.0-2.0-26.0-0.0","battery-v0.2","","""event"",""trial"",""time""
""fullscreenenter"",""1"",""3271""
","
","
","""event"",""trial"",""time""
""fullscreenenter"",""1"",""3271""
","
","","","4690.5","[""False""]","0","24","10210","4300","","","","","","","","","","","","","","","","","","",""
"pit-instructions","116","886543","0.0-2.0-26.0-1.0","battery-v0.2","","""event"",""trial"",""time""
""fullscreenenter"",""1"",""3271""
","
","
","""event"",""trial"",""time""
""fullscreenenter"",""1"",""3271""
","
","","[{""page_index"":0,""viewing_time"":2454.899999976158}]","2455.2999999523163","","","","","","","","","","","","","","","","","","","","","","","",""
"pit-instructions","117","901656","0.0-3.0","battery-v0.2","","""event"",""trial"",""time""
""fullscreenenter"",""1"",""3271""
","
","
","""event"",""trial"",""time""
""fullscreenenter"",""1"",""3271""
","
","","[{""page_index"":0,""viewing_time"":3475.100000023842},{""page_index"":1,""viewing_time"":5265.399999976158},{""page_index"":2,""viewing_time"":6370.200000047684}]","15111","","","","","","","","","","","","","","","","","","","","","","","",""
"pit-trial","118","905476","0.0-4.0","battery-v0.2","","""event"",""trial"",""time""
""fullscreenenter"",""1"",""3271""
","
","
","""event"",""trial"",""time""
""fullscreenenter"",""1"",""3271""
","
","","","963.8999999761581","","","24","10210","4300","&#9730;","elianto","#3366ff99"," "," ","1","+10","[1817.2000000476837]","1","1","","","10210","1","1","1","win","go","0"
"pit-trial","119","910329","0.0-5.0","battery-v0.2","","""event"",""trial"",""time""
""fullscreenenter"",""1"",""3271""
","
","
","""event"",""trial"",""time""
""fullscreenenter"",""1"",""3271""
","
","","","-1","","","24","10210","4300","&#9733;","elianto","#3366ff99","-1","-1","1","+10","[]","0","1","","","10210","2","2","2","win","no-go","0"
"pit-trial","120","915182","0.0-6.0","battery-v0.2","","""event"",""trial"",""time""
""fullscreenenter"",""1"",""3271""
","
","
","""event"",""trial"",""time""
""fullscreenenter"",""1"",""3271""
","
","","","-1","","","24","10210","4300","&#9752;","elianto","#f73b6a7A"," ","-1","0","-10","[3009.9000000953674]","1","1","","","10210","3","3","3","lose","go","0"
"pit-trial","121","919689","0.0-7.0","battery-v0.2","","""event"",""trial"",""time""
""fullscreenenter"",""1"",""3271""
","
","
","""event"",""trial"",""time""
""fullscreenenter"",""1"",""3271""
","
","","","1652.8000000715256","","","24","10210","4300","&#9728;","elianto","#f73b6a7A","-1"," ","0","-10","[2505.899999976158]","1","1","","","10210","4","0","4","lose","no-go","0"
"pit-trial","122","923558","0.0-8.0","battery-v0.2","","""event"",""trial"",""time""
""fullscreenenter"",""1"",""3271""
","
","
","""event"",""trial"",""time""
""fullscreenenter"",""1"",""3271""
","
","","","1010.7000000476837","","","24","10210","4300","&#9728;","elianto","#f73b6a7A","-1"," ","0","-10","[1865.6000000238419]","1","1","","","10210","5","0","4","lose","no-go","0"
"pit-trial","123","927837","0.0-9.0","battery-v0.2","","""event"",""trial"",""time""
""fullscreenenter"",""1"",""3271""
","
","
","""event"",""trial"",""time""
""fullscreenenter"",""1"",""3271""
","
","","","1425.9000000953674","","","24","10210","4300","&#9730;","elianto","#3366ff99"," "," ","1","0","[2277.3000000715256]","1","1","","","10210","6","1","1","win","go","1"
"pit-trial","124","932689","0.0-10.0","battery-v0.2","","""event"",""trial"",""time""
""fullscreenenter"",""1"",""3271""
","
","
","""event"",""trial"",""time""
""fullscreenenter"",""1"",""3271""
","
","","","-1","","","24","10210","4300","&#9733;","elianto","#3366ff99","-1","-1","1","0","[]","0","1","","","10210","7","2","2","win","no-go","1"
"pit-trial","125","937542","0.0-11.0","battery-v0.2","","""event"",""trial"",""time""
""fullscreenenter"",""1"",""3271""
","
","
","""event"",""trial"",""time""
""fullscreenenter"",""1"",""3271""
","
","","","-1","","","24","10210","4300","&#9752;","elianto","#f73b6a7A"," ","-1","0","-10","[2994.899999976158]","1","1","","","10210","8","3","3","lose","go","0"
"pit-trial","126","941202","0.0-12.0","battery-v0.2","","""event"",""trial"",""time""
""fullscreenenter"",""1"",""3271""
","
","
","""event"",""trial"",""time""
""fullscreenenter"",""1"",""3271""
","
","","","807.1000000238419","","","24","10210","4300","&#9730;","elianto","#3366ff99"," "," ","1","+10","[1657.2999999523163]","1","1","","","10210","9","1","1","win","go","0"
"pit-trial","127","946055","0.0-13.0","battery-v0.2","","""event"",""trial"",""time""
""fullscreenenter"",""1"",""3271""
","
","
","""event"",""trial"",""time""
""fullscreenenter"",""1"",""3271""
","
","","","-1","","","24","10210","4300","&#9752;","elianto","#f73b6a7A"," ","-1","0","-10","[3843.0999999046326]","1","1","","","10210","10","3","3","lose","go","0"
"pit-trial","128","950906","0.0-14.0","battery-v0.2","","""event"",""trial"",""time""
""fullscreenenter"",""1"",""3271""
","
","
","""event"",""trial"",""time""
""fullscreenenter"",""1"",""3271""
","
","","","-1","","","24","10210","4300","&#9728;","elianto","#f73b6a7A","-1","-1","1","-10","[]","0","1","","","10210","11","0","4","lose","no-go","1"
"pit-trial","129","954497","0.0-15.0","battery-v0.2","","""event"",""trial"",""time""
""fullscreenenter"",""1"",""3271""
","
","
","""event"",""trial"",""time""
""fullscreenenter"",""1"",""3271""
","
","","","738.3999999761581","","","24","10210","4300","&#9733;","elianto","#3366ff99","-1"," ","0","+10","[1589.2999999523163]","1","1","","","10210","12","2","2","win","no-go","1"
"pit-trial","130","959350","0.0-16.0","battery-v0.2","","""event"",""trial"",""time""
""fullscreenenter"",""1"",""3271""
","
","
","""event"",""trial"",""time""
""fullscreenenter"",""1"",""3271""
","
","","","-1","","","24","10210","4300","&#9752;","elianto","#f73b6a7A"," ","-1","0","-10","[]","0","1","","","10210","13","3","3","lose","go","0"
"pit-trial","131","963060","0.0-17.0","battery-v0.2","","""event"",""trial"",""time""
""fullscreenenter"",""1"",""3271""
","
","
","""event"",""trial"",""time""
""fullscreenenter"",""1"",""3271""
","
","","","856.3000000715256","","","24","10210","4300","&#9730;","elianto","#3366ff99"," "," ","1","+10","[1706.7000000476837]","1","1","","","10210","14","1","1","win","go","0"
"pit-trial","132","967914","0.0-18.0","battery-v0.2","","""event"",""trial"",""time""
""fullscreenenter"",""1"",""3271""
","
","
","""event"",""trial"",""time""
""fullscreenenter"",""1"",""3271""
","
","","","-1","","","24","10210","4300","&#9733;","elianto","#3366ff99","-1","-1","1","+10","[]","0","1","","","10210","15","2","2","win","no-go","0"
"pit-trial","133","972767","0.0-19.0","battery-v0.2","","""event"",""trial"",""time""
""fullscreenenter"",""1"",""3271""
","
","
","""event"",""trial"",""time""
""fullscreenenter"",""1"",""3271""
","
","","","-1","","","24","10210","4300","&#9728;","elianto","#f73b6a7A","-1","-1","1","-10","[]","0","1","","","10210","16","0","4","lose","no-go","1"
"pit-trial","134","976468","0.0-20.0","battery-v0.2","","""event"",""trial"",""time""
""fullscreenenter"",""1"",""3271""
","
","
","""event"",""trial"",""time""
""fullscreenenter"",""1"",""3271""
","
","","","847.9000000953674","","","24","10210","4300","&#9733;","elianto","#3366ff99","-1"," ","0","+10","[1698.4000000953674]","1","1","","","10210","17","2","2","win","no-go","1"
"pit-trial","135","980497","0.0-21.0","battery-v0.2","","""event"",""trial"",""time""
""fullscreenenter"",""1"",""3271""
","
","
","""event"",""trial"",""time""
""fullscreenenter"",""1"",""3271""
","
","","","1175.7000000476837","","","24","10210","4300","&#9730;","elianto","#3366ff99"," "," ","1","+10","[2026.3999999761581]","1","1","","","10210","18","1","1","win","go","0"
"pit-trial","136","985349","0.0-22.0","battery-v0.2","","""event"",""trial"",""time""
""fullscreenenter"",""1"",""3271""
","
","
","""event"",""trial"",""time""
""fullscreenenter"",""1"",""3271""
","
","","","-1","","","24","10210","4300","&#9752;","elianto","#f73b6a7A"," ","-1","0","0","[]","0","1","","","10210","19","3","3","lose","go","1"
"pit-trial","137","990201","0.0-23.0","battery-v0.2","","""event"",""trial"",""time""
""fullscreenenter"",""1"",""3271""
","
","
","""event"",""trial"",""time""
""fullscreenenter"",""1"",""3271""
","
","","","-1","","","24","10210","4300","&#9728;","elianto","#f73b6a7A","-1","-1","1","0","[]","0","1","","","10210","20","0","4","lose","no-go","0"
"pit-instructions","138","1009846","0.0-24.0","battery-v0.2","","""event"",""trial"",""time""
""fullscreenenter"",""1"",""3271""
","
","
","""event"",""trial"",""time""
""fullscreenenter"",""1"",""3271""
","
","","[{""page_index"":0,""viewing_time"":11913.899999976158},{""page_index"":1,""viewing_time"":7729.199999928474}]","19643.5","","","","","","","","","","","","","","","","","","","","","","","",""
"pit-trial","139","1014699","0.0-25.0","battery-v0.2","","""event"",""trial"",""time""
""fullscreenenter"",""1"",""3271""
","
","
","""event"",""trial"",""time""
""fullscreenenter"",""1"",""3271""
","
","","","-1","","","24","10210","4300","e","elianto","#f73b6a7A","-1","-1","1","0","[]","0","2","","","10210","21","2","4","lose","no-go","0"
"pit-trial","140","1019551","0.0-26.0","battery-v0.2","","""event"",""trial"",""time""
""fullscreenenter"",""1"",""3271""
","
","
","""event"",""trial"",""time""
""fullscreenenter"",""1"",""3271""
","
","","","-1","","","24","10210","4300","j","elianto","#f73b6a7A","-1","-1","1","0","[3114.5]","1","2","","","10210","22","0","4","lose","no-go","0"
"pit-trial","141","1024403","0.0-27.0","battery-v0.2","","""event"",""trial"",""time""
""fullscreenenter"",""1"",""3271""
","
","
","""event"",""trial"",""time""
""fullscreenenter"",""1"",""3271""
","
","","","-1","","","24","10210","4300","w","elianto","#f73b6a7A"," ","-1","0","-10","[]","0","2","","","10210","23","3","3","lose","go","0"
"pit-trial","142","1028345","0.0-28.0","battery-v0.2","","""event"",""trial"",""time""
""fullscreenenter"",""1"",""3271""
","
","
","""event"",""trial"",""time""
""fullscreenenter"",""1"",""3271""
","
","","","1087.2999999523163","","","24","10210","4300","d","elianto","#3366ff99"," "," ","1","+10","[1940.1000000238419]","1","2","","","10210","24","1","1","win","go","0"
"pit-trial","143","1032055","0.0-29.0","battery-v0.2","","""event"",""trial"",""time""
""fullscreenenter"",""1"",""3271""
","
","
","""event"",""trial"",""time""
""fullscreenenter"",""1"",""3271""
","
","","","854.6000000238419","","","24","10210","4300","d","elianto","#3366ff99"," "," ","1","+10","[1707]","1","2","","","10210","25","1","1","win","go","0"
"pit-trial","144","1036908","0.0-30.0","battery-v0.2","","""event"",""trial"",""time""
""fullscreenenter"",""1"",""3271""
","
","
","""event"",""trial"",""time""
""fullscreenenter"",""1"",""3271""
","
","","","-1","","","24","10210","4300","e","elianto","#f73b6a7A","-1","-1","1","-10","[]","0","2","","","10210","26","2","4","lose","no-go","1"
"pit-trial","145","1041761","0.0-31.0","battery-v0.2","","""event"",""trial"",""time""
""fullscreenenter"",""1"",""3271""
","
","
","""event"",""trial"",""time""
""fullscreenenter"",""1"",""3271""
","
","","","-1","","","24","10210","4300","j","elianto","#f73b6a7A","-1","-1","1","0","[]","0","2","","","10210","27","0","4","lose","no-go","0"
"pit-trial","146","1045889","0.0-32.0","battery-v0.2","","""event"",""trial"",""time""
""fullscreenenter"",""1"",""3271""
","
","
","""event"",""trial"",""time""
""fullscreenenter"",""1"",""3271""
","
","","","1275.7999999523163","","","24","10210","4300","w","elianto","#f73b6a7A"," "," ","1","0","[2126.5]","1","2","","","10210","28","3","3","lose","go","0"
"pit-trial","147","1050741","0.0-33.0","battery-v0.2","","""event"",""trial"",""time""
""fullscreenenter"",""1"",""3271""
","
","
","""event"",""trial"",""time""
""fullscreenenter"",""1"",""3271""
","
","","","-1","","","24","10210","4300","e","elianto","#f73b6a7A","-1","-1","1","0","[]","0","2","","","10210","29","2","4","lose","no-go","0"
"pit-trial","148","1054461","0.0-34.0","battery-v0.2","","""event"",""trial"",""time""
""fullscreenenter"",""1"",""3271""
","
","
","""event"",""trial"",""time""
""fullscreenenter"",""1"",""3271""
","
","","","867.3999999761581","","","24","10210","4300","d","elianto","#3366ff99"," "," ","1","+10","[1717.2999999523163]","1","2","","","10210","30","1","1","win","go","0"
"pit-trial","149","1059314","0.0-35.0","battery-v0.2","","""event"",""trial"",""time""
""fullscreenenter"",""1"",""3271""
","
","
","""event"",""trial"",""time""
""fullscreenenter"",""1"",""3271""
","
","","","-1","","","24","10210","4300","j","elianto","#f73b6a7A","-1","-1","1","-10","[]","0","2","","","10210","31","0","4","lose","no-go","1"
"pit-trial","150","1063881","0.0-36.0","battery-v0.2","","""event"",""trial"",""time""
""fullscreenenter"",""1"",""3271""
","
","
","""event"",""trial"",""time""
""fullscreenenter"",""1"",""3271""
","
","","","1715.8000000715256","","","24","10210","4300","w","elianto","#f73b6a7A"," "," ","1","0","[2566.4000000953674]","1","2","","","10210","32","3","3","lose","go","0"
"pit-trial","151","1068735","0.0-37.0","battery-v0.2","","""event"",""trial"",""time""
""fullscreenenter"",""1"",""3271""
","
","
","""event"",""trial"",""time""
""fullscreenenter"",""1"",""3271""
","
","","","-1","","","24","10210","4300","e","elianto","#f73b6a7A","-1","-1","1","0","[]","0","2","","","10210","33","2","4","lose","no-go","0"
"pit-trial","152","1072923","0.0-38.0","battery-v0.2","","""event"",""trial"",""time""
""fullscreenenter"",""1"",""3271""
","
","
","""event"",""trial"",""time""
""fullscreenenter"",""1"",""3271""
","
","","","1335.4000000953674","","","24","10210","4300","w","elianto","#f73b6a7A"," "," ","1","-10","[2186.600000023842]","1","2","","","10210","34","3","3","lose","go","1"
"pit-trial","153","1076463","0.0-39.0","battery-v0.2","","""event"",""trial"",""time""
""fullscreenenter"",""1"",""3271""
","
","
","""event"",""trial"",""time""
""fullscreenenter"",""1"",""3271""
","
","","","686.3999999761581","","","24","10210","4300","d","elianto","#3366ff99"," "," ","1","+10","[1537]","1","2","","","10210","35","1","1","win","go","0"
"pit-trial","154","1081316","0.0-40.0","battery-v0.2","","""event"",""trial"",""time""
""fullscreenenter"",""1"",""3271""
","
","
","""event"",""trial"",""time""
""fullscreenenter"",""1"",""3271""
","
","","","-1","","","24","10210","4300","j","elianto","#f73b6a7A","-1","-1","1","-10","[]","0","2","","","10210","36","0","4","lose","no-go","1"
"pit-trial","155","1086169","0.0-41.0","battery-v0.2","","""event"",""trial"",""time""
""fullscreenenter"",""1"",""3271""
","
","
","""event"",""trial"",""time""
""fullscreenenter"",""1"",""3271""
","
","","","-1","","","24","10210","4300","j","elianto","#f73b6a7A","-1","-1","1","0","[]","0","2","","","10210","37","0","4","lose","no-go","0"
"pit-trial","156","1089765","0.0-42.0","battery-v0.2","","""event"",""trial"",""time""
""fullscreenenter"",""1"",""3271""
","
","
","""event"",""trial"",""time""
""fullscreenenter"",""1"",""3271""
","
","","","742.5","","","24","10210","4300","d","elianto","#3366ff99"," "," ","1","+10","[1593.7000000476837]","1","2","","","10210","38","1","1","win","go","0"
"pit-trial","157","1094617","0.0-43.0","battery-v0.2","","""event"",""trial"",""time""
""fullscreenenter"",""1"",""3271""
","
","
","""event"",""trial"",""time""
""fullscreenenter"",""1"",""3271""
","
","","","-1","","","24","10210","4300","e","elianto","#f73b6a7A","-1","-1","1","-10","[]","0","2","","","10210","39","2","4","lose","no-go","1"
"pit-trial","158","1098623","0.0-44.0","battery-v0.2","","""event"",""trial"",""time""
""fullscreenenter"",""1"",""3271""
","
","
","""event"",""trial"",""time""
""fullscreenenter"",""1"",""3271""
","
","","","1153.8000000715256","","","24","10210","4300","w","elianto","#f73b6a7A"," "," ","1","-10","[2004.1000000238419]","1","2","","","10210","40","3","3","lose","go","1"
"pit-trial","159","1103477","0.0-45.0","battery-v0.2","","""event"",""trial"",""time""
""fullscreenenter"",""1"",""3271""
","
","
","""event"",""trial"",""time""
""fullscreenenter"",""1"",""3271""
","
","","","-1","","","24","10210","4300","j","elianto","#f73b6a7A","-1","-1","1","0","[]","0","2","","","10210","41","0","4","lose","no-go","0"
"pit-trial","160","1108331","0.0-46.0","battery-v0.2","","""event"",""trial"",""time""
""fullscreenenter"",""1"",""3271""
","
","
","""event"",""trial"",""time""
""fullscreenenter"",""1"",""3271""
","
","","","-1","","","24","10210","4300","e","elianto","#f73b6a7A","-1","-1","1","0","[]","0","2","","","10210","42","2","4","lose","no-go","0"
"pit-trial","161","1111929","0.0-47.0","battery-v0.2","","""event"",""trial"",""time""
""fullscreenenter"",""1"",""3271""
","
","
","""event"",""trial"",""time""
""fullscreenenter"",""1"",""3271""
","
","","","745.3000000715256","","","24","10210","4300","d","elianto","#3366ff99"," "," ","1","+10","[1595.8000000715256]","1","2","","","10210","43","1","1","win","go","0"
"pit-trial","162","1115717","0.0-48.0","battery-v0.2","","""event"",""trial"",""time""
""fullscreenenter"",""1"",""3271""
","
","
","""event"",""trial"",""time""
""fullscreenenter"",""1"",""3271""
","
","","","935","","","24","10210","4300","w","elianto","#f73b6a7A"," "," ","1","-10","[1785.2000000476837]","1","2","","","10210","44","3","3","lose","go","1"
"pit-trial","163","1120571","0.0-49.0","battery-v0.2","","""event"",""trial"",""time""
""fullscreenenter"",""1"",""3271""
","
","
","""event"",""trial"",""time""
""fullscreenenter"",""1"",""3271""
","
","","","-1","","","24","10210","4300","w","elianto","#f73b6a7A"," ","-1","0","-10","[]","0","2","","","10210","45","3","3","lose","go","0"
"pit-trial","164","1125424","0.0-50.0","battery-v0.2","","""event"",""trial"",""time""
""fullscreenenter"",""1"",""3271""
","
","
","""event"",""trial"",""time""
""fullscreenenter"",""1"",""3271""
","
","","","-1","","","24","10210","4300","j","elianto","#f73b6a7A","-1","-1","1","0","[]","0","2","","","10210","46","0","4","lose","no-go","0"
"pit-trial","165","1130277","0.0-51.0","battery-v0.2","","""event"",""trial"",""time""
""fullscreenenter"",""1"",""3271""
","
","
","""event"",""trial"",""time""
""fullscreenenter"",""1"",""3271""
","
","","","-1","","","24","10210","4300","s","elianto","#3366ff99","-1","-1","1","+10","[]","0","2","","","10210","47","4","2","win","no-go","0"
"pit-trial","166","1135130","0.0-52.0","battery-v0.2","","""event"",""trial"",""time""
""fullscreenenter"",""1"",""3271""
","
","
","""event"",""trial"",""time""
""fullscreenenter"",""1"",""3271""
","
","","","-1","","","24","10210","4300","e","elianto","#f73b6a7A","-1","-1","1","0","[]","0","2","","","10210","48","2","4","lose","no-go","0"
"pit-trial","167","1139983","0.0-53.0","battery-v0.2","","""event"",""trial"",""time""
""fullscreenenter"",""1"",""3271""
","
","
","""event"",""trial"",""time""
""fullscreenenter"",""1"",""3271""
","
","","","-1","","","24","10210","4300","s","elianto","#3366ff99","-1","-1","1","0","[]","0","2","","","10210","49","4","2","win","no-go","1"
"pit-trial","168","1143646","0.0-54.0","battery-v0.2","","""event"",""trial"",""time""
""fullscreenenter"",""1"",""3271""
","
","
","""event"",""trial"",""time""
""fullscreenenter"",""1"",""3271""
","
","","","809.2999999523163","","","24","10210","4300","w","elianto","#f73b6a7A"," "," ","1","0","[1659.3000000715256]","1","2","","","10210","50","3","3","lose","go","0"
"pit-trial","169","1148500","0.0-55.0","battery-v0.2","","""event"",""trial"",""time""
""fullscreenenter"",""1"",""3271""
","
","
","""event"",""trial"",""time""
""fullscreenenter"",""1"",""3271""
","
","","","-1","","","24","10210","4300","j","elianto","#f73b6a7A","-1","-1","1","-10","[]","0","2","","","10210","51","0","4","lose","no-go","1"
"pit-trial","170","1152122","0.0-56.0","battery-v0.2","","""event"",""trial"",""time""
""fullscreenenter"",""1"",""3271""
","
","
","""event"",""trial"",""time""
""fullscreenenter"",""1"",""3271""
","
","","","768.9000000953674","","","24","10210","4300","d","elianto","#3366ff99"," "," ","1","+10","[1619]","1","2","","","10210","52","1","1","win","go","0"
"pit-trial","171","1155936","0.0-57.0","battery-v0.2","","""event"",""trial"",""time""
""fullscreenenter"",""1"",""3271""
","
","
","""event"",""trial"",""time""
""fullscreenenter"",""1"",""3271""
","
","","","962.8000000715256","","","24","10210","4300","d","elianto","#3366ff99"," "," ","1","0","[1812.9000000953674]","1","2","","","10210","53","1","1","win","go","1"
"pit-trial","172","1160789","0.0-58.0","battery-v0.2","","""event"",""trial"",""time""
""fullscreenenter"",""1"",""3271""
","
","
","""event"",""trial"",""time""
""fullscreenenter"",""1"",""3271""
","
","","","-1","","","24","10210","4300","s","elianto","#3366ff99","-1","-1","1","+10","[]","0","2","","","10210","54","4","2","win","no-go","0"
"pit-trial","173","1165644","0.0-59.0","battery-v0.2","","""event"",""trial"",""time""
""fullscreenenter"",""1"",""3271""
","
","
","""event"",""trial"",""time""
""fullscreenenter"",""1"",""3271""
","
","","","-1","","","24","10210","4300","j","elianto","#f73b6a7A","-1","-1","1","0","[]","0","2","","","10210","55","0","4","lose","no-go","0"
"pit-trial","174","1170495","0.0-60.0","battery-v0.2","","""event"",""trial"",""time""
""fullscreenenter"",""1"",""3271""
","
","
","""event"",""trial"",""time""
""fullscreenenter"",""1"",""3271""
","
","","","-1","","","24","10210","4300","e","elianto","#f73b6a7A","-1","-1","1","0","[]","0","2","","","10210","56","2","4","lose","no-go","0"
"pit-trial","175","1175348","0.0-61.0","battery-v0.2","","""event"",""trial"",""time""
""fullscreenenter"",""1"",""3271""
","
","
","""event"",""trial"",""time""
""fullscreenenter"",""1"",""3271""
","
","","","-1","","","24","10210","4300","j","elianto","#f73b6a7A","-1","-1","1","-10","[]","0","2","","","10210","57","0","4","lose","no-go","1"
"pit-trial","176","1180201","0.0-62.0","battery-v0.2","","""event"",""trial"",""time""
""fullscreenenter"",""1"",""3271""
","
","
","""event"",""trial"",""time""
""fullscreenenter"",""1"",""3271""
","
","","","-1","","","24","10210","4300","s","elianto","#3366ff99","-1","-1","1","+10","[]","0","2","","","10210","58","4","2","win","no-go","0"
"pit-trial","177","1183909","0.0-63.0","battery-v0.2","","""event"",""trial"",""time""
""fullscreenenter"",""1"",""3271""
","
","
","""event"",""trial"",""time""
""fullscreenenter"",""1"",""3271""
","
","","","854.8999999761581","","","24","10210","4300","w","elianto","#f73b6a7A"," "," ","1","-10","[1705.6000000238419]","1","2","","","10210","59","3","3","lose","go","1"
"pit-trial","178","1187368","0.0-64.0","battery-v0.2","","""event"",""trial"",""time""
""fullscreenenter"",""1"",""3271""
","
","
","""event"",""trial"",""time""
""fullscreenenter"",""1"",""3271""
","
","","","606.7000000476837","","","24","10210","4300","d","elianto","#3366ff99"," "," ","1","+10","[1457.8000000715256]","1","2","","","10210","60","1","1","win","go","0"
"pit-trial","179","1192222","0.0-65.0","battery-v0.2","","""event"",""trial"",""time""
""fullscreenenter"",""1"",""3271""
","
","
","""event"",""trial"",""time""
""fullscreenenter"",""1"",""3271""
","
","","","-1","","","24","10210","4300","e","elianto","#f73b6a7A","-1","-1","1","0","[]","0","2","","","10210","61","2","4","lose","no-go","0"
"pit-trial","180","1195875","0.0-66.0","battery-v0.2","","""event"",""trial"",""time""
""fullscreenenter"",""1"",""3271""
","
","
","""event"",""trial"",""time""
""fullscreenenter"",""1"",""3271""
","
","","","800.3999999761581","","","24","10210","4300","d","elianto","#3366ff99"," "," ","1","0","[1650.5]","1","2","","","10210","62","1","1","win","go","1"
"pit-trial","181","1200728","0.0-67.0","battery-v0.2","","""event"",""trial"",""time""
""fullscreenenter"",""1"",""3271""
","
","
","""event"",""trial"",""time""
""fullscreenenter"",""1"",""3271""
","
","","","-1","","","24","10210","4300","s","elianto","#3366ff99","-1","-1","1","+10","[]","0","2","","","10210","63","4","2","win","no-go","0"
"pit-trial","182","1205567","0.0-68.0","battery-v0.2","","""event"",""trial"",""time""
""fullscreenenter"",""1"",""3271""
","
","
","""event"",""trial"",""time""
""fullscreenenter"",""1"",""3271""
","
","","","1984.6000000238419","","","24","10210","4300","w","elianto","#f73b6a7A"," "," ","1","0","[2835.600000023842]","1","2","","","10210","64","3","3","lose","go","0"
"pit-trial","183","1210420","0.0-69.0","battery-v0.2","","""event"",""trial"",""time""
""fullscreenenter"",""1"",""3271""
","
","
","""event"",""trial"",""time""
""fullscreenenter"",""1"",""3271""
","
","","","-1","","","24","10210","4300","s","elianto","#3366ff99","-1","-1","1","+10","[]","0","2","","","10210","65","4","2","win","no-go","0"
"pit-trial","184","1214375","0.0-70.0","battery-v0.2","","""event"",""trial"",""time""
""fullscreenenter"",""1"",""3271""
","
","
","""event"",""trial"",""time""
""fullscreenenter"",""1"",""3271""
","
","","","1102.8000000715256","","","24","10210","4300","d","elianto","#3366ff99"," "," ","1","+10","[1953]","1","2","","","10210","66","1","1","win","go","0"
"pit-trial","185","1218104","0.0-71.0","battery-v0.2","","""event"",""trial"",""time""
""fullscreenenter"",""1"",""3271""
","
","
","""event"",""trial"",""time""
""fullscreenenter"",""1"",""3271""
","
","","","874.7999999523163","","","24","10210","4300","w","elianto","#f73b6a7A"," "," ","1","0","[1726.2000000476837]","1","2","","","10210","67","3","3","lose","go","0"
"pit-trial","186","1222958","0.0-72.0","battery-v0.2","","""event"",""trial"",""time""
""fullscreenenter"",""1"",""3271""
","
","
","""event"",""trial"",""time""
""fullscreenenter"",""1"",""3271""
","
","","","-1","","","24","10210","4300","e","elianto","#f73b6a7A","-1","-1","1","0","[]","0","2","","","10210","68","2","4","lose","no-go","0"
"pit-trial","187","1227284","0.0-73.0","battery-v0.2","","""event"",""trial"",""time""
""fullscreenenter"",""1"",""3271""
","
","
","""event"",""trial"",""time""
""fullscreenenter"",""1"",""3271""
","
","","","1473.3000000715256","","","24","10210","4300","p","elianto","#3366ff99"," "," ","1","+10","[2324.399999976158]","1","2","","","10210","69","5","1","win","go","0"
"pit-trial","188","1230819","0.0-74.0","battery-v0.2","","""event"",""trial"",""time""
""fullscreenenter"",""1"",""3271""
","
","
","""event"",""trial"",""time""
""fullscreenenter"",""1"",""3271""
","
","","","682.8999999761581","","","24","10210","4300","w","elianto","#f73b6a7A"," "," ","1","0","[1533.0999999046326]","1","2","","","10210","70","3","3","lose","go","0"
"pit-trial","189","1235672","0.0-75.0","battery-v0.2","","""event"",""trial"",""time""
""fullscreenenter"",""1"",""3271""
","
","
","""event"",""trial"",""time""
""fullscreenenter"",""1"",""3271""
","
","","","-1","","","24","10210","4300","s","elianto","#3366ff99","-1","-1","1","+10","[]","0","2","","","10210","71","4","2","win","no-go","0"
"pit-trial","190","1239340","0.0-76.0","battery-v0.2","","""event"",""trial"",""time""
""fullscreenenter"",""1"",""3271""
","
","
","""event"",""trial"",""time""
""fullscreenenter"",""1"",""3271""
","
","","","815.6000000238419","","","24","10210","4300","d","elianto","#3366ff99"," "," ","1","+10","[1665.8000000715256]","1","2","","","10210","72","1","1","win","go","0"
"pit-trial","191","1243425","0.0-77.0","battery-v0.2","","""event"",""trial"",""time""
""fullscreenenter"",""1"",""3271""
","
","
","""event"",""trial"",""time""
""fullscreenenter"",""1"",""3271""
","
","","","1231.7999999523163","","","24","10210","4300","w","elianto","#f73b6a7A"," "," ","1","0","[2082.899999976158]","1","2","","","10210","73","3","3","lose","go","0"
"pit-trial","192","1247347","0.0-78.0","battery-v0.2","","""event"",""trial"",""time""
""fullscreenenter"",""1"",""3271""
","
","
","""event"",""trial"",""time""
""fullscreenenter"",""1"",""3271""
","
","","","1068.5","","","24","10210","4300","d","elianto","#3366ff99"," "," ","1","+10","[1919.5]","1","2","","","10210","74","1","1","win","go","0"
"pit-trial","193","1252201","0.0-79.0","battery-v0.2","","""event"",""trial"",""time""
""fullscreenenter"",""1"",""3271""
","
","
","""event"",""trial"",""time""
""fullscreenenter"",""1"",""3271""
","
","","","-1","","","24","10210","4300","s","elianto","#3366ff99","-1","-1","1","+10","[]","0","2","","","10210","75","4","2","win","no-go","0"
"pit-trial","194","1256379","0.0-80.0","battery-v0.2","","""event"",""trial"",""time""
""fullscreenenter"",""1"",""3271""
","
","
","""event"",""trial"",""time""
""fullscreenenter"",""1"",""3271""
","
","","","1326.2000000476837","","","24","10210","4300","p","elianto","#3366ff99"," "," ","1","0","[2176.2000000476837]","1","2","","","10210","76","5","1","win","go","1"
"pit-trial","195","1261233","0.0-81.0","battery-v0.2","","""event"",""trial"",""time""
""fullscreenenter"",""1"",""3271""
","
","
","""event"",""trial"",""time""
""fullscreenenter"",""1"",""3271""
","
","","","-1","","","24","10210","4300","s","elianto","#3366ff99","-1","-1","1","0","[]","0","2","","","10210","77","4","2","win","no-go","1"
"pit-trial","196","1265146","0.0-82.0","battery-v0.2","","""event"",""trial"",""time""
""fullscreenenter"",""1"",""3271""
","
","
","""event"",""trial"",""time""
""fullscreenenter"",""1"",""3271""
","
","","","1060.1000000238419","","","24","10210","4300","w","elianto","#f73b6a7A"," "," ","1","0","[1911.1000000238419]","1","2","","","10210","78","3","3","lose","go","0"
"pit-trial","197","1269347","0.0-83.0","battery-v0.2","","""event"",""trial"",""time""
""fullscreenenter"",""1"",""3271""
","
","
","""event"",""trial"",""time""
""fullscreenenter"",""1"",""3271""
","
","","","1348.3999999761581","","","24","10210","4300","g","elianto","#f73b6a7A","-1"," ","0","-10","[2198.600000023842]","1","2","","","10210","79","6","4","lose","no-go","0"
"pit-trial","198","1273426","0.0-84.0","battery-v0.2","","""event"",""trial"",""time""
""fullscreenenter"",""1"",""3271""
","
","
","""event"",""trial"",""time""
""fullscreenenter"",""1"",""3271""
","
","","","1226.7000000476837","","","24","10210","4300","p","elianto","#3366ff99"," "," ","1","+10","[2077.3000000715256]","1","2","","","10210","80","5","1","win","go","0"
"pit-trial","199","1278279","0.0-85.0","battery-v0.2","","""event"",""trial"",""time""
""fullscreenenter"",""1"",""3271""
","
","
","""event"",""trial"",""time""
""fullscreenenter"",""1"",""3271""
","
","","","-1","","","24","10210","4300","g","elianto","#f73b6a7A","-1","-1","1","0","[]","0","2","","","10210","81","6","4","lose","no-go","0"
"pit-trial","200","1283133","0.0-86.0","battery-v0.2","","""event"",""trial"",""time""
""fullscreenenter"",""1"",""3271""
","
","
","""event"",""trial"",""time""
""fullscreenenter"",""1"",""3271""
","
","","","-1","","","24","10210","4300","a","elianto","#f73b6a7A"," ","-1","0","-10","[4151.899999976158]","1","2","","","10210","82","7","3","lose","go","0"
"pit-trial","201","1287986","0.0-87.0","battery-v0.2","","""event"",""trial"",""time""
""fullscreenenter"",""1"",""3271""
","
","
","""event"",""trial"",""time""
""fullscreenenter"",""1"",""3271""
","
","","","-1","","","24","10210","4300","s","elianto","#3366ff99","-1","-1","1","+10","[]","0","2","","","10210","83","4","2","win","no-go","0"
"pit-trial","202","1291822","0.0-88.0","battery-v0.2","","""event"",""trial"",""time""
""fullscreenenter"",""1"",""3271""
","
","
","""event"",""trial"",""time""
""fullscreenenter"",""1"",""3271""
","
","","","981.3000000715256","","","24","10210","4300","p","elianto","#3366ff99"," "," ","1","+10","[1832.3999999761581]","1","2","","","10210","84","5","1","win","go","0"
"pit-trial","203","1296675","0.0-89.0","battery-v0.2","","""event"",""trial"",""time""
""fullscreenenter"",""1"",""3271""
","
","
","""event"",""trial"",""time""
""fullscreenenter"",""1"",""3271""
","
","","","-1","","","24","10210","4300","g","elianto","#f73b6a7A","-1","-1","1","0","[]","0","2","","","10210","85","6","4","lose","no-go","0"
"pit-trial","204","1301528","0.0-90.0","battery-v0.2","","""event"",""trial"",""time""
""fullscreenenter"",""1"",""3271""
","
","
","""event"",""trial"",""time""
""fullscreenenter"",""1"",""3271""
","
","","","-1","","","24","10210","4300","s","elianto","#3366ff99","-1","-1","1","+10","[]","0","2","","","10210","86","4","2","win","no-go","0"
"pit-trial","205","1305087","0.0-91.0","battery-v0.2","","""event"",""trial"",""time""
""fullscreenenter"",""1"",""3271""
","
","
","""event"",""trial"",""time""
""fullscreenenter"",""1"",""3271""
","
","","","705.3999999761581","","","24","10210","4300","a","elianto","#f73b6a7A"," "," ","1","0","[1556.5]","1","2","","","10210","87","7","3","lose","go","0"
"pit-trial","206","1308689","0.0-92.0","battery-v0.2","","""event"",""trial"",""time""
""fullscreenenter"",""1"",""3271""
","
","
","""event"",""trial"",""time""
""fullscreenenter"",""1"",""3271""
","
","","","748.5999999046326","","","24","10210","4300","p","elianto","#3366ff99"," "," ","1","0","[1598.8999999761581]","1","2","","","10210","88","5","1","win","go","1"
"pit-trial","207","1313543","0.0-93.0","battery-v0.2","","""event"",""trial"",""time""
""fullscreenenter"",""1"",""3271""
","
","
","""event"",""trial"",""time""
""fullscreenenter"",""1"",""3271""
","
","","","-1","","","24","10210","4300","s","elianto","#3366ff99","-1","-1","1","0","[]","0","2","","","10210","89","4","2","win","no-go","1"
"pit-trial","208","1318395","0.0-94.0","battery-v0.2","","""event"",""trial"",""time""
""fullscreenenter"",""1"",""3271""
","
","
","""event"",""trial"",""time""
""fullscreenenter"",""1"",""3271""
","
","","","-1","","","24","10210","4300","g","elianto","#f73b6a7A","-1","-1","1","0","[]","0","2","","","10210","90","6","4","lose","no-go","0"
"pit-trial","209","1322537","0.0-95.0","battery-v0.2","","""event"",""trial"",""time""
""fullscreenenter"",""1"",""3271""
","
","
","""event"",""trial"",""time""
""fullscreenenter"",""1"",""3271""
","
","","","1289.6000000238419","","","24","10210","4300","p","elianto","#3366ff99"," "," ","1","+10","[2140.4000000953674]","1","2","","","10210","91","5","1","win","go","0"
"pit-trial","210","1326809","0.0-96.0","battery-v0.2","","""event"",""trial"",""time""
""fullscreenenter"",""1"",""3271""
","
","
","""event"",""trial"",""time""
""fullscreenenter"",""1"",""3271""
","
","","","1419.4000000953674","","","24","10210","4300","a","elianto","#f73b6a7A"," "," ","1","0","[2270.3000000715256]","1","2","","","10210","92","7","3","lose","go","0"
"pit-trial","211","1331663","0.0-97.0","battery-v0.2","","""event"",""trial"",""time""
""fullscreenenter"",""1"",""3271""
","
","
","""event"",""trial"",""time""
""fullscreenenter"",""1"",""3271""
","
","","","-1","","","24","10210","4300","l","elianto","#3366ff99","-1","-1","1","+10","[]","0","2","","","10210","93","8","2","win","no-go","0"
"pit-trial","212","1335426","0.0-98.0","battery-v0.2","","""event"",""trial"",""time""
""fullscreenenter"",""1"",""3271""
","
","
","""event"",""trial"",""time""
""fullscreenenter"",""1"",""3271""
","
","","","909.7000000476837","","","24","10210","4300","p","elianto","#3366ff99"," "," ","1","+10","[1760.3000000715256]","1","2","","","10210","94","5","1","win","go","0"
"pit-trial","213","1338993","0.0-99.0","battery-v0.2","","""event"",""trial"",""time""
""fullscreenenter"",""1"",""3271""
","
","
","""event"",""trial"",""time""
""fullscreenenter"",""1"",""3271""
","
","","","713.7999999523163","","","24","10210","4300","a","elianto","#f73b6a7A"," "," ","1","0","[1565.7999999523163]","1","2","","","10210","95","7","3","lose","go","0"
"pit-trial","214","1343847","0.0-100.0","battery-v0.2","","""event"",""trial"",""time""
""fullscreenenter"",""1"",""3271""
","
","
","""event"",""trial"",""time""
""fullscreenenter"",""1"",""3271""
","
","","","-1","","","24","10210","4300","g","elianto","#f73b6a7A","-1","-1","1","0","[]","0","2","","","10210","96","6","4","lose","no-go","0"
"pit-trial","215","1348702","0.0-101.0","battery-v0.2","","""event"",""trial"",""time""
""fullscreenenter"",""1"",""3271""
","
","
","""event"",""trial"",""time""
""fullscreenenter"",""1"",""3271""
","
","","","-1","","","24","10210","4300","g","elianto","#f73b6a7A","-1","-1","1","-10","[]","0","2","","","10210","97","6","4","lose","no-go","1"
"pit-trial","216","1353555","0.0-102.0","battery-v0.2","","""event"",""trial"",""time""
""fullscreenenter"",""1"",""3271""
","
","
","""event"",""trial"",""time""
""fullscreenenter"",""1"",""3271""
","
","","","-1","","","24","10210","4300","l","elianto","#3366ff99","-1","-1","1","0","[]","0","2","","","10210","98","8","2","win","no-go","1"
"pit-trial","217","1357685","0.0-103.0","battery-v0.2","","""event"",""trial"",""time""
""fullscreenenter"",""1"",""3271""
","
","
","""event"",""trial"",""time""
""fullscreenenter"",""1"",""3271""
","
","","","1276.9000000953674","","","24","10210","4300","a","elianto","#f73b6a7A"," "," ","1","0","[2127.4000000953674]","1","2","","","10210","99","7","3","lose","go","0"
"pit-trial","218","1361291","0.0-104.0","battery-v0.2","","""event"",""trial"",""time""
""fullscreenenter"",""1"",""3271""
","
","
","""event"",""trial"",""time""
""fullscreenenter"",""1"",""3271""
","
","","","752.2999999523163","","","24","10210","4300","p","elianto","#3366ff99"," "," ","1","+10","[1603.3999999761581]","1","2","","","10210","100","5","1","win","go","0"
"pit-trial","219","1366144","0.0-105.0","battery-v0.2","","""event"",""trial"",""time""
""fullscreenenter"",""1"",""3271""
","
","
","""event"",""trial"",""time""
""fullscreenenter"",""1"",""3271""
","
","","","-1","","","24","10210","4300","u","elianto","#3366ff99","-1","-1","1","+10","[]","0","2","","","10210","101","9","2","win","no-go","0"
"pit-trial","220","1370997","0.0-106.0","battery-v0.2","","""event"",""trial"",""time""
""fullscreenenter"",""1"",""3271""
","
","
","""event"",""trial"",""time""
""fullscreenenter"",""1"",""3271""
","
","","","-1","","","24","10210","4300","g","elianto","#f73b6a7A","-1","-1","1","0","[]","0","2","","","10210","102","6","4","lose","no-go","0"
"pit-trial","221","1375849","0.0-107.0","battery-v0.2","","""event"",""trial"",""time""
""fullscreenenter"",""1"",""3271""
","
","
","""event"",""trial"",""time""
""fullscreenenter"",""1"",""3271""
","
","","","-1","","","24","10210","4300","l","elianto","#3366ff99","-1","-1","1","+10","[]","0","2","","","10210","103","8","2","win","no-go","0"
"pit-trial","222","1379484","0.0-108.0","battery-v0.2","","""event"",""trial"",""time""
""fullscreenenter"",""1"",""3271""
","
","
","""event"",""trial"",""time""
""fullscreenenter"",""1"",""3271""
","
","","","782.3999999761581","","","24","10210","4300","p","elianto","#3366ff99"," "," ","1","0","[1632.7999999523163]","1","2","","","10210","104","5","1","win","go","1"
"pit-trial","223","1384337","0.0-109.0","battery-v0.2","","""event"",""trial"",""time""
""fullscreenenter"",""1"",""3271""
","
","
","""event"",""trial"",""time""
""fullscreenenter"",""1"",""3271""
","
","","","-1","","","24","10210","4300","l","elianto","#3366ff99","-1","-1","1","+10","[]","0","2","","","10210","105","8","2","win","no-go","0"
"pit-trial","224","1389191","0.0-110.0","battery-v0.2","","""event"",""trial"",""time""
""fullscreenenter"",""1"",""3271""
","
","
","""event"",""trial"",""time""
""fullscreenenter"",""1"",""3271""
","
","","","-1","","","24","10210","4300","u","elianto","#3366ff99","-1","-1","1","0","[]","0","2","","","10210","106","9","2","win","no-go","1"
"pit-trial","225","1393119","0.0-111.0","battery-v0.2","","""event"",""trial"",""time""
""fullscreenenter"",""1"",""3271""
","
","
","""event"",""trial"",""time""
""fullscreenenter"",""1"",""3271""
","
","","","1075.8999999761581","","","24","10210","4300","p","elianto","#3366ff99"," "," ","1","+10","[1925.8999999761581]","1","2","","","10210","107","5","1","win","go","0"
"pit-trial","226","1397972","0.0-112.0","battery-v0.2","","""event"",""trial"",""time""
""fullscreenenter"",""1"",""3271""
","
","
","""event"",""trial"",""time""
""fullscreenenter"",""1"",""3271""
","
","","","-1","","","24","10210","4300","g","elianto","#f73b6a7A","-1","-1","1","0","[]","0","2","","","10210","108","6","4","lose","no-go","0"
"pit-trial","227","1402825","0.0-113.0","battery-v0.2","","""event"",""trial"",""time""
""fullscreenenter"",""1"",""3271""
","
","
","""event"",""trial"",""time""
""fullscreenenter"",""1"",""3271""
","
","","","-1","","","24","10210","4300","l","elianto","#3366ff99","-1","-1","1","+10","[]","0","2","","","10210","109","8","2","win","no-go","0"
"pit-trial","228","1407678","0.0-114.0","battery-v0.2","","""event"",""trial"",""time""
""fullscreenenter"",""1"",""3271""
","
","
","""event"",""trial"",""time""
""fullscreenenter"",""1"",""3271""
","
","","","-1","","","24","10210","4300","g","elianto","#f73b6a7A","-1","-1","1","0","[]","0","2","","","10210","110","6","4","lose","no-go","0"
"pit-trial","229","1412532","0.0-115.0","battery-v0.2","","""event"",""trial"",""time""
""fullscreenenter"",""1"",""3271""
","
","
","""event"",""trial"",""time""
""fullscreenenter"",""1"",""3271""
","
","","","-1","","","24","10210","4300","u","elianto","#3366ff99","-1","-1","1","0","[3666.6999999284744]","1","2","","","10210","111","9","2","win","no-go","1"
"pit-trial","230","1416478","0.0-116.0","battery-v0.2","","""event"",""trial"",""time""
""fullscreenenter"",""1"",""3271""
","
","
","""event"",""trial"",""time""
""fullscreenenter"",""1"",""3271""
","
","","","1091.8999999761581","","","24","10210","4300","p","elianto","#3366ff99"," "," ","1","+10","[1942.7999999523163]","1","2","","","10210","112","5","1","win","go","0"
"pit-trial","231","1420011","0.0-117.0","battery-v0.2","","""event"",""trial"",""time""
""fullscreenenter"",""1"",""3271""
","
","
","""event"",""trial"",""time""
""fullscreenenter"",""1"",""3271""
","
","","","679.5999999046326","","","24","10210","4300","u","elianto","#3366ff99","-1"," ","0","0","[1530.8999999761581]","1","2","","","10210","113","9","2","win","no-go","0"
"pit-trial","232","1423541","0.0-118.0","battery-v0.2","","""event"",""trial"",""time""
""fullscreenenter"",""1"",""3271""
","
","
","""event"",""trial"",""time""
""fullscreenenter"",""1"",""3271""
","
","","","678","","","24","10210","4300","p","elianto","#3366ff99"," "," ","1","+10","[1528.2999999523163]","1","2","","","10210","114","5","1","win","go","0"
"pit-trial","233","1428396","0.0-119.0","battery-v0.2","","""event"",""trial"",""time""
""fullscreenenter"",""1"",""3271""
","
","
","""event"",""trial"",""time""
""fullscreenenter"",""1"",""3271""
","
","","","-1","","","24","10210","4300","l","elianto","#3366ff99","-1","-1","1","+10","[]","0","2","","","10210","115","8","2","win","no-go","0"
"pit-trial","234","1432708","0.0-120.0","battery-v0.2","","""event"",""trial"",""time""
""fullscreenenter"",""1"",""3271""
","
","
","""event"",""trial"",""time""
""fullscreenenter"",""1"",""3271""
","
","","","1460.7000000476837","","","24","10210","4300","a","elianto","#f73b6a7A"," "," ","1","-10","[2311]","1","2","","","10210","116","7","3","lose","go","1"
"pit-trial","235","1437561","0.0-121.0","battery-v0.2","","""event"",""trial"",""time""
""fullscreenenter"",""1"",""3271""
","
","
","""event"",""trial"",""time""
""fullscreenenter"",""1"",""3271""
","
","","","-1","","","24","10210","4300","l","elianto","#3366ff99","-1","-1","1","+10","[]","0","2","","","10210","117","8","2","win","no-go","0"
"pit-trial","236","1441699","0.0-122.0","battery-v0.2","","""event"",""trial"",""time""
""fullscreenenter"",""1"",""3271""
","
","
","""event"",""trial"",""time""
""fullscreenenter"",""1"",""3271""
","
","","","1285.5999999046326","","","24","10210","4300","p","elianto","#3366ff99"," "," ","1","+10","[2135.8000000715256,2137.399999976158]","2","2","","","10210","118","5","1","win","go","0"
"pit-trial","237","1446552","0.0-123.0","battery-v0.2","","""event"",""trial"",""time""
""fullscreenenter"",""1"",""3271""
","
","
","""event"",""trial"",""time""
""fullscreenenter"",""1"",""3271""
","
","","","-1","","","24","10210","4300","g","elianto","#f73b6a7A","-1","-1","1","0","[]","0","2","","","10210","119","6","4","lose","no-go","0"
"pit-trial","238","1450442","0.0-124.0","battery-v0.2","","""event"",""trial"",""time""
""fullscreenenter"",""1"",""3271""
","
","
","""event"",""trial"",""time""
""fullscreenenter"",""1"",""3271""
","
","","","1038.5","","","24","10210","4300","u","elianto","#3366ff99","-1"," ","0","0","[1888.5999999046326]","1","2","","","10210","120","9","2","win","no-go","0"
"pit-trial","239","1455296","0.0-125.0","battery-v0.2","","""event"",""trial"",""time""
""fullscreenenter"",""1"",""3271""
","
","
","""event"",""trial"",""time""
""fullscreenenter"",""1"",""3271""
","
","","","-1","","","24","10210","4300","l","elianto","#3366ff99","-1","-1","1","+10","[]","0","2","","","10210","121","8","2","win","no-go","0"
"pit-trial","240","1460150","0.0-126.0","battery-v0.2","","""event"",""trial"",""time""
""fullscreenenter"",""1"",""3271""
","
","
","""event"",""trial"",""time""
""fullscreenenter"",""1"",""3271""
","
","","","-1","","","24","10210","4300","u","elianto","#3366ff99","-1","-1","1","+10","[]","0","2","","","10210","122","9","2","win","no-go","0"
"pit-trial","241","1463852","0.0-127.0","battery-v0.2","","""event"",""trial"",""time""
""fullscreenenter"",""1"",""3271""
","
","
","""event"",""trial"",""time""
""fullscreenenter"",""1"",""3271""
","
","","","849.2999999523163","","","24","10210","4300","p","elianto","#3366ff99"," "," ","1","+10","[1699.8999999761581]","1","2","","","10210","123","5","1","win","go","0"
"pit-trial","242","1467833","0.0-128.0","battery-v0.2","","""event"",""trial"",""time""
""fullscreenenter"",""1"",""3271""
","
","
","""event"",""trial"",""time""
""fullscreenenter"",""1"",""3271""
","
","","","1128.4000000953674","","","24","10210","4300","a","elianto","#f73b6a7A"," "," ","1","-10","[1979]","1","2","","","10210","124","7","3","lose","go","1"
"pit-trial","243","1472686","0.0-129.0","battery-v0.2","","""event"",""trial"",""time""
""fullscreenenter"",""1"",""3271""
","
","
","""event"",""trial"",""time""
""fullscreenenter"",""1"",""3271""
","
","","","-1","","","24","10210","4300","u","elianto","#3366ff99","-1","-1","1","+10","[]","0","2","","","10210","125","9","2","win","no-go","0"
"pit-trial","244","1477539","0.0-130.0","battery-v0.2","","""event"",""trial"",""time""
""fullscreenenter"",""1"",""3271""
","
","
","""event"",""trial"",""time""
""fullscreenenter"",""1"",""3271""
","
","","","-1","","","24","10210","4300","g","elianto","#f73b6a7A","-1","-1","1","0","[]","0","2","","","10210","126","6","4","lose","no-go","0"
"pit-trial","245","1481595","0.0-131.0","battery-v0.2","","""event"",""trial"",""time""
""fullscreenenter"",""1"",""3271""
","
","
","""event"",""trial"",""time""
""fullscreenenter"",""1"",""3271""
","
","","","1203.5","","","24","10210","4300","a","elianto","#f73b6a7A"," "," ","1","-10","[2054.399999976158]","1","2","","","10210","127","7","3","lose","go","1"
"pit-trial","246","1486448","0.0-132.0","battery-v0.2","","""event"",""trial"",""time""
""fullscreenenter"",""1"",""3271""
","
","
","""event"",""trial"",""time""
""fullscreenenter"",""1"",""3271""
","
","","","-1","","","24","10210","4300","l","elianto","#3366ff99","-1","-1","1","+10","[]","0","2","","","10210","128","8","2","win","no-go","0"
"pit-trial","247","1491303","0.0-133.0","battery-v0.2","","""event"",""trial"",""time""
""fullscreenenter"",""1"",""3271""
","
","
","""event"",""trial"",""time""
""fullscreenenter"",""1"",""3271""
","
","","","-1","","","24","10210","4300","a","elianto","#f73b6a7A"," ","-1","0","-10","[]","0","2","","","10210","129","7","3","lose","go","0"
"pit-trial","248","1496156","0.0-134.0","battery-v0.2","","""event"",""trial"",""time""
""fullscreenenter"",""1"",""3271""
","
","
","""event"",""trial"",""time""
""fullscreenenter"",""1"",""3271""
","
","","","-1","","","24","10210","4300","u","elianto","#3366ff99","-1","-1","1","+10","[]","0","2","","","10210","130","9","2","win","no-go","0"
"pit-trial","249","1501009","0.0-135.0","battery-v0.2","","""event"",""trial"",""time""
""fullscreenenter"",""1"",""3271""
","
","
","""event"",""trial"",""time""
""fullscreenenter"",""1"",""3271""
","
","","","-1","","","24","10210","4300","l","elianto","#3366ff99","-1","-1","1","+10","[]","0","2","","","10210","131","8","2","win","no-go","0"
"pit-trial","250","1505862","0.0-136.0","battery-v0.2","","""event"",""trial"",""time""
""fullscreenenter"",""1"",""3271""
","
","
","""event"",""trial"",""time""
""fullscreenenter"",""1"",""3271""
","
","","","-1","","","24","10210","4300","g","elianto","#f73b6a7A","-1","-1","1","0","[]","0","2","","","10210","132","6","4","lose","no-go","0"
"pit-trial","251","1509733","0.0-137.0","battery-v0.2","","""event"",""trial"",""time""
""fullscreenenter"",""1"",""3271""
","
","
","""event"",""trial"",""time""
""fullscreenenter"",""1"",""3271""
","
","","","1018.6000000238419","","","24","10210","4300","a","elianto","#f73b6a7A"," "," ","1","0","[1868.7999999523163]","1","2","","","10210","133","7","3","lose","go","0"
"pit-trial","252","1514586","0.0-138.0","battery-v0.2","","""event"",""trial"",""time""
""fullscreenenter"",""1"",""3271""
","
","
","""event"",""trial"",""time""
""fullscreenenter"",""1"",""3271""
","
","","","-1","","","24","10210","4300","g","elianto","#f73b6a7A","-1","-1","1","0","[]","0","2","","","10210","134","6","4","lose","no-go","0"
"pit-trial","253","1519438","0.0-139.0","battery-v0.2","","""event"",""trial"",""time""
""fullscreenenter"",""1"",""3271""
","
","
","""event"",""trial"",""time""
""fullscreenenter"",""1"",""3271""
","
","","","-1","","","24","10210","4300","l","elianto","#3366ff99","-1","-1","1","+10","[]","0","2","","","10210","135","8","2","win","no-go","0"
"pit-trial","254","1524291","0.0-140.0","battery-v0.2","","""event"",""trial"",""time""
""fullscreenenter"",""1"",""3271""
","
","
","""event"",""trial"",""time""
""fullscreenenter"",""1"",""3271""
","
","","","-1","","","24","10210","4300","u","elianto","#3366ff99","-1","-1","1","+10","[]","0","2","","","10210","136","9","2","win","no-go","0"
"pit-trial","255","1529144","0.0-141.0","battery-v0.2","","""event"",""trial"",""time""
""fullscreenenter"",""1"",""3271""
","
","
","""event"",""trial"",""time""
""fullscreenenter"",""1"",""3271""
","
","","","-1","","","24","10210","4300","l","elianto","#3366ff99","-1","-1","1","0","[]","0","2","","","10210","137","8","2","win","no-go","1"
"pit-trial","256","1533997","0.0-142.0","battery-v0.2","","""event"",""trial"",""time""
""fullscreenenter"",""1"",""3271""
","
","
","""event"",""trial"",""time""
""fullscreenenter"",""1"",""3271""
","
","","","-1","","","24","10210","4300","u","elianto","#3366ff99","-1","-1","1","+10","[]","0","2","","","10210","138","9","2","win","no-go","0"
"pit-trial","257","1538852","0.0-143.0","battery-v0.2","","""event"",""trial"",""time""
""fullscreenenter"",""1"",""3271""
","
","
","""event"",""trial"",""time""
""fullscreenenter"",""1"",""3271""
","
","","","-1","","","24","10210","4300","g","elianto","#f73b6a7A","-1","-1","1","-10","[]","0","2","","","10210","139","6","4","lose","no-go","1"
"pit-trial","258","1542524","0.0-144.0","battery-v0.2","","""event"",""trial"",""time""
""fullscreenenter"",""1"",""3271""
","
","
","""event"",""trial"",""time""
""fullscreenenter"",""1"",""3271""
","
","","","817.8999999761581","","","24","10210","4300","a","elianto","#f73b6a7A"," "," ","1","0","[1668.8999999761581]","1","2","","","10210","140","7","3","lose","go","0"
"pit-instructions","259","1558878","0.0-145.0","battery-v0.2","","""event"",""trial"",""time""
""fullscreenenter"",""1"",""3271""
","
","
","""event"",""trial"",""time""
""fullscreenenter"",""1"",""3271""
","
","","[{""page_index"":0,""viewing_time"":6998},{""page_index"":1,""viewing_time"":9355.700000047684}]","16354","","","","","","","","","","","","","","","","","","","","","","","",""
"pit-trial","260","1562688","0.0-146.0","battery-v0.2","","""event"",""trial"",""time""
""fullscreenenter"",""1"",""3271""
","
","
","""event"",""trial"",""time""
""fullscreenenter"",""1"",""3271""
","
","","","948.7999999523163","","","24","10210","4300","t","elianto","#f73b6a7A"," "," ","1","0","[1804.6000000238419]","1","3","","","10210","141","2","3","lose","go","0"
"pit-trial","261","1567540","0.0-147.0","battery-v0.2","","""event"",""trial"",""time""
""fullscreenenter"",""1"",""3271""
","
","
","""event"",""trial"",""time""
""fullscreenenter"",""1"",""3271""
","
","","","-1","","","24","10210","4300","b","elianto","#f73b6a7A","-1","-1","1","0","[]","0","3","","","10210","142","3","4","lose","no-go","0"
"pit-trial","262","1572393","0.0-148.0","battery-v0.2","","""event"",""trial"",""time""
""fullscreenenter"",""1"",""3271""
","
","
","""event"",""trial"",""time""
""fullscreenenter"",""1"",""3271""
","
","","","-1","","","24","10210","4300","n","elianto","#f73b6a7A"," ","-1","0","-10","[]","0","3","","","10210","143","0","3","lose","go","0"
"pit-trial","263","1576078","0.0-149.0","battery-v0.2","","""event"",""trial"",""time""
""fullscreenenter"",""1"",""3271""
","
","
","""event"",""trial"",""time""
""fullscreenenter"",""1"",""3271""
","
","","","831.2999999523163","","","24","10210","4300","f","elianto","#3366ff99","-1"," ","0","+10","[1683]","1","3","","","10210","144","1","2","win","no-go","1"
"pit-trial","264","1580032","0.0-150.0","battery-v0.2","","""event"",""trial"",""time""
""fullscreenenter"",""1"",""3271""
","
","
","""event"",""trial"",""time""
""fullscreenenter"",""1"",""3271""
","
","","","1100.1000000238419","","","24","10210","4300","n","elianto","#f73b6a7A"," "," ","1","0","[1950.7999999523163]","1","3","","","10210","145","0","3","lose","go","0"
"pit-trial","265","1583652","0.0-151.0","battery-v0.2","","""event"",""trial"",""time""
""fullscreenenter"",""1"",""3271""
","
","
","""event"",""trial"",""time""
""fullscreenenter"",""1"",""3271""
","
","","","766","","","24","10210","4300","t","elianto","#f73b6a7A"," "," ","1","0","[1618.2999999523163]","1","3","","","10210","146","2","3","lose","go","0"
"pit-trial","266","1588505","0.0-152.0","battery-v0.2","","""event"",""trial"",""time""
""fullscreenenter"",""1"",""3271""
","
","
","""event"",""trial"",""time""
""fullscreenenter"",""1"",""3271""
","
