"trial_type","trial_index","time_elapsed","internal_node_id","task_version","subject_id","interactions","blur_events","focus_events","fullscreenenter_events","fullscreenexit_events","success","view_history","rt","responses","num_errors","age","subject","participantId","rune","rune_set","hex","correct","choice","accuracy","outcome","keys","total_keys","block","practice","value","sub","trial","stimulus","robot","valence","action","sham"
"pavlovia","0","8","0.0-0.0","battery-v0.2","","""event"",""trial"",""time""
""focus"",""0"",""0""
""fullscreenenter"",""1"",""2809""
","
","""event"",""trial"",""time""
""focus"",""0"",""0""
","""event"",""trial"",""time""
""fullscreenenter"",""1"",""2809""
","
","","","","","","","","","","","","","","","","","","","","","","","","","","",""
"fullscreen","1","3605","0.0-1.0","battery-v0.2","","""event"",""trial"",""time""
""focus"",""0"",""0""
""fullscreenenter"",""1"",""2809""
","
","""event"",""trial"",""time""
""focus"",""0"",""0""
","""event"",""trial"",""time""
""fullscreenenter"",""1"",""2809""
","
","true","","","","","","","","","","","","","","","","","","","","","","","","","",""
"pit-instructions","2","8388","0.0-2.0-0.0","battery-v0.2","","""event"",""trial"",""time""
""focus"",""0"",""0""
""fullscreenenter"",""1"",""2809""
","
","""event"",""trial"",""time""
""focus"",""0"",""0""
","""event"",""trial"",""time""
""fullscreenenter"",""1"",""2809""
","
","","[{""page_index"":0,""viewing_time"":4782}]","4782","","","","","","","","","","","","","","","","","","","","","","","",""
"pit-comprehension","3","11514","0.0-2.0-1.0-0.0","battery-v0.2","","""event"",""trial"",""time""
""focus"",""0"",""0""
""fullscreenenter"",""1"",""2809""
","
","""event"",""trial"",""time""
""focus"",""0"",""0""
","""event"",""trial"",""time""
""fullscreenenter"",""1"",""2809""
","
","","","3124","[""shark""]","0","21","13362","5850","","","","","","","","","","","","","","","","","","",""
"pit-instructions","4","12676","0.0-2.0-1.0-1.0","battery-v0.2","","""event"",""trial"",""time""
""focus"",""0"",""0""
""fullscreenenter"",""1"",""2809""
","
","""event"",""trial"",""time""
""focus"",""0"",""0""
","""event"",""trial"",""time""
""fullscreenenter"",""1"",""2809""
","
","","[{""page_index"":0,""viewing_time"":1160}]","1160","","","","","","","","","","","","","","","","","","","","","","","",""
"pit-comprehension","5","14949","0.0-2.0-2.0-0.0","battery-v0.2","","""event"",""trial"",""time""
""focus"",""0"",""0""
""fullscreenenter"",""1"",""2809""
","
","""event"",""trial"",""time""
""focus"",""0"",""0""
","""event"",""trial"",""time""
""fullscreenenter"",""1"",""2809""
","
","","","2271","[""tiger""]","0","21","13362","5850","","","","","","","","","","","","","","","","","","",""
"pit-instructions","6","15973","0.0-2.0-2.0-1.0","battery-v0.2","","""event"",""trial"",""time""
""focus"",""0"",""0""
""fullscreenenter"",""1"",""2809""
","
","""event"",""trial"",""time""
""focus"",""0"",""0""
","""event"",""trial"",""time""
""fullscreenenter"",""1"",""2809""
","
","","[{""page_index"":0,""viewing_time"":1022}]","1022","","","","","","","","","","","","","","","","","","","","","","","",""
"pit-instructions","7","124765","0.0-2.0-3.0","battery-v0.2","","""event"",""trial"",""time""
""focus"",""0"",""0""
""fullscreenenter"",""1"",""2809""
","
","""event"",""trial"",""time""
""focus"",""0"",""0""
","""event"",""trial"",""time""
""fullscreenenter"",""1"",""2809""
","
","","[{""page_index"":0,""viewing_time"":8886},{""page_index"":1,""viewing_time"":6664},{""page_index"":2,""viewing_time"":6655},{""page_index"":3,""viewing_time"":5840},{""page_index"":4,""viewing_time"":7345},{""page_index"":5,""viewing_time"":5928},{""page_index"":6,""viewing_time"":7240},{""page_index"":7,""viewing_time"":9480},{""page_index"":8,""viewing_time"":6863},{""page_index"":9,""viewing_time"":10177},{""page_index"":10,""viewing_time"":7215},{""page_index"":11,""viewing_time"":7545},{""page_index"":12,""viewing_time"":8111},{""page_index"":13,""viewing_time"":10841}]","108790","","","","","","","","","","","","","","","","","","","","","","","",""
"pit-trial","8","128771","0.0-2.0-4.0-0.0","battery-v0.2","","""event"",""trial"",""time""
""focus"",""0"",""0""
""fullscreenenter"",""1"",""2809""
","
","""event"",""trial"",""time""
""focus"",""0"",""0""
","""event"",""trial"",""time""
""fullscreenenter"",""1"",""2809""
","
","","","1077","","","21","13362","5850","&#9784;","elianto","#FFFFF080"," "," ","1","&#10004","[1993]","1","0","0","","","","","","","",""
"pit-trial","9","132313","0.0-2.0-4.1-0.1","battery-v0.2","","""event"",""trial"",""time""
""focus"",""0"",""0""
""fullscreenenter"",""1"",""2809""
","
","""event"",""trial"",""time""
""focus"",""0"",""0""
","""event"",""trial"",""time""
""fullscreenenter"",""1"",""2809""
","
","","","682","","","21","13362","5850","&#9784;","elianto","#FFFFF080"," "," ","1","&#10004","[1538]","1","0","0","","","","","","","",""
"pit-trial","10","135916","0.0-2.0-4.2-0.2","battery-v0.2","","""event"",""trial"",""time""
""focus"",""0"",""0""
""fullscreenenter"",""1"",""2809""
","
","""event"",""trial"",""time""
""focus"",""0"",""0""
","""event"",""trial"",""time""
""fullscreenenter"",""1"",""2809""
","
","","","739","","","21","13362","5850","&#9784;","elianto","#FFFFF080"," "," ","1","&#10004","[1598]","1","0","0","","","","","","","",""
"pit-trial","11","139444","0.0-2.0-4.3-0.3","battery-v0.2","","""event"",""trial"",""time""
""focus"",""0"",""0""
""fullscreenenter"",""1"",""2809""
","
","""event"",""trial"",""time""
""focus"",""0"",""0""
","""event"",""trial"",""time""
""fullscreenenter"",""1"",""2809""
","
","","","641","","","21","13362","5850","&#9784;","elianto","#FFFFF080"," "," ","1","&#10004","[1513,3233]","2","0","0","","","","","","","",""
"pit-trial","12","143252","0.0-2.0-4.4-0.4","battery-v0.2","","""event"",""trial"",""time""
""focus"",""0"",""0""
""fullscreenenter"",""1"",""2809""
","
","""event"",""trial"",""time""
""focus"",""0"",""0""
","""event"",""trial"",""time""
""fullscreenenter"",""1"",""2809""
","
","","","939","","","21","13362","5850","&#9784;","elianto","#FFFFF080"," "," ","1","&#10004","[1801]","1","0","0","","","","","","","",""
"pit-instructions","13","164772","0.0-2.0-5.0","battery-v0.2","","""event"",""trial"",""time""
""focus"",""0"",""0""
""fullscreenenter"",""1"",""2809""
","
","""event"",""trial"",""time""
""focus"",""0"",""0""
","""event"",""trial"",""time""
""fullscreenenter"",""1"",""2809""
","
","","[{""page_index"":0,""viewing_time"":5328},{""page_index"":1,""viewing_time"":5767},{""page_index"":2,""viewing_time"":5240},{""page_index"":3,""viewing_time"":5185}]","21520","","","","","","","","","","","","","","","","","","","","","","","",""
"pit-trial","14","169624","0.0-2.0-6.0-0.0","battery-v0.2","","""event"",""trial"",""time""
""focus"",""0"",""0""
""fullscreenenter"",""1"",""2809""
","
","""event"",""trial"",""time""
""focus"",""0"",""0""
","""event"",""trial"",""time""
""fullscreenenter"",""1"",""2809""
","
","","","-1","","","21","13362","5850","&#9854;","elianto","#FFFFF080","-1","-1","1","&#10004","[]","0","0","1","","","","","","","",""
"pit-trial","15","174489","0.0-2.0-6.1-0.1","battery-v0.2","","""event"",""trial"",""time""
""focus"",""0"",""0""
""fullscreenenter"",""1"",""2809""
","
","""event"",""trial"",""time""
""focus"",""0"",""0""
","""event"",""trial"",""time""
""fullscreenenter"",""1"",""2809""
","
","","","-1","","","21","13362","5850","&#9854;","elianto","#FFFFF080","-1","-1","1","&#10004","[]","0","0","1","","","","","","","",""
"pit-trial","16","179348","0.0-2.0-6.2-0.2","battery-v0.2","","""event"",""trial"",""time""
""focus"",""0"",""0""
""fullscreenenter"",""1"",""2809""
","
","""event"",""trial"",""time""
""focus"",""0"",""0""
","""event"",""trial"",""time""
""fullscreenenter"",""1"",""2809""
","
","","","-1","","","21","13362","5850","&#9854;","elianto","#FFFFF080","-1","-1","1","&#10004","[]","0","0","1","","","","","","","",""
"pit-trial","17","184499","0.0-2.0-6.3-0.3","battery-v0.2","","""event"",""trial"",""time""
""focus"",""0"",""0""
""fullscreenenter"",""1"",""2809""
","
","""event"",""trial"",""time""
""focus"",""0"",""0""
","""event"",""trial"",""time""
""fullscreenenter"",""1"",""2809""
","
","","","-1","","","21","13362","5850","&#9854;","elianto","#FFFFF080","-1","-1","1","&#10004","[]","0","0","1","","","","","","","",""
"pit-trial","18","189359","0.0-2.0-6.4-0.4","battery-v0.2","","""event"",""trial"",""time""
""focus"",""0"",""0""
""fullscreenenter"",""1"",""2809""
","
","""event"",""trial"",""time""
""focus"",""0"",""0""
","""event"",""trial"",""time""
""fullscreenenter"",""1"",""2809""
","
","","","-1","","","21","13362","5850","&#9854;","elianto","#FFFFF080","-1","-1","1","&#10004","[]","0","0","1","","","","","","","",""
"pit-instructions","19","309085","0.0-2.0-7.0","battery-v0.2","","""event"",""trial"",""time""
""focus"",""0"",""0""
""fullscreenenter"",""1"",""2809""
","
","""event"",""trial"",""time""
""focus"",""0"",""0""
","""event"",""trial"",""time""
""fullscreenenter"",""1"",""2809""
","
","","[{""page_index"":0,""viewing_time"":5732},{""page_index"":1,""viewing_time"":6999},{""page_index"":2,""viewing_time"":6033},{""page_index"":3,""viewing_time"":6480},{""page_index"":4,""viewing_time"":5656},{""page_index"":5,""viewing_time"":5519},{""page_index"":6,""viewing_time"":4601},{""page_index"":7,""viewing_time"":8000},{""page_index"":8,""viewing_time"":6992},{""page_index"":9,""viewing_time"":6175},{""page_index"":10,""viewing_time"":6528},{""page_index"":11,""viewing_time"":7073},{""page_index"":12,""viewing_time"":8127},{""page_index"":13,""viewing_time"":7392},{""page_index"":14,""viewing_time"":7561},{""page_index"":15,""viewing_time"":6936},{""page_index"":16,""viewing_time"":6544},{""page_index"":17,""viewing_time"":7375}]","119724","","","","","","","","","","","","","","","","","","","","","","","",""
"pit-trial","20","313044","0.0-2.0-8.0-0.0","battery-v0.2","","""event"",""trial"",""time""
""focus"",""0"",""0""
""fullscreenenter"",""1"",""2809""
","
","""event"",""trial"",""time""
""focus"",""0"",""0""
","""event"",""trial"",""time""
""fullscreenenter"",""1"",""2809""
","
","","","969","","","21","13362","5850","&#9776;","elianto","#3366ff99"," "," ","1","+10","[1827]","1","0","1","","","","","","","",""
"pit-trial","21","316519","0.0-2.0-8.0-1.0","battery-v0.2","","""event"",""trial"",""time""
""focus"",""0"",""0""
""fullscreenenter"",""1"",""2809""
","
","""event"",""trial"",""time""
""focus"",""0"",""0""
","""event"",""trial"",""time""
""fullscreenenter"",""1"",""2809""
","
","","","575","","","21","13362","5850","&#9776;","elianto","#3366ff99"," "," ","1","+10","[1461]","1","0","1","","","","","","","",""
"pit-trial","22","319908","0.0-2.0-8.0-2.0","battery-v0.2","","""event"",""trial"",""time""
""focus"",""0"",""0""
""fullscreenenter"",""1"",""2809""
","
","""event"",""trial"",""time""
""focus"",""0"",""0""
","""event"",""trial"",""time""
""fullscreenenter"",""1"",""2809""
","
","","","518","","","21","13362","5850","&#9776;","elianto","#3366ff99"," "," ","1","+10","[1377]","1","0","1","","","","","","","",""
"pit-trial","23","323209","0.0-2.0-8.0-3.0","battery-v0.2","","""event"",""trial"",""time""
""focus"",""0"",""0""
""fullscreenenter"",""1"",""2809""
","
","""event"",""trial"",""time""
""focus"",""0"",""0""
","""event"",""trial"",""time""
""fullscreenenter"",""1"",""2809""
","
","","","411","","","21","13362","5850","&#9776;","elianto","#3366ff99"," "," ","1","0","[1276]","1","0","1","","","","","","","",""
"pit-trial","24","326520","0.0-2.0-8.0-4.0","battery-v0.2","","""event"",""trial"",""time""
""focus"",""0"",""0""
""fullscreenenter"",""1"",""2809""
","
","""event"",""trial"",""time""
""focus"",""0"",""0""
","""event"",""trial"",""time""
""fullscreenenter"",""1"",""2809""
","
","","","452","","","21","13362","5850","&#9776;","elianto","#3366ff99"," "," ","1","+10","[1311]","1","0","1","","","","","","","",""
"pit-trial","25","329914","0.0-2.0-8.1-0.1","battery-v0.2","","""event"",""trial"",""time""
""focus"",""0"",""0""
""fullscreenenter"",""1"",""2809""
","
","""event"",""trial"",""time""
""focus"",""0"",""0""
","""event"",""trial"",""time""
""fullscreenenter"",""1"",""2809""
","
","","","451","","","21","13362","5850","&#9776;","elianto","#3366ff99"," "," ","1","+10","[1310]","1","0","1","","","","","","","",""
"pit-trial","26","333319","0.0-2.0-8.1-1.1","battery-v0.2","","""event"",""trial"",""time""
""focus"",""0"",""0""
""fullscreenenter"",""1"",""2809""
","
","""event"",""trial"",""time""
""focus"",""0"",""0""
","""event"",""trial"",""time""
""fullscreenenter"",""1"",""2809""
","
","","","538","","","21","13362","5850","&#9776;","elianto","#3366ff99"," "," ","1","+10","[1396]","1","0","1","","","","","","","",""
"pit-trial","27","336585","0.0-2.0-8.1-2.1","battery-v0.2","","""event"",""trial"",""time""
""focus"",""0"",""0""
""fullscreenenter"",""1"",""2809""
","
","""event"",""trial"",""time""
""focus"",""0"",""0""
","""event"",""trial"",""time""
""fullscreenenter"",""1"",""2809""
","
","","","397","","","21","13362","5850","&#9776;","elianto","#3366ff99"," "," ","1","+10","[1256]","1","0","1","","","","","","","",""
"pit-trial","28","339994","0.0-2.0-8.1-3.1","battery-v0.2","","""event"",""trial"",""time""
""focus"",""0"",""0""
""fullscreenenter"",""1"",""2809""
","
","""event"",""trial"",""time""
""focus"",""0"",""0""
","""event"",""trial"",""time""
""fullscreenenter"",""1"",""2809""
","
","","","512","","","21","13362","5850","&#9776;","elianto","#3366ff99"," "," ","1","0","[1406]","1","0","1","","","","","","","",""
"pit-trial","29","343541","0.0-2.0-8.1-4.1","battery-v0.2","","""event"",""trial"",""time""
""focus"",""0"",""0""
""fullscreenenter"",""1"",""2809""
","
","""event"",""trial"",""time""
""focus"",""0"",""0""
","""event"",""trial"",""time""
""fullscreenenter"",""1"",""2809""
","
","","","586","","","21","13362","5850","&#9776;","elianto","#3366ff99"," "," ","1","+10","[1444]","1","0","1","","","","","","","",""
"pit-trial","30","346971","0.0-2.0-8.2-0.2","battery-v0.2","","""event"",""trial"",""time""
""focus"",""0"",""0""
""fullscreenenter"",""1"",""2809""
","
","""event"",""trial"",""time""
""focus"",""0"",""0""
","""event"",""trial"",""time""
""fullscreenenter"",""1"",""2809""
","
","","","542","","","21","13362","5850","&#9776;","elianto","#3366ff99"," "," ","1","+10","[1417]","1","0","1","","","","","","","",""
"pit-trial","31","350437","0.0-2.0-8.2-1.2","battery-v0.2","","""event"",""trial"",""time""
""focus"",""0"",""0""
""fullscreenenter"",""1"",""2809""
","
","""event"",""trial"",""time""
""focus"",""0"",""0""
","""event"",""trial"",""time""
""fullscreenenter"",""1"",""2809""
","
","","","600","","","21","13362","5850","&#9776;","elianto","#3366ff99"," "," ","1","+10","[1459]","1","0","1","","","","","","","",""
"pit-trial","32","353782","0.0-2.0-8.2-2.2","battery-v0.2","","""event"",""trial"",""time""
""focus"",""0"",""0""
""fullscreenenter"",""1"",""2809""
","
","""event"",""trial"",""time""
""focus"",""0"",""0""
","""event"",""trial"",""time""
""fullscreenenter"",""1"",""2809""
","
","","","486","","","21","13362","5850","&#9776;","elianto","#3366ff99"," "," ","1","+10","[1344]","1","0","1","","","","","","","",""
"pit-trial","33","357060","0.0-2.0-8.2-3.2","battery-v0.2","","""event"",""trial"",""time""
""focus"",""0"",""0""
""fullscreenenter"",""1"",""2809""
","
","""event"",""trial"",""time""
""focus"",""0"",""0""
","""event"",""trial"",""time""
""fullscreenenter"",""1"",""2809""
","
","","","409","","","21","13362","5850","&#9776;","elianto","#3366ff99"," "," ","1","0","[1271]","1","0","1","","","","","","","",""
"pit-trial","34","360225","0.0-2.0-8.2-4.2","battery-v0.2","","""event"",""trial"",""time""
""focus"",""0"",""0""
""fullscreenenter"",""1"",""2809""
","
","""event"",""trial"",""time""
""focus"",""0"",""0""
","""event"",""trial"",""time""
""fullscreenenter"",""1"",""2809""
","
","","","296","","","21","13362","5850","&#9776;","elianto","#3366ff99"," "," ","1","+10","[1153]","1","0","1","","","","","","","",""
"call-function","35","360225","0.0-2.0-9.0","battery-v0.2","","""event"",""trial"",""time""
""focus"",""0"",""0""
""fullscreenenter"",""1"",""2809""
","
","""event"",""trial"",""time""
""focus"",""0"",""0""
","""event"",""trial"",""time""
""fullscreenenter"",""1"",""2809""
","
","","","","","","","","","","","","","","","","","","","","","","","","","","",""
"pit-instructions","36","399372","0.0-2.0-10.0","battery-v0.2","","""event"",""trial"",""time""
""focus"",""0"",""0""
""fullscreenenter"",""1"",""2809""
","
","""event"",""trial"",""time""
""focus"",""0"",""0""
","""event"",""trial"",""time""
""fullscreenenter"",""1"",""2809""
","
","","[{""page_index"":0,""viewing_time"":6010},{""page_index"":1,""viewing_time"":7161},{""page_index"":2,""viewing_time"":9336},{""page_index"":3,""viewing_time"":8983},{""page_index"":4,""viewing_time"":7656}]","39146","","","","","","","","","","","","","","","","","","","","","","","",""
"pit-trial","37","404252","0.0-2.0-11.0-0.0","battery-v0.2","","""event"",""trial"",""time""
""focus"",""0"",""0""
""fullscreenenter"",""1"",""2809""
","
","""event"",""trial"",""time""
""focus"",""0"",""0""
","""event"",""trial"",""time""
""fullscreenenter"",""1"",""2809""
","
","","","-1","","","21","13362","5850","&#9761;","elianto","#3366ff99","-1","-1","1","+10","[]","0","0","2","","","","","","","",""
"pit-trial","38","409257","0.0-2.0-11.0-1.0","battery-v0.2","","""event"",""trial"",""time""
""focus"",""0"",""0""
""fullscreenenter"",""1"",""2809""
","
","""event"",""trial"",""time""
""focus"",""0"",""0""
","""event"",""trial"",""time""
""fullscreenenter"",""1"",""2809""
","
","","","-1","","","21","13362","5850","&#9761;","elianto","#3366ff99","-1","-1","1","+10","[]","0","0","2","","","","","","","",""
"pit-trial","39","414117","0.0-2.0-11.0-2.0","battery-v0.2","","""event"",""trial"",""time""
""focus"",""0"",""0""
""fullscreenenter"",""1"",""2809""
","
","""event"",""trial"",""time""
""focus"",""0"",""0""
","""event"",""trial"",""time""
""fullscreenenter"",""1"",""2809""
","
","","","-1","","","21","13362","5850","&#9761;","elianto","#3366ff99","-1","-1","1","+10","[]","0","0","2","","","","","","","",""
"pit-trial","40","418980","0.0-2.0-11.0-3.0","battery-v0.2","","""event"",""trial"",""time""
""focus"",""0"",""0""
""fullscreenenter"",""1"",""2809""
","
","""event"",""trial"",""time""
""focus"",""0"",""0""
","""event"",""trial"",""time""
""fullscreenenter"",""1"",""2809""
","
","","","-1","","","21","13362","5850","&#9761;","elianto","#3366ff99","-1","-1","1","0","[]","0","0","2","","","","","","","",""
"pit-trial","41","423843","0.0-2.0-11.0-4.0","battery-v0.2","","""event"",""trial"",""time""
""focus"",""0"",""0""
""fullscreenenter"",""1"",""2809""
","
","""event"",""trial"",""time""
""focus"",""0"",""0""
","""event"",""trial"",""time""
""fullscreenenter"",""1"",""2809""
","
","","","-1","","","21","13362","5850","&#9761;","elianto","#3366ff99","-1","-1","1","+10","[]","0","0","2","","","","","","","",""
"pit-trial","42","428712","0.0-2.0-11.1-0.1","battery-v0.2","","""event"",""trial"",""time""
""focus"",""0"",""0""
""fullscreenenter"",""1"",""2809""
","
","""event"",""trial"",""time""
""focus"",""0"",""0""
","""event"",""trial"",""time""
""fullscreenenter"",""1"",""2809""
","
","","","-1","","","21","13362","5850","&#9761;","elianto","#3366ff99","-1","-1","1","+10","[]","0","0","2","","","","","","","",""
"pit-trial","43","433583","0.0-2.0-11.1-1.1","battery-v0.2","","""event"",""trial"",""time""
""focus"",""0"",""0""
""fullscreenenter"",""1"",""2809""
","
","""event"",""trial"",""time""
""focus"",""0"",""0""
","""event"",""trial"",""time""
""fullscreenenter"",""1"",""2809""
","
","","","-1","","","21","13362","5850","&#9761;","elianto","#3366ff99","-1","-1","1","+10","[]","0","0","2","","","","","","","",""
"pit-trial","44","438455","0.0-2.0-11.1-2.1","battery-v0.2","","""event"",""trial"",""time""
""focus"",""0"",""0""
""fullscreenenter"",""1"",""2809""
","
","""event"",""trial"",""time""
""focus"",""0"",""0""
","""event"",""trial"",""time""
""fullscreenenter"",""1"",""2809""
","
","","","-1","","","21","13362","5850","&#9761;","elianto","#3366ff99","-1","-1","1","+10","[]","0","0","2","","","","","","","",""
"pit-trial","45","443311","0.0-2.0-11.1-3.1","battery-v0.2","","""event"",""trial"",""time""
""focus"",""0"",""0""
""fullscreenenter"",""1"",""2809""
","
","""event"",""trial"",""time""
""focus"",""0"",""0""
","""event"",""trial"",""time""
""fullscreenenter"",""1"",""2809""
","
","","","-1","","","21","13362","5850","&#9761;","elianto","#3366ff99","-1","-1","1","0","[]","0","0","2","","","","","","","",""
"pit-trial","46","448172","0.0-2.0-11.1-4.1","battery-v0.2","","""event"",""trial"",""time""
""focus"",""0"",""0""
""fullscreenenter"",""1"",""2809""
","
","""event"",""trial"",""time""
""focus"",""0"",""0""
","""event"",""trial"",""time""
""fullscreenenter"",""1"",""2809""
","
","","","-1","","","21","13362","5850","&#9761;","elianto","#3366ff99","-1","-1","1","+10","[]","0","0","2","","","","","","","",""
"pit-trial","47","453034","0.0-2.0-11.2-0.2","battery-v0.2","","""event"",""trial"",""time""
""focus"",""0"",""0""
""fullscreenenter"",""1"",""2809""
","
","""event"",""trial"",""time""
""focus"",""0"",""0""
","""event"",""trial"",""time""
""fullscreenenter"",""1"",""2809""
","
","","","-1","","","21","13362","5850","&#9761;","elianto","#3366ff99","-1","-1","1","+10","[]","0","0","2","","","","","","","",""
"pit-trial","48","457902","0.0-2.0-11.2-1.2","battery-v0.2","","""event"",""trial"",""time""
""focus"",""0"",""0""
""fullscreenenter"",""1"",""2809""
","
","""event"",""trial"",""time""
""focus"",""0"",""0""
","""event"",""trial"",""time""
""fullscreenenter"",""1"",""2809""
","
","","","-1","","","21","13362","5850","&#9761;","elianto","#3366ff99","-1","-1","1","+10","[]","0","0","2","","","","","","","",""
"pit-trial","49","462774","0.0-2.0-11.2-2.2","battery-v0.2","","""event"",""trial"",""time""
""focus"",""0"",""0""
""fullscreenenter"",""1"",""2809""
","
","""event"",""trial"",""time""
""focus"",""0"",""0""
","""event"",""trial"",""time""
""fullscreenenter"",""1"",""2809""
","
","","","-1","","","21","13362","5850","&#9761;","elianto","#3366ff99","-1","-1","1","+10","[]","0","0","2","","","","","","","",""
"pit-trial","50","467628","0.0-2.0-11.2-3.2","battery-v0.2","","""event"",""trial"",""time""
""focus"",""0"",""0""
""fullscreenenter"",""1"",""2809""
","
","""event"",""trial"",""time""
""focus"",""0"",""0""
","""event"",""trial"",""time""
""fullscreenenter"",""1"",""2809""
","
","","","-1","","","21","13362","5850","&#9761;","elianto","#3366ff99","-1","-1","1","0","[]","0","0","2","","","","","","","",""
"pit-trial","51","472491","0.0-2.0-11.2-4.2","battery-v0.2","","""event"",""trial"",""time""
""focus"",""0"",""0""
""fullscreenenter"",""1"",""2809""
","
","""event"",""trial"",""time""
""focus"",""0"",""0""
","""event"",""trial"",""time""
""fullscreenenter"",""1"",""2809""
","
","","","-1","","","21","13362","5850","&#9761;","elianto","#3366ff99","-1","-1","1","+10","[]","0","0","2","","","","","","","",""
"pit-trial","52","477346","0.0-2.0-11.3-0.3","battery-v0.2","","""event"",""trial"",""time""
""focus"",""0"",""0""
""fullscreenenter"",""1"",""2809""
","
","""event"",""trial"",""time""
""focus"",""0"",""0""
","""event"",""trial"",""time""
""fullscreenenter"",""1"",""2809""
","
","","","-1","","","21","13362","5850","&#9761;","elianto","#3366ff99","-1","-1","1","+10","[]","0","0","2","","","","","","","",""
"pit-trial","53","482220","0.0-2.0-11.3-1.3","battery-v0.2","","""event"",""trial"",""time""
""focus"",""0"",""0""
""fullscreenenter"",""1"",""2809""
","
","""event"",""trial"",""time""
""focus"",""0"",""0""
","""event"",""trial"",""time""
""fullscreenenter"",""1"",""2809""
","
","","","-1","","","21","13362","5850","&#9761;","elianto","#3366ff99","-1","-1","1","+10","[]","0","0","2","","","","","","","",""
"pit-trial","54","487088","0.0-2.0-11.3-2.3","battery-v0.2","","""event"",""trial"",""time""
""focus"",""0"",""0""
""fullscreenenter"",""1"",""2809""
","
","""event"",""trial"",""time""
""focus"",""0"",""0""
","""event"",""trial"",""time""
""fullscreenenter"",""1"",""2809""
","
","","","-1","","","21","13362","5850","&#9761;","elianto","#3366ff99","-1","-1","1","+10","[]","0","0","2","","","","","","","",""
"pit-trial","55","491956","0.0-2.0-11.3-3.3","battery-v0.2","","""event"",""trial"",""time""
""focus"",""0"",""0""
""fullscreenenter"",""1"",""2809""
","
","""event"",""trial"",""time""
""focus"",""0"",""0""
","""event"",""trial"",""time""
""fullscreenenter"",""1"",""2809""
","
","","","-1","","","21","13362","5850","&#9761;","elianto","#3366ff99","-1","-1","1","0","[]","0","0","2","","","","","","","",""
"pit-trial","56","496817","0.0-2.0-11.3-4.3","battery-v0.2","","""event"",""trial"",""time""
""focus"",""0"",""0""
""fullscreenenter"",""1"",""2809""
","
","""event"",""trial"",""time""
""focus"",""0"",""0""
","""event"",""trial"",""time""
""fullscreenenter"",""1"",""2809""
","
","","","-1","","","21","13362","5850","&#9761;","elianto","#3366ff99","-1","-1","1","+10","[]","0","0","2","","","","","","","",""
"call-function","57","496817","0.0-2.0-12.0","battery-v0.2","","""event"",""trial"",""time""
""focus"",""0"",""0""
""fullscreenenter"",""1"",""2809""
","
","""event"",""trial"",""time""
""focus"",""0"",""0""
","""event"",""trial"",""time""
""fullscreenenter"",""1"",""2809""
","
","","","","","","","","","","","","","","","","","","","","","","","","","","",""
"pit-instructions","58","528604","0.0-2.0-13.0","battery-v0.2","","""event"",""trial"",""time""
""focus"",""0"",""0""
""fullscreenenter"",""1"",""2809""
","
","""event"",""trial"",""time""
""focus"",""0"",""0""
","""event"",""trial"",""time""
""fullscreenenter"",""1"",""2809""
","
","","[{""page_index"":0,""viewing_time"":5233},{""page_index"":1,""viewing_time"":7448},{""page_index"":2,""viewing_time"":3464},{""page_index"":3,""viewing_time"":10552},{""page_index"":4,""viewing_time"":5089}]","31786","","","","","","","","","","","","","","","","","","","","","","","",""
"pit-trial","59","531931","0.0-2.0-14.0-0.0","battery-v0.2","","""event"",""trial"",""time""
""focus"",""0"",""0""
""fullscreenenter"",""1"",""2809""
","
","""event"",""trial"",""time""
""focus"",""0"",""0""
","""event"",""trial"",""time""
""fullscreenenter"",""1"",""2809""
","
","","","465","","","21","13362","5850","&#9826;","elianto","#f73b6a7A","-1"," ","0","-10","[1323]","1","0","3","","","","","","","",""
"pit-trial","60","536796","0.0-2.0-14.0-1.0","battery-v0.2","","""event"",""trial"",""time""
""focus"",""0"",""0""
""fullscreenenter"",""1"",""2809""
","
","""event"",""trial"",""time""
""focus"",""0"",""0""
","""event"",""trial"",""time""
""fullscreenenter"",""1"",""2809""
","
","","","-1","","","21","13362","5850","&#9826;","elianto","#f73b6a7A","-1","-1","1","0","[]","0","0","3","","","","","","","",""
"pit-trial","61","541669","0.0-2.0-14.0-2.0","battery-v0.2","","""event"",""trial"",""time""
""focus"",""0"",""0""
""fullscreenenter"",""1"",""2809""
","
","""event"",""trial"",""time""
""focus"",""0"",""0""
","""event"",""trial"",""time""
""fullscreenenter"",""1"",""2809""
","
","","","-1","","","21","13362","5850","&#9826;","elianto","#f73b6a7A","-1","-1","1","0","[]","0","0","3","","","","","","","",""
"pit-trial","62","546800","0.0-2.0-14.0-3.0","battery-v0.2","","""event"",""trial"",""time""
""focus"",""0"",""0""
""fullscreenenter"",""1"",""2809""
","
","""event"",""trial"",""time""
""focus"",""0"",""0""
","""event"",""trial"",""time""
""fullscreenenter"",""1"",""2809""
","
","","","-1","","","21","13362","5850","&#9826;","elianto","#f73b6a7A","-1","-1","1","-10","[]","0","0","3","","","","","","","",""
"pit-trial","63","551663","0.0-2.0-14.0-4.0","battery-v0.2","","""event"",""trial"",""time""
""focus"",""0"",""0""
""fullscreenenter"",""1"",""2809""
","
","""event"",""trial"",""time""
""focus"",""0"",""0""
","""event"",""trial"",""time""
""fullscreenenter"",""1"",""2809""
","
","","","-1","","","21","13362","5850","&#9826;","elianto","#f73b6a7A","-1","-1","1","0","[]","0","0","3","","","","","","","",""
"pit-trial","64","556520","0.0-2.0-14.1-0.1","battery-v0.2","","""event"",""trial"",""time""
""focus"",""0"",""0""
""fullscreenenter"",""1"",""2809""
","
","""event"",""trial"",""time""
""focus"",""0"",""0""
","""event"",""trial"",""time""
""fullscreenenter"",""1"",""2809""
","
","","","-1","","","21","13362","5850","&#9826;","elianto","#f73b6a7A","-1","-1","1","0","[]","0","0","3","","","","","","","",""
"pit-trial","65","561379","0.0-2.0-14.1-1.1","battery-v0.2","","""event"",""trial"",""time""
""focus"",""0"",""0""
""fullscreenenter"",""1"",""2809""
","
","""event"",""trial"",""time""
""focus"",""0"",""0""
","""event"",""trial"",""time""
""fullscreenenter"",""1"",""2809""
","
","","","-1","","","21","13362","5850","&#9826;","elianto","#f73b6a7A","-1","-1","1","0","[]","0","0","3","","","","","","","",""
"pit-trial","66","566245","0.0-2.0-14.1-2.1","battery-v0.2","","""event"",""trial"",""time""
""focus"",""0"",""0""
""fullscreenenter"",""1"",""2809""
","
","""event"",""trial"",""time""
""focus"",""0"",""0""
","""event"",""trial"",""time""
""fullscreenenter"",""1"",""2809""
","
","","","-1","","","21","13362","5850","&#9826;","elianto","#f73b6a7A","-1","-1","1","0","[]","0","0","3","","","","","","","",""
"pit-trial","67","571111","0.0-2.0-14.1-3.1","battery-v0.2","","""event"",""trial"",""time""
""focus"",""0"",""0""
""fullscreenenter"",""1"",""2809""
","
","""event"",""trial"",""time""
""focus"",""0"",""0""
","""event"",""trial"",""time""
""fullscreenenter"",""1"",""2809""
","
","","","-1","","","21","13362","5850","&#9826;","elianto","#f73b6a7A","-1","-1","1","-10","[]","0","0","3","","","","","","","",""
"pit-trial","68","575981","0.0-2.0-14.1-4.1","battery-v0.2","","""event"",""trial"",""time""
""focus"",""0"",""0""
""fullscreenenter"",""1"",""2809""
","
","""event"",""trial"",""time""
""focus"",""0"",""0""
","""event"",""trial"",""time""
""fullscreenenter"",""1"",""2809""
","
","","","-1","","","21","13362","5850","&#9826;","elianto","#f73b6a7A","-1","-1","1","0","[]","0","0","3","","","","","","","",""
"pit-trial","69","580856","0.0-2.0-14.2-0.2","battery-v0.2","","""event"",""trial"",""time""
""focus"",""0"",""0""
""fullscreenenter"",""1"",""2809""
","
","""event"",""trial"",""time""
""focus"",""0"",""0""
","""event"",""trial"",""time""
""fullscreenenter"",""1"",""2809""
","
","","","-1","","","21","13362","5850","&#9826;","elianto","#f73b6a7A","-1","-1","1","0","[]","0","0","3","","","","","","","",""
"pit-trial","70","585733","0.0-2.0-14.2-1.2","battery-v0.2","","""event"",""trial"",""time""
""focus"",""0"",""0""
""fullscreenenter"",""1"",""2809""
","
","""event"",""trial"",""time""
""focus"",""0"",""0""
","""event"",""trial"",""time""
""fullscreenenter"",""1"",""2809""
","
","","","-1","","","21","13362","5850","&#9826;","elianto","#f73b6a7A","-1","-1","1","0","[]","0","0","3","","","","","","","",""
"pit-trial","71","590601","0.0-2.0-14.2-2.2","battery-v0.2","","""event"",""trial"",""time""
""focus"",""0"",""0""
""fullscreenenter"",""1"",""2809""
","
","""event"",""trial"",""time""
""focus"",""0"",""0""
","""event"",""trial"",""time""
""fullscreenenter"",""1"",""2809""
","
","","","-1","","","21","13362","5850","&#9826;","elianto","#f73b6a7A","-1","-1","1","0","[]","0","0","3","","","","","","","",""
"pit-trial","72","595473","0.0-2.0-14.2-3.2","battery-v0.2","","""event"",""trial"",""time""
""focus"",""0"",""0""
""fullscreenenter"",""1"",""2809""
","
","""event"",""trial"",""time""
""focus"",""0"",""0""
","""event"",""trial"",""time""
""fullscreenenter"",""1"",""2809""
","
","","","-1","","","21","13362","5850","&#9826;","elianto","#f73b6a7A","-1","-1","1","-10","[]","0","0","3","","","","","","","",""
"pit-trial","73","600483","0.0-2.0-14.2-4.2","battery-v0.2","","""event"",""trial"",""time""
""focus"",""0"",""0""
""fullscreenenter"",""1"",""2809""
","
","""event"",""trial"",""time""
""focus"",""0"",""0""
","""event"",""trial"",""time""
""fullscreenenter"",""1"",""2809""
","
","","","-1","","","21","13362","5850","&#9826;","elianto","#f73b6a7A","-1","-1","1","0","[]","0","0","3","","","","","","","",""
"pit-trial","74","605479","0.0-2.0-14.3-0.3","battery-v0.2","","""event"",""trial"",""time""
""focus"",""0"",""0""
""fullscreenenter"",""1"",""2809""
","
","""event"",""trial"",""time""
""focus"",""0"",""0""
","""event"",""trial"",""time""
""fullscreenenter"",""1"",""2809""
","
","","","-1","","","21","13362","5850","&#9826;","elianto","#f73b6a7A","-1","-1","1","0","[]","0","0","3","","","","","","","",""
"pit-trial","75","610349","0.0-2.0-14.3-1.3","battery-v0.2","","""event"",""trial"",""time""
""focus"",""0"",""0""
""fullscreenenter"",""1"",""2809""
","
","""event"",""trial"",""time""
""focus"",""0"",""0""
","""event"",""trial"",""time""
""fullscreenenter"",""1"",""2809""
","
","","","-1","","","21","13362","5850","&#9826;","elianto","#f73b6a7A","-1","-1","1","0","[]","0","0","3","","","","","","","",""
"pit-trial","76","615225","0.0-2.0-14.3-2.3","battery-v0.2","","""event"",""trial"",""time""
""focus"",""0"",""0""
""fullscreenenter"",""1"",""2809""
","
","""event"",""trial"",""time""
""focus"",""0"",""0""
","""event"",""trial"",""time""
""fullscreenenter"",""1"",""2809""
","
","","","-1","","","21","13362","5850","&#9826;","elianto","#f73b6a7A","-1","-1","1","0","[]","0","0","3","","","","","","","",""
"pit-trial","77","620084","0.0-2.0-14.3-3.3","battery-v0.2","","""event"",""trial"",""time""
""focus"",""0"",""0""
""fullscreenenter"",""1"",""2809""
","
","""event"",""trial"",""time""
""focus"",""0"",""0""
","""event"",""trial"",""time""
""fullscreenenter"",""1"",""2809""
","
","","","-1","","","21","13362","5850","&#9826;","elianto","#f73b6a7A","-1","-1","1","-10","[]","0","0","3","","","","","","","",""
"pit-trial","78","624940","0.0-2.0-14.3-4.3","battery-v0.2","","""event"",""trial"",""time""
""focus"",""0"",""0""
""fullscreenenter"",""1"",""2809""
","
","""event"",""trial"",""time""
""focus"",""0"",""0""
","""event"",""trial"",""time""
""fullscreenenter"",""1"",""2809""
","
","","","-1","","","21","13362","5850","&#9826;","elianto","#f73b6a7A","-1","-1","1","0","[]","0","0","3","","","","","","","",""
"call-function","79","624940","0.0-2.0-15.0","battery-v0.2","","""event"",""trial"",""time""
""focus"",""0"",""0""
""fullscreenenter"",""1"",""2809""
","
","""event"",""trial"",""time""
""focus"",""0"",""0""
","""event"",""trial"",""time""
""fullscreenenter"",""1"",""2809""
","
","","","","","","","","","","","","","","","","","","","","","","","","","","",""
"pit-instructions","80","650492","0.0-2.0-16.0","battery-v0.2","","""event"",""trial"",""time""
""focus"",""0"",""0""
""fullscreenenter"",""1"",""2809""
","
","""event"",""trial"",""time""
""focus"",""0"",""0""
","""event"",""trial"",""time""
""fullscreenenter"",""1"",""2809""
","
","","[{""page_index"":0,""viewing_time"":6945},{""page_index"":1,""viewing_time"":8567},{""page_index"":2,""viewing_time"":4720},{""page_index"":3,""viewing_time"":5320}]","25552","","","","","","","","","","","","","","","","","","","","","","","",""
"pit-trial","81","653792","0.0-2.0-17.0-0.0","battery-v0.2","","""event"",""trial"",""time""
""focus"",""0"",""0""
""fullscreenenter"",""1"",""2809""
","
","""event"",""trial"",""time""
""focus"",""0"",""0""
","""event"",""trial"",""time""
""fullscreenenter"",""1"",""2809""
","
","","","410","","","21","13362","5850","&#9789;","elianto","#f73b6a7A"," "," ","1","0","[1291]","1","0","4","","","","","","","",""
"pit-trial","82","656944","0.0-2.0-17.0-1.0","battery-v0.2","","""event"",""trial"",""time""
""focus"",""0"",""0""
""fullscreenenter"",""1"",""2809""
","
","""event"",""trial"",""time""
""focus"",""0"",""0""
","""event"",""trial"",""time""
""fullscreenenter"",""1"",""2809""
","
","","","271","","","21","13362","5850","&#9789;","elianto","#f73b6a7A"," "," ","1","0","[1142]","1","0","4","","","","","","","",""
"pit-trial","83","660121","0.0-2.0-17.0-2.0","battery-v0.2","","""event"",""trial"",""time""
""focus"",""0"",""0""
""fullscreenenter"",""1"",""2809""
","
","""event"",""trial"",""time""
""focus"",""0"",""0""
","""event"",""trial"",""time""
""fullscreenenter"",""1"",""2809""
","
","","","319","","","21","13362","5850","&#9789;","elianto","#f73b6a7A"," "," ","1","0","[1175]","1","0","4","","","","","","","",""
"pit-trial","84","663280","0.0-2.0-17.0-3.0","battery-v0.2","","""event"",""trial"",""time""
""focus"",""0"",""0""
""fullscreenenter"",""1"",""2809""
","
","""event"",""trial"",""time""
""focus"",""0"",""0""
","""event"",""trial"",""time""
""fullscreenenter"",""1"",""2809""
","
","","","287","","","21","13362","5850","&#9789;","elianto","#f73b6a7A"," "," ","1","-10","[1148]","1","0","4","","","","","","","",""
"pit-trial","85","666407","0.0-2.0-17.0-4.0","battery-v0.2","","""event"",""trial"",""time""
""focus"",""0"",""0""
""fullscreenenter"",""1"",""2809""
","
","""event"",""trial"",""time""
""focus"",""0"",""0""
","""event"",""trial"",""time""
""fullscreenenter"",""1"",""2809""
","
","","","259","","","21","13362","5850","&#9789;","elianto","#f73b6a7A"," "," ","1","0","[1117]","1","0","4","","","","","","","",""
"pit-trial","86","669667","0.0-2.0-17.1-0.1","battery-v0.2","","""event"",""trial"",""time""
""focus"",""0"",""0""
""fullscreenenter"",""1"",""2809""
","
","""event"",""trial"",""time""
""focus"",""0"",""0""
","""event"",""trial"",""time""
""fullscreenenter"",""1"",""2809""
","
","","","386","","","21","13362","5850","&#9789;","elianto","#f73b6a7A"," "," ","1","0","[1245]","1","0","4","","","","","","","",""
"pit-trial","87","672933","0.0-2.0-17.1-1.1","battery-v0.2","","""event"",""trial"",""time""
""focus"",""0"",""0""
""fullscreenenter"",""1"",""2809""
","
","""event"",""trial"",""time""
""focus"",""0"",""0""
","""event"",""trial"",""time""
""fullscreenenter"",""1"",""2809""
","
","","","368","","","21","13362","5850","&#9789;","elianto","#f73b6a7A"," "," ","1","0","[1257]","1","0","4","","","","","","","",""
"pit-trial","88","676193","0.0-2.0-17.1-2.1","battery-v0.2","","""event"",""trial"",""time""
""focus"",""0"",""0""
""fullscreenenter"",""1"",""2809""
","
","""event"",""trial"",""time""
""focus"",""0"",""0""
","""event"",""trial"",""time""
""fullscreenenter"",""1"",""2809""
","
","","","393","","","21","13362","5850","&#9789;","elianto","#f73b6a7A"," "," ","1","0","[1247]","1","0","4","","","","","","","",""
"pit-trial","89","679417","0.0-2.0-17.1-3.1","battery-v0.2","","""event"",""trial"",""time""
""focus"",""0"",""0""
""fullscreenenter"",""1"",""2809""
","
","""event"",""trial"",""time""
""focus"",""0"",""0""
","""event"",""trial"",""time""
""fullscreenenter"",""1"",""2809""
","
","","","356","","","21","13362","5850","&#9789;","elianto","#f73b6a7A"," "," ","1","-10","[1219]","1","0","4","","","","","","","",""
"pit-trial","90","682615","0.0-2.0-17.1-4.1","battery-v0.2","","""event"",""trial"",""time""
""focus"",""0"",""0""
""fullscreenenter"",""1"",""2809""
","
","""event"",""trial"",""time""
""focus"",""0"",""0""
","""event"",""trial"",""time""
""fullscreenenter"",""1"",""2809""
","
","","","329","","","21","13362","5850","&#9789;","elianto","#f73b6a7A"," "," ","1","0","[1188]","1","0","4","","","","","","","",""
"pit-trial","91","685703","0.0-2.0-17.2-0.2","battery-v0.2","","""event"",""trial"",""time""
""focus"",""0"",""0""
""fullscreenenter"",""1"",""2809""
","
","""event"",""trial"",""time""
""focus"",""0"",""0""
","""event"",""trial"",""time""
""fullscreenenter"",""1"",""2809""
","
","","","228","","","21","13362","5850","&#9789;","elianto","#f73b6a7A"," "," ","1","0","[1086]","1","0","4","","","","","","","",""
"pit-trial","92","688880","0.0-2.0-17.2-1.2","battery-v0.2","","""event"",""trial"",""time""
""focus"",""0"",""0""
""fullscreenenter"",""1"",""2809""
","
","""event"",""trial"",""time""
""focus"",""0"",""0""
","""event"",""trial"",""time""
""fullscreenenter"",""1"",""2809""
","
","","","315","","","21","13362","5850","&#9789;","elianto","#f73b6a7A"," "," ","1","0","[1173]","1","0","4","","","","","","","",""
"pit-trial","93","691998","0.0-2.0-17.2-2.2","battery-v0.2","","""event"",""trial"",""time""
""focus"",""0"",""0""
""fullscreenenter"",""1"",""2809""
","
","""event"",""trial"",""time""
""focus"",""0"",""0""
","""event"",""trial"",""time""
""fullscreenenter"",""1"",""2809""
","
","","","258","","","21","13362","5850","&#9789;","elianto","#f73b6a7A"," "," ","1","0","[1115]","1","0","4","","","","","","","",""
"pit-trial","94","695197","0.0-2.0-17.2-3.2","battery-v0.2","","""event"",""trial"",""time""
""focus"",""0"",""0""
""fullscreenenter"",""1"",""2809""
","
","""event"",""trial"",""time""
""focus"",""0"",""0""
","""event"",""trial"",""time""
""fullscreenenter"",""1"",""2809""
","
","","","324","","","21","13362","5850","&#9789;","elianto","#f73b6a7A"," "," ","1","-10","[1196]","1","0","4","","","","","","","",""
"pit-trial","95","698345","0.0-2.0-17.2-4.2","battery-v0.2","","""event"",""trial"",""time""
""focus"",""0"",""0""
""fullscreenenter"",""1"",""2809""
","
","""event"",""trial"",""time""
""focus"",""0"",""0""
","""event"",""trial"",""time""
""fullscreenenter"",""1"",""2809""
","
","","","275","","","21","13362","5850","&#9789;","elianto","#f73b6a7A"," "," ","1","0","[1135]","1","0","4","","","","","","","",""
"pit-trial","96","701488","0.0-2.0-17.3-0.3","battery-v0.2","","""event"",""trial"",""time""
""focus"",""0"",""0""
""fullscreenenter"",""1"",""2809""
","
","""event"",""trial"",""time""
""focus"",""0"",""0""
","""event"",""trial"",""time""
""fullscreenenter"",""1"",""2809""
","
","","","274","","","21","13362","5850","&#9789;","elianto","#f73b6a7A"," "," ","1","0","[1137]","1","0","4","","","","","","","",""
"pit-trial","97","704828","0.0-2.0-17.3-1.3","battery-v0.2","","""event"",""trial"",""time""
""focus"",""0"",""0""
""fullscreenenter"",""1"",""2809""
","
","""event"",""trial"",""time""
""focus"",""0"",""0""
","""event"",""trial"",""time""
""fullscreenenter"",""1"",""2809""
","
","","","297","","","21","13362","5850","&#9789;","elianto","#f73b6a7A"," "," ","1","0","[1162]","1","0","4","","","","","","","",""
"pit-trial","98","707985","0.0-2.0-17.3-2.3","battery-v0.2","","""event"",""trial"",""time""
""focus"",""0"",""0""
""fullscreenenter"",""1"",""2809""
","
","""event"",""trial"",""time""
""focus"",""0"",""0""
","""event"",""trial"",""time""
""fullscreenenter"",""1"",""2809""
","
","","","288","","","21","13362","5850","&#9789;","elianto","#f73b6a7A"," "," ","1","0","[1142]","1","0","4","","","","","","","",""
"pit-trial","99","711119","0.0-2.0-17.3-3.3","battery-v0.2","","""event"",""trial"",""time""
""focus"",""0"",""0""
""fullscreenenter"",""1"",""2809""
","
","""event"",""trial"",""time""
""focus"",""0"",""0""
","""event"",""trial"",""time""
""fullscreenenter"",""1"",""2809""
","
","","","230","","","21","13362","5850","&#9789;","elianto","#f73b6a7A"," "," ","1","-10","[1121]","1","0","4","","","","","","","",""
"pit-trial","100","714253","0.0-2.0-17.3-4.3","battery-v0.2","","""event"",""trial"",""time""
""focus"",""0"",""0""
""fullscreenenter"",""1"",""2809""
","
","""event"",""trial"",""time""
""focus"",""0"",""0""
","""event"",""trial"",""time""
""fullscreenenter"",""1"",""2809""
","
","","","267","","","21","13362","5850","&#9789;","elianto","#f73b6a7A"," "," ","1","0","[1122]","1","0","4","","","","","","","",""
"call-function","101","714254","0.0-2.0-18.0","battery-v0.2","","""event"",""trial"",""time""
""focus"",""0"",""0""
""fullscreenenter"",""1"",""2809""
","
","""event"",""trial"",""time""
""focus"",""0"",""0""
","""event"",""trial"",""time""
""fullscreenenter"",""1"",""2809""
","
","","","","","","","","","","","","","","","","","","","","","","","","","","",""
"pit-instructions","102","786108","0.0-2.0-19.0","battery-v0.2","","""event"",""trial"",""time""
""focus"",""0"",""0""
""fullscreenenter"",""1"",""2809""
","
","""event"",""trial"",""time""
""focus"",""0"",""0""
","""event"",""trial"",""time""
""fullscreenenter"",""1"",""2809""
","
","","[{""page_index"":0,""viewing_time"":6710},{""page_index"":1,""viewing_time"":6137},{""page_index"":2,""viewing_time"":14039},{""page_index"":3,""viewing_time"":7888},{""page_index"":4,""viewing_time"":8560},{""page_index"":5,""viewing_time"":8344},{""page_index"":6,""viewing_time"":8768},{""page_index"":7,""viewing_time"":6761},{""page_index"":8,""viewing_time"":4647}]","71854","","","","","","","","","","","","","","","","","","","","","","","",""
"pit-comprehension","103","791997","0.0-2.0-20.0-0.0","battery-v0.2","","""event"",""trial"",""time""
""focus"",""0"",""0""
""fullscreenenter"",""1"",""2809""
","
","""event"",""trial"",""time""
""focus"",""0"",""0""
","""event"",""trial"",""time""
""fullscreenenter"",""1"",""2809""
","
","","","5888","[""SPACE""]","0","21","13362","5850","","","","","","","","","","","","","","","","","","",""
"pit-instructions","104","794788","0.0-2.0-20.0-1.0","battery-v0.2","","""event"",""trial"",""time""
""focus"",""0"",""0""
""fullscreenenter"",""1"",""2809""
","
","""event"",""trial"",""time""
""focus"",""0"",""0""
","""event"",""trial"",""time""
""fullscreenenter"",""1"",""2809""
","
","","[{""page_index"":0,""viewing_time"":2768}]","2769","","","","","","","","","","","","","","","","","","","","","","","",""
"pit-comprehension","105","802253","0.0-2.0-21.0-0.0","battery-v0.2","","""event"",""trial"",""time""
""focus"",""0"",""0""
""fullscreenenter"",""1"",""2809""
","
","""event"",""trial"",""time""
""focus"",""0"",""0""
","""event"",""trial"",""time""
""fullscreenenter"",""1"",""2809""
","
","","","7462","[""10""]","0","21","13362","5850","","","","","","","","","","","","","","","","","","",""
"pit-instructions","106","806348","0.0-2.0-21.0-1.0","battery-v0.2","","""event"",""trial"",""time""
""focus"",""0"",""0""
""fullscreenenter"",""1"",""2809""
","
","""event"",""trial"",""time""
""focus"",""0"",""0""
","""event"",""trial"",""time""
""fullscreenenter"",""1"",""2809""
","
","","[{""page_index"":0,""viewing_time"":4073}]","4073","","","","","","","","","","","","","","","","","","","","","","","",""
"pit-comprehension","107","813996","0.0-2.0-22.0-0.0","battery-v0.2","","""event"",""trial"",""time""
""focus"",""0"",""0""
""fullscreenenter"",""1"",""2809""
","
","""event"",""trial"",""time""
""focus"",""0"",""0""
","""event"",""trial"",""time""
""fullscreenenter"",""1"",""2809""
","
","","","7647","[""0""]","0","21","13362","5850","","","","","","","","","","","","","","","","","","",""
"pit-instructions","108","815875","0.0-2.0-22.0-1.0","battery-v0.2","","""event"",""trial"",""time""
""focus"",""0"",""0""
""fullscreenenter"",""1"",""2809""
","
","""event"",""trial"",""time""
""focus"",""0"",""0""
","""event"",""trial"",""time""
""fullscreenenter"",""1"",""2809""
","
","","[{""page_index"":0,""viewing_time"":1856}]","1856","","","","","","","","","","","","","","","","","","","","","","","",""
"pit-comprehension","109","825652","0.0-2.0-23.0-0.0","battery-v0.2","","""event"",""trial"",""time""
""focus"",""0"",""0""
""fullscreenenter"",""1"",""2809""
","
","""event"",""trial"",""time""
""focus"",""0"",""0""
","""event"",""trial"",""time""
""fullscreenenter"",""1"",""2809""
","
","","","9775","[""True""]","0","21","13362","5850","","","","","","","","","","","","","","","","","","",""
"pit-instructions","110","827316","0.0-2.0-23.0-1.0","battery-v0.2","","""event"",""trial"",""time""
""focus"",""0"",""0""
""fullscreenenter"",""1"",""2809""
","
","""event"",""trial"",""time""
""focus"",""0"",""0""
","""event"",""trial"",""time""
""fullscreenenter"",""1"",""2809""
","
","","[{""page_index"":0,""viewing_time"":1639}]","1639","","","","","","","","","","","","","","","","","","","","","","","",""
"pit-comprehension","111","837452","0.0-2.0-24.0-0.0","battery-v0.2","","""event"",""trial"",""time""
""focus"",""0"",""0""
""fullscreenenter"",""1"",""2809""
","
","""event"",""trial"",""time""
""focus"",""0"",""0""
","""event"",""trial"",""time""
""fullscreenenter"",""1"",""2809""
","
","","","10136","[""True""]","0","21","13362","5850","","","","","","","","","","","","","","","","","","",""
"pit-instructions","112","838916","0.0-2.0-24.0-1.0","battery-v0.2","","""event"",""trial"",""time""
""focus"",""0"",""0""
""fullscreenenter"",""1"",""2809""
","
","""event"",""trial"",""time""
""focus"",""0"",""0""
","""event"",""trial"",""time""
""fullscreenenter"",""1"",""2809""
","
","","[{""page_index"":0,""viewing_time"":1439}]","1439","","","","","","","","","","","","","","","","","","","","","","","",""
"pit-comprehension","113","847156","0.0-2.0-25.0-0.0","battery-v0.2","","""event"",""trial"",""time""
""focus"",""0"",""0""
""fullscreenenter"",""1"",""2809""
","
","""event"",""trial"",""time""
""focus"",""0"",""0""
","""event"",""trial"",""time""
""fullscreenenter"",""1"",""2809""
","
","","","8240","[""True""]","0","21","13362","5850","","","","","","","","","","","","","","","","","","",""
"pit-instructions","114","849196","0.0-2.0-25.0-1.0","battery-v0.2","","""event"",""trial"",""time""
""focus"",""0"",""0""
""fullscreenenter"",""1"",""2809""
","
","""event"",""trial"",""time""
""focus"",""0"",""0""
","""event"",""trial"",""time""
""fullscreenenter"",""1"",""2809""
","
","","[{""page_index"":0,""viewing_time"":2016}]","2016","","","","","","","","","","","","","","","","","","","","","","","",""
"pit-comprehension","115","855204","0.0-2.0-26.0-0.0","battery-v0.2","","""event"",""trial"",""time""
""focus"",""0"",""0""
""fullscreenenter"",""1"",""2809""
","
","""event"",""trial"",""time""
""focus"",""0"",""0""
","""event"",""trial"",""time""
""fullscreenenter"",""1"",""2809""
","
","","","6008","[""False""]","0","21","13362","5850","","","","","","","","","","","","","","","","","","",""
"pit-instructions","116","858924","0.0-2.0-26.0-1.0","battery-v0.2","","""event"",""trial"",""time""
""focus"",""0"",""0""
""fullscreenenter"",""1"",""2809""
","
","""event"",""trial"",""time""
""focus"",""0"",""0""
","""event"",""trial"",""time""
""fullscreenenter"",""1"",""2809""
","
","","[{""page_index"":0,""viewing_time"":3695}]","3695","","","","","","","","","","","","","","","","","","","","","","","",""
"pit-instructions","117","888004","0.0-3.0","battery-v0.2","","""event"",""trial"",""time""
""focus"",""0"",""0""
""fullscreenenter"",""1"",""2809""
","
","""event"",""trial"",""time""
""focus"",""0"",""0""
","""event"",""trial"",""time""
""fullscreenenter"",""1"",""2809""
","
","","[{""page_index"":0,""viewing_time"":5799},{""page_index"":1,""viewing_time"":6296},{""page_index"":2,""viewing_time"":16985}]","29080","","","","","","","","","","","","","","","","","","","","","","","",""
"pit-trial","118","892910","0.0-4.0","battery-v0.2","","""event"",""trial"",""time""
""focus"",""0"",""0""
""fullscreenenter"",""1"",""2809""
","
","""event"",""trial"",""time""
""focus"",""0"",""0""
","""event"",""trial"",""time""
""fullscreenenter"",""1"",""2809""
","
","","","-1","","","21","13362","5850","&#9752;","elianto","#f73b6a7A"," ","-1","0","0","[]","0","1","","","13362","1","3","3","lose","go","1"
"pit-trial","119","896587","0.0-5.0","battery-v0.2","","""event"",""trial"",""time""
""focus"",""0"",""0""
""fullscreenenter"",""1"",""2809""
","
","""event"",""trial"",""time""
""focus"",""0"",""0""
","""event"",""trial"",""time""
""fullscreenenter"",""1"",""2809""
","
","","","808","","","21","13362","5850","&#9728;","elianto","#f73b6a7A","-1"," ","0","-10","[1669]","1","1","","","13362","2","0","4","lose","no-go","0"
"pit-trial","120","900281","0.0-6.0","battery-v0.2","","""event"",""trial"",""time""
""focus"",""0"",""0""
""fullscreenenter"",""1"",""2809""
","
","""event"",""trial"",""time""
""focus"",""0"",""0""
","""event"",""trial"",""time""
""fullscreenenter"",""1"",""2809""
","
","","","822","","","21","13362","5850","&#9730;","elianto","#3366ff99"," "," ","1","+10","[1680]","1","1","","","13362","3","1","1","win","go","0"
"pit-trial","121","905156","0.0-7.0","battery-v0.2","","""event"",""trial"",""time""
""focus"",""0"",""0""
""fullscreenenter"",""1"",""2809""
","
","""event"",""trial"",""time""
""focus"",""0"",""0""
","""event"",""trial"",""time""
""fullscreenenter"",""1"",""2809""
","
","","","-1","","","21","13362","5850","&#9733;","elianto","#3366ff99","-1","-1","1","0","[]","0","1","","","13362","4","2","2","win","no-go","1"
"pit-trial","122","908634","0.0-8.0","battery-v0.2","","""event"",""trial"",""time""
""focus"",""0"",""0""
""fullscreenenter"",""1"",""2809""
","
","""event"",""trial"",""time""
""focus"",""0"",""0""
","""event"",""trial"",""time""
""fullscreenenter"",""1"",""2809""
","
","","","608","","","21","13362","5850","&#9730;","elianto","#3366ff99"," "," ","1","+10","[1470]","1","1","","","13362","5","1","1","win","go","0"
"pit-trial","123","912722","0.0-9.0","battery-v0.2","","""event"",""trial"",""time""
""focus"",""0"",""0""
""fullscreenenter"",""1"",""2809""
","
","""event"",""trial"",""time""
""focus"",""0"",""0""
","""event"",""trial"",""time""
""fullscreenenter"",""1"",""2809""
","
","","","1014","","","21","13362","5850","&#9733;","elianto","#3366ff99","-1"," ","0","0","[1871]","1","1","","","13362","6","2","2","win","no-go","0"
"pit-trial","124","917592","0.0-10.0","battery-v0.2","","""event"",""trial"",""time""
""focus"",""0"",""0""
""fullscreenenter"",""1"",""2809""
","
","""event"",""trial"",""time""
""focus"",""0"",""0""
","""event"",""trial"",""time""
""fullscreenenter"",""1"",""2809""
","
","","","-1","","","21","13362","5850","&#9752;","elianto","#f73b6a7A"," ","-1","0","0","[]","0","1","","","13362","7","3","3","lose","go","1"
"pit-trial","125","921330","0.0-11.0","battery-v0.2","","""event"",""trial"",""time""
""focus"",""0"",""0""
""fullscreenenter"",""1"",""2809""
","
","""event"",""trial"",""time""
""focus"",""0"",""0""
","""event"",""trial"",""time""
""fullscreenenter"",""1"",""2809""
","
","","","871","","","21","13362","5850","&#9728;","elianto","#f73b6a7A","-1"," ","0","0","[1730]","1","1","","","13362","8","0","4","lose","no-go","1"
"pit-trial","126","926335","0.0-12.0","battery-v0.2","","""event"",""trial"",""time""
""focus"",""0"",""0""
""fullscreenenter"",""1"",""2809""
","
","""event"",""trial"",""time""
""focus"",""0"",""0""
","""event"",""trial"",""time""
""fullscreenenter"",""1"",""2809""
","
","","","-1","","","21","13362","5850","&#9752;","elianto","#f73b6a7A"," ","-1","0","-10","[]","0","1","","","13362","9","3","3","lose","go","0"
"pit-trial","127","929768","0.0-13.0","battery-v0.2","","""event"",""trial"",""time""
""focus"",""0"",""0""
""fullscreenenter"",""1"",""2809""
","
","""event"",""trial"",""time""
""focus"",""0"",""0""
","""event"",""trial"",""time""
""fullscreenenter"",""1"",""2809""
","
","","","571","","","21","13362","5850","&#9730;","elianto","#3366ff99"," "," ","1","+10","[1427]","1","1","","","13362","10","1","1","win","go","0"
"pit-trial","128","934778","0.0-14.0","battery-v0.2","","""event"",""trial"",""time""
""focus"",""0"",""0""
""fullscreenenter"",""1"",""2809""
","
","""event"",""trial"",""time""
""focus"",""0"",""0""
","""event"",""trial"",""time""
""fullscreenenter"",""1"",""2809""
","
","","","-1","","","21","13362","5850","&#9733;","elianto","#3366ff99","-1","-1","1","+10","[]","0","1","","","13362","11","2","2","win","no-go","0"
"pit-trial","129","939641","0.0-15.0","battery-v0.2","","""event"",""trial"",""time""
""focus"",""0"",""0""
""fullscreenenter"",""1"",""2809""
","
","""event"",""trial"",""time""
""focus"",""0"",""0""
","""event"",""trial"",""time""
""fullscreenenter"",""1"",""2809""
","
","","","-1","","","21","13362","5850","&#9728;","elianto","#f73b6a7A","-1","-1","1","0","[]","0","1","","","13362","12","0","4","lose","no-go","0"
"pit-trial","130","944506","0.0-16.0","battery-v0.2","","""event"",""trial"",""time""
""focus"",""0"",""0""
""fullscreenenter"",""1"",""2809""
","
","""event"",""trial"",""time""
""focus"",""0"",""0""
","""event"",""trial"",""time""
""fullscreenenter"",""1"",""2809""
","
","","","-1","","","21","13362","5850","&#9752;","elianto","#f73b6a7A"," ","-1","0","-10","[]","0","1","","","13362","13","3","3","lose","go","0"
"pit-trial","131","949367","0.0-17.0","battery-v0.2","","""event"",""trial"",""time""
""focus"",""0"",""0""
""fullscreenenter"",""1"",""2809""
","
","""event"",""trial"",""time""
""focus"",""0"",""0""
","""event"",""trial"",""time""
""fullscreenenter"",""1"",""2809""
","
","","","-1","","","21","13362","5850","&#9733;","elianto","#3366ff99","-1","-1","1","+10","[]","0","1","","","13362","14","2","2","win","no-go","0"
"pit-trial","132","954237","0.0-18.0","battery-v0.2","","""event"",""trial"",""time""
""focus"",""0"",""0""
""fullscreenenter"",""1"",""2809""
","
","""event"",""trial"",""time""
""focus"",""0"",""0""
","""event"",""trial"",""time""
""fullscreenenter"",""1"",""2809""
","
","","","-1","","","21","13362","5850","&#9728;","elianto","#f73b6a7A","-1","-1","1","-10","[]","0","1","","","13362","15","0","4","lose","no-go","1"
"pit-trial","133","957757","0.0-19.0","battery-v0.2","","""event"",""trial"",""time""
""focus"",""0"",""0""
""fullscreenenter"",""1"",""2809""
","
","""event"",""trial"",""time""
""focus"",""0"",""0""
","""event"",""trial"",""time""
""fullscreenenter"",""1"",""2809""
","
","","","647","","","21","13362","5850","&#9730;","elianto","#3366ff99"," "," ","1","+10","[1505]","1","1","","","13362","16","1","1","win","go","0"
"pit-trial","134","962753","0.0-20.0","battery-v0.2","","""event"",""trial"",""time""
""focus"",""0"",""0""
""fullscreenenter"",""1"",""2809""
","
","""event"",""trial"",""time""
""focus"",""0"",""0""
","""event"",""trial"",""time""
""fullscreenenter"",""1"",""2809""
","
","","","-1","","","21","13362","5850","&#9752;","elianto","#f73b6a7A"," ","-1","0","-10","[]","0","1","","","13362","17","3","3","lose","go","0"
"pit-trial","135","967775","0.0-21.0","battery-v0.2","","""event"",""trial"",""time""
""focus"",""0"",""0""
""fullscreenenter"",""1"",""2809""
","
","""event"",""trial"",""time""
""focus"",""0"",""0""
","""event"",""trial"",""time""
""fullscreenenter"",""1"",""2809""
","
","","","-1","","","21","13362","5850","&#9728;","elianto","#f73b6a7A","-1","-1","1","0","[]","0","1","","","13362","18","0","4","lose","no-go","0"
"pit-trial","136","972637","0.0-22.0","battery-v0.2","","""event"",""trial"",""time""
""focus"",""0"",""0""
""fullscreenenter"",""1"",""2809""
","
","""event"",""trial"",""time""
""focus"",""0"",""0""
","""event"",""trial"",""time""
""fullscreenenter"",""1"",""2809""
","
","","","-1","","","21","13362","5850","&#9733;","elianto","#3366ff99","-1","-1","1","+10","[]","0","1","","","13362","19","2","2","win","no-go","0"
"pit-trial","137","976107","0.0-23.0","battery-v0.2","","""event"",""trial"",""time""
""focus"",""0"",""0""
""fullscreenenter"",""1"",""2809""
","
","""event"",""trial"",""time""
""focus"",""0"",""0""
","""event"",""trial"",""time""
""fullscreenenter"",""1"",""2809""
","
","","","606","","","21","13362","5850","&#9730;","elianto","#3366ff99"," "," ","1","+10","[1464]","1","1","","","13362","20","1","1","win","go","0"
"pit-instructions","138","1011539","0.0-24.0","battery-v0.2","","""event"",""trial"",""time""
""focus"",""0"",""0""
""fullscreenenter"",""1"",""2809""
","
","""event"",""trial"",""time""
""focus"",""0"",""0""
","""event"",""trial"",""time""
""fullscreenenter"",""1"",""2809""
","
","","[{""page_index"":0,""viewing_time"":6264},{""page_index"":1,""viewing_time"":29168}]","35432","","","","","","","","","","","","","","","","","","","","","","","",""
"pit-trial","139","1016398","0.0-25.0","battery-v0.2","","""event"",""trial"",""time""
""focus"",""0"",""0""
""fullscreenenter"",""1"",""2809""
","
","""event"",""trial"",""time""
""focus"",""0"",""0""
","""event"",""trial"",""time""
""fullscreenenter"",""1"",""2809""
","
","","","-1","","","21","13362","5850","l","elianto","#3366ff99","-1","-1","1","+10","[]","0","2","","","13362","21","1","2","win","no-go","0"
"pit-trial","140","1020131","0.0-26.0","battery-v0.2","","""event"",""trial"",""time""
""focus"",""0"",""0""
""fullscreenenter"",""1"",""2809""
","
","""event"",""trial"",""time""
""focus"",""0"",""0""
","""event"",""trial"",""time""
""fullscreenenter"",""1"",""2809""
","
","","","873","","","21","13362","5850","g","elianto","#f73b6a7A","-1"," ","0","-10","[1731]","1","2","","","13362","22","3","4","lose","no-go","0"
"pit-trial","141","1025001","0.0-27.0","battery-v0.2","","""event"",""trial"",""time""
""focus"",""0"",""0""
""fullscreenenter"",""1"",""2809""
","
","""event"",""trial"",""time""
""focus"",""0"",""0""
","""event"",""trial"",""time""
""fullscreenenter"",""1"",""2809""
","
","","","-1","","","21","13362","5850","a","elianto","#f73b6a7A"," ","-1","0","-10","[]","0","2","","","13362","23","2","3","lose","go","0"
"pit-trial","142","1029865","0.0-28.0","battery-v0.2","","""event"",""trial"",""time""
""focus"",""0"",""0""
""fullscreenenter"",""1"",""2809""
","
","""event"",""trial"",""time""
""focus"",""0"",""0""
","""event"",""trial"",""time""
""fullscreenenter"",""1"",""2809""
","
","","","-1","","","21","13362","5850","u","elianto","#f73b6a7A"," ","-1","0","-10","[]","0","2","","","13362","24","0","3","lose","go","0"
"pit-trial","143","1034730","0.0-29.0","battery-v0.2","","""event"",""trial"",""time""
""focus"",""0"",""0""
""fullscreenenter"",""1"",""2809""
","
","""event"",""trial"",""time""
""focus"",""0"",""0""
","""event"",""trial"",""time""
""fullscreenenter"",""1"",""2809""
","
","","","-1","","","21","13362","5850","g","elianto","#f73b6a7A","-1","-1","1","0","[]","0","2","","","13362","25","3","4","lose","no-go","0"
"pit-trial","144","1038550","0.0-30.0","battery-v0.2","","""event"",""trial"",""time""
""focus"",""0"",""0""
""fullscreenenter"",""1"",""2809""
","
","""event"",""trial"",""time""
""focus"",""0"",""0""
","""event"",""trial"",""time""
""fullscreenenter"",""1"",""2809""
","
","","","960","","","21","13362","5850","u","elianto","#f73b6a7A"," "," ","1","-10","[1815]","1","2","","","13362","26","0","3","lose","go","1"
"pit-trial","145","1042557","0.0-31.0","battery-v0.2","","""event"",""trial"",""time""
""focus"",""0"",""0""
""fullscreenenter"",""1"",""2809""
","
","""event"",""trial"",""time""
""focus"",""0"",""0""
","""event"",""trial"",""time""
""fullscreenenter"",""1"",""2809""
","
","","","1111","","","21","13362","5850","a","elianto","#f73b6a7A"," "," ","1","0","[2001]","1","2","","","13362","27","2","3","lose","go","0"
"pit-trial","146","1046606","0.0-32.0","battery-v0.2","","""event"",""trial"",""time""
""focus"",""0"",""0""
""fullscreenenter"",""1"",""2809""
","
","""event"",""trial"",""time""
""focus"",""0"",""0""
","""event"",""trial"",""time""
""fullscreenenter"",""1"",""2809""
","
","","","1177","","","21","13362","5850","l","elianto","#3366ff99","-1"," ","0","0","[2036]","1","2","","","13362","28","1","2","win","no-go","0"
"pit-trial","147","1051475","0.0-33.0","battery-v0.2","","""event"",""trial"",""time""
""focus"",""0"",""0""
""fullscreenenter"",""1"",""2809""
","
","""event"",""trial"",""time""
""focus"",""0"",""0""
","""event"",""trial"",""time""
""fullscreenenter"",""1"",""2809""
","
","","","-1","","","21","13362","5850","u","elianto","#f73b6a7A"," ","-1","0","0","[]","0","2","","","13362","29","0","3","lose","go","1"
"pit-trial","148","1055245","0.0-34.0","battery-v0.2","","""event"",""trial"",""time""
""focus"",""0"",""0""
""fullscreenenter"",""1"",""2809""
","
","""event"",""trial"",""time""
""focus"",""0"",""0""
","""event"",""trial"",""time""
""fullscreenenter"",""1"",""2809""
","
","","","905","","","21","13362","5850","a","elianto","#f73b6a7A"," "," ","1","0","[1763]","1","2","","","13362","30","2","3","lose","go","0"
"pit-trial","149","1060258","0.0-35.0","battery-v0.2","","""event"",""trial"",""time""
""focus"",""0"",""0""
""fullscreenenter"",""1"",""2809""
","
","""event"",""trial"",""time""
""focus"",""0"",""0""
","""event"",""trial"",""time""
""fullscreenenter"",""1"",""2809""
","
","","","-1","","","21","13362","5850","g","elianto","#f73b6a7A","-1","-1","1","0","[]","0","2","","","13362","31","3","4","lose","no-go","0"
"pit-trial","150","1063767","0.0-36.0","battery-v0.2","","""event"",""trial"",""time""
""focus"",""0"",""0""
""fullscreenenter"",""1"",""2809""
","
","""event"",""trial"",""time""
""focus"",""0"",""0""
","""event"",""trial"",""time""
""fullscreenenter"",""1"",""2809""
","
","","","649","","","21","13362","5850","l","elianto","#3366ff99","-1"," ","0","0","[1507]","1","2","","","13362","32","1","2","win","no-go","0"
"pit-trial","151","1067617","0.0-37.0","battery-v0.2","","""event"",""trial"",""time""
""focus"",""0"",""0""
""fullscreenenter"",""1"",""2809""
","
","""event"",""trial"",""time""
""focus"",""0"",""0""
","""event"",""trial"",""time""
""fullscreenenter"",""1"",""2809""
","
","","","984","","","21","13362","5850","l","elianto","#3366ff99","-1"," ","0","+10","[1839,1967]","2","2","","","13362","33","1","2","win","no-go","1"
"pit-trial","152","1072484","0.0-38.0","battery-v0.2","","""event"",""trial"",""time""
""focus"",""0"",""0""
""fullscreenenter"",""1"",""2809""
","
","""event"",""trial"",""time""
""focus"",""0"",""0""
","""event"",""trial"",""time""
""fullscreenenter"",""1"",""2809""
","
","","","-1","","","21","13362","5850","u","elianto","#f73b6a7A"," ","-1","0","-10","[]","0","2","","","13362","34","0","3","lose","go","0"
"pit-trial","153","1076044","0.0-39.0","battery-v0.2","","""event"",""trial"",""time""
""focus"",""0"",""0""
""fullscreenenter"",""1"",""2809""
","
","""event"",""trial"",""time""
""focus"",""0"",""0""
","""event"",""trial"",""time""
""fullscreenenter"",""1"",""2809""
","
","","","692","","","21","13362","5850","a","elianto","#f73b6a7A"," "," ","1","-10","[1553]","1","2","","","13362","35","2","3","lose","go","1"
"pit-trial","154","1081054","0.0-40.0","battery-v0.2","","""event"",""trial"",""time""
""focus"",""0"",""0""
""fullscreenenter"",""1"",""2809""
","
","""event"",""trial"",""time""
""focus"",""0"",""0""
","""event"",""trial"",""time""
""fullscreenenter"",""1"",""2809""
","
","","","-1","","","21","13362","5850","g","elianto","#f73b6a7A","-1","-1","1","0","[]","0","2","","","13362","36","3","4","lose","no-go","0"
"pit-trial","155","1086062","0.0-41.0","battery-v0.2","","""event"",""trial"",""time""
""focus"",""0"",""0""
""fullscreenenter"",""1"",""2809""
","
","""event"",""trial"",""time""
""focus"",""0"",""0""
","""event"",""trial"",""time""
""fullscreenenter"",""1"",""2809""
","
","","","-1","","","21","13362","5850","u","elianto","#f73b6a7A"," ","-1","0","-10","[]","0","2","","","13362","37","0","3","lose","go","0"
"pit-trial","156","1090926","0.0-42.0","battery-v0.2","","""event"",""trial"",""time""
""focus"",""0"",""0""
""fullscreenenter"",""1"",""2809""
","
","""event"",""trial"",""time""
""focus"",""0"",""0""
","""event"",""trial"",""time""
""fullscreenenter"",""1"",""2809""
","
","","","-1","","","21","13362","5850","l","elianto","#3366ff99","-1","-1","1","+10","[]","0","2","","","13362","38","1","2","win","no-go","0"
"pit-trial","157","1094637","0.0-43.0","battery-v0.2","","""event"",""trial"",""time""
""focus"",""0"",""0""
""fullscreenenter"",""1"",""2809""
","
","""event"",""trial"",""time""
""focus"",""0"",""0""
","""event"",""trial"",""time""
""fullscreenenter"",""1"",""2809""
","
","","","843","","","21","13362","5850","a","elianto","#f73b6a7A"," "," ","1","0","[1702]","1","2","","","13362","39","2","3","lose","go","0"
"pit-trial","158","1099630","0.0-44.0","battery-v0.2","","""event"",""trial"",""time""
""focus"",""0"",""0""
""fullscreenenter"",""1"",""2809""
","
","""event"",""trial"",""time""
""focus"",""0"",""0""
","""event"",""trial"",""time""
""fullscreenenter"",""1"",""2809""
","
","","","-1","","","21","13362","5850","g","elianto","#f73b6a7A","-1","-1","1","0","[]","0","2","","","13362","40","3","4","lose","no-go","0"
"pit-trial","159","1104646","0.0-45.0","battery-v0.2","","""event"",""trial"",""time""
""focus"",""0"",""0""
""fullscreenenter"",""1"",""2809""
","
","""event"",""trial"",""time""
""focus"",""0"",""0""
","""event"",""trial"",""time""
""fullscreenenter"",""1"",""2809""
","
","","","-1","","","21","13362","5850","g","elianto","#f73b6a7A","-1","-1","1","0","[]","0","2","","","13362","41","3","4","lose","no-go","0"
"pit-trial","160","1108188","0.0-46.0","battery-v0.2","","""event"",""trial"",""time""
""focus"",""0"",""0""
""fullscreenenter"",""1"",""2809""
","
","""event"",""trial"",""time""
""focus"",""0"",""0""
","""event"",""trial"",""time""
""fullscreenenter"",""1"",""2809""
","
","","","681","","","21","13362","5850","a","elianto","#f73b6a7A"," "," ","1","0","[1543]","1","2","","","13362","42","2","3","lose","go","0"
"pit-trial","161","1111771","0.0-47.0","battery-v0.2","","""event"",""trial"",""time""
""focus"",""0"",""0""
""fullscreenenter"",""1"",""2809""
","
","""event"",""trial"",""time""
""focus"",""0"",""0""
","""event"",""trial"",""time""
""fullscreenenter"",""1"",""2809""
","
","","","526","","","21","13362","5850","u","elianto","#f73b6a7A"," "," ","1","0","[1383]","1","2","","","13362","43","0","3","lose","go","0"
"pit-trial","162","1116783","0.0-48.0","battery-v0.2","","""event"",""trial"",""time""
""focus"",""0"",""0""
""fullscreenenter"",""1"",""2809""
","
","""event"",""trial"",""time""
""focus"",""0"",""0""
","""event"",""trial"",""time""
""fullscreenenter"",""1"",""2809""
","
","","","-1","","","21","13362","5850","l","elianto","#3366ff99","-1","-1","1","+10","[]","0","2","","","13362","44","1","2","win","no-go","0"
"pit-trial","163","1120343","0.0-49.0","battery-v0.2","","""event"",""trial"",""time""
""focus"",""0"",""0""
""fullscreenenter"",""1"",""2809""
","
","""event"",""trial"",""time""
""focus"",""0"",""0""
","""event"",""trial"",""time""
""fullscreenenter"",""1"",""2809""
","
","","","698","","","21","13362","5850","a","elianto","#f73b6a7A"," "," ","1","0","[1555]","1","2","","","13362","45","2","3","lose","go","0"
"pit-trial","164","1125355","0.0-50.0","battery-v0.2","","""event"",""trial"",""time""
""focus"",""0"",""0""
""fullscreenenter"",""1"",""2809""
","
","""event"",""trial"",""time""
""focus"",""0"",""0""
","""event"",""trial"",""time""
""fullscreenenter"",""1"",""2809""
","
","","","-1","","","21","13362","5850","l","elianto","#3366ff99","-1","-1","1","0","[]","0","2","","","13362","46","1","2","win","no-go","1"
"pit-trial","165","1130353","0.0-51.0","battery-v0.2","","""event"",""trial"",""time""
""focus"",""0"",""0""
""fullscreenenter"",""1"",""2809""
","
","""event"",""trial"",""time""
""focus"",""0"",""0""
","""event"",""trial"",""time""
""fullscreenenter"",""1"",""2809""
","
","","","-1","","","21","13362","5850","g","elianto","#f73b6a7A","-1","-1","1","-10","[]","0","2","","","13362","47","3","4","lose","no-go","1"
"pit-trial","166","1133790","0.0-52.0","battery-v0.2","","""event"",""trial"",""time""
""focus"",""0"",""0""
""fullscreenenter"",""1"",""2809""
","
","""event"",""trial"",""time""
""focus"",""0"",""0""
","""event"",""trial"",""time""
""fullscreenenter"",""1"",""2809""
","
","","","572","","","21","13362","5850","u","elianto","#f73b6a7A"," "," ","1","0","[1431]","1","2","","","13362","48","0","3","lose","go","0"
"pit-trial","167","1138719","0.0-53.0","battery-v0.2","","""event"",""trial"",""time""
""focus"",""0"",""0""
""fullscreenenter"",""1"",""2809""
","
","""event"",""trial"",""time""
""focus"",""0"",""0""
","""event"",""trial"",""time""
""fullscreenenter"",""1"",""2809""
","
","","","-1","","","21","13362","5850","g","elianto","#f73b6a7A","-1","-1","1","-10","[]","0","2","","","13362","49","3","4","lose","no-go","1"
"pit-trial","168","1143034","0.0-54.0","battery-v0.2","","""event"",""trial"",""time""
""focus"",""0"",""0""
""fullscreenenter"",""1"",""2809""
","
","""event"",""trial"",""time""
""focus"",""0"",""0""
","""event"",""trial"",""time""
""fullscreenenter"",""1"",""2809""
","
","","","1454","","","21","13362","5850","u","elianto","#f73b6a7A"," "," ","1","0","[2313]","1","2","","","13362","50","0","3","lose","go","0"
"pit-trial","169","1146845","0.0-55.0","battery-v0.2","","""event"",""trial"",""time""
""focus"",""0"",""0""
""fullscreenenter"",""1"",""2809""
","
","""event"",""trial"",""time""
""focus"",""0"",""0""
","""event"",""trial"",""time""
""fullscreenenter"",""1"",""2809""
","
","","","840","","","21","13362","5850","a","elianto","#f73b6a7A"," "," ","1","0","[1701]","1","2","","","13362","51","2","3","lose","go","0"
"pit-trial","170","1151848","0.0-56.0","battery-v0.2","","""event"",""trial"",""time""
""focus"",""0"",""0""
""fullscreenenter"",""1"",""2809""
","
","""event"",""trial"",""time""
""focus"",""0"",""0""
","""event"",""trial"",""time""
""fullscreenenter"",""1"",""2809""
","
","","","-1","","","21","13362","5850","l","elianto","#3366ff99","-1","-1","1","+10","[]","0","2","","","13362","52","1","2","win","no-go","0"
"pit-trial","171","1155473","0.0-57.0","battery-v0.2","","""event"",""trial"",""time""
""focus"",""0"",""0""
""fullscreenenter"",""1"",""2809""
","
","""event"",""trial"",""time""
""focus"",""0"",""0""
","""event"",""trial"",""time""
""fullscreenenter"",""1"",""2809""
","
","","","766","","","21","13362","5850","a","elianto","#f73b6a7A"," "," ","1","0","[1623]","1","2","","","13362","53","2","3","lose","go","0"
"pit-trial","172","1160488","0.0-58.0","battery-v0.2","","""event"",""trial"",""time""
""focus"",""0"",""0""
""fullscreenenter"",""1"",""2809""
","
","""event"",""trial"",""time""
""focus"",""0"",""0""
","""event"",""trial"",""time""
""fullscreenenter"",""1"",""2809""
","
","","","-1","","","21","13362","5850","g","elianto","#f73b6a7A","-1","-1","1","-10","[]","0","2","","","13362","54","3","4","lose","no-go","1"
"pit-trial","173","1165487","0.0-59.0","battery-v0.2","","""event"",""trial"",""time""
""focus"",""0"",""0""
""fullscreenenter"",""1"",""2809""
","
","""event"",""trial"",""time""
""focus"",""0"",""0""
","""event"",""trial"",""time""
""fullscreenenter"",""1"",""2809""
","
","","","-1","","","21","13362","5850","l","elianto","#3366ff99","-1","-1","1","0","[]","0","2","","","13362","55","1","2","win","no-go","1"
"pit-trial","174","1168944","0.0-60.0","battery-v0.2","","""event"",""trial"",""time""
""focus"",""0"",""0""
""fullscreenenter"",""1"",""2809""
","
","""event"",""trial"",""time""
""focus"",""0"",""0""
","""event"",""trial"",""time""
""fullscreenenter"",""1"",""2809""
","
","","","591","","","21","13362","5850","u","elianto","#f73b6a7A"," "," ","1","0","[1447]","1","2","","","13362","56","0","3","lose","go","0"
"pit-trial","175","1172516","0.0-61.0","battery-v0.2","","""event"",""trial"",""time""
""focus"",""0"",""0""
""fullscreenenter"",""1"",""2809""
","
","""event"",""trial"",""time""
""focus"",""0"",""0""
","""event"",""trial"",""time""
""fullscreenenter"",""1"",""2809""
","
","","","708","","","21","13362","5850","a","elianto","#f73b6a7A"," "," ","1","0","[1565]","1","2","","","13362","57","2","3","lose","go","0"
"pit-trial","176","1176091","0.0-62.0","battery-v0.2","","""event"",""trial"",""time""
""focus"",""0"",""0""
""fullscreenenter"",""1"",""2809""
","
","""event"",""trial"",""time""
""focus"",""0"",""0""
","""event"",""trial"",""time""
""fullscreenenter"",""1"",""2809""
","
","","","710","","","21","13362","5850","g","elianto","#f73b6a7A","-1"," ","0","-10","[1570]","1","2","","","13362","58","3","4","lose","no-go","0"
"pit-trial","177","1179583","0.0-63.0","battery-v0.2","","""event"",""trial"",""time""
""focus"",""0"",""0""
""fullscreenenter"",""1"",""2809""
","
","""event"",""trial"",""time""
""focus"",""0"",""0""
","""event"",""trial"",""time""
""fullscreenenter"",""1"",""2809""
","
","","","624","","","21","13362","5850","u","elianto","#f73b6a7A"," "," ","1","0","[1482]","1","2","","","13362","59","0","3","lose","go","0"
"pit-trial","178","1183524","0.0-64.0","battery-v0.2","","""event"",""trial"",""time""
""focus"",""0"",""0""
""fullscreenenter"",""1"",""2809""
","
","""event"",""trial"",""time""
""focus"",""0"",""0""
","""event"",""trial"",""time""
""fullscreenenter"",""1"",""2809""
","
","","","1064","","","21","13362","5850","p","elianto","#3366ff99"," "," ","1","+10","[1925]","1","2","","","13362","60","4","1","win","go","0"
"pit-trial","179","1187303","0.0-65.0","battery-v0.2","","""event"",""trial"",""time""
""focus"",""0"",""0""
""fullscreenenter"",""1"",""2809""
","
","""event"",""trial"",""time""
""focus"",""0"",""0""
","""event"",""trial"",""time""
""fullscreenenter"",""1"",""2809""
","
","","","910","","","21","13362","5850","a","elianto","#f73b6a7A"," "," ","1","-10","[1769]","1","2","","","13362","61","2","3","lose","go","1"
"pit-trial","180","1192172","0.0-66.0","battery-v0.2","","""event"",""trial"",""time""
""focus"",""0"",""0""
""fullscreenenter"",""1"",""2809""
","
","""event"",""trial"",""time""
""focus"",""0"",""0""
","""event"",""trial"",""time""
""fullscreenenter"",""1"",""2809""
","
","","","-1","","","21","13362","5850","g","elianto","#f73b6a7A","-1","-1","1","0","[]","0","2","","","13362","62","3","4","lose","no-go","0"
"pit-trial","181","1197035","0.0-67.0","battery-v0.2","","""event"",""trial"",""time""
""focus"",""0"",""0""
""fullscreenenter"",""1"",""2809""
","
","""event"",""trial"",""time""
""focus"",""0"",""0""
","""event"",""trial"",""time""
""fullscreenenter"",""1"",""2809""
","
","","","-1","","","21","13362","5850","l","elianto","#3366ff99","-1","-1","1","+10","[]","0","2","","","13362","63","1","2","win","no-go","0"
"pit-trial","182","1200484","0.0-68.0","battery-v0.2","","""event"",""trial"",""time""
""focus"",""0"",""0""
""fullscreenenter"",""1"",""2809""
","
","""event"",""trial"",""time""
""focus"",""0"",""0""
","""event"",""trial"",""time""
""fullscreenenter"",""1"",""2809""
","
","","","561","","","21","13362","5850","p","elianto","#3366ff99"," "," ","1","+10","[1417]","1","2","","","13362","64","4","1","win","go","0"
"pit-trial","183","1205479","0.0-69.0","battery-v0.2","","""event"",""trial"",""time""
""focus"",""0"",""0""
""fullscreenenter"",""1"",""2809""
","
","""event"",""trial"",""time""
""focus"",""0"",""0""
","""event"",""trial"",""time""
""fullscreenenter"",""1"",""2809""
","
","","","-1","","","21","13362","5850","g","elianto","#f73b6a7A","-1","-1","1","0","[]","0","2","","","13362","65","3","4","lose","no-go","0"
"pit-trial","184","1209548","0.0-70.0","battery-v0.2","","""event"",""trial"",""time""
""focus"",""0"",""0""
""fullscreenenter"",""1"",""2809""
","
","""event"",""trial"",""time""
""focus"",""0"",""0""
","""event"",""trial"",""time""
""fullscreenenter"",""1"",""2809""
","
","","","1212","","","21","13362","5850","s","elianto","#3366ff99","-1"," ","0","0","[2068]","1","2","","","13362","66","5","2","win","no-go","0"
"pit-trial","185","1214417","0.0-71.0","battery-v0.2","","""event"",""trial"",""time""
""focus"",""0"",""0""
""fullscreenenter"",""1"",""2809""
","
","""event"",""trial"",""time""
""focus"",""0"",""0""
","""event"",""trial"",""time""
""fullscreenenter"",""1"",""2809""
","
","","","-1","","","21","13362","5850","l","elianto","#3366ff99","-1","-1","1","0","[]","0","2","","","13362","67","1","2","win","no-go","1"
"pit-trial","186","1218223","0.0-72.0","battery-v0.2","","""event"",""trial"",""time""
""focus"",""0"",""0""
""fullscreenenter"",""1"",""2809""
","
","""event"",""trial"",""time""
""focus"",""0"",""0""
","""event"",""trial"",""time""
""fullscreenenter"",""1"",""2809""
","
","","","949","","","21","13362","5850","p","elianto","#3366ff99"," "," ","1","+10","[1801]","1","2","","","13362","68","4","1","win","go","0"
"pit-trial","187","1223233","0.0-73.0","battery-v0.2","","""event"",""trial"",""time""
""focus"",""0"",""0""
""fullscreenenter"",""1"",""2809""
","
","""event"",""trial"",""time""
""focus"",""0"",""0""
","""event"",""trial"",""time""
""fullscreenenter"",""1"",""2809""
","
","","","-1","","","21","13362","5850","l","elianto","#3366ff99","-1","-1","1","0","[]","0","2","","","13362","69","1","2","win","no-go","1"
"pit-trial","188","1226967","0.0-74.0","battery-v0.2","","""event"",""trial"",""time""
""focus"",""0"",""0""
""fullscreenenter"",""1"",""2809""
","
","""event"",""trial"",""time""
""focus"",""0"",""0""
","""event"",""trial"",""time""
""fullscreenenter"",""1"",""2809""
","
","","","871","","","21","13362","5850","a","elianto","#f73b6a7A"," "," ","1","-10","[1729]","1","2","","","13362","70","2","3","lose","go","1"
"pit-trial","189","1230694","0.0-75.0","battery-v0.2","","""event"",""trial"",""time""
""focus"",""0"",""0""
""fullscreenenter"",""1"",""2809""
","
","""event"",""trial"",""time""
""focus"",""0"",""0""
","""event"",""trial"",""time""
""fullscreenenter"",""1"",""2809""
","
","","","866","","","21","13362","5850","s","elianto","#3366ff99","-1"," ","0","0","[1722]","1","2","","","13362","71","5","2","win","no-go","0"
"pit-trial","190","1234319","0.0-76.0","battery-v0.2","","""event"",""trial"",""time""
""focus"",""0"",""0""
""fullscreenenter"",""1"",""2809""
","
","""event"",""trial"",""time""
""focus"",""0"",""0""
","""event"",""trial"",""time""
""fullscreenenter"",""1"",""2809""
","
","","","748","","","21","13362","5850","p","elianto","#3366ff99"," "," ","1","+10","[1610]","1","2","","","13362","72","4","1","win","go","0"
"pit-trial","191","1239435","0.0-77.0","battery-v0.2","","""event"",""trial"",""time""
""focus"",""0"",""0""
""fullscreenenter"",""1"",""2809""
","
","""event"",""trial"",""time""
""focus"",""0"",""0""
","""event"",""trial"",""time""
""fullscreenenter"",""1"",""2809""
","
","","","-1","","","21","13362","5850","s","elianto","#3366ff99","-1","-1","1","+10","[]","0","2","","","13362","73","5","2","win","no-go","0"
"pit-trial","192","1242839","0.0-78.0","battery-v0.2","","""event"",""trial"",""time""
""focus"",""0"",""0""
""fullscreenenter"",""1"",""2809""
","
","""event"",""trial"",""time""
""focus"",""0"",""0""
","""event"",""trial"",""time""
""fullscreenenter"",""1"",""2809""
","
","","","536","","","21","13362","5850","p","elianto","#3366ff99"," "," ","1","+10","[1396]","1","2","","","13362","74","4","1","win","go","0"
"pit-trial","193","1247708","0.0-79.0","battery-v0.2","","""event"",""trial"",""time""
""focus"",""0"",""0""
""fullscreenenter"",""1"",""2809""
","
","""event"",""trial"",""time""
""focus"",""0"",""0""
","""event"",""trial"",""time""
""fullscreenenter"",""1"",""2809""
","
","","","-1","","","21","13362","5850","l","elianto","#3366ff99","-1","-1","1","+10","[]","0","2","","","13362","75","1","2","win","no-go","0"
"pit-trial","194","1252579","0.0-80.0","battery-v0.2","","""event"",""trial"",""time""
""focus"",""0"",""0""
""fullscreenenter"",""1"",""2809""
","
","""event"",""trial"",""time""
""focus"",""0"",""0""
","""event"",""trial"",""time""
""fullscreenenter"",""1"",""2809""
","
","","","-1","","","21","13362","5850","g","elianto","#f73b6a7A","-1","-1","1","-10","[]","0","2","","","13362","76","3","4","lose","no-go","1"
"pit-trial","195","1257446","0.0-81.0","battery-v0.2","","""event"",""trial"",""time""
""focus"",""0"",""0""
""fullscreenenter"",""1"",""2809""
","
","""event"",""trial"",""time""
""focus"",""0"",""0""
","""event"",""trial"",""time""
""fullscreenenter"",""1"",""2809""
","
","","","-1","","","21","13362","5850","s","elianto","#3366ff99","-1","-1","1","0","[]","0","2","","","13362","77","5","2","win","no-go","1"
"pit-trial","196","1262301","0.0-82.0","battery-v0.2","","""event"",""trial"",""time""
""focus"",""0"",""0""
""fullscreenenter"",""1"",""2809""
","
","""event"",""trial"",""time""
""focus"",""0"",""0""
","""event"",""trial"",""time""
""fullscreenenter"",""1"",""2809""
","
","","","-1","","","21","13362","5850","g","elianto","#f73b6a7A","-1","-1","1","0","[]","0","2","","","13362","78","3","4","lose","no-go","0"
"pit-trial","197","1265736","0.0-83.0","battery-v0.2","","""event"",""trial"",""time""
""focus"",""0"",""0""
""fullscreenenter"",""1"",""2809""
","
","""event"",""trial"",""time""
""focus"",""0"",""0""
","""event"",""trial"",""time""
""fullscreenenter"",""1"",""2809""
","
","","","566","","","21","13362","5850","p","elianto","#3366ff99"," "," ","1","0","[1426]","1","2","","","13362","79","4","1","win","go","1"
"pit-trial","198","1269355","0.0-84.0","battery-v0.2","","""event"",""trial"",""time""
""focus"",""0"",""0""
""fullscreenenter"",""1"",""2809""
","
","""event"",""trial"",""time""
""focus"",""0"",""0""
","""event"",""trial"",""time""
""fullscreenenter"",""1"",""2809""
","
","","","749","","","21","13362","5850","p","elianto","#3366ff99"," "," ","1","+10","[1607]","1","2","","","13362","80","4","1","win","go","0"
"pit-trial","199","1272838","0.0-85.0","battery-v0.2","","""event"",""trial"",""time""
""focus"",""0"",""0""
""fullscreenenter"",""1"",""2809""
","
","""event"",""trial"",""time""
""focus"",""0"",""0""
","""event"",""trial"",""time""
""fullscreenenter"",""1"",""2809""
","
","","","622","","","21","13362","5850","p","elianto","#3366ff99"," "," ","1","+10","[1484]","1","2","","","13362","81","4","1","win","go","0"
"pit-trial","200","1277696","0.0-86.0","battery-v0.2","","""event"",""trial"",""time""
""focus"",""0"",""0""
""fullscreenenter"",""1"",""2809""
","
","""event"",""trial"",""time""
""focus"",""0"",""0""
","""event"",""trial"",""time""
""fullscreenenter"",""1"",""2809""
","
","","","-1","","","21","13362","5850","g","elianto","#f73b6a7A","-1","-1","1","0","[]","0","2","","","13362","82","3","4","lose","no-go","0"
"pit-trial","201","1281235","0.0-87.0","battery-v0.2","","""event"",""trial"",""time""
""focus"",""0"",""0""
""fullscreenenter"",""1"",""2809""
","
","""event"",""trial"",""time""
""focus"",""0"",""0""
","""event"",""trial"",""time""
""fullscreenenter"",""1"",""2809""
","
","","","673","","","21","13362","5850","s","elianto","#3366ff99","-1"," ","0","0","[1533]","1","2","","","13362","83","5","2","win","no-go","0"
"pit-trial","202","1285383","0.0-88.0","battery-v0.2","","""event"",""trial"",""time""
""focus"",""0"",""0""
""fullscreenenter"",""1"",""2809""
","
","""event"",""trial"",""time""
""focus"",""0"",""0""
","""event"",""trial"",""time""
""fullscreenenter"",""1"",""2809""
","
","","","1292","","","21","13362","5850","e","elianto","#f73b6a7A","-1"," ","0","0","[2147]","1","2","","","13362","84","7","4","lose","no-go","1"
"pit-trial","203","1290397","0.0-89.0","battery-v0.2","","""event"",""trial"",""time""
""focus"",""0"",""0""
""fullscreenenter"",""1"",""2809""
","
","""event"",""trial"",""time""
""focus"",""0"",""0""
","""event"",""trial"",""time""
""fullscreenenter"",""1"",""2809""
","
","","","-1","","","21","13362","5850","w","elianto","#f73b6a7A"," ","-1","0","-10","[]","0","2","","","13362","85","6","3","lose","go","0"
"pit-trial","204","1295256","0.0-90.0","battery-v0.2","","""event"",""trial"",""time""
""focus"",""0"",""0""
""fullscreenenter"",""1"",""2809""
","
","""event"",""trial"",""time""
""focus"",""0"",""0""
","""event"",""trial"",""time""
""fullscreenenter"",""1"",""2809""
","
","","","-1","","","21","13362","5850","e","elianto","#f73b6a7A","-1","-1","1","0","[]","0","2","","","13362","86","7","4","lose","no-go","0"
"pit-trial","205","1299016","0.0-91.0","battery-v0.2","","""event"",""trial"",""time""
""focus"",""0"",""0""
""fullscreenenter"",""1"",""2809""
","
","""event"",""trial"",""time""
""focus"",""0"",""0""
","""event"",""trial"",""time""
""fullscreenenter"",""1"",""2809""
","
","","","897","","","21","13362","5850","s","elianto","#3366ff99","-1"," ","0","0","[1755]","1","2","","","13362","87","5","2","win","no-go","0"
"pit-trial","206","1302681","0.0-92.0","battery-v0.2","","""event"",""trial"",""time""
""focus"",""0"",""0""
""fullscreenenter"",""1"",""2809""
","
","""event"",""trial"",""time""
""focus"",""0"",""0""
","""event"",""trial"",""time""
""fullscreenenter"",""1"",""2809""
","
","","","787","","","21","13362","5850","p","elianto","#3366ff99"," "," ","1","+10","[1660]","1","2","","","13362","88","4","1","win","go","0"
"pit-trial","207","1307535","0.0-93.0","battery-v0.2","","""event"",""trial"",""time""
""focus"",""0"",""0""
""fullscreenenter"",""1"",""2809""
","
","""event"",""trial"",""time""
""focus"",""0"",""0""
","""event"",""trial"",""time""
""fullscreenenter"",""1"",""2809""
","
","","","-1","","","21","13362","5850","e","elianto","#f73b6a7A","-1","-1","1","-10","[]","0","2","","","13362","89","7","4","lose","no-go","1"
"pit-trial","208","1312395","0.0-94.0","battery-v0.2","","""event"",""trial"",""time""
""focus"",""0"",""0""
""fullscreenenter"",""1"",""2809""
","
","""event"",""trial"",""time""
""focus"",""0"",""0""
","""event"",""trial"",""time""
""fullscreenenter"",""1"",""2809""
","
","","","-1","","","21","13362","5850","w","elianto","#f73b6a7A"," ","-1","0","0","[]","0","2","","","13362","90","6","3","lose","go","1"
"pit-trial","209","1316427","0.0-95.0","battery-v0.2","","""event"",""trial"",""time""
""focus"",""0"",""0""
""fullscreenenter"",""1"",""2809""
","
","""event"",""trial"",""time""
""focus"",""0"",""0""
","""event"",""trial"",""time""
""fullscreenenter"",""1"",""2809""
","
","","","1169","","","21","13362","5850","p","elianto","#3366ff99"," "," ","1","+10","[2025]","1","2","","","13362","91","4","1","win","go","0"
"pit-trial","210","1321447","0.0-96.0","battery-v0.2","","""event"",""trial"",""time""
""focus"",""0"",""0""
""fullscreenenter"",""1"",""2809""
","
","""event"",""trial"",""time""
""focus"",""0"",""0""
","""event"",""trial"",""time""
""fullscreenenter"",""1"",""2809""
","
","","","-1","","","21","13362","5850","s","elianto","#3366ff99","-1","-1","1","+10","[]","0","2","","","13362","92","5","2","win","no-go","0"
"pit-trial","211","1326451","0.0-97.0","battery-v0.2","","""event"",""trial"",""time""
""focus"",""0"",""0""
""fullscreenenter"",""1"",""2809""
","
","""event"",""trial"",""time""
""focus"",""0"",""0""
","""event"",""trial"",""time""
""fullscreenenter"",""1"",""2809""
","
","","","-1","","","21","13362","5850","s","elianto","#3366ff99","-1","-1","1","+10","[]","0","2","","","13362","93","5","2","win","no-go","0"
"pit-trial","212","1330489","0.0-98.0","battery-v0.2","","""event"",""trial"",""time""
""focus"",""0"",""0""
""fullscreenenter"",""1"",""2809""
","
","""event"",""trial"",""time""
""focus"",""0"",""0""
","""event"",""trial"",""time""
""fullscreenenter"",""1"",""2809""
","
","","","1068","","","21","13362","5850","d","elianto","#3366ff99"," "," ","1","+10","[1919]","1","2","","","13362","94","8","1","win","go","0"
"pit-trial","213","1335394","0.0-99.0","battery-v0.2","","""event"",""trial"",""time""
""focus"",""0"",""0""
""fullscreenenter"",""1"",""2809""
","
","""event"",""trial"",""time""
""focus"",""0"",""0""
","""event"",""trial"",""time""
""fullscreenenter"",""1"",""2809""
","
","","","-1","","","21","13362","5850","w","elianto","#f73b6a7A"," ","-1","0","-10","[]","0","2","","","13362","95","6","3","lose","go","0"
"pit-trial","214","1339969","0.0-100.0","battery-v0.2","","""event"",""trial"",""time""
""focus"",""0"",""0""
""fullscreenenter"",""1"",""2809""
","
","""event"",""trial"",""time""
""focus"",""0"",""0""
","""event"",""trial"",""time""
""fullscreenenter"",""1"",""2809""
","
","","","1709","","","21","13362","5850","e","elianto","#f73b6a7A","-1"," ","0","-10","[2568]","1","2","","","13362","96","7","4","lose","no-go","0"
"pit-trial","215","1343620","0.0-101.0","battery-v0.2","","""event"",""trial"",""time""
""focus"",""0"",""0""
""fullscreenenter"",""1"",""2809""
","
","""event"",""trial"",""time""
""focus"",""0"",""0""
","""event"",""trial"",""time""
""fullscreenenter"",""1"",""2809""
","
","","","783","","","21","13362","5850","e","elianto","#f73b6a7A","-1"," ","0","-10","[1639]","1","2","","","13362","97","7","4","lose","no-go","0"
"pit-trial","216","1347941","0.0-102.0","battery-v0.2","","""event"",""trial"",""time""
""focus"",""0"",""0""
""fullscreenenter"",""1"",""2809""
","
","""event"",""trial"",""time""
""focus"",""0"",""0""
","""event"",""trial"",""time""
""fullscreenenter"",""1"",""2809""
","
","","","1463","","","21","13362","5850","w","elianto","#f73b6a7A"," "," ","1","0","[2317]","1","2","","","13362","98","6","3","lose","go","0"
"pit-trial","217","1352807","0.0-103.0","battery-v0.2","","""event"",""trial"",""time""
""focus"",""0"",""0""
""fullscreenenter"",""1"",""2809""
","
","""event"",""trial"",""time""
""focus"",""0"",""0""
","""event"",""trial"",""time""
""fullscreenenter"",""1"",""2809""
","
","","","-1","","","21","13362","5850","s","elianto","#3366ff99","-1","-1","1","+10","[]","0","2","","","13362","99","5","2","win","no-go","0"
"pit-trial","218","1356693","0.0-104.0","battery-v0.2","","""event"",""trial"",""time""
""focus"",""0"",""0""
""fullscreenenter"",""1"",""2809""
","
","""event"",""trial"",""time""
""focus"",""0"",""0""
","""event"",""trial"",""time""
""fullscreenenter"",""1"",""2809""
","
","","","744","","","21","13362","5850","d","elianto","#3366ff99"," "," ","1","+10","[1632]","1","2","","","13362","100","8","1","win","go","0"
"pit-trial","219","1360801","0.0-105.0","battery-v0.2","","""event"",""trial"",""time""
""focus"",""0"",""0""
""fullscreenenter"",""1"",""2809""
","
","""event"",""trial"",""time""
""focus"",""0"",""0""
","""event"",""trial"",""time""
""fullscreenenter"",""1"",""2809""
","
","","","1240","","","21","13362","5850","e","elianto","#f73b6a7A","-1"," ","0","0","[2099]","1","2","","","13362","101","7","4","lose","no-go","1"
"pit-trial","220","1364445","0.0-106.0","battery-v0.2","","""event"",""trial"",""time""
""focus"",""0"",""0""
""fullscreenenter"",""1"",""2809""
","
","""event"",""trial"",""time""
""focus"",""0"",""0""
","""event"",""trial"",""time""
""fullscreenenter"",""1"",""2809""
","
","","","665","","","21","13362","5850","d","elianto","#3366ff99"," "," ","1","+10","[1525]","1","2","","","13362","102","8","1","win","go","0"
"pit-trial","221","1368498","0.0-107.0","battery-v0.2","","""event"",""trial"",""time""
""focus"",""0"",""0""
""fullscreenenter"",""1"",""2809""
","
","""event"",""trial"",""time""
""focus"",""0"",""0""
","""event"",""trial"",""time""
""fullscreenenter"",""1"",""2809""
","
","","","1182","","","21","13362","5850","j","elianto","#3366ff99"," "," ","1","0","[2041]","1","2","","","13362","103","9","1","win","go","1"
"pit-trial","222","1373358","0.0-108.0","battery-v0.2","","""event"",""trial"",""time""
""focus"",""0"",""0""
""fullscreenenter"",""1"",""2809""
","
","""event"",""trial"",""time""
""focus"",""0"",""0""
","""event"",""trial"",""time""
""fullscreenenter"",""1"",""2809""
","
","","","-1","","","21","13362","5850","s","elianto","#3366ff99","-1","-1","1","+10","[]","0","2","","","13362","104","5","2","win","no-go","0"
"pit-trial","223","1377146","0.0-109.0","battery-v0.2","","""event"",""trial"",""time""
""focus"",""0"",""0""
""fullscreenenter"",""1"",""2809""
","
","""event"",""trial"",""time""
""focus"",""0"",""0""
","""event"",""trial"",""time""
""fullscreenenter"",""1"",""2809""
","
","","","922","","","21","13362","5850","d","elianto","#3366ff99"," "," ","1","+10","[1777]","1","2","","","13362","105","8","1","win","go","0"
"pit-trial","224","1381169","0.0-110.0","battery-v0.2","","""event"",""trial"",""time""
""focus"",""0"",""0""
""fullscreenenter"",""1"",""2809""
","
","""event"",""trial"",""time""
""focus"",""0"",""0""
","""event"",""trial"",""time""
""fullscreenenter"",""1"",""2809""
","
","","","1019","","","21","13362","5850","w","elianto","#f73b6a7A"," "," ","1","-10","[1875]","1","2","","","13362","106","6","3","lose","go","1"
"pit-trial","225","1384744","0.0-111.0","battery-v0.2","","""event"",""trial"",""time""
""focus"",""0"",""0""
""fullscreenenter"",""1"",""2809""
","
","""event"",""trial"",""time""
""focus"",""0"",""0""
","""event"",""trial"",""time""
""fullscreenenter"",""1"",""2809""
","
","","","715","","","21","13362","5850","p","elianto","#3366ff99"," "," ","1","+10","[1572]","1","2","","","13362","107","4","1","win","go","0"
"pit-trial","226","1389609","0.0-112.0","battery-v0.2","","""event"",""trial"",""time""
""focus"",""0"",""0""
""fullscreenenter"",""1"",""2809""
","
","""event"",""trial"",""time""
""focus"",""0"",""0""
","""event"",""trial"",""time""
""fullscreenenter"",""1"",""2809""
","
","","","-1","","","21","13362","5850","j","elianto","#3366ff99"," ","-1","0","0","[]","0","2","","","13362","108","9","1","win","go","0"
"pit-trial","227","1393329","0.0-113.0","battery-v0.2","","""event"",""trial"",""time""
""focus"",""0"",""0""
""fullscreenenter"",""1"",""2809""
","
","""event"",""trial"",""time""
""focus"",""0"",""0""
","""event"",""trial"",""time""
""fullscreenenter"",""1"",""2809""
","
","","","696","","","21","13362","5850","d","elianto","#3366ff99"," "," ","1","0","[1555]","1","2","","","13362","109","8","1","win","go","1"
"pit-trial","228","1398203","0.0-114.0","battery-v0.2","","""event"",""trial"",""time""
""focus"",""0"",""0""
""fullscreenenter"",""1"",""2809""
","
","""event"",""trial"",""time""
""focus"",""0"",""0""
","""event"",""trial"",""time""
""fullscreenenter"",""1"",""2809""
","
","","","-1","","","21","13362","5850","w","elianto","#f73b6a7A"," ","-1","0","-10","[]","0","2","","","13362","110","6","3","lose","go","0"
"pit-trial","229","1403214","0.0-115.0","battery-v0.2","","""event"",""trial"",""time""
""focus"",""0"",""0""
""fullscreenenter"",""1"",""2809""
","
","""event"",""trial"",""time""
""focus"",""0"",""0""
","""event"",""trial"",""time""
""fullscreenenter"",""1"",""2809""
","
","","","-1","","","21","13362","5850","j","elianto","#3366ff99"," ","-1","0","0","[]","0","2","","","13362","111","9","1","win","go","0"
"pit-trial","230","1408079","0.0-116.0","battery-v0.2","","""event"",""trial"",""time""
""focus"",""0"",""0""
""fullscreenenter"",""1"",""2809""
","
