"trial_type","trial_index","time_elapsed","internal_node_id","task_version","subject_id","interactions","blur_events","focus_events","fullscreenenter_events","fullscreenexit_events","success","view_history","rt","responses","num_errors","age","subject","participantId","rune","rune_set","hex","correct","choice","accuracy","outcome","keys","total_keys","block","practice","value"
"pavlovia","0","3","0.0-0.0","battery-v0.2","","""event"",""trial"",""time""
""fullscreenenter"",""1"",""2169""
","
","
","""event"",""trial"",""time""
""fullscreenenter"",""1"",""2169""
","
","","","","","","","","","","","","","","","","","","","",""
"fullscreen","1","3149","0.0-1.0","battery-v0.2","","""event"",""trial"",""time""
""fullscreenenter"",""1"",""2169""
","
","
","""event"",""trial"",""time""
""fullscreenenter"",""1"",""2169""
","
","true","","","","","","","","","","","","","","","","","","",""
"pit-instructions","2","9222","0.0-2.0-0.0","battery-v0.2","","""event"",""trial"",""time""
""fullscreenenter"",""1"",""2169""
","
","
","""event"",""trial"",""time""
""fullscreenenter"",""1"",""2169""
","
","","[{""page_index"":0,""viewing_time"":6066.900000002235}]","6067.800000000745","","","","","","","","","","","","","","","","",""
"pit-comprehension","3","12686","0.0-2.0-1.0-0.0","battery-v0.2","","""event"",""trial"",""time""
""fullscreenenter"",""1"",""2169""
","
","
","""event"",""trial"",""time""
""fullscreenenter"",""1"",""2169""
","
","","","3454.39999999851","[""shark""]","0","18","3089","2446","","","","","","","","","","","",""
"pit-instructions","4","13957","0.0-2.0-1.0-1.0","battery-v0.2","","""event"",""trial"",""time""
""fullscreenenter"",""1"",""2169""
","
","
","""event"",""trial"",""time""
""fullscreenenter"",""1"",""2169""
","
","","[{""page_index"":0,""viewing_time"":1265.199999999255}]","1265.8999999985099","","","","","","","","","","","","","","","","",""
"pit-comprehension","5","16979","0.0-2.0-2.0-0.0","battery-v0.2","","""event"",""trial"",""time""
""fullscreenenter"",""1"",""2169""
","
","
","""event"",""trial"",""time""
""fullscreenenter"",""1"",""2169""
","
","","","3012.5","[""tiger""]","0","18","3089","2446","","","","","","","","","","","",""
"pit-instructions","6","18213","0.0-2.0-2.0-1.0","battery-v0.2","","""event"",""trial"",""time""
""fullscreenenter"",""1"",""2169""
","
","
","""event"",""trial"",""time""
""fullscreenenter"",""1"",""2169""
","
","","[{""page_index"":0,""viewing_time"":1223.800000000745}]","1224.800000000745","","","","","","","","","","","","","","","","",""
"pit-instructions","7","116773","0.0-2.0-3.0","battery-v0.2","","""event"",""trial"",""time""
""fullscreenenter"",""1"",""2169""
","
","
","""event"",""trial"",""time""
""fullscreenenter"",""1"",""2169""
","
","","[{""page_index"":0,""viewing_time"":9605.099999997765},{""page_index"":1,""viewing_time"":5162.60000000149},{""page_index"":2,""viewing_time"":6571.5},{""page_index"":3,""viewing_time"":5027.699999999255},{""page_index"":4,""viewing_time"":5235.60000000149},{""page_index"":5,""viewing_time"":6349.29999999702},{""page_index"":6,""viewing_time"":7390.70000000298},{""page_index"":7,""viewing_time"":7277.699999999255},{""page_index"":8,""viewing_time"":6925.699999999255},{""page_index"":9,""viewing_time"":7634.60000000149},{""page_index"":10,""viewing_time"":7480.699999999255},{""page_index"":11,""viewing_time"":8695.800000000745},{""page_index"":12,""viewing_time"":10006.89999999851},{""page_index"":13,""viewing_time"":5181.39999999851}]","98546.39999999851","","","","","","","","","","","","","","","","",""
"pit-trial","8","120176","0.0-2.0-4.0-0.0","battery-v0.2","","""event"",""trial"",""time""
""fullscreenenter"",""1"",""2169""
","
","
","""event"",""trial"",""time""
""fullscreenenter"",""1"",""2169""
","
","","","540.9000000022352","","","18","3089","2446","&#9784;","elianto","#FFFFF080"," "," ","1","&#10004","[1393.4000000022352]","1","0","0",""
"pit-trial","9","123465","0.0-2.0-4.1-0.1","battery-v0.2","","""event"",""trial"",""time""
""fullscreenenter"",""1"",""2169""
","
","
","""event"",""trial"",""time""
""fullscreenenter"",""1"",""2169""
","
","","","411","","","18","3089","2446","&#9784;","elianto","#FFFFF080"," "," ","1","&#10004","[1273]","1","0","0",""
"pit-trial","10","126818","0.0-2.0-4.2-0.2","battery-v0.2","","""event"",""trial"",""time""
""fullscreenenter"",""1"",""2169""
","
","
","""event"",""trial"",""time""
""fullscreenenter"",""1"",""2169""
","
","","","475.80000000074506","","","18","3089","2446","&#9784;","elianto","#FFFFF080"," "," ","1","&#10004","[1331.1000000014901]","1","0","0",""
"pit-trial","11","130056","0.0-2.0-4.3-0.3","battery-v0.2","","""event"",""trial"",""time""
""fullscreenenter"",""1"",""2169""
","
","
","""event"",""trial"",""time""
""fullscreenenter"",""1"",""2169""
","
","","","377.3999999985099","","","18","3089","2446","&#9784;","elianto","#FFFFF080"," "," ","1","&#10004","[1232.3999999985099]","1","0","0",""
"pit-trial","12","133305","0.0-2.0-4.4-0.4","battery-v0.2","","""event"",""trial"",""time""
""fullscreenenter"",""1"",""2169""
","
","
","""event"",""trial"",""time""
""fullscreenenter"",""1"",""2169""
","
","","","386.80000000074506","","","18","3089","2446","&#9784;","elianto","#FFFFF080"," "," ","1","&#10004","[1238.1000000014901]","1","0","0",""
"pit-instructions","13","189214","0.0-2.0-5.0","battery-v0.2","","""event"",""trial"",""time""
""fullscreenenter"",""1"",""2169""
","
","
","""event"",""trial"",""time""
""fullscreenenter"",""1"",""2169""
","
","","[{""page_index"":0,""viewing_time"":4618.699999999255},{""page_index"":1,""viewing_time"":7267.5},{""page_index"":2,""viewing_time"":25014.199999999255},{""page_index"":3,""viewing_time"":19003.5}]","55904.60000000149","","","","","","","","","","","","","","","","",""
"pit-trial","14","193146","0.0-2.0-6.0-0.0","battery-v0.2","","""event"",""trial"",""time""
""fullscreenenter"",""1"",""2169""
","
","
","""event"",""trial"",""time""
""fullscreenenter"",""1"",""2169""
","
","","","1058.3999999985099","","","18","3089","2446","&#9854;","elianto","#FFFFF080","-1"," ","0","&#10060","[1911.0999999977648]","1","0","1",""
"pit-trial","15","196596","0.0-2.0-6.1-0.1","battery-v0.2","","""event"",""trial"",""time""
""fullscreenenter"",""1"",""2169""
","
","
","""event"",""trial"",""time""
""fullscreenenter"",""1"",""2169""
","
","","","578.5","","","18","3089","2446","&#9854;","elianto","#FFFFF080","-1"," ","0","&#10060","[1430.5999999977648]","1","0","1",""
"pit-trial","16","200016","0.0-2.0-6.2-0.2","battery-v0.2","","""event"",""trial"",""time""
""fullscreenenter"",""1"",""2169""
","
","
","""event"",""trial"",""time""
""fullscreenenter"",""1"",""2169""
","
","","","549","","","18","3089","2446","&#9854;","elianto","#FFFFF080","-1"," ","0","&#10060","[1402.5]","1","0","1",""
"pit-trial","17","203436","0.0-2.0-6.3-0.3","battery-v0.2","","""event"",""trial"",""time""
""fullscreenenter"",""1"",""2169""
","
","
","""event"",""trial"",""time""
""fullscreenenter"",""1"",""2169""
","
","","","544","","","18","3089","2446","&#9854;","elianto","#FFFFF080","-1"," ","0","&#10060","[1394.699999999255]","1","0","1",""
"pit-trial","18","207176","0.0-2.0-6.4-0.4","battery-v0.2","","""event"",""trial"",""time""
""fullscreenenter"",""1"",""2169""
","
","
","""event"",""trial"",""time""
""fullscreenenter"",""1"",""2169""
","
","","","868.5","","","18","3089","2446","&#9854;","elianto","#FFFFF080","-1"," ","0","&#10060","[1727]","1","0","1",""
"pit-trial","19","212046","0.0-2.0-6.5-0.5","battery-v0.2","","""event"",""trial"",""time""
""fullscreenenter"",""1"",""2169""
","
","
","""event"",""trial"",""time""
""fullscreenenter"",""1"",""2169""
","
","","","-1","","","18","3089","2446","&#9854;","elianto","#FFFFF080","-1","-1","1","&#10004","[]","0","0","1",""
"pit-trial","20","216036","0.0-2.0-6.6-0.6","battery-v0.2","","""event"",""trial"",""time""
""fullscreenenter"",""1"",""2169""
","
","
","""event"",""trial"",""time""
""fullscreenenter"",""1"",""2169""
","
","","","1126.8999999985099","","","18","3089","2446","&#9854;","elianto","#FFFFF080","-1"," ","0","&#10060","[1977.9000000022352]","1","0","1",""
"pit-instructions","21","232341","0.0-2.0-6.6-1.6-0.6","battery-v0.2","","""event"",""trial"",""time""
""fullscreenenter"",""1"",""2169""
","
","
","""event"",""trial"",""time""
""fullscreenenter"",""1"",""2169""
","
","","[{""page_index"":0,""viewing_time"":5788.199999999255},{""page_index"":1,""viewing_time"":10514.800000000745}]","16304","","","","","","","","","","","","","","","","",""
"pit-trial","22","237013","0.0-2.0-6.7-0.7","battery-v0.2","","""event"",""trial"",""time""
""fullscreenenter"",""1"",""2169""
","
","
","""event"",""trial"",""time""
""fullscreenenter"",""1"",""2169""
","
","","","1806","","","18","3089","2446","&#9854;","elianto","#FFFFF080","-1"," ","0","&#10060","[2660.099999997765]","1","0","1",""
"pit-trial","23","241883","0.0-2.0-6.8-0.8","battery-v0.2","","""event"",""trial"",""time""
""fullscreenenter"",""1"",""2169""
","
","
","""event"",""trial"",""time""
""fullscreenenter"",""1"",""2169""
","
","","","-1","","","18","3089","2446","&#9854;","elianto","#FFFFF080","-1","-1","1","&#10004","[]","0","0","1",""
"pit-trial","24","245183","0.0-2.0-6.9-0.9","battery-v0.2","","""event"",""trial"",""time""
""fullscreenenter"",""1"",""2169""
","
","
","""event"",""trial"",""time""
""fullscreenenter"",""1"",""2169""
","
","","","435.70000000298023","","","18","3089","2446","&#9854;","elianto","#FFFFF080","-1"," ","0","&#10060","[1286.300000000745]","1","0","1",""
"pit-trial","25","248993","0.0-2.0-6.10-0.10","battery-v0.2","","""event"",""trial"",""time""
""fullscreenenter"",""1"",""2169""
","
","
","""event"",""trial"",""time""
""fullscreenenter"",""1"",""2169""
","
","","","949.6999999992549","","","18","3089","2446","&#9854;","elianto","#FFFFF080","-1"," ","0","&#10060","[1800.6000000014901]","1","0","1",""
"pit-trial","26","252063","0.0-2.0-6.11-0.11","battery-v0.2","","""event"",""trial"",""time""
""fullscreenenter"",""1"",""2169""
","
","
","""event"",""trial"",""time""
""fullscreenenter"",""1"",""2169""
","
","","","206.59999999776483","","","18","3089","2446","&#9854;","elianto","#FFFFF080","-1"," ","0","&#10060","[1060.8999999985099]","1","0","1",""
"pit-trial","27","255263","0.0-2.0-6.12-0.12","battery-v0.2","","""event"",""trial"",""time""
""fullscreenenter"",""1"",""2169""
","
","
","""event"",""trial"",""time""
""fullscreenenter"",""1"",""2169""
","
","","","334.8999999985099","","","18","3089","2446","&#9854;","elianto","#FFFFF080","-1"," ","0","&#10060","[1186.2000000029802]","1","0","1",""
"pit-trial","28","258862","0.0-2.0-6.13-0.13","battery-v0.2","","""event"",""trial"",""time""
""fullscreenenter"",""1"",""2169""
","
","
","""event"",""trial"",""time""
""fullscreenenter"",""1"",""2169""
","
","","","736.3000000007451","","","18","3089","2446","&#9854;","elianto","#FFFFF080","-1"," ","0","&#10060","[1587.699999999255]","1","0","1",""
"pit-trial","29","263732","0.0-2.0-6.14-0.14","battery-v0.2","","""event"",""trial"",""time""
""fullscreenenter"",""1"",""2169""
","
","
","""event"",""trial"",""time""
""fullscreenenter"",""1"",""2169""
","
","","","-1","","","18","3089","2446","&#9854;","elianto","#FFFFF080","-1","-1","1","&#10004","[]","0","0","1",""
"pit-instructions","30","282183","0.0-2.0-6.14-1.14-0.14","battery-v0.2","","""event"",""trial"",""time""
""fullscreenenter"",""1"",""2169""
","
","
","""event"",""trial"",""time""
""fullscreenenter"",""1"",""2169""
","
","","[{""page_index"":0,""viewing_time"":5809.89999999851},{""page_index"":1,""viewing_time"":12643.199999999255}]","18454","","","","","","","","","","","","","","","","",""
"pit-trial","31","285638","0.0-2.0-6.15-0.15","battery-v0.2","","""event"",""trial"",""time""
""fullscreenenter"",""1"",""2169""
","
","
","""event"",""trial"",""time""
""fullscreenenter"",""1"",""2169""
","
","","","585.5","","","18","3089","2446","&#9854;","elianto","#FFFFF080","-1"," ","0","&#10060","[1445.4000000022352]","1","0","1",""
"pit-trial","32","290509","0.0-2.0-6.16-0.16","battery-v0.2","","""event"",""trial"",""time""
""fullscreenenter"",""1"",""2169""
","
","
","""event"",""trial"",""time""
""fullscreenenter"",""1"",""2169""
","
","","","-1","","","18","3089","2446","&#9854;","elianto","#FFFFF080","-1","-1","1","&#10004","[]","0","0","1",""
"pit-trial","33","295379","0.0-2.0-6.17-0.17","battery-v0.2","","""event"",""trial"",""time""
""fullscreenenter"",""1"",""2169""
","
","
","""event"",""trial"",""time""
""fullscreenenter"",""1"",""2169""
","
","","","-1","","","18","3089","2446","&#9854;","elianto","#FFFFF080","-1","-1","1","&#10004","[]","0","0","1",""
"pit-trial","34","300259","0.0-2.0-6.18-0.18","battery-v0.2","","""event"",""trial"",""time""
""fullscreenenter"",""1"",""2169""
","
","
","""event"",""trial"",""time""
""fullscreenenter"",""1"",""2169""
","
","","","-1","","","18","3089","2446","&#9854;","elianto","#FFFFF080","-1","-1","1","&#10004","[]","0","0","1",""
"pit-instructions","35","434061","0.0-2.0-7.0","battery-v0.2","","""event"",""trial"",""time""
""fullscreenenter"",""1"",""2169""
","
","
","""event"",""trial"",""time""
""fullscreenenter"",""1"",""2169""
","
","","[{""page_index"":0,""viewing_time"":5474.89999999851},{""page_index"":1,""viewing_time"":6836.5},{""page_index"":2,""viewing_time"":5752.699999999255},{""page_index"":3,""viewing_time"":7184.199999999255},{""page_index"":4,""viewing_time"":9619.10000000149},{""page_index"":5,""viewing_time"":5407},{""page_index"":6,""viewing_time"":6600.60000000149},{""page_index"":7,""viewing_time"":7301.39999999851},{""page_index"":8,""viewing_time"":10967.300000000745},{""page_index"":9,""viewing_time"":5466.300000000745},{""page_index"":10,""viewing_time"":7969.099999997765},{""page_index"":11,""viewing_time"":5274.10000000149},{""page_index"":12,""viewing_time"":12941.599999997765},{""page_index"":13,""viewing_time"":7256.70000000298},{""page_index"":14,""viewing_time"":6405.199999999255},{""page_index"":15,""viewing_time"":8212.800000000745},{""page_index"":16,""viewing_time"":6516.199999999255},{""page_index"":17,""viewing_time"":8601.199999999255}]","133788","","","","","","","","","","","","","","","","",""
"pit-trial","36","437697","0.0-2.0-8.0-0.0","battery-v0.2","","""event"",""trial"",""time""
""fullscreenenter"",""1"",""2169""
","
","
","""event"",""trial"",""time""
""fullscreenenter"",""1"",""2169""
","
","","","768.8999999985099","","","18","3089","2446","&#9776;","elianto","#3366ff99"," "," ","1","+10","[1620.300000000745]","1","0","1",""
"pit-trial","37","441066","0.0-2.0-8.0-1.0","battery-v0.2","","""event"",""trial"",""time""
""fullscreenenter"",""1"",""2169""
","
","
","""event"",""trial"",""time""
""fullscreenenter"",""1"",""2169""
","
","","","510","","","18","3089","2446","&#9776;","elianto","#3366ff99"," "," ","1","+10","[1360.1000000014901]","1","0","1",""
"pit-trial","38","444346","0.0-2.0-8.0-2.0","battery-v0.2","","""event"",""trial"",""time""
""fullscreenenter"",""1"",""2169""
","
","
","""event"",""trial"",""time""
""fullscreenenter"",""1"",""2169""
","
","","","422.19999999925494","","","18","3089","2446","&#9776;","elianto","#3366ff99"," "," ","1","+10","[1274.8999999985099]","1","0","1",""
"pit-trial","39","447606","0.0-2.0-8.0-3.0","battery-v0.2","","""event"",""trial"",""time""
""fullscreenenter"",""1"",""2169""
","
","
","""event"",""trial"",""time""
""fullscreenenter"",""1"",""2169""
","
","","","396.19999999925494","","","18","3089","2446","&#9776;","elianto","#3366ff99"," "," ","1","0","[1247.5]","1","0","1",""
"pit-trial","40","452476","0.0-2.0-8.0-4.0","battery-v0.2","","""event"",""trial"",""time""
""fullscreenenter"",""1"",""2169""
","
","
","""event"",""trial"",""time""
""fullscreenenter"",""1"",""2169""
","
","","","-1","","","18","3089","2446","&#9776;","elianto","#3366ff99"," ","-1","0","0","[]","0","0","1",""
"pit-trial","41","456566","0.0-2.0-8.1-0.1","battery-v0.2","","""event"",""trial"",""time""
""fullscreenenter"",""1"",""2169""
","
","
","""event"",""trial"",""time""
""fullscreenenter"",""1"",""2169""
","
","","","1212.4000000022352","","","18","3089","2446","&#9776;","elianto","#3366ff99"," "," ","1","+10","[2066]","1","0","1",""
"pit-trial","42","460666","0.0-2.0-8.1-1.1","battery-v0.2","","""event"",""trial"",""time""
""fullscreenenter"",""1"",""2169""
","
","
","""event"",""trial"",""time""
""fullscreenenter"",""1"",""2169""
","
","","","1239.300000000745","","","18","3089","2446","&#9776;","elianto","#3366ff99"," "," ","1","+10","[2092.5]","1","0","1",""
"pit-trial","43","464026","0.0-2.0-8.1-2.1","battery-v0.2","","""event"",""trial"",""time""
""fullscreenenter"",""1"",""2169""
","
","
","""event"",""trial"",""time""
""fullscreenenter"",""1"",""2169""
","
","","","501.0999999977648","","","18","3089","2446","&#9776;","elianto","#3366ff99"," "," ","1","+10","[1354.199999999255]","1","0","1",""
"pit-trial","44","467315","0.0-2.0-8.1-3.1","battery-v0.2","","""event"",""trial"",""time""
""fullscreenenter"",""1"",""2169""
","
","
","""event"",""trial"",""time""
""fullscreenenter"",""1"",""2169""
","
","","","426.30000000074506","","","18","3089","2446","&#9776;","elianto","#3366ff99"," "," ","1","0","[1281.7000000029802]","1","0","1",""
"pit-trial","45","470624","0.0-2.0-8.1-4.1","battery-v0.2","","""event"",""trial"",""time""
""fullscreenenter"",""1"",""2169""
","
","
","""event"",""trial"",""time""
""fullscreenenter"",""1"",""2169""
","
","","","443.70000000298023","","","18","3089","2446","&#9776;","elianto","#3366ff99"," "," ","1","+10","[1297.1000000014901]","1","0","1",""
"call-function","46","470628","0.0-2.0-9.0","battery-v0.2","","""event"",""trial"",""time""
""fullscreenenter"",""1"",""2169""
","
","
","""event"",""trial"",""time""
""fullscreenenter"",""1"",""2169""
","
","","","","","","","","","","","","","","","","","","","",""
"pit-instructions","47","551428","0.0-2.0-10.0","battery-v0.2","","""event"",""trial"",""time""
""fullscreenenter"",""1"",""2169""
","
","
","""event"",""trial"",""time""
""fullscreenenter"",""1"",""2169""
","
","","[{""page_index"":0,""viewing_time"":20892.800000000745},{""page_index"":1,""viewing_time"":32188.099999997765},{""page_index"":2,""viewing_time"":10320.20000000298},{""page_index"":3,""viewing_time"":9457.199999999255},{""page_index"":4,""viewing_time"":7937.89999999851}]","80797.39999999851","","","","","","","","","","","","","","","","",""
"pit-trial","48","555735","0.0-2.0-11.0-0.0","battery-v0.2","","""event"",""trial"",""time""
""fullscreenenter"",""1"",""2169""
","
","
","""event"",""trial"",""time""
""fullscreenenter"",""1"",""2169""
","
","","","1438.6000000014901","","","18","3089","2446","&#9761;","elianto","#3366ff99","-1"," ","0","0","[2300.099999997765]","1","0","2",""
"pit-trial","49","560615","0.0-2.0-11.0-1.0","battery-v0.2","","""event"",""trial"",""time""
""fullscreenenter"",""1"",""2169""
","
","
","""event"",""trial"",""time""
""fullscreenenter"",""1"",""2169""
","
","","","-1","","","18","3089","2446","&#9761;","elianto","#3366ff99","-1","-1","1","+10","[4563.79999999702]","1","0","2",""
"pit-trial","50","563496","0.0-2.0-11.0-2.0","battery-v0.2","","""event"",""trial"",""time""
""fullscreenenter"",""1"",""2169""
","
","
","""event"",""trial"",""time""
""fullscreenenter"",""1"",""2169""
","
","","","5.099999997764826","","","18","3089","2446","&#9761;","elianto","#3366ff99","-1"," ","0","0","[862,1095.5999999977648]","2","0","2",""
"pit-trial","51","566605","0.0-2.0-11.0-3.0","battery-v0.2","","""event"",""trial"",""time""
""fullscreenenter"",""1"",""2169""
","
","
","""event"",""trial"",""time""
""fullscreenenter"",""1"",""2169""
","
","","","230.89999999850988","","","18","3089","2446","&#9761;","elianto","#3366ff99","-1"," ","0","+10","[1090.699999999255]","1","0","2",""
"pit-trial","52","569660","0.0-2.0-11.0-4.0","battery-v0.2","","""event"",""trial"",""time""
""fullscreenenter"",""1"",""2169""
","
","
","""event"",""trial"",""time""
""fullscreenenter"",""1"",""2169""
","
","","","185.69999999925494","","","18","3089","2446","&#9761;","elianto","#3366ff99","-1"," ","0","0","[1037.5]","1","0","2",""
"pit-trial","53","572786","0.0-2.0-11.1-0.1","battery-v0.2","","""event"",""trial"",""time""
""fullscreenenter"",""1"",""2169""
","
","
","""event"",""trial"",""time""
""fullscreenenter"",""1"",""2169""
","
","","","265","","","18","3089","2446","&#9761;","elianto","#3366ff99","-1"," ","0","0","[1115.7999999970198]","1","0","2",""
"pit-trial","54","577652","0.0-2.0-11.1-1.1","battery-v0.2","","""event"",""trial"",""time""
""fullscreenenter"",""1"",""2169""
","
","
","""event"",""trial"",""time""
""fullscreenenter"",""1"",""2169""
","
","","","-1","","","18","3089","2446","&#9761;","elianto","#3366ff99","-1","-1","1","+10","[]","0","0","2",""
"pit-trial","55","581436","0.0-2.0-11.1-2.1","battery-v0.2","","""event"",""trial"",""time""
""fullscreenenter"",""1"",""2169""
","
","
","""event"",""trial"",""time""
""fullscreenenter"",""1"",""2169""
","
","","","916.6000000014901","","","18","3089","2446","&#9761;","elianto","#3366ff99","-1"," ","0","0","[1772.699999999255]","1","0","2",""
"pit-trial","56","584896","0.0-2.0-11.1-3.1","battery-v0.2","","""event"",""trial"",""time""
""fullscreenenter"",""1"",""2169""
","
","
","""event"",""trial"",""time""
""fullscreenenter"",""1"",""2169""
","
","","","591.1000000014901","","","18","3089","2446","&#9761;","elianto","#3366ff99","-1"," ","0","+10","[1446.300000000745]","1","0","2",""
"pit-trial","57","589765","0.0-2.0-11.1-4.1","battery-v0.2","","""event"",""trial"",""time""
""fullscreenenter"",""1"",""2169""
","
","
","""event"",""trial"",""time""
""fullscreenenter"",""1"",""2169""
","
","","","-1","","","18","3089","2446","&#9761;","elianto","#3366ff99","-1","-1","1","+10","[4288.699999999255]","1","0","2",""
"pit-trial","58","594585","0.0-2.0-11.2-0.2","battery-v0.2","","""event"",""trial"",""time""
""fullscreenenter"",""1"",""2169""
","
","
","""event"",""trial"",""time""
""fullscreenenter"",""1"",""2169""
","
","","","1954.6000000014901","","","18","3089","2446","&#9761;","elianto","#3366ff99","-1"," ","0","0","[2810.10000000149]","1","0","2",""
"pit-trial","59","597585","0.0-2.0-11.2-1.2","battery-v0.2","","""event"",""trial"",""time""
""fullscreenenter"",""1"",""2169""
","
","
","""event"",""trial"",""time""
""fullscreenenter"",""1"",""2169""
","
","","","126.5","","","18","3089","2446","&#9761;","elianto","#3366ff99","-1"," ","0","0","[982.9000000022352]","1","0","2",""
"pit-trial","60","600494","0.0-2.0-11.2-2.2","battery-v0.2","","""event"",""trial"",""time""
""fullscreenenter"",""1"",""2169""
","
","
","""event"",""trial"",""time""
""fullscreenenter"",""1"",""2169""
","
","","","38.20000000298023","","","18","3089","2446","&#9761;","elianto","#3366ff99","-1"," ","0","0","[894.5,1306.300000000745,1507.300000000745,1686.800000000745,1863.6000000014901,2042.6000000014901,2265.39999999851,2508.300000000745,2748.199999999255]","9","0","2",""
"pit-trial","61","605365","0.0-2.0-11.2-3.2","battery-v0.2","","""event"",""trial"",""time""
""fullscreenenter"",""1"",""2169""
","
","
","""event"",""trial"",""time""
""fullscreenenter"",""1"",""2169""
","
","","","-1","","","18","3089","2446","&#9761;","elianto","#3366ff99","-1","-1","1","0","[2973.89999999851]","1","0","2",""
"pit-trial","62","608374","0.0-2.0-11.2-4.2","battery-v0.2","","""event"",""trial"",""time""
""fullscreenenter"",""1"",""2169""
","
","
","""event"",""trial"",""time""
""fullscreenenter"",""1"",""2169""
","
","","","145.69999999925494","","","18","3089","2446","&#9761;","elianto","#3366ff99","-1"," ","0","0","[1002]","1","0","2",""
"pit-trial","63","611554","0.0-2.0-11.3-0.3","battery-v0.2","","""event"",""trial"",""time""
""fullscreenenter"",""1"",""2169""
","
","
","""event"",""trial"",""time""
""fullscreenenter"",""1"",""2169""
","
","","","319.19999999925494","","","18","3089","2446","&#9761;","elianto","#3366ff99","-1"," ","0","0","[1169.9000000022352]","1","0","2",""
"pit-trial","64","614655","0.0-2.0-11.3-1.3","battery-v0.2","","""event"",""trial"",""time""
""fullscreenenter"",""1"",""2169""
","
","
","""event"",""trial"",""time""
""fullscreenenter"",""1"",""2169""
","
","","","233.79999999701977","","","18","3089","2446","&#9761;","elianto","#3366ff99","-1"," ","0","0","[1088.699999999255]","1","0","2",""
"pit-trial","65","617671","0.0-2.0-11.3-2.3","battery-v0.2","","""event"",""trial"",""time""
""fullscreenenter"",""1"",""2169""
","
","
","""event"",""trial"",""time""
""fullscreenenter"",""1"",""2169""
","
","","","155.10000000149012","","","18","3089","2446","&#9761;","elianto","#3366ff99","-1"," ","0","0","[1009.1000000014901]","1","0","2",""
"pit-trial","66","620974","0.0-2.0-11.3-3.3","battery-v0.2","","""event"",""trial"",""time""
""fullscreenenter"",""1"",""2169""
","
","
","""event"",""trial"",""time""
""fullscreenenter"",""1"",""2169""
","
","","","448.1000000014901","","","18","3089","2446","&#9761;","elianto","#3366ff99","-1"," ","0","+10","[1298.199999999255]","1","0","2",""
"pit-trial","67","624236","0.0-2.0-11.3-4.3","battery-v0.2","","""event"",""trial"",""time""
""fullscreenenter"",""1"",""2169""
","
","
","""event"",""trial"",""time""
""fullscreenenter"",""1"",""2169""
","
","","","395","","","18","3089","2446","&#9761;","elianto","#3366ff99","-1"," ","0","0","[1248.3999999985099]","1","0","2",""
"pit-trial","68","627299","0.0-2.0-11.4-0.4","battery-v0.2","","""event"",""trial"",""time""
""fullscreenenter"",""1"",""2169""
","
","
","""event"",""trial"",""time""
""fullscreenenter"",""1"",""2169""
","
","","","199","","","18","3089","2446","&#9761;","elianto","#3366ff99","-1"," ","0","0","[1053.5]","1","0","2",""
"pit-trial","69","630944","0.0-2.0-11.4-1.4","battery-v0.2","","""event"",""trial"",""time""
""fullscreenenter"",""1"",""2169""
","
","
","""event"",""trial"",""time""
""fullscreenenter"",""1"",""2169""
","
","","","783.8999999985099","","","18","3089","2446","&#9761;","elianto","#3366ff99","-1"," ","0","0","[417.3999999985099,1634.300000000745,2816.800000000745]","3","0","2",""
"pit-trial","70","634665","0.0-2.0-11.4-2.4","battery-v0.2","","""event"",""trial"",""time""
""fullscreenenter"",""1"",""2169""
","
","
","""event"",""trial"",""time""
""fullscreenenter"",""1"",""2169""
","
","","","862.3000000007451","","","18","3089","2446","&#9761;","elianto","#3366ff99","-1"," ","0","0","[1713.1000000014901,2182,2470.10000000149,2913,3078.900000002235]","5","0","2",""
"pit-trial","71","637675","0.0-2.0-11.4-3.4","battery-v0.2","","""event"",""trial"",""time""
""fullscreenenter"",""1"",""2169""
","
","
","""event"",""trial"",""time""
""fullscreenenter"",""1"",""2169""
","
","","","148","","","18","3089","2446","&#9761;","elianto","#3366ff99","-1"," ","0","+10","[87.5,999.4000000022352]","2","0","2",""
"pit-trial","72","641873","0.0-2.0-11.4-4.4","battery-v0.2","","""event"",""trial"",""time""
""fullscreenenter"",""1"",""2169""
","
","
","""event"",""trial"",""time""
""fullscreenenter"",""1"",""2169""
","
","","","1340.3999999985099","","","18","3089","2446","&#9761;","elianto","#3366ff99","-1"," ","0","0","[2193.599999997765]","1","0","2",""
"pit-instructions","73","664565","0.0-2.0-11.4-5.4-0.4","battery-v0.2","","""event"",""trial"",""time""
""fullscreenenter"",""1"",""2169""
","
","
","""event"",""trial"",""time""
""fullscreenenter"",""1"",""2169""
","
","","[{""page_index"":0,""viewing_time"":5969.20000000298},{""page_index"":1,""viewing_time"":6161},{""page_index"":2,""viewing_time"":10557.699999999255}]","22688.70000000298","","","","","","","","","","","","","","","","",""
"pit-trial","74","669435","0.0-2.0-11.5-0.5","battery-v0.2","","""event"",""trial"",""time""
""fullscreenenter"",""1"",""2169""
","
","
","""event"",""trial"",""time""
""fullscreenenter"",""1"",""2169""
","
","","","-1","","","18","3089","2446","&#9761;","elianto","#3366ff99","-1","-1","1","+10","[2958.099999997765]","1","0","2",""
"pit-trial","75","673185","0.0-2.0-11.5-1.5","battery-v0.2","","""event"",""trial"",""time""
""fullscreenenter"",""1"",""2169""
","
","
","""event"",""trial"",""time""
""fullscreenenter"",""1"",""2169""
","
","","","878.3999999985099","","","18","3089","2446","&#9761;","elianto","#3366ff99","-1"," ","0","0","[1729.199999999255]","1","0","2",""
"pit-trial","76","677771","0.0-2.0-11.5-2.5","battery-v0.2","","""event"",""trial"",""time""
""fullscreenenter"",""1"",""2169""
","
","
","""event"",""trial"",""time""
""fullscreenenter"",""1"",""2169""
","
","","","1726.800000000745","","","18","3089","2446","&#9761;","elianto","#3366ff99","-1"," ","0","0","[2576.7999999970198]","1","0","2",""
"pit-trial","77","681656","0.0-2.0-11.5-3.5","battery-v0.2","","""event"",""trial"",""time""
""fullscreenenter"",""1"",""2169""
","
","
","""event"",""trial"",""time""
""fullscreenenter"",""1"",""2169""
","
","","","1015.6999999992549","","","18","3089","2446","&#9761;","elianto","#3366ff99","-1"," ","0","+10","[1876.3999999985099]","1","0","2",""
"pit-trial","78","686536","0.0-2.0-11.5-4.5","battery-v0.2","","""event"",""trial"",""time""
""fullscreenenter"",""1"",""2169""
","
","
","""event"",""trial"",""time""
""fullscreenenter"",""1"",""2169""
","
","","","-1","","","18","3089","2446","&#9761;","elianto","#3366ff99","-1","-1","1","+10","[4801.099999997765]","1","0","2",""
"pit-trial","79","689735","0.0-2.0-11.6-0.6","battery-v0.2","","""event"",""trial"",""time""
""fullscreenenter"",""1"",""2169""
","
","
","""event"",""trial"",""time""
""fullscreenenter"",""1"",""2169""
","
","","","313.5999999977648","","","18","3089","2446","&#9761;","elianto","#3366ff99","-1"," ","0","0","[1174.3999999985099]","1","0","2",""
"pit-trial","80","692716","0.0-2.0-11.6-1.6","battery-v0.2","","""event"",""trial"",""time""
""fullscreenenter"",""1"",""2169""
","
","
","""event"",""trial"",""time""
""fullscreenenter"",""1"",""2169""
","
","","","118.39999999850988","","","18","3089","2446","&#9761;","elianto","#3366ff99","-1"," ","0","0","[968.6999999992549]","1","0","2",""
"pit-trial","81","695794","0.0-2.0-11.6-2.6","battery-v0.2","","""event"",""trial"",""time""
""fullscreenenter"",""1"",""2169""
","
","
","""event"",""trial"",""time""
""fullscreenenter"",""1"",""2169""
","
","","","221.40000000223517","","","18","3089","2446","&#9761;","elianto","#3366ff99","-1"," ","0","0","[1072,3008.699999999255]","2","0","2",""
"pit-trial","82","698818","0.0-2.0-11.6-3.6","battery-v0.2","","""event"",""trial"",""time""
""fullscreenenter"",""1"",""2169""
","
","
","""event"",""trial"",""time""
""fullscreenenter"",""1"",""2169""
","
","","","160.60000000149012","","","18","3089","2446","&#9761;","elianto","#3366ff99","-1"," ","0","+10","[1017.6000000014901]","1","0","2",""
"pit-trial","83","701886","0.0-2.0-11.6-4.6","battery-v0.2","","""event"",""trial"",""time""
""fullscreenenter"",""1"",""2169""
","
","
","""event"",""trial"",""time""
""fullscreenenter"",""1"",""2169""
","
","","","207.5","","","18","3089","2446","&#9761;","elianto","#3366ff99","-1"," ","0","0","[1060.800000000745,2869.5]","2","0","2",""
"pit-trial","84","705096","0.0-2.0-11.7-0.7","battery-v0.2","","""event"",""trial"",""time""
""fullscreenenter"",""1"",""2169""
","
","
","""event"",""trial"",""time""
""fullscreenenter"",""1"",""2169""
","
","","","342.0999999977648","","","18","3089","2446","&#9761;","elianto","#3366ff99","-1"," ","0","0","[1196.3999999985099]","1","0","2",""
"pit-trial","85","708275","0.0-2.0-11.7-1.7","battery-v0.2","","""event"",""trial"",""time""
""fullscreenenter"",""1"",""2169""
","
","
","""event"",""trial"",""time""
""fullscreenenter"",""1"",""2169""
","
","","","310.69999999925494","","","18","3089","2446","&#9761;","elianto","#3366ff99","-1"," ","0","0","[1165.4000000022352]","1","0","2",""
"pit-trial","86","711274","0.0-2.0-11.7-2.7","battery-v0.2","","""event"",""trial"",""time""
""fullscreenenter"",""1"",""2169""
","
","
","""event"",""trial"",""time""
""fullscreenenter"",""1"",""2169""
","
","","","130.30000000074506","","","18","3089","2446","&#9761;","elianto","#3366ff99","-1"," ","0","0","[985]","1","0","2",""
"pit-trial","87","714265","0.0-2.0-11.7-3.7","battery-v0.2","","""event"",""trial"",""time""
""fullscreenenter"",""1"",""2169""
","
","
","""event"",""trial"",""time""
""fullscreenenter"",""1"",""2169""
","
","","","122.5","","","18","3089","2446","&#9761;","elianto","#3366ff99","-1"," ","0","+10","[980.3999999985099]","1","0","2",""
"pit-trial","88","717236","0.0-2.0-11.7-4.7","battery-v0.2","","""event"",""trial"",""time""
""fullscreenenter"",""1"",""2169""
","
","
","""event"",""trial"",""time""
""fullscreenenter"",""1"",""2169""
","
","","","109.19999999925494","","","18","3089","2446","&#9761;","elianto","#3366ff99","-1"," ","0","0","[962.5]","1","0","2",""
"pit-trial","89","720284","0.0-2.0-11.8-0.8","battery-v0.2","","""event"",""trial"",""time""
""fullscreenenter"",""1"",""2169""
","
","
","""event"",""trial"",""time""
""fullscreenenter"",""1"",""2169""
","
","","","190.80000000074506","","","18","3089","2446","&#9761;","elianto","#3366ff99","-1"," ","0","0","[1042.300000000745]","1","0","2",""
"pit-trial","90","723616","0.0-2.0-11.8-1.8","battery-v0.2","","""event"",""trial"",""time""
""fullscreenenter"",""1"",""2169""
","
","
","""event"",""trial"",""time""
""fullscreenenter"",""1"",""2169""
","
","","","468.3999999985099","","","18","3089","2446","&#9761;","elianto","#3366ff99","-1"," ","0","0","[818.6000000014901,1319.5]","2","0","2",""
"pit-trial","91","726954","0.0-2.0-11.8-2.8","battery-v0.2","","""event"",""trial"",""time""
""fullscreenenter"",""1"",""2169""
","
","
","""event"",""trial"",""time""
""fullscreenenter"",""1"",""2169""
","
","","","476.8999999985099","","","18","3089","2446","&#9761;","elianto","#3366ff99","-1"," ","0","0","[1328.6000000014901,2414,2670.10000000149,2856.800000000745]","4","0","2",""
"pit-trial","92","730025","0.0-2.0-11.8-3.8","battery-v0.2","","""event"",""trial"",""time""
""fullscreenenter"",""1"",""2169""
","
","
","""event"",""trial"",""time""
""fullscreenenter"",""1"",""2169""
","
","","","209","","","18","3089","2446","&#9761;","elianto","#3366ff99","-1"," ","0","+10","[1060.3999999985099]","1","0","2",""
"pit-trial","93","733675","0.0-2.0-11.8-4.8","battery-v0.2","","""event"",""trial"",""time""
""fullscreenenter"",""1"",""2169""
","
","
","""event"",""trial"",""time""
""fullscreenenter"",""1"",""2169""
","
","","","783.6999999992549","","","18","3089","2446","&#9761;","elianto","#3366ff99","-1"," ","0","0","[1639.9000000022352]","1","0","2",""
"pit-trial","94","736725","0.0-2.0-11.9-0.9","battery-v0.2","","""event"",""trial"",""time""
""fullscreenenter"",""1"",""2169""
","
","
","""event"",""trial"",""time""
""fullscreenenter"",""1"",""2169""
","
","","","184.19999999925494","","","18","3089","2446","&#9761;","elianto","#3366ff99","-1"," ","0","0","[686.6000000014901,1039.199999999255]","2","0","2",""
"pit-trial","95","739965","0.0-2.0-11.9-1.9","battery-v0.2","","""event"",""trial"",""time""
""fullscreenenter"",""1"",""2169""
","
","
","""event"",""trial"",""time""
""fullscreenenter"",""1"",""2169""
","
","","","372","","","18","3089","2446","&#9761;","elianto","#3366ff99","-1"," ","0","0","[1227.8999999985099]","1","0","2",""
"pit-trial","96","743535","0.0-2.0-11.9-2.9","battery-v0.2","","""event"",""trial"",""time""
""fullscreenenter"",""1"",""2169""
","
","
","""event"",""trial"",""time""
""fullscreenenter"",""1"",""2169""
","
","","","704.3000000007451","","","18","3089","2446","&#9761;","elianto","#3366ff99","-1"," ","0","0","[212.80000000074506,559.6000000014901,813.1999999992549,1558]","4","0","2",""
"pit-trial","97","747035","0.0-2.0-11.9-3.9","battery-v0.2","","""event"",""trial"",""time""
""fullscreenenter"",""1"",""2169""
","
","
","""event"",""trial"",""time""
""fullscreenenter"",""1"",""2169""
","
","","","635.3999999985099","","","18","3089","2446","&#9761;","elianto","#3366ff99","-1"," ","0","+10","[1487.300000000745]","1","0","2",""
"pit-trial","98","750204","0.0-2.0-11.9-4.9","battery-v0.2","","""event"",""trial"",""time""
""fullscreenenter"",""1"",""2169""
","
","
","""event"",""trial"",""time""
""fullscreenenter"",""1"",""2169""
","
","","","306.69999999925494","","","18","3089","2446","&#9761;","elianto","#3366ff99","-1"," ","0","0","[1163.0999999977648]","1","0","2",""
"pit-trial","99","753495","0.0-2.0-11.10-0.10","battery-v0.2","","""event"",""trial"",""time""
""fullscreenenter"",""1"",""2169""
","
","
","""event"",""trial"",""time""
""fullscreenenter"",""1"",""2169""
","
","","","431","","","18","3089","2446","&#9761;","elianto","#3366ff99","-1"," ","0","0","[1283.199999999255]","1","0","2",""
"pit-trial","100","757054","0.0-2.0-11.10-1.10","battery-v0.2","","""event"",""trial"",""time""
""fullscreenenter"",""1"",""2169""
","
","
","""event"",""trial"",""time""
""fullscreenenter"",""1"",""2169""
","
","","","693.3000000007451","","","18","3089","2446","&#9761;","elianto","#3366ff99","-1"," ","0","0","[1550,2677.7999999970198]","2","0","2",""
"pit-trial","101","760104","0.0-2.0-11.10-2.10","battery-v0.2","","""event"",""trial"",""time""
""fullscreenenter"",""1"",""2169""
","
","
","""event"",""trial"",""time""
""fullscreenenter"",""1"",""2169""
","
","","","192","","","18","3089","2446","&#9761;","elianto","#3366ff99","-1"," ","0","0","[248.19999999925494,1042.0999999977648]","2","0","2",""
"pit-trial","102","764084","0.0-2.0-11.10-3.10","battery-v0.2","","""event"",""trial"",""time""
""fullscreenenter"",""1"",""2169""
","
","
","""event"",""trial"",""time""
""fullscreenenter"",""1"",""2169""
","
","","","1113.6000000014901","","","18","3089","2446","&#9761;","elianto","#3366ff99","-1"," ","0","+10","[1966.699999999255]","1","0","2",""
"pit-trial","103","767114","0.0-2.0-11.10-4.10","battery-v0.2","","""event"",""trial"",""time""
""fullscreenenter"",""1"",""2169""
","
","
","""event"",""trial"",""time""
""fullscreenenter"",""1"",""2169""
","
","","","170.29999999701977","","","18","3089","2446","&#9761;","elianto","#3366ff99","-1"," ","0","0","[1025.4000000022352]","1","0","2",""
"pit-trial","104","771985","0.0-2.0-11.11-0.11","battery-v0.2","","""event"",""trial"",""time""
""fullscreenenter"",""1"",""2169""
","
","
","""event"",""trial"",""time""
""fullscreenenter"",""1"",""2169""
","
","","","-1","","","18","3089","2446","&#9761;","elianto","#3366ff99","-1","-1","1","+10","[3640.7999999970198]","1","0","2",""
"pit-trial","105","775255","0.0-2.0-11.11-1.11","battery-v0.2","","""event"",""trial"",""time""
""fullscreenenter"",""1"",""2169""
","
","
","""event"",""trial"",""time""
""fullscreenenter"",""1"",""2169""
","
","","","403.5999999977648","","","18","3089","2446","&#9761;","elianto","#3366ff99","-1"," ","0","0","[1257.300000000745]","1","0","2",""
"pit-trial","106","778575","0.0-2.0-11.11-2.11","battery-v0.2","","""event"",""trial"",""time""
""fullscreenenter"",""1"",""2169""
","
","
","""event"",""trial"",""time""
""fullscreenenter"",""1"",""2169""
","
","","","460.8999999985099","","","18","3089","2446","&#9761;","elianto","#3366ff99","-1"," ","0","0","[388,1312.3999999985099]","2","0","2",""
"pit-trial","107","781834","0.0-2.0-11.11-3.11","battery-v0.2","","""event"",""trial"",""time""
""fullscreenenter"",""1"",""2169""
","
","
","""event"",""trial"",""time""
""fullscreenenter"",""1"",""2169""
","
","","","398.6000000014901","","","18","3089","2446","&#9761;","elianto","#3366ff99","-1"," ","0","+10","[1248.8999999985099]","1","0","2",""
"pit-trial","108","786704","0.0-2.0-11.11-4.11","battery-v0.2","","""event"",""trial"",""time""
""fullscreenenter"",""1"",""2169""
","
","
","""event"",""trial"",""time""
""fullscreenenter"",""1"",""2169""
","
","","","-1","","","18","3089","2446","&#9761;","elianto","#3366ff99","-1","-1","1","+10","[]","0","0","2",""
"pit-trial","109","789674","0.0-2.0-11.12-0.12","battery-v0.2","","""event"",""trial"",""time""
""fullscreenenter"",""1"",""2169""
","
","
","""event"",""trial"",""time""
""fullscreenenter"",""1"",""2169""
","
","","","98.69999999925494","","","18","3089","2446","&#9761;","elianto","#3366ff99","-1"," ","0","0","[949.2000000029802]","1","0","2",""
"pit-trial","110","793005","0.0-2.0-11.12-1.12","battery-v0.2","","""event"",""trial"",""time""
""fullscreenenter"",""1"",""2169""
","
","
","""event"",""trial"",""time""
""fullscreenenter"",""1"",""2169""
","
","","","469.4000000022352","","","18","3089","2446","&#9761;","elianto","#3366ff99","-1"," ","0","0","[1321.199999999255]","1","0","2",""
"pit-trial","111","797884","0.0-2.0-11.12-2.12","battery-v0.2","","""event"",""trial"",""time""
""fullscreenenter"",""1"",""2169""
","
","
","""event"",""trial"",""time""
""fullscreenenter"",""1"",""2169""
","
","","","-1","","","18","3089","2446","&#9761;","elianto","#3366ff99","-1","-1","1","+10","[3192]","1","0","2",""
"pit-trial","112","800763","0.0-2.0-11.12-3.12","battery-v0.2","","""event"",""trial"",""time""
""fullscreenenter"",""1"",""2169""
","
","
","""event"",""trial"",""time""
""fullscreenenter"",""1"",""2169""
","
","","","17.899999998509884","","","18","3089","2446","&#9761;","elianto","#3366ff99","-1"," ","0","+10","[872.8000000007451]","1","0","2",""
"pit-trial","113","804034","0.0-2.0-11.12-4.12","battery-v0.2","","""event"",""trial"",""time""
""fullscreenenter"",""1"",""2169""
","
","
","""event"",""trial"",""time""
""fullscreenenter"",""1"",""2169""
","
","","","404.8999999985099","","","18","3089","2446","&#9761;","elianto","#3366ff99","-1"," ","0","0","[1262.8999999985099]","1","0","2",""
"call-function","114","804037","0.0-2.0-12.0","battery-v0.2","","""event"",""trial"",""time""
""fullscreenenter"",""1"",""2169""
""fullscreenexit"",""115"",""807095""
""blur"",""115"",""816531""
""focus"",""115"",""816552""
","""event"",""trial"",""time""
""blur"",""115"",""816531""
","""event"",""trial"",""time""
""focus"",""115"",""816552""
","""event"",""trial"",""time""
""fullscreenenter"",""1"",""2169""
","""event"",""trial"",""time""
""fullscreenexit"",""115"",""807095""
","","","","","","","","","","","","","","","","","","","",""
