"trial_type","trial_index","time_elapsed","internal_node_id","task_version","subject_id","interactions","blur_events","focus_events","fullscreenenter_events","fullscreenexit_events","success","view_history","rt","responses","num_errors","age","subject","participantId","rune","rune_set","hex","correct","choice","accuracy","outcome","keys","total_keys","block","practice","value","sub","trial","stimulus","robot","valence","action","sham"
"pavlovia","0","17","0.0-0.0","battery-v0.2","","""event"",""trial"",""time""
""fullscreenenter"",""1"",""1954""
","
","
","""event"",""trial"",""time""
""fullscreenenter"",""1"",""1954""
","
","","","","","","","","","","","","","","","","","","","","","","","","","","",""
"fullscreen","1","2963","0.0-1.0","battery-v0.2","","""event"",""trial"",""time""
""fullscreenenter"",""1"",""1954""
","
","
","""event"",""trial"",""time""
""fullscreenenter"",""1"",""1954""
","
","true","","","","","","","","","","","","","","","","","","","","","","","","","",""
"pit-instructions","2","7095","0.0-2.0-0.0","battery-v0.2","","""event"",""trial"",""time""
""fullscreenenter"",""1"",""1954""
","
","
","""event"",""trial"",""time""
""fullscreenenter"",""1"",""1954""
","
","","[{""page_index"":0,""viewing_time"":4122.200000000012}]","4123.099999999977","","","","","","","","","","","","","","","","","","","","","","","",""
"pit-comprehension","3","10328","0.0-2.0-1.0-0.0","battery-v0.2","","""event"",""trial"",""time""
""fullscreenenter"",""1"",""1954""
","
","
","""event"",""trial"",""time""
""fullscreenenter"",""1"",""1954""
","
","","","3221.899999999965","[""shark""]","0","22","19144","7047","","","","","","","","","","","","","","","","","","",""
"pit-instructions","4","12988","0.0-2.0-1.0-1.0","battery-v0.2","","""event"",""trial"",""time""
""fullscreenenter"",""1"",""1954""
","
","
","""event"",""trial"",""time""
""fullscreenenter"",""1"",""1954""
","
","","[{""page_index"":0,""viewing_time"":2641.399999999965}]","2642.2999999999884","","","","","","","","","","","","","","","","","","","","","","","",""
"pit-comprehension","5","16524","0.0-2.0-2.0-0.0","battery-v0.2","","""event"",""trial"",""time""
""fullscreenenter"",""1"",""1954""
","
","
","""event"",""trial"",""time""
""fullscreenenter"",""1"",""1954""
","
","","","3528.2000000000116","[""tiger""]","0","22","19144","7047","","","","","","","","","","","","","","","","","","",""
"pit-instructions","6","19462","0.0-2.0-2.0-1.0","battery-v0.2","","""event"",""trial"",""time""
""fullscreenenter"",""1"",""1954""
""blur"",""7"",""44791""
""focus"",""7"",""46391""
","""event"",""trial"",""time""
""blur"",""7"",""44791""
","""event"",""trial"",""time""
""focus"",""7"",""46391""
","""event"",""trial"",""time""
""fullscreenenter"",""1"",""1954""
","
","","[{""page_index"":0,""viewing_time"":2929.5}]","2929.7999999999884","","","","","","","","","","","","","","","","","","","","","","","",""
"pit-instructions","7","137753","0.0-2.0-3.0","battery-v0.2","","""event"",""trial"",""time""
""fullscreenenter"",""1"",""1954""
""blur"",""7"",""44791""
""focus"",""7"",""46391""
","""event"",""trial"",""time""
""blur"",""7"",""44791""
","""event"",""trial"",""time""
""focus"",""7"",""46391""
","""event"",""trial"",""time""
""fullscreenenter"",""1"",""1954""
","
","","[{""page_index"":0,""viewing_time"":13486.200000000012},{""page_index"":1,""viewing_time"":10969.299999999988},{""page_index"":2,""viewing_time"":7995.599999999977},{""page_index"":3,""viewing_time"":7599.100000000035},{""page_index"":4,""viewing_time"":7616.599999999977},{""page_index"":5,""viewing_time"":6197.599999999977},{""page_index"":6,""viewing_time"":9388.700000000012},{""page_index"":7,""viewing_time"":6814.100000000035},{""page_index"":8,""viewing_time"":8401.5},{""page_index"":9,""viewing_time"":8177.79999999993},{""page_index"":10,""viewing_time"":8175.100000000093},{""page_index"":11,""viewing_time"":8675.199999999953},{""page_index"":12,""viewing_time"":7474.199999999953},{""page_index"":13,""viewing_time"":7316.100000000093}]","118288.49999999994","","","","","","","","","","","","","","","","","","","","","","","",""
"pit-trial","8","141091","0.0-2.0-4.0-0.0","battery-v0.2","","""event"",""trial"",""time""
""fullscreenenter"",""1"",""1954""
""blur"",""7"",""44791""
""focus"",""7"",""46391""
","""event"",""trial"",""time""
""blur"",""7"",""44791""
","""event"",""trial"",""time""
""focus"",""7"",""46391""
","""event"",""trial"",""time""
""fullscreenenter"",""1"",""1954""
","
","","","464.5","","","22","19144","7047","&#9784;","elianto","#FFFFF080"," "," ","1","&#10004","[1315.7000000000698]","1","0","0","","","","","","","",""
"pit-trial","9","144462","0.0-2.0-4.1-0.1","battery-v0.2","","""event"",""trial"",""time""
""fullscreenenter"",""1"",""1954""
""blur"",""7"",""44791""
""focus"",""7"",""46391""
","""event"",""trial"",""time""
""blur"",""7"",""44791""
","""event"",""trial"",""time""
""focus"",""7"",""46391""
","""event"",""trial"",""time""
""fullscreenenter"",""1"",""1954""
","
","","","504.5999999999767","","","22","19144","7047","&#9784;","elianto","#FFFFF080"," "," ","1","&#10004","[1359.2999999999302]","1","0","0","","","","","","","",""
"pit-trial","10","147738","0.0-2.0-4.2-0.2","battery-v0.2","","""event"",""trial"",""time""
""fullscreenenter"",""1"",""1954""
""blur"",""7"",""44791""
""focus"",""7"",""46391""
","""event"",""trial"",""time""
""blur"",""7"",""44791""
","""event"",""trial"",""time""
""focus"",""7"",""46391""
","""event"",""trial"",""time""
""fullscreenenter"",""1"",""1954""
","
","","","410.9000000000233","","","22","19144","7047","&#9784;","elianto","#FFFFF080"," "," ","1","&#10004","[1263.1999999999534]","1","0","0","","","","","","","",""
"pit-trial","11","151052","0.0-2.0-4.3-0.3","battery-v0.2","","""event"",""trial"",""time""
""fullscreenenter"",""1"",""1954""
""blur"",""7"",""44791""
""focus"",""7"",""46391""
","""event"",""trial"",""time""
""blur"",""7"",""44791""
","""event"",""trial"",""time""
""focus"",""7"",""46391""
","""event"",""trial"",""time""
""fullscreenenter"",""1"",""1954""
","
","","","439.69999999995343","","","22","19144","7047","&#9784;","elianto","#FFFFF080"," "," ","1","&#10004","[1298.6000000000931]","1","0","0","","","","","","","",""
"pit-trial","12","154184","0.0-2.0-4.4-0.4","battery-v0.2","","""event"",""trial"",""time""
""fullscreenenter"",""1"",""1954""
""blur"",""7"",""44791""
""focus"",""7"",""46391""
","""event"",""trial"",""time""
""blur"",""7"",""44791""
","""event"",""trial"",""time""
""focus"",""7"",""46391""
","""event"",""trial"",""time""
""fullscreenenter"",""1"",""1954""
","
","","","261","","","22","19144","7047","&#9784;","elianto","#FFFFF080"," "," ","1","&#10004","[1117.7000000000698]","1","0","0","","","","","","","",""
"pit-instructions","13","182336","0.0-2.0-5.0","battery-v0.2","","""event"",""trial"",""time""
""fullscreenenter"",""1"",""1954""
""blur"",""7"",""44791""
""focus"",""7"",""46391""
","""event"",""trial"",""time""
""blur"",""7"",""44791""
","""event"",""trial"",""time""
""focus"",""7"",""46391""
","""event"",""trial"",""time""
""fullscreenenter"",""1"",""1954""
","
","","[{""page_index"":0,""viewing_time"":8978.800000000047},{""page_index"":1,""viewing_time"":7121},{""page_index"":2,""viewing_time"":6028},{""page_index"":3,""viewing_time"":6015.800000000047}]","28144.100000000093","","","","","","","","","","","","","","","","","","","","","","","",""
"pit-trial","14","187200","0.0-2.0-6.0-0.0","battery-v0.2","","""event"",""trial"",""time""
""fullscreenenter"",""1"",""1954""
""blur"",""7"",""44791""
""focus"",""7"",""46391""
","""event"",""trial"",""time""
""blur"",""7"",""44791""
","""event"",""trial"",""time""
""focus"",""7"",""46391""
","""event"",""trial"",""time""
""fullscreenenter"",""1"",""1954""
","
","","","-1","","","22","19144","7047","&#9854;","elianto","#FFFFF080","-1","-1","1","&#10004","[]","0","0","1","","","","","","","",""
"pit-trial","15","192067","0.0-2.0-6.1-0.1","battery-v0.2","","""event"",""trial"",""time""
""fullscreenenter"",""1"",""1954""
""blur"",""7"",""44791""
""focus"",""7"",""46391""
","""event"",""trial"",""time""
""blur"",""7"",""44791""
","""event"",""trial"",""time""
""focus"",""7"",""46391""
","""event"",""trial"",""time""
""fullscreenenter"",""1"",""1954""
","
","","","-1","","","22","19144","7047","&#9854;","elianto","#FFFFF080","-1","-1","1","&#10004","[]","0","0","1","","","","","","","",""
"pit-trial","16","196943","0.0-2.0-6.2-0.2","battery-v0.2","","""event"",""trial"",""time""
""fullscreenenter"",""1"",""1954""
""blur"",""7"",""44791""
""focus"",""7"",""46391""
","""event"",""trial"",""time""
""blur"",""7"",""44791""
","""event"",""trial"",""time""
""focus"",""7"",""46391""
","""event"",""trial"",""time""
""fullscreenenter"",""1"",""1954""
","
","","","-1","","","22","19144","7047","&#9854;","elianto","#FFFFF080","-1","-1","1","&#10004","[]","0","0","1","","","","","","","",""
"pit-trial","17","201823","0.0-2.0-6.3-0.3","battery-v0.2","","""event"",""trial"",""time""
""fullscreenenter"",""1"",""1954""
""blur"",""7"",""44791""
""focus"",""7"",""46391""
","""event"",""trial"",""time""
""blur"",""7"",""44791""
","""event"",""trial"",""time""
""focus"",""7"",""46391""
","""event"",""trial"",""time""
""fullscreenenter"",""1"",""1954""
","
","","","-1","","","22","19144","7047","&#9854;","elianto","#FFFFF080","-1","-1","1","&#10004","[]","0","0","1","","","","","","","",""
"pit-trial","18","206688","0.0-2.0-6.4-0.4","battery-v0.2","","""event"",""trial"",""time""
""fullscreenenter"",""1"",""1954""
""blur"",""7"",""44791""
""focus"",""7"",""46391""
""blur"",""19"",""356066""
""focus"",""19"",""360362""
","""event"",""trial"",""time""
""blur"",""7"",""44791""
""blur"",""19"",""356066""
","""event"",""trial"",""time""
""focus"",""7"",""46391""
""focus"",""19"",""360362""
","""event"",""trial"",""time""
""fullscreenenter"",""1"",""1954""
","
","","","-1","","","22","19144","7047","&#9854;","elianto","#FFFFF080","-1","-1","1","&#10004","[]","0","0","1","","","","","","","",""
"pit-instructions","19","360568","0.0-2.0-7.0","battery-v0.2","","""event"",""trial"",""time""
""fullscreenenter"",""1"",""1954""
""blur"",""7"",""44791""
""focus"",""7"",""46391""
""blur"",""19"",""356066""
""focus"",""19"",""360362""
","""event"",""trial"",""time""
""blur"",""7"",""44791""
""blur"",""19"",""356066""
","""event"",""trial"",""time""
""focus"",""7"",""46391""
""focus"",""19"",""360362""
","""event"",""trial"",""time""
""fullscreenenter"",""1"",""1954""
","
","","[{""page_index"":0,""viewing_time"":11132},{""page_index"":1,""viewing_time"":12785},{""page_index"":2,""viewing_time"":9123.900000000023},{""page_index"":3,""viewing_time"":8027.400000000023},{""page_index"":4,""viewing_time"":7016},{""page_index"":5,""viewing_time"":6848.099999999977},{""page_index"":6,""viewing_time"":9573.800000000047},{""page_index"":7,""viewing_time"":10532.099999999977},{""page_index"":8,""viewing_time"":8328.29999999993},{""page_index"":9,""viewing_time"":7445.400000000023},{""page_index"":10,""viewing_time"":7926.300000000047},{""page_index"":11,""viewing_time"":5340},{""page_index"":12,""viewing_time"":8217.5},{""page_index"":13,""viewing_time"":8504.29999999993},{""page_index"":14,""viewing_time"":8188.900000000023},{""page_index"":15,""viewing_time"":7704.800000000047},{""page_index"":16,""viewing_time"":6453.900000000023},{""page_index"":17,""viewing_time"":10729}]","153877.80000000005","","","","","","","","","","","","","","","","","","","","","","","",""
"pit-trial","20","364425","0.0-2.0-8.0-0.0","battery-v0.2","","""event"",""trial"",""time""
""fullscreenenter"",""1"",""1954""
""blur"",""7"",""44791""
""focus"",""7"",""46391""
""blur"",""19"",""356066""
""focus"",""19"",""360362""
","""event"",""trial"",""time""
""blur"",""7"",""44791""
""blur"",""19"",""356066""
","""event"",""trial"",""time""
""focus"",""7"",""46391""
""focus"",""19"",""360362""
","""event"",""trial"",""time""
""fullscreenenter"",""1"",""1954""
","
","","","989.8999999999069","","","22","19144","7047","&#9776;","elianto","#3366ff99"," "," ","1","+10","[1846.1999999999534]","1","0","1","","","","","","","",""
"pit-trial","21","367984","0.0-2.0-8.0-1.0","battery-v0.2","","""event"",""trial"",""time""
""fullscreenenter"",""1"",""1954""
""blur"",""7"",""44791""
""focus"",""7"",""46391""
""blur"",""19"",""356066""
""focus"",""19"",""360362""
","""event"",""trial"",""time""
""blur"",""7"",""44791""
""blur"",""19"",""356066""
","""event"",""trial"",""time""
""focus"",""7"",""46391""
""focus"",""19"",""360362""
","""event"",""trial"",""time""
""fullscreenenter"",""1"",""1954""
","
","","","702.2000000000698","","","22","19144","7047","&#9776;","elianto","#3366ff99"," "," ","1","+10","[1554.2000000000698]","1","0","1","","","","","","","",""
"pit-trial","22","371270","0.0-2.0-8.0-2.0","battery-v0.2","","""event"",""trial"",""time""
""fullscreenenter"",""1"",""1954""
""blur"",""7"",""44791""
""focus"",""7"",""46391""
""blur"",""19"",""356066""
""focus"",""19"",""360362""
","""event"",""trial"",""time""
""blur"",""7"",""44791""
""blur"",""19"",""356066""
","""event"",""trial"",""time""
""focus"",""7"",""46391""
""focus"",""19"",""360362""
","""event"",""trial"",""time""
""fullscreenenter"",""1"",""1954""
","
","","","420.5","","","22","19144","7047","&#9776;","elianto","#3366ff99"," "," ","1","+10","[1271.5]","1","0","1","","","","","","","",""
"pit-trial","23","374636","0.0-2.0-8.0-3.0","battery-v0.2","","""event"",""trial"",""time""
""fullscreenenter"",""1"",""1954""
""blur"",""7"",""44791""
""focus"",""7"",""46391""
""blur"",""19"",""356066""
""focus"",""19"",""360362""
","""event"",""trial"",""time""
""blur"",""7"",""44791""
""blur"",""19"",""356066""
","""event"",""trial"",""time""
""focus"",""7"",""46391""
""focus"",""19"",""360362""
","""event"",""trial"",""time""
""fullscreenenter"",""1"",""1954""
","
","","","493","","","22","19144","7047","&#9776;","elianto","#3366ff99"," "," ","1","0","[1349.6999999999534]","1","0","1","","","","","","","",""
"pit-trial","24","377965","0.0-2.0-8.0-4.0","battery-v0.2","","""event"",""trial"",""time""
""fullscreenenter"",""1"",""1954""
""blur"",""7"",""44791""
""focus"",""7"",""46391""
""blur"",""19"",""356066""
""focus"",""19"",""360362""
","""event"",""trial"",""time""
""blur"",""7"",""44791""
""blur"",""19"",""356066""
","""event"",""trial"",""time""
""focus"",""7"",""46391""
""focus"",""19"",""360362""
","""event"",""trial"",""time""
""fullscreenenter"",""1"",""1954""
","
","","","454.0999999999767","","","22","19144","7047","&#9776;","elianto","#3366ff99"," "," ","1","+10","[1311.3000000000466]","1","0","1","","","","","","","",""
"pit-trial","25","381188","0.0-2.0-8.1-0.1","battery-v0.2","","""event"",""trial"",""time""
""fullscreenenter"",""1"",""1954""
""blur"",""7"",""44791""
""focus"",""7"",""46391""
""blur"",""19"",""356066""
""focus"",""19"",""360362""
","""event"",""trial"",""time""
""blur"",""7"",""44791""
""blur"",""19"",""356066""
","""event"",""trial"",""time""
""focus"",""7"",""46391""
""focus"",""19"",""360362""
","""event"",""trial"",""time""
""fullscreenenter"",""1"",""1954""
","
","","","356.80000000004657","","","22","19144","7047","&#9776;","elianto","#3366ff99"," "," ","1","+10","[1209.5999999999767]","1","0","1","","","","","","","",""
"pit-trial","26","384240","0.0-2.0-8.1-1.1","battery-v0.2","","""event"",""trial"",""time""
""fullscreenenter"",""1"",""1954""
""blur"",""7"",""44791""
""focus"",""7"",""46391""
""blur"",""19"",""356066""
""focus"",""19"",""360362""
","""event"",""trial"",""time""
""blur"",""7"",""44791""
""blur"",""19"",""356066""
","""event"",""trial"",""time""
""focus"",""7"",""46391""
""focus"",""19"",""360362""
","""event"",""trial"",""time""
""fullscreenenter"",""1"",""1954""
","
","","","187.70000000006985","","","22","19144","7047","&#9776;","elianto","#3366ff99"," "," ","1","+10","[1038.8000000000466]","1","0","1","","","","","","","",""
"pit-trial","27","387345","0.0-2.0-8.1-2.1","battery-v0.2","","""event"",""trial"",""time""
""fullscreenenter"",""1"",""1954""
""blur"",""7"",""44791""
""focus"",""7"",""46391""
""blur"",""19"",""356066""
""focus"",""19"",""360362""
","""event"",""trial"",""time""
""blur"",""7"",""44791""
""blur"",""19"",""356066""
","""event"",""trial"",""time""
""focus"",""7"",""46391""
""focus"",""19"",""360362""
","""event"",""trial"",""time""
""fullscreenenter"",""1"",""1954""
","
","","","246.09999999997672","","","22","19144","7047","&#9776;","elianto","#3366ff99"," "," ","1","+10","[1101.1999999999534]","1","0","1","","","","","","","",""
"pit-trial","28","390596","0.0-2.0-8.1-3.1","battery-v0.2","","""event"",""trial"",""time""
""fullscreenenter"",""1"",""1954""
""blur"",""7"",""44791""
""focus"",""7"",""46391""
""blur"",""19"",""356066""
""focus"",""19"",""360362""
","""event"",""trial"",""time""
""blur"",""7"",""44791""
""blur"",""19"",""356066""
","""event"",""trial"",""time""
""focus"",""7"",""46391""
""focus"",""19"",""360362""
","""event"",""trial"",""time""
""fullscreenenter"",""1"",""1954""
","
","","","398.30000000004657","","","22","19144","7047","&#9776;","elianto","#3366ff99"," "," ","1","0","[1248.7999999999302]","1","0","1","","","","","","","",""
"pit-trial","29","393577","0.0-2.0-8.1-4.1","battery-v0.2","","""event"",""trial"",""time""
""fullscreenenter"",""1"",""1954""
""blur"",""7"",""44791""
""focus"",""7"",""46391""
""blur"",""19"",""356066""
""focus"",""19"",""360362""
","""event"",""trial"",""time""
""blur"",""7"",""44791""
""blur"",""19"",""356066""
","""event"",""trial"",""time""
""focus"",""7"",""46391""
""focus"",""19"",""360362""
","""event"",""trial"",""time""
""fullscreenenter"",""1"",""1954""
","
","","","125.40000000002328","","","22","19144","7047","&#9776;","elianto","#3366ff99"," "," ","1","+10","[976.6999999999534]","1","0","1","","","","","","","",""
"pit-trial","30","396659","0.0-2.0-8.2-0.2","battery-v0.2","","""event"",""trial"",""time""
""fullscreenenter"",""1"",""1954""
""blur"",""7"",""44791""
""focus"",""7"",""46391""
""blur"",""19"",""356066""
""focus"",""19"",""360362""
","""event"",""trial"",""time""
""blur"",""7"",""44791""
""blur"",""19"",""356066""
","""event"",""trial"",""time""
""focus"",""7"",""46391""
""focus"",""19"",""360362""
","""event"",""trial"",""time""
""fullscreenenter"",""1"",""1954""
","
","","","223.30000000004657","","","22","19144","7047","&#9776;","elianto","#3366ff99"," "," ","1","+10","[1075.0999999999767]","1","0","1","","","","","","","",""
"pit-trial","31","399607","0.0-2.0-8.2-1.2","battery-v0.2","","""event"",""trial"",""time""
""fullscreenenter"",""1"",""1954""
""blur"",""7"",""44791""
""focus"",""7"",""46391""
""blur"",""19"",""356066""
""focus"",""19"",""360362""
","""event"",""trial"",""time""
""blur"",""7"",""44791""
""blur"",""19"",""356066""
","""event"",""trial"",""time""
""focus"",""7"",""46391""
""focus"",""19"",""360362""
","""event"",""trial"",""time""
""fullscreenenter"",""1"",""1954""
","
","","","93.59999999997672","","","22","19144","7047","&#9776;","elianto","#3366ff99"," "," ","1","+10","[944.7000000000698]","1","0","1","","","","","","","",""
"pit-trial","32","402639","0.0-2.0-8.2-2.2","battery-v0.2","","""event"",""trial"",""time""
""fullscreenenter"",""1"",""1954""
""blur"",""7"",""44791""
""focus"",""7"",""46391""
""blur"",""19"",""356066""
""focus"",""19"",""360362""
","""event"",""trial"",""time""
""blur"",""7"",""44791""
""blur"",""19"",""356066""
","""event"",""trial"",""time""
""focus"",""7"",""46391""
""focus"",""19"",""360362""
","""event"",""trial"",""time""
""fullscreenenter"",""1"",""1954""
","
","","","177.79999999993015","","","22","19144","7047","&#9776;","elianto","#3366ff99"," "," ","1","+10","[1028.7999999999302]","1","0","1","","","","","","","",""
"pit-trial","33","405628","0.0-2.0-8.2-3.2","battery-v0.2","","""event"",""trial"",""time""
""fullscreenenter"",""1"",""1954""
""blur"",""7"",""44791""
""focus"",""7"",""46391""
""blur"",""19"",""356066""
""focus"",""19"",""360362""
","""event"",""trial"",""time""
""blur"",""7"",""44791""
""blur"",""19"",""356066""
","""event"",""trial"",""time""
""focus"",""7"",""46391""
""focus"",""19"",""360362""
","""event"",""trial"",""time""
""fullscreenenter"",""1"",""1954""
","
","","","136.09999999997672","","","22","19144","7047","&#9776;","elianto","#3366ff99"," "," ","1","0","[986.5999999999767]","1","0","1","","","","","","","",""
"pit-trial","34","408570","0.0-2.0-8.2-4.2","battery-v0.2","","""event"",""trial"",""time""
""fullscreenenter"",""1"",""1954""
""blur"",""7"",""44791""
""focus"",""7"",""46391""
""blur"",""19"",""356066""
""focus"",""19"",""360362""
","""event"",""trial"",""time""
""blur"",""7"",""44791""
""blur"",""19"",""356066""
","""event"",""trial"",""time""
""focus"",""7"",""46391""
""focus"",""19"",""360362""
","""event"",""trial"",""time""
""fullscreenenter"",""1"",""1954""
","
","","","89.19999999995343","","","22","19144","7047","&#9776;","elianto","#3366ff99"," "," ","1","+10","[939.7999999999302]","1","0","1","","","","","","","",""
"call-function","35","408572","0.0-2.0-9.0","battery-v0.2","","""event"",""trial"",""time""
""fullscreenenter"",""1"",""1954""
""blur"",""7"",""44791""
""focus"",""7"",""46391""
""blur"",""19"",""356066""
""focus"",""19"",""360362""
","""event"",""trial"",""time""
""blur"",""7"",""44791""
""blur"",""19"",""356066""
","""event"",""trial"",""time""
""focus"",""7"",""46391""
""focus"",""19"",""360362""
","""event"",""trial"",""time""
""fullscreenenter"",""1"",""1954""
","
","","","","","","","","","","","","","","","","","","","","","","","","","","",""
"pit-instructions","36","453299","0.0-2.0-10.0","battery-v0.2","","""event"",""trial"",""time""
""fullscreenenter"",""1"",""1954""
""blur"",""7"",""44791""
""focus"",""7"",""46391""
""blur"",""19"",""356066""
""focus"",""19"",""360362""
","""event"",""trial"",""time""
""blur"",""7"",""44791""
""blur"",""19"",""356066""
","""event"",""trial"",""time""
""focus"",""7"",""46391""
""focus"",""19"",""360362""
","""event"",""trial"",""time""
""fullscreenenter"",""1"",""1954""
","
","","[{""page_index"":0,""viewing_time"":7971.800000000047},{""page_index"":1,""viewing_time"":8062.5},{""page_index"":2,""viewing_time"":9970.800000000047},{""page_index"":3,""viewing_time"":10454.099999999977},{""page_index"":4,""viewing_time"":8266.29999999993}]","44726.10000000009","","","","","","","","","","","","","","","","","","","","","","","",""
"pit-trial","37","458173","0.0-2.0-11.0-0.0","battery-v0.2","","""event"",""trial"",""time""
""fullscreenenter"",""1"",""1954""
""blur"",""7"",""44791""
""focus"",""7"",""46391""
""blur"",""19"",""356066""
""focus"",""19"",""360362""
","""event"",""trial"",""time""
""blur"",""7"",""44791""
""blur"",""19"",""356066""
","""event"",""trial"",""time""
""focus"",""7"",""46391""
""focus"",""19"",""360362""
","""event"",""trial"",""time""
""fullscreenenter"",""1"",""1954""
","
","","","-1","","","22","19144","7047","&#9761;","elianto","#3366ff99","-1","-1","1","+10","[]","0","0","2","","","","","","","",""
"pit-trial","38","463034","0.0-2.0-11.0-1.0","battery-v0.2","","""event"",""trial"",""time""
""fullscreenenter"",""1"",""1954""
""blur"",""7"",""44791""
""focus"",""7"",""46391""
""blur"",""19"",""356066""
""focus"",""19"",""360362""
","""event"",""trial"",""time""
""blur"",""7"",""44791""
""blur"",""19"",""356066""
","""event"",""trial"",""time""
""focus"",""7"",""46391""
""focus"",""19"",""360362""
","""event"",""trial"",""time""
""fullscreenenter"",""1"",""1954""
","
","","","-1","","","22","19144","7047","&#9761;","elianto","#3366ff99","-1","-1","1","+10","[]","0","0","2","","","","","","","",""
"pit-trial","39","467902","0.0-2.0-11.0-2.0","battery-v0.2","","""event"",""trial"",""time""
""fullscreenenter"",""1"",""1954""
""blur"",""7"",""44791""
""focus"",""7"",""46391""
""blur"",""19"",""356066""
""focus"",""19"",""360362""
","""event"",""trial"",""time""
""blur"",""7"",""44791""
""blur"",""19"",""356066""
","""event"",""trial"",""time""
""focus"",""7"",""46391""
""focus"",""19"",""360362""
","""event"",""trial"",""time""
""fullscreenenter"",""1"",""1954""
","
","","","-1","","","22","19144","7047","&#9761;","elianto","#3366ff99","-1","-1","1","+10","[]","0","0","2","","","","","","","",""
"pit-trial","40","472782","0.0-2.0-11.0-3.0","battery-v0.2","","""event"",""trial"",""time""
""fullscreenenter"",""1"",""1954""
""blur"",""7"",""44791""
""focus"",""7"",""46391""
""blur"",""19"",""356066""
""focus"",""19"",""360362""
","""event"",""trial"",""time""
""blur"",""7"",""44791""
""blur"",""19"",""356066""
","""event"",""trial"",""time""
""focus"",""7"",""46391""
""focus"",""19"",""360362""
","""event"",""trial"",""time""
""fullscreenenter"",""1"",""1954""
","
","","","-1","","","22","19144","7047","&#9761;","elianto","#3366ff99","-1","-1","1","0","[]","0","0","2","","","","","","","",""
"pit-trial","41","477659","0.0-2.0-11.0-4.0","battery-v0.2","","""event"",""trial"",""time""
""fullscreenenter"",""1"",""1954""
""blur"",""7"",""44791""
""focus"",""7"",""46391""
""blur"",""19"",""356066""
""focus"",""19"",""360362""
","""event"",""trial"",""time""
""blur"",""7"",""44791""
""blur"",""19"",""356066""
","""event"",""trial"",""time""
""focus"",""7"",""46391""
""focus"",""19"",""360362""
","""event"",""trial"",""time""
""fullscreenenter"",""1"",""1954""
","
","","","-1","","","22","19144","7047","&#9761;","elianto","#3366ff99","-1","-1","1","+10","[]","0","0","2","","","","","","","",""
"pit-trial","42","482529","0.0-2.0-11.1-0.1","battery-v0.2","","""event"",""trial"",""time""
""fullscreenenter"",""1"",""1954""
""blur"",""7"",""44791""
""focus"",""7"",""46391""
""blur"",""19"",""356066""
""focus"",""19"",""360362""
","""event"",""trial"",""time""
""blur"",""7"",""44791""
""blur"",""19"",""356066""
","""event"",""trial"",""time""
""focus"",""7"",""46391""
""focus"",""19"",""360362""
","""event"",""trial"",""time""
""fullscreenenter"",""1"",""1954""
","
","","","-1","","","22","19144","7047","&#9761;","elianto","#3366ff99","-1","-1","1","+10","[]","0","0","2","","","","","","","",""
"pit-trial","43","487397","0.0-2.0-11.1-1.1","battery-v0.2","","""event"",""trial"",""time""
""fullscreenenter"",""1"",""1954""
""blur"",""7"",""44791""
""focus"",""7"",""46391""
""blur"",""19"",""356066""
""focus"",""19"",""360362""
","""event"",""trial"",""time""
""blur"",""7"",""44791""
""blur"",""19"",""356066""
","""event"",""trial"",""time""
""focus"",""7"",""46391""
""focus"",""19"",""360362""
","""event"",""trial"",""time""
""fullscreenenter"",""1"",""1954""
","
","","","-1","","","22","19144","7047","&#9761;","elianto","#3366ff99","-1","-1","1","+10","[]","0","0","2","","","","","","","",""
"pit-trial","44","492252","0.0-2.0-11.1-2.1","battery-v0.2","","""event"",""trial"",""time""
""fullscreenenter"",""1"",""1954""
""blur"",""7"",""44791""
""focus"",""7"",""46391""
""blur"",""19"",""356066""
""focus"",""19"",""360362""
","""event"",""trial"",""time""
""blur"",""7"",""44791""
""blur"",""19"",""356066""
","""event"",""trial"",""time""
""focus"",""7"",""46391""
""focus"",""19"",""360362""
","""event"",""trial"",""time""
""fullscreenenter"",""1"",""1954""
","
","","","-1","","","22","19144","7047","&#9761;","elianto","#3366ff99","-1","-1","1","+10","[]","0","0","2","","","","","","","",""
"pit-trial","45","497108","0.0-2.0-11.1-3.1","battery-v0.2","","""event"",""trial"",""time""
""fullscreenenter"",""1"",""1954""
""blur"",""7"",""44791""
""focus"",""7"",""46391""
""blur"",""19"",""356066""
""focus"",""19"",""360362""
","""event"",""trial"",""time""
""blur"",""7"",""44791""
""blur"",""19"",""356066""
","""event"",""trial"",""time""
""focus"",""7"",""46391""
""focus"",""19"",""360362""
","""event"",""trial"",""time""
""fullscreenenter"",""1"",""1954""
","
","","","-1","","","22","19144","7047","&#9761;","elianto","#3366ff99","-1","-1","1","0","[]","0","0","2","","","","","","","",""
"pit-trial","46","501964","0.0-2.0-11.1-4.1","battery-v0.2","","""event"",""trial"",""time""
""fullscreenenter"",""1"",""1954""
""blur"",""7"",""44791""
""focus"",""7"",""46391""
""blur"",""19"",""356066""
""focus"",""19"",""360362""
","""event"",""trial"",""time""
""blur"",""7"",""44791""
""blur"",""19"",""356066""
","""event"",""trial"",""time""
""focus"",""7"",""46391""
""focus"",""19"",""360362""
","""event"",""trial"",""time""
""fullscreenenter"",""1"",""1954""
","
","","","-1","","","22","19144","7047","&#9761;","elianto","#3366ff99","-1","-1","1","+10","[]","0","0","2","","","","","","","",""
"pit-trial","47","506819","0.0-2.0-11.2-0.2","battery-v0.2","","""event"",""trial"",""time""
""fullscreenenter"",""1"",""1954""
""blur"",""7"",""44791""
""focus"",""7"",""46391""
""blur"",""19"",""356066""
""focus"",""19"",""360362""
","""event"",""trial"",""time""
""blur"",""7"",""44791""
""blur"",""19"",""356066""
","""event"",""trial"",""time""
""focus"",""7"",""46391""
""focus"",""19"",""360362""
","""event"",""trial"",""time""
""fullscreenenter"",""1"",""1954""
","
","","","-1","","","22","19144","7047","&#9761;","elianto","#3366ff99","-1","-1","1","+10","[]","0","0","2","","","","","","","",""
"pit-trial","48","511678","0.0-2.0-11.2-1.2","battery-v0.2","","""event"",""trial"",""time""
""fullscreenenter"",""1"",""1954""
""blur"",""7"",""44791""
""focus"",""7"",""46391""
""blur"",""19"",""356066""
""focus"",""19"",""360362""
","""event"",""trial"",""time""
""blur"",""7"",""44791""
""blur"",""19"",""356066""
","""event"",""trial"",""time""
""focus"",""7"",""46391""
""focus"",""19"",""360362""
","""event"",""trial"",""time""
""fullscreenenter"",""1"",""1954""
","
","","","-1","","","22","19144","7047","&#9761;","elianto","#3366ff99","-1","-1","1","+10","[]","0","0","2","","","","","","","",""
"pit-trial","49","516533","0.0-2.0-11.2-2.2","battery-v0.2","","""event"",""trial"",""time""
""fullscreenenter"",""1"",""1954""
""blur"",""7"",""44791""
""focus"",""7"",""46391""
""blur"",""19"",""356066""
""focus"",""19"",""360362""
","""event"",""trial"",""time""
""blur"",""7"",""44791""
""blur"",""19"",""356066""
","""event"",""trial"",""time""
""focus"",""7"",""46391""
""focus"",""19"",""360362""
","""event"",""trial"",""time""
""fullscreenenter"",""1"",""1954""
","
","","","-1","","","22","19144","7047","&#9761;","elianto","#3366ff99","-1","-1","1","+10","[]","0","0","2","","","","","","","",""
"pit-trial","50","521388","0.0-2.0-11.2-3.2","battery-v0.2","","""event"",""trial"",""time""
""fullscreenenter"",""1"",""1954""
""blur"",""7"",""44791""
""focus"",""7"",""46391""
""blur"",""19"",""356066""
""focus"",""19"",""360362""
","""event"",""trial"",""time""
""blur"",""7"",""44791""
""blur"",""19"",""356066""
","""event"",""trial"",""time""
""focus"",""7"",""46391""
""focus"",""19"",""360362""
","""event"",""trial"",""time""
""fullscreenenter"",""1"",""1954""
","
","","","-1","","","22","19144","7047","&#9761;","elianto","#3366ff99","-1","-1","1","0","[]","0","0","2","","","","","","","",""
"pit-trial","51","526243","0.0-2.0-11.2-4.2","battery-v0.2","","""event"",""trial"",""time""
""fullscreenenter"",""1"",""1954""
""blur"",""7"",""44791""
""focus"",""7"",""46391""
""blur"",""19"",""356066""
""focus"",""19"",""360362""
","""event"",""trial"",""time""
""blur"",""7"",""44791""
""blur"",""19"",""356066""
","""event"",""trial"",""time""
""focus"",""7"",""46391""
""focus"",""19"",""360362""
","""event"",""trial"",""time""
""fullscreenenter"",""1"",""1954""
","
","","","-1","","","22","19144","7047","&#9761;","elianto","#3366ff99","-1","-1","1","+10","[]","0","0","2","","","","","","","",""
"pit-trial","52","531099","0.0-2.0-11.3-0.3","battery-v0.2","","""event"",""trial"",""time""
""fullscreenenter"",""1"",""1954""
""blur"",""7"",""44791""
""focus"",""7"",""46391""
""blur"",""19"",""356066""
""focus"",""19"",""360362""
","""event"",""trial"",""time""
""blur"",""7"",""44791""
""blur"",""19"",""356066""
","""event"",""trial"",""time""
""focus"",""7"",""46391""
""focus"",""19"",""360362""
","""event"",""trial"",""time""
""fullscreenenter"",""1"",""1954""
","
","","","-1","","","22","19144","7047","&#9761;","elianto","#3366ff99","-1","-1","1","+10","[]","0","0","2","","","","","","","",""
"pit-trial","53","535952","0.0-2.0-11.3-1.3","battery-v0.2","","""event"",""trial"",""time""
""fullscreenenter"",""1"",""1954""
""blur"",""7"",""44791""
""focus"",""7"",""46391""
""blur"",""19"",""356066""
""focus"",""19"",""360362""
","""event"",""trial"",""time""
""blur"",""7"",""44791""
""blur"",""19"",""356066""
","""event"",""trial"",""time""
""focus"",""7"",""46391""
""focus"",""19"",""360362""
","""event"",""trial"",""time""
""fullscreenenter"",""1"",""1954""
","
","","","-1","","","22","19144","7047","&#9761;","elianto","#3366ff99","-1","-1","1","+10","[]","0","0","2","","","","","","","",""
"pit-trial","54","540806","0.0-2.0-11.3-2.3","battery-v0.2","","""event"",""trial"",""time""
""fullscreenenter"",""1"",""1954""
""blur"",""7"",""44791""
""focus"",""7"",""46391""
""blur"",""19"",""356066""
""focus"",""19"",""360362""
","""event"",""trial"",""time""
""blur"",""7"",""44791""
""blur"",""19"",""356066""
","""event"",""trial"",""time""
""focus"",""7"",""46391""
""focus"",""19"",""360362""
","""event"",""trial"",""time""
""fullscreenenter"",""1"",""1954""
","
","","","-1","","","22","19144","7047","&#9761;","elianto","#3366ff99","-1","-1","1","+10","[]","0","0","2","","","","","","","",""
"pit-trial","55","545661","0.0-2.0-11.3-3.3","battery-v0.2","","""event"",""trial"",""time""
""fullscreenenter"",""1"",""1954""
""blur"",""7"",""44791""
""focus"",""7"",""46391""
""blur"",""19"",""356066""
""focus"",""19"",""360362""
","""event"",""trial"",""time""
""blur"",""7"",""44791""
""blur"",""19"",""356066""
","""event"",""trial"",""time""
""focus"",""7"",""46391""
""focus"",""19"",""360362""
","""event"",""trial"",""time""
""fullscreenenter"",""1"",""1954""
","
","","","-1","","","22","19144","7047","&#9761;","elianto","#3366ff99","-1","-1","1","0","[]","0","0","2","","","","","","","",""
"pit-trial","56","550517","0.0-2.0-11.3-4.3","battery-v0.2","","""event"",""trial"",""time""
""fullscreenenter"",""1"",""1954""
""blur"",""7"",""44791""
""focus"",""7"",""46391""
""blur"",""19"",""356066""
""focus"",""19"",""360362""
","""event"",""trial"",""time""
""blur"",""7"",""44791""
""blur"",""19"",""356066""
","""event"",""trial"",""time""
""focus"",""7"",""46391""
""focus"",""19"",""360362""
","""event"",""trial"",""time""
""fullscreenenter"",""1"",""1954""
","
","","","-1","","","22","19144","7047","&#9761;","elianto","#3366ff99","-1","-1","1","+10","[]","0","0","2","","","","","","","",""
"call-function","57","550520","0.0-2.0-12.0","battery-v0.2","","""event"",""trial"",""time""
""fullscreenenter"",""1"",""1954""
""blur"",""7"",""44791""
""focus"",""7"",""46391""
""blur"",""19"",""356066""
""focus"",""19"",""360362""
","""event"",""trial"",""time""
""blur"",""7"",""44791""
""blur"",""19"",""356066""
","""event"",""trial"",""time""
""focus"",""7"",""46391""
""focus"",""19"",""360362""
","""event"",""trial"",""time""
""fullscreenenter"",""1"",""1954""
","
","","","","","","","","","","","","","","","","","","","","","","","","","","",""
"pit-instructions","58","597094","0.0-2.0-13.0","battery-v0.2","","""event"",""trial"",""time""
""fullscreenenter"",""1"",""1954""
""blur"",""7"",""44791""
""focus"",""7"",""46391""
""blur"",""19"",""356066""
""focus"",""19"",""360362""
","""event"",""trial"",""time""
""blur"",""7"",""44791""
""blur"",""19"",""356066""
","""event"",""trial"",""time""
""focus"",""7"",""46391""
""focus"",""19"",""360362""
","""event"",""trial"",""time""
""fullscreenenter"",""1"",""1954""
","
","","[{""page_index"":0,""viewing_time"":8003.399999999907},{""page_index"":1,""viewing_time"":7828.300000000047},{""page_index"":2,""viewing_time"":4946.59999999986},{""page_index"":3,""viewing_time"":13313.40000000014},{""page_index"":4,""viewing_time"":12479.800000000047}]","46572.59999999986","","","","","","","","","","","","","","","","","","","","","","","",""
"pit-trial","59","601969","0.0-2.0-14.0-0.0","battery-v0.2","","""event"",""trial"",""time""
""fullscreenenter"",""1"",""1954""
""blur"",""7"",""44791""
""focus"",""7"",""46391""
""blur"",""19"",""356066""
""focus"",""19"",""360362""
","""event"",""trial"",""time""
""blur"",""7"",""44791""
""blur"",""19"",""356066""
","""event"",""trial"",""time""
""focus"",""7"",""46391""
""focus"",""19"",""360362""
","""event"",""trial"",""time""
""fullscreenenter"",""1"",""1954""
","
","","","-1","","","22","19144","7047","&#9826;","elianto","#f73b6a7A","-1","-1","1","0","[]","0","0","3","","","","","","","",""
"pit-trial","60","606836","0.0-2.0-14.0-1.0","battery-v0.2","","""event"",""trial"",""time""
""fullscreenenter"",""1"",""1954""
""blur"",""7"",""44791""
""focus"",""7"",""46391""
""blur"",""19"",""356066""
""focus"",""19"",""360362""
","""event"",""trial"",""time""
""blur"",""7"",""44791""
""blur"",""19"",""356066""
","""event"",""trial"",""time""
""focus"",""7"",""46391""
""focus"",""19"",""360362""
","""event"",""trial"",""time""
""fullscreenenter"",""1"",""1954""
","
","","","-1","","","22","19144","7047","&#9826;","elianto","#f73b6a7A","-1","-1","1","0","[]","0","0","3","","","","","","","",""
"pit-trial","61","611711","0.0-2.0-14.0-2.0","battery-v0.2","","""event"",""trial"",""time""
""fullscreenenter"",""1"",""1954""
""blur"",""7"",""44791""
""focus"",""7"",""46391""
""blur"",""19"",""356066""
""focus"",""19"",""360362""
","""event"",""trial"",""time""
""blur"",""7"",""44791""
""blur"",""19"",""356066""
","""event"",""trial"",""time""
""focus"",""7"",""46391""
""focus"",""19"",""360362""
","""event"",""trial"",""time""
""fullscreenenter"",""1"",""1954""
","
","","","-1","","","22","19144","7047","&#9826;","elianto","#f73b6a7A","-1","-1","1","0","[]","0","0","3","","","","","","","",""
"pit-trial","62","616591","0.0-2.0-14.0-3.0","battery-v0.2","","""event"",""trial"",""time""
""fullscreenenter"",""1"",""1954""
""blur"",""7"",""44791""
""focus"",""7"",""46391""
""blur"",""19"",""356066""
""focus"",""19"",""360362""
","""event"",""trial"",""time""
""blur"",""7"",""44791""
""blur"",""19"",""356066""
","""event"",""trial"",""time""
""focus"",""7"",""46391""
""focus"",""19"",""360362""
","""event"",""trial"",""time""
""fullscreenenter"",""1"",""1954""
","
","","","-1","","","22","19144","7047","&#9826;","elianto","#f73b6a7A","-1","-1","1","-10","[]","0","0","3","","","","","","","",""
"pit-trial","63","621458","0.0-2.0-14.0-4.0","battery-v0.2","","""event"",""trial"",""time""
""fullscreenenter"",""1"",""1954""
""blur"",""7"",""44791""
""focus"",""7"",""46391""
""blur"",""19"",""356066""
""focus"",""19"",""360362""
","""event"",""trial"",""time""
""blur"",""7"",""44791""
""blur"",""19"",""356066""
","""event"",""trial"",""time""
""focus"",""7"",""46391""
""focus"",""19"",""360362""
","""event"",""trial"",""time""
""fullscreenenter"",""1"",""1954""
","
","","","-1","","","22","19144","7047","&#9826;","elianto","#f73b6a7A","-1","-1","1","0","[]","0","0","3","","","","","","","",""
"pit-trial","64","626315","0.0-2.0-14.1-0.1","battery-v0.2","","""event"",""trial"",""time""
""fullscreenenter"",""1"",""1954""
""blur"",""7"",""44791""
""focus"",""7"",""46391""
""blur"",""19"",""356066""
""focus"",""19"",""360362""
","""event"",""trial"",""time""
""blur"",""7"",""44791""
""blur"",""19"",""356066""
","""event"",""trial"",""time""
""focus"",""7"",""46391""
""focus"",""19"",""360362""
","""event"",""trial"",""time""
""fullscreenenter"",""1"",""1954""
","
","","","-1","","","22","19144","7047","&#9826;","elianto","#f73b6a7A","-1","-1","1","0","[]","0","0","3","","","","","","","",""
"pit-trial","65","631181","0.0-2.0-14.1-1.1","battery-v0.2","","""event"",""trial"",""time""
""fullscreenenter"",""1"",""1954""
""blur"",""7"",""44791""
""focus"",""7"",""46391""
""blur"",""19"",""356066""
""focus"",""19"",""360362""
","""event"",""trial"",""time""
""blur"",""7"",""44791""
""blur"",""19"",""356066""
","""event"",""trial"",""time""
""focus"",""7"",""46391""
""focus"",""19"",""360362""
","""event"",""trial"",""time""
""fullscreenenter"",""1"",""1954""
","
","","","-1","","","22","19144","7047","&#9826;","elianto","#f73b6a7A","-1","-1","1","0","[]","0","0","3","","","","","","","",""
"pit-trial","66","636036","0.0-2.0-14.1-2.1","battery-v0.2","","""event"",""trial"",""time""
""fullscreenenter"",""1"",""1954""
""blur"",""7"",""44791""
""focus"",""7"",""46391""
""blur"",""19"",""356066""
""focus"",""19"",""360362""
","""event"",""trial"",""time""
""blur"",""7"",""44791""
""blur"",""19"",""356066""
","""event"",""trial"",""time""
""focus"",""7"",""46391""
""focus"",""19"",""360362""
","""event"",""trial"",""time""
""fullscreenenter"",""1"",""1954""
","
","","","-1","","","22","19144","7047","&#9826;","elianto","#f73b6a7A","-1","-1","1","0","[]","0","0","3","","","","","","","",""
"pit-trial","67","640892","0.0-2.0-14.1-3.1","battery-v0.2","","""event"",""trial"",""time""
""fullscreenenter"",""1"",""1954""
""blur"",""7"",""44791""
""focus"",""7"",""46391""
""blur"",""19"",""356066""
""focus"",""19"",""360362""
","""event"",""trial"",""time""
""blur"",""7"",""44791""
""blur"",""19"",""356066""
","""event"",""trial"",""time""
""focus"",""7"",""46391""
""focus"",""19"",""360362""
","""event"",""trial"",""time""
""fullscreenenter"",""1"",""1954""
","
","","","-1","","","22","19144","7047","&#9826;","elianto","#f73b6a7A","-1","-1","1","-10","[]","0","0","3","","","","","","","",""
"pit-trial","68","645747","0.0-2.0-14.1-4.1","battery-v0.2","","""event"",""trial"",""time""
""fullscreenenter"",""1"",""1954""
""blur"",""7"",""44791""
""focus"",""7"",""46391""
""blur"",""19"",""356066""
""focus"",""19"",""360362""
","""event"",""trial"",""time""
""blur"",""7"",""44791""
""blur"",""19"",""356066""
","""event"",""trial"",""time""
""focus"",""7"",""46391""
""focus"",""19"",""360362""
","""event"",""trial"",""time""
""fullscreenenter"",""1"",""1954""
","
","","","-1","","","22","19144","7047","&#9826;","elianto","#f73b6a7A","-1","-1","1","0","[]","0","0","3","","","","","","","",""
"pit-trial","69","650606","0.0-2.0-14.2-0.2","battery-v0.2","","""event"",""trial"",""time""
""fullscreenenter"",""1"",""1954""
""blur"",""7"",""44791""
""focus"",""7"",""46391""
""blur"",""19"",""356066""
""focus"",""19"",""360362""
","""event"",""trial"",""time""
""blur"",""7"",""44791""
""blur"",""19"",""356066""
","""event"",""trial"",""time""
""focus"",""7"",""46391""
""focus"",""19"",""360362""
","""event"",""trial"",""time""
""fullscreenenter"",""1"",""1954""
","
","","","-1","","","22","19144","7047","&#9826;","elianto","#f73b6a7A","-1","-1","1","0","[]","0","0","3","","","","","","","",""
"pit-trial","70","655460","0.0-2.0-14.2-1.2","battery-v0.2","","""event"",""trial"",""time""
""fullscreenenter"",""1"",""1954""
""blur"",""7"",""44791""
""focus"",""7"",""46391""
""blur"",""19"",""356066""
""focus"",""19"",""360362""
","""event"",""trial"",""time""
""blur"",""7"",""44791""
""blur"",""19"",""356066""
","""event"",""trial"",""time""
""focus"",""7"",""46391""
""focus"",""19"",""360362""
","""event"",""trial"",""time""
""fullscreenenter"",""1"",""1954""
","
","","","-1","","","22","19144","7047","&#9826;","elianto","#f73b6a7A","-1","-1","1","0","[]","0","0","3","","","","","","","",""
"pit-trial","71","660313","0.0-2.0-14.2-2.2","battery-v0.2","","""event"",""trial"",""time""
""fullscreenenter"",""1"",""1954""
""blur"",""7"",""44791""
""focus"",""7"",""46391""
""blur"",""19"",""356066""
""focus"",""19"",""360362""
","""event"",""trial"",""time""
""blur"",""7"",""44791""
""blur"",""19"",""356066""
","""event"",""trial"",""time""
""focus"",""7"",""46391""
""focus"",""19"",""360362""
","""event"",""trial"",""time""
""fullscreenenter"",""1"",""1954""
","
","","","-1","","","22","19144","7047","&#9826;","elianto","#f73b6a7A","-1","-1","1","0","[]","0","0","3","","","","","","","",""
"pit-trial","72","665159","0.0-2.0-14.2-3.2","battery-v0.2","","""event"",""trial"",""time""
""fullscreenenter"",""1"",""1954""
""blur"",""7"",""44791""
""focus"",""7"",""46391""
""blur"",""19"",""356066""
""focus"",""19"",""360362""
","""event"",""trial"",""time""
""blur"",""7"",""44791""
""blur"",""19"",""356066""
","""event"",""trial"",""time""
""focus"",""7"",""46391""
""focus"",""19"",""360362""
","""event"",""trial"",""time""
""fullscreenenter"",""1"",""1954""
","
","","","1991.0999999998603","","","22","19144","7047","&#9826;","elianto","#f73b6a7A","-1"," ","0","0","[2841.399999999907]","1","0","3","","","","","","","",""
"pit-trial","73","670014","0.0-2.0-14.2-4.2","battery-v0.2","","""event"",""trial"",""time""
""fullscreenenter"",""1"",""1954""
""blur"",""7"",""44791""
""focus"",""7"",""46391""
""blur"",""19"",""356066""
""focus"",""19"",""360362""
","""event"",""trial"",""time""
""blur"",""7"",""44791""
""blur"",""19"",""356066""
","""event"",""trial"",""time""
""focus"",""7"",""46391""
""focus"",""19"",""360362""
","""event"",""trial"",""time""
""fullscreenenter"",""1"",""1954""
","
","","","-1","","","22","19144","7047","&#9826;","elianto","#f73b6a7A","-1","-1","1","0","[]","0","0","3","","","","","","","",""
"pit-trial","74","674868","0.0-2.0-14.3-0.3","battery-v0.2","","""event"",""trial"",""time""
""fullscreenenter"",""1"",""1954""
""blur"",""7"",""44791""
""focus"",""7"",""46391""
""blur"",""19"",""356066""
""focus"",""19"",""360362""
","""event"",""trial"",""time""
""blur"",""7"",""44791""
""blur"",""19"",""356066""
","""event"",""trial"",""time""
""focus"",""7"",""46391""
""focus"",""19"",""360362""
","""event"",""trial"",""time""
""fullscreenenter"",""1"",""1954""
","
","","","-1","","","22","19144","7047","&#9826;","elianto","#f73b6a7A","-1","-1","1","0","[]","0","0","3","","","","","","","",""
"pit-trial","75","679725","0.0-2.0-14.3-1.3","battery-v0.2","","""event"",""trial"",""time""
""fullscreenenter"",""1"",""1954""
""blur"",""7"",""44791""
""focus"",""7"",""46391""
""blur"",""19"",""356066""
""focus"",""19"",""360362""
","""event"",""trial"",""time""
""blur"",""7"",""44791""
""blur"",""19"",""356066""
","""event"",""trial"",""time""
""focus"",""7"",""46391""
""focus"",""19"",""360362""
","""event"",""trial"",""time""
""fullscreenenter"",""1"",""1954""
","
","","","-1","","","22","19144","7047","&#9826;","elianto","#f73b6a7A","-1","-1","1","0","[]","0","0","3","","","","","","","",""
"pit-trial","76","684578","0.0-2.0-14.3-2.3","battery-v0.2","","""event"",""trial"",""time""
""fullscreenenter"",""1"",""1954""
""blur"",""7"",""44791""
""focus"",""7"",""46391""
""blur"",""19"",""356066""
""focus"",""19"",""360362""
","""event"",""trial"",""time""
""blur"",""7"",""44791""
""blur"",""19"",""356066""
","""event"",""trial"",""time""
""focus"",""7"",""46391""
""focus"",""19"",""360362""
","""event"",""trial"",""time""
""fullscreenenter"",""1"",""1954""
","
","","","-1","","","22","19144","7047","&#9826;","elianto","#f73b6a7A","-1","-1","1","0","[]","0","0","3","","","","","","","",""
"pit-trial","77","689432","0.0-2.0-14.3-3.3","battery-v0.2","","""event"",""trial"",""time""
""fullscreenenter"",""1"",""1954""
""blur"",""7"",""44791""
""focus"",""7"",""46391""
""blur"",""19"",""356066""
""focus"",""19"",""360362""
","""event"",""trial"",""time""
""blur"",""7"",""44791""
""blur"",""19"",""356066""
","""event"",""trial"",""time""
""focus"",""7"",""46391""
""focus"",""19"",""360362""
","""event"",""trial"",""time""
""fullscreenenter"",""1"",""1954""
","
","","","-1","","","22","19144","7047","&#9826;","elianto","#f73b6a7A","-1","-1","1","-10","[]","0","0","3","","","","","","","",""
"pit-trial","78","694287","0.0-2.0-14.3-4.3","battery-v0.2","","""event"",""trial"",""time""
""fullscreenenter"",""1"",""1954""
""blur"",""7"",""44791""
""focus"",""7"",""46391""
""blur"",""19"",""356066""
""focus"",""19"",""360362""
","""event"",""trial"",""time""
""blur"",""7"",""44791""
""blur"",""19"",""356066""
","""event"",""trial"",""time""
""focus"",""7"",""46391""
""focus"",""19"",""360362""
","""event"",""trial"",""time""
""fullscreenenter"",""1"",""1954""
","
","","","-1","","","22","19144","7047","&#9826;","elianto","#f73b6a7A","-1","-1","1","0","[]","0","0","3","","","","","","","",""
"call-function","79","694291","0.0-2.0-15.0","battery-v0.2","","""event"",""trial"",""time""
""fullscreenenter"",""1"",""1954""
""blur"",""7"",""44791""
""focus"",""7"",""46391""
""blur"",""19"",""356066""
""focus"",""19"",""360362""
","""event"",""trial"",""time""
""blur"",""7"",""44791""
""blur"",""19"",""356066""
","""event"",""trial"",""time""
""focus"",""7"",""46391""
""focus"",""19"",""360362""
","""event"",""trial"",""time""
""fullscreenenter"",""1"",""1954""
","
","","","","","","","","","","","","","","","","","","","","","","","","","","",""
"pit-instructions","80","744331","0.0-2.0-16.0","battery-v0.2","","""event"",""trial"",""time""
""fullscreenenter"",""1"",""1954""
""blur"",""7"",""44791""
""focus"",""7"",""46391""
""blur"",""19"",""356066""
""focus"",""19"",""360362""
","""event"",""trial"",""time""
""blur"",""7"",""44791""
""blur"",""19"",""356066""
","""event"",""trial"",""time""
""focus"",""7"",""46391""
""focus"",""19"",""360362""
","""event"",""trial"",""time""
""fullscreenenter"",""1"",""1954""
","
","","[{""page_index"":0,""viewing_time"":11018.40000000014},{""page_index"":1,""viewing_time"":21823.899999999907},{""page_index"":2,""viewing_time"":10542.100000000093},{""page_index"":3,""viewing_time"":6654.399999999907}]","50039.30000000005","","","","","","","","","","","","","","","","","","","","","","","",""
"pit-trial","81","747741","0.0-2.0-17.0-0.0","battery-v0.2","","""event"",""trial"",""time""
""fullscreenenter"",""1"",""1954""
""blur"",""7"",""44791""
""focus"",""7"",""46391""
""blur"",""19"",""356066""
""focus"",""19"",""360362""
","""event"",""trial"",""time""
""blur"",""7"",""44791""
""blur"",""19"",""356066""
","""event"",""trial"",""time""
""focus"",""7"",""46391""
""focus"",""19"",""360362""
","""event"",""trial"",""time""
""fullscreenenter"",""1"",""1954""
","
","","","550.5999999998603","","","22","19144","7047","&#9789;","elianto","#f73b6a7A"," "," ","1","0","[1405.3999999999069]","1","0","4","","","","","","","",""
"pit-trial","82","751138","0.0-2.0-17.0-1.0","battery-v0.2","","""event"",""trial"",""time""
""fullscreenenter"",""1"",""1954""
""blur"",""7"",""44791""
""focus"",""7"",""46391""
""blur"",""19"",""356066""
""focus"",""19"",""360362""
","""event"",""trial"",""time""
""blur"",""7"",""44791""
""blur"",""19"",""356066""
","""event"",""trial"",""time""
""focus"",""7"",""46391""
""focus"",""19"",""360362""
","""event"",""trial"",""time""
""fullscreenenter"",""1"",""1954""
","
","","","540.8999999999069","","","22","19144","7047","&#9789;","elianto","#f73b6a7A"," "," ","1","0","[1390.9000000001397]","1","0","4","","","","","","","",""
"pit-trial","83","754842","0.0-2.0-17.0-2.0","battery-v0.2","","""event"",""trial"",""time""
""fullscreenenter"",""1"",""1954""
""blur"",""7"",""44791""
""focus"",""7"",""46391""
""blur"",""19"",""356066""
""focus"",""19"",""360362""
","""event"",""trial"",""time""
""blur"",""7"",""44791""
""blur"",""19"",""356066""
","""event"",""trial"",""time""
""focus"",""7"",""46391""
""focus"",""19"",""360362""
","""event"",""trial"",""time""
""fullscreenenter"",""1"",""1954""
","
","","","838.6999999999534","","","22","19144","7047","&#9789;","elianto","#f73b6a7A"," "," ","1","0","[1691.1999999999534]","1","0","4","","","","","","","",""
"pit-trial","84","758396","0.0-2.0-17.0-3.0","battery-v0.2","","""event"",""trial"",""time""
""fullscreenenter"",""1"",""1954""
""blur"",""7"",""44791""
""focus"",""7"",""46391""
""blur"",""19"",""356066""
""focus"",""19"",""360362""
","""event"",""trial"",""time""
""blur"",""7"",""44791""
""blur"",""19"",""356066""
","""event"",""trial"",""time""
""focus"",""7"",""46391""
""focus"",""19"",""360362""
","""event"",""trial"",""time""
""fullscreenenter"",""1"",""1954""
","
","","","689.3000000000466","","","22","19144","7047","&#9789;","elianto","#f73b6a7A"," "," ","1","-10","[1539.7000000001863]","1","0","4","","","","","","","",""
"pit-trial","85","761985","0.0-2.0-17.0-4.0","battery-v0.2","","""event"",""trial"",""time""
""fullscreenenter"",""1"",""1954""
""blur"",""7"",""44791""
""focus"",""7"",""46391""
""blur"",""19"",""356066""
""focus"",""19"",""360362""
","""event"",""trial"",""time""
""blur"",""7"",""44791""
""blur"",""19"",""356066""
","""event"",""trial"",""time""
""focus"",""7"",""46391""
""focus"",""19"",""360362""
","""event"",""trial"",""time""
""fullscreenenter"",""1"",""1954""
","
","","","724.3999999999069","","","22","19144","7047","&#9789;","elianto","#f73b6a7A"," "," ","1","0","[1580.8999999999069]","1","0","4","","","","","","","",""
"pit-trial","86","765548","0.0-2.0-17.1-0.1","battery-v0.2","","""event"",""trial"",""time""
""fullscreenenter"",""1"",""1954""
""blur"",""7"",""44791""
""focus"",""7"",""46391""
""blur"",""19"",""356066""
""focus"",""19"",""360362""
","""event"",""trial"",""time""
""blur"",""7"",""44791""
""blur"",""19"",""356066""
","""event"",""trial"",""time""
""focus"",""7"",""46391""
""focus"",""19"",""360362""
","""event"",""trial"",""time""
""fullscreenenter"",""1"",""1954""
","
","","","693.5999999998603","","","22","19144","7047","&#9789;","elianto","#f73b6a7A"," "," ","1","0","[1547.3000000000466]","1","0","4","","","","","","","",""
"pit-trial","87","768816","0.0-2.0-17.1-1.1","battery-v0.2","","""event"",""trial"",""time""
""fullscreenenter"",""1"",""1954""
""blur"",""7"",""44791""
""focus"",""7"",""46391""
""blur"",""19"",""356066""
""focus"",""19"",""360362""
","""event"",""trial"",""time""
""blur"",""7"",""44791""
""blur"",""19"",""356066""
","""event"",""trial"",""time""
""focus"",""7"",""46391""
""focus"",""19"",""360362""
","""event"",""trial"",""time""
""fullscreenenter"",""1"",""1954""
","
","","","403.0999999998603","","","22","19144","7047","&#9789;","elianto","#f73b6a7A"," "," ","1","0","[1255.7999999998137]","1","0","4","","","","","","","",""
"pit-trial","88","771831","0.0-2.0-17.1-2.1","battery-v0.2","","""event"",""trial"",""time""
""fullscreenenter"",""1"",""1954""
""blur"",""7"",""44791""
""focus"",""7"",""46391""
""blur"",""19"",""356066""
""focus"",""19"",""360362""
","""event"",""trial"",""time""
""blur"",""7"",""44791""
""blur"",""19"",""356066""
","""event"",""trial"",""time""
""focus"",""7"",""46391""
""focus"",""19"",""360362""
","""event"",""trial"",""time""
""fullscreenenter"",""1"",""1954""
","
","","","150.19999999995343","","","22","19144","7047","&#9789;","elianto","#f73b6a7A"," "," ","1","0","[1008.1000000000931]","1","0","4","","","","","","","",""
"pit-trial","89","775224","0.0-2.0-17.1-3.1","battery-v0.2","","""event"",""trial"",""time""
""fullscreenenter"",""1"",""1954""
""blur"",""7"",""44791""
""focus"",""7"",""46391""
""blur"",""19"",""356066""
""focus"",""19"",""360362""
","""event"",""trial"",""time""
""blur"",""7"",""44791""
""blur"",""19"",""356066""
","""event"",""trial"",""time""
""focus"",""7"",""46391""
""focus"",""19"",""360362""
","""event"",""trial"",""time""
""fullscreenenter"",""1"",""1954""
","
","","","535.8999999999069","","","22","19144","7047","&#9789;","elianto","#f73b6a7A"," "," ","1","-10","[1387.1999999999534]","1","0","4","","","","","","","",""
"pit-trial","90","778868","0.0-2.0-17.1-4.1","battery-v0.2","","""event"",""trial"",""time""
""fullscreenenter"",""1"",""1954""
""blur"",""7"",""44791""
""focus"",""7"",""46391""
""blur"",""19"",""356066""
""focus"",""19"",""360362""
","""event"",""trial"",""time""
""blur"",""7"",""44791""
""blur"",""19"",""356066""
","""event"",""trial"",""time""
""focus"",""7"",""46391""
""focus"",""19"",""360362""
","""event"",""trial"",""time""
""fullscreenenter"",""1"",""1954""
","
","","","790.1999999999534","","","22","19144","7047","&#9789;","elianto","#f73b6a7A"," "," ","1","0","[1641]","1","0","4","","","","","","","",""
"pit-trial","91","782385","0.0-2.0-17.2-0.2","battery-v0.2","","""event"",""trial"",""time""
""fullscreenenter"",""1"",""1954""
""blur"",""7"",""44791""
""focus"",""7"",""46391""
""blur"",""19"",""356066""
""focus"",""19"",""360362""
","""event"",""trial"",""time""
""blur"",""7"",""44791""
""blur"",""19"",""356066""
","""event"",""trial"",""time""
""focus"",""7"",""46391""
""focus"",""19"",""360362""
","""event"",""trial"",""time""
""fullscreenenter"",""1"",""1954""
","
","","","659.3999999999069","","","22","19144","7047","&#9789;","elianto","#f73b6a7A"," "," ","1","0","[1510.3999999999069]","1","0","4","","","","","","","",""
"pit-trial","92","786287","0.0-2.0-17.2-1.2","battery-v0.2","","""event"",""trial"",""time""
""fullscreenenter"",""1"",""1954""
""blur"",""7"",""44791""
""focus"",""7"",""46391""
""blur"",""19"",""356066""
""focus"",""19"",""360362""
","""event"",""trial"",""time""
""blur"",""7"",""44791""
""blur"",""19"",""356066""
","""event"",""trial"",""time""
""focus"",""7"",""46391""
""focus"",""19"",""360362""
","""event"",""trial"",""time""
""fullscreenenter"",""1"",""1954""
","
","","","1048.1999999999534","","","22","19144","7047","&#9789;","elianto","#f73b6a7A"," "," ","1","0","[1898.3999999999069]","1","0","4","","","","","","","",""
"pit-trial","93","789610","0.0-2.0-17.2-2.2","battery-v0.2","","""event"",""trial"",""time""
""fullscreenenter"",""1"",""1954""
""blur"",""7"",""44791""
""focus"",""7"",""46391""
""blur"",""19"",""356066""
""focus"",""19"",""360362""
","""event"",""trial"",""time""
""blur"",""7"",""44791""
""blur"",""19"",""356066""
","""event"",""trial"",""time""
""focus"",""7"",""46391""
""focus"",""19"",""360362""
","""event"",""trial"",""time""
""fullscreenenter"",""1"",""1954""
","
","","","467.69999999995343","","","22","19144","7047","&#9789;","elianto","#f73b6a7A"," "," ","1","0","[1318.7000000001863]","1","0","4","","","","","","","",""
"pit-trial","94","792787","0.0-2.0-17.2-3.2","battery-v0.2","","""event"",""trial"",""time""
""fullscreenenter"",""1"",""1954""
""blur"",""7"",""44791""
""focus"",""7"",""46391""
""blur"",""19"",""356066""
""focus"",""19"",""360362""
","""event"",""trial"",""time""
""blur"",""7"",""44791""
""blur"",""19"",""356066""
","""event"",""trial"",""time""
""focus"",""7"",""46391""
""focus"",""19"",""360362""
","""event"",""trial"",""time""
""fullscreenenter"",""1"",""1954""
","
","","","322.9000000001397","","","22","19144","7047","&#9789;","elianto","#f73b6a7A"," "," ","1","-10","[1173.6000000000931]","1","0","4","","","","","","","",""
"pit-trial","95","796985","0.0-2.0-17.2-4.2","battery-v0.2","","""event"",""trial"",""time""
""fullscreenenter"",""1"",""1954""
""blur"",""7"",""44791""
""focus"",""7"",""46391""
""blur"",""19"",""356066""
""focus"",""19"",""360362""
","""event"",""trial"",""time""
""blur"",""7"",""44791""
""blur"",""19"",""356066""
","""event"",""trial"",""time""
""focus"",""7"",""46391""
""focus"",""19"",""360362""
","""event"",""trial"",""time""
""fullscreenenter"",""1"",""1954""
","
","","","1330.8000000000466","","","22","19144","7047","&#9789;","elianto","#f73b6a7A"," "," ","1","0","[2182]","1","0","4","","","","","","","",""
"pit-trial","96","800268","0.0-2.0-17.3-0.3","battery-v0.2","","""event"",""trial"",""time""
""fullscreenenter"",""1"",""1954""
""blur"",""7"",""44791""
""focus"",""7"",""46391""
""blur"",""19"",""356066""
""focus"",""19"",""360362""
","""event"",""trial"",""time""
""blur"",""7"",""44791""
""blur"",""19"",""356066""
","""event"",""trial"",""time""
""focus"",""7"",""46391""
""focus"",""19"",""360362""
","""event"",""trial"",""time""
""fullscreenenter"",""1"",""1954""
","
","","","428.10000000009313","","","22","19144","7047","&#9789;","elianto","#f73b6a7A"," "," ","1","0","[1278.1999999999534]","1","0","4","","","","","","","",""
"pit-trial","97","803540","0.0-2.0-17.3-1.3","battery-v0.2","","""event"",""trial"",""time""
""fullscreenenter"",""1"",""1954""
""blur"",""7"",""44791""
""focus"",""7"",""46391""
""blur"",""19"",""356066""
""focus"",""19"",""360362""
","""event"",""trial"",""time""
""blur"",""7"",""44791""
""blur"",""19"",""356066""
","""event"",""trial"",""time""
""focus"",""7"",""46391""
""focus"",""19"",""360362""
","""event"",""trial"",""time""
""fullscreenenter"",""1"",""1954""
","
","","","417.39999999990687","","","22","19144","7047","&#9789;","elianto","#f73b6a7A"," "," ","1","0","[623.5,1268.3000000000466]","2","0","4","","","","","","","",""
"pit-trial","98","806805","0.0-2.0-17.3-2.3","battery-v0.2","","""event"",""trial"",""time""
""fullscreenenter"",""1"",""1954""
""blur"",""7"",""44791""
""focus"",""7"",""46391""
""blur"",""19"",""356066""
""focus"",""19"",""360362""
","""event"",""trial"",""time""
""blur"",""7"",""44791""
""blur"",""19"",""356066""
","""event"",""trial"",""time""
""focus"",""7"",""46391""
""focus"",""19"",""360362""
","""event"",""trial"",""time""
""fullscreenenter"",""1"",""1954""
","
","","","409.5","","","22","19144","7047","&#9789;","elianto","#f73b6a7A"," "," ","1","0","[1259.8000000000466]","1","0","4","","","","","","","",""
"pit-trial","99","810114","0.0-2.0-17.3-3.3","battery-v0.2","","""event"",""trial"",""time""
""fullscreenenter"",""1"",""1954""
""blur"",""7"",""44791""
""focus"",""7"",""46391""
""blur"",""19"",""356066""
""focus"",""19"",""360362""
","""event"",""trial"",""time""
""blur"",""7"",""44791""
""blur"",""19"",""356066""
","""event"",""trial"",""time""
""focus"",""7"",""46391""
""focus"",""19"",""360362""
","""event"",""trial"",""time""
""fullscreenenter"",""1"",""1954""
","
","","","453.30000000004657","","","22","19144","7047","&#9789;","elianto","#f73b6a7A"," "," ","1","-10","[1304.8000000000466]","1","0","4","","","","","","","",""
"pit-trial","100","813738","0.0-2.0-17.3-4.3","battery-v0.2","","""event"",""trial"",""time""
""fullscreenenter"",""1"",""1954""
""blur"",""7"",""44791""
""focus"",""7"",""46391""
""blur"",""19"",""356066""
""focus"",""19"",""360362""
","""event"",""trial"",""time""
""blur"",""7"",""44791""
""blur"",""19"",""356066""
","""event"",""trial"",""time""
""focus"",""7"",""46391""
""focus"",""19"",""360362""
","""event"",""trial"",""time""
""fullscreenenter"",""1"",""1954""
","
","","","770.8000000000466","","","22","19144","7047","&#9789;","elianto","#f73b6a7A"," "," ","1","0","[1621.3999999999069]","1","0","4","","","","","","","",""
"call-function","101","813741","0.0-2.0-18.0","battery-v0.2","","""event"",""trial"",""time""
""fullscreenenter"",""1"",""1954""
""blur"",""7"",""44791""
""focus"",""7"",""46391""
""blur"",""19"",""356066""
""focus"",""19"",""360362""
","""event"",""trial"",""time""
""blur"",""7"",""44791""
""blur"",""19"",""356066""
","""event"",""trial"",""time""
""focus"",""7"",""46391""
""focus"",""19"",""360362""
","""event"",""trial"",""time""
""fullscreenenter"",""1"",""1954""
","
","","","","","","","","","","","","","","","","","","","","","","","","","","",""
"pit-instructions","102","929122","0.0-2.0-19.0","battery-v0.2","","""event"",""trial"",""time""
""fullscreenenter"",""1"",""1954""
""blur"",""7"",""44791""
""focus"",""7"",""46391""
""blur"",""19"",""356066""
""focus"",""19"",""360362""
","""event"",""trial"",""time""
""blur"",""7"",""44791""
""blur"",""19"",""356066""
","""event"",""trial"",""time""
""focus"",""7"",""46391""
""focus"",""19"",""360362""
","""event"",""trial"",""time""
""fullscreenenter"",""1"",""1954""
","
","","[{""page_index"":0,""viewing_time"":10676.59999999986},{""page_index"":1,""viewing_time"":21364.90000000014},{""page_index"":2,""viewing_time"":15768},{""page_index"":3,""viewing_time"":15135.59999999986},{""page_index"":4,""viewing_time"":11471.199999999953},{""page_index"":5,""viewing_time"":8955},{""page_index"":6,""viewing_time"":10390.40000000014},{""page_index"":7,""viewing_time"":10289.09999999986},{""page_index"":8,""viewing_time"":11329}]","115381","","","","","","","","","","","","","","","","","","","","","","","",""
"pit-comprehension","103","937122","0.0-2.0-20.0-0.0","battery-v0.2","","""event"",""trial"",""time""
""fullscreenenter"",""1"",""1954""
""blur"",""7"",""44791""
""focus"",""7"",""46391""
""blur"",""19"",""356066""
""focus"",""19"",""360362""
","""event"",""trial"",""time""
""blur"",""7"",""44791""
""blur"",""19"",""356066""
","""event"",""trial"",""time""
""focus"",""7"",""46391""
""focus"",""19"",""360362""
","""event"",""trial"",""time""
""fullscreenenter"",""1"",""1954""
","
","","","7991","[""SPACE""]","0","22","19144","7047","","","","","","","","","","","","","","","","","","",""
"pit-instructions","104","964249","0.0-2.0-20.0-1.0","battery-v0.2","","""event"",""trial"",""time""
""fullscreenenter"",""1"",""1954""
""blur"",""7"",""44791""
""focus"",""7"",""46391""
""blur"",""19"",""356066""
""focus"",""19"",""360362""
","""event"",""trial"",""time""
""blur"",""7"",""44791""
""blur"",""19"",""356066""
","""event"",""trial"",""time""
""focus"",""7"",""46391""
""focus"",""19"",""360362""
","""event"",""trial"",""time""
""fullscreenenter"",""1"",""1954""
","
","","[{""page_index"":0,""viewing_time"":27074.699999999953}]","27075.5","","","","","","","","","","","","","","","","","","","","","","","",""
"pit-comprehension","105","971361","0.0-2.0-21.0-0.0","battery-v0.2","","""event"",""trial"",""time""
""fullscreenenter"",""1"",""1954""
""blur"",""7"",""44791""
""focus"",""7"",""46391""
""blur"",""19"",""356066""
""focus"",""19"",""360362""
","""event"",""trial"",""time""
""blur"",""7"",""44791""
""blur"",""19"",""356066""
","""event"",""trial"",""time""
""focus"",""7"",""46391""
""focus"",""19"",""360362""
","""event"",""trial"",""time""
""fullscreenenter"",""1"",""1954""
","
","","","7100.40000000014","[""10""]","0","22","19144","7047","","","","","","","","","","","","","","","","","","",""
"pit-instructions","106","1008715","0.0-2.0-21.0-1.0","battery-v0.2","","""event"",""trial"",""time""
""fullscreenenter"",""1"",""1954""
""blur"",""7"",""44791""
""focus"",""7"",""46391""
""blur"",""19"",""356066""
""focus"",""19"",""360362""
","""event"",""trial"",""time""
""blur"",""7"",""44791""
""blur"",""19"",""356066""
","""event"",""trial"",""time""
""focus"",""7"",""46391""
""focus"",""19"",""360362""
","""event"",""trial"",""time""
""fullscreenenter"",""1"",""1954""
","
","","[{""page_index"":0,""viewing_time"":37303.39999999991}]","37304.39999999991","","","","","","","","","","","","","","","","","","","","","","","",""
"pit-comprehension","107","1017170","0.0-2.0-22.0-0.0","battery-v0.2","","""event"",""trial"",""time""
""fullscreenenter"",""1"",""1954""
""blur"",""7"",""44791""
""focus"",""7"",""46391""
""blur"",""19"",""356066""
""focus"",""19"",""360362""
","""event"",""trial"",""time""
""blur"",""7"",""44791""
""blur"",""19"",""356066""
","""event"",""trial"",""time""
""focus"",""7"",""46391""
""focus"",""19"",""360362""
","""event"",""trial"",""time""
""fullscreenenter"",""1"",""1954""
","
","","","8444.699999999953","[""0""]","0","22","19144","7047","","","","","","","","","","","","","","","","","","",""
"pit-instructions","108","1024544","0.0-2.0-22.0-1.0","battery-v0.2","","""event"",""trial"",""time""
""fullscreenenter"",""1"",""1954""
""blur"",""7"",""44791""
""focus"",""7"",""46391""
""blur"",""19"",""356066""
""focus"",""19"",""360362""
","""event"",""trial"",""time""
""blur"",""7"",""44791""
""blur"",""19"",""356066""
","""event"",""trial"",""time""
""focus"",""7"",""46391""
""focus"",""19"",""360362""
","""event"",""trial"",""time""
""fullscreenenter"",""1"",""1954""
","
","","[{""page_index"":0,""viewing_time"":7304.59999999986}]","7305.199999999953","","","","","","","","","","","","","","","","","","","","","","","",""
"pit-comprehension","109","1039651","0.0-2.0-23.0-0.0","battery-v0.2","","""event"",""trial"",""time""
""fullscreenenter"",""1"",""1954""
""blur"",""7"",""44791""
""focus"",""7"",""46391""
""blur"",""19"",""356066""
""focus"",""19"",""360362""
","""event"",""trial"",""time""
""blur"",""7"",""44791""
""blur"",""19"",""356066""
","""event"",""trial"",""time""
""focus"",""7"",""46391""
""focus"",""19"",""360362""
","""event"",""trial"",""time""
""fullscreenenter"",""1"",""1954""
","
","","","15099.600000000093","[""True""]","0","22","19144","7047","","","","","","","","","","","","","","","","","","",""
"pit-instructions","110","1047820","0.0-2.0-23.0-1.0","battery-v0.2","","""event"",""trial"",""time""
""fullscreenenter"",""1"",""1954""
""blur"",""7"",""44791""
""focus"",""7"",""46391""
""blur"",""19"",""356066""
""focus"",""19"",""360362""
","""event"",""trial"",""time""
""blur"",""7"",""44791""
""blur"",""19"",""356066""
","""event"",""trial"",""time""
""focus"",""7"",""46391""
""focus"",""19"",""360362""
","""event"",""trial"",""time""
""fullscreenenter"",""1"",""1954""
","
","","[{""page_index"":0,""viewing_time"":8123.899999999907}]","8124.59999999986","","","","","","","","","","","","","","","","","","","","","","","",""
"pit-comprehension","111","1058772","0.0-2.0-24.0-0.0","battery-v0.2","","""event"",""trial"",""time""
""fullscreenenter"",""1"",""1954""
""blur"",""7"",""44791""
""focus"",""7"",""46391""
""blur"",""19"",""356066""
""focus"",""19"",""360362""
","""event"",""trial"",""time""
""blur"",""7"",""44791""
""blur"",""19"",""356066""
","""event"",""trial"",""time""
""focus"",""7"",""46391""
""focus"",""19"",""360362""
","""event"",""trial"",""time""
""fullscreenenter"",""1"",""1954""
","
","","","10946.800000000047","[""True""]","0","22","19144","7047","","","","","","","","","","","","","","","","","","",""
"pit-instructions","112","1062263","0.0-2.0-24.0-1.0","battery-v0.2","","""event"",""trial"",""time""
""fullscreenenter"",""1"",""1954""
""blur"",""7"",""44791""
""focus"",""7"",""46391""
""blur"",""19"",""356066""
""focus"",""19"",""360362""
","""event"",""trial"",""time""
""blur"",""7"",""44791""
""blur"",""19"",""356066""
","""event"",""trial"",""time""
""focus"",""7"",""46391""
""focus"",""19"",""360362""
","""event"",""trial"",""time""
""fullscreenenter"",""1"",""1954""
","
","","[{""page_index"":0,""viewing_time"":3458.0999999998603}]","3459","","","","","","","","","","","","","","","","","","","","","","","",""
"pit-comprehension","113","1068344","0.0-2.0-25.0-0.0","battery-v0.2","","""event"",""trial"",""time""
""fullscreenenter"",""1"",""1954""
""blur"",""7"",""44791""
""focus"",""7"",""46391""
""blur"",""19"",""356066""
""focus"",""19"",""360362""
","""event"",""trial"",""time""
""blur"",""7"",""44791""
""blur"",""19"",""356066""
","""event"",""trial"",""time""
""focus"",""7"",""46391""
""focus"",""19"",""360362""
","""event"",""trial"",""time""
""fullscreenenter"",""1"",""1954""
","
","","","6073.59999999986","[""True""]","0","22","19144","7047","","","","","","","","","","","","","","","","","","",""
"pit-instructions","114","1070298","0.0-2.0-25.0-1.0","battery-v0.2","","""event"",""trial"",""time""
""fullscreenenter"",""1"",""1954""
""blur"",""7"",""44791""
""focus"",""7"",""46391""
""blur"",""19"",""356066""
""focus"",""19"",""360362""
","""event"",""trial"",""time""
""blur"",""7"",""44791""
""blur"",""19"",""356066""
","""event"",""trial"",""time""
""focus"",""7"",""46391""
""focus"",""19"",""360362""
","""event"",""trial"",""time""
""fullscreenenter"",""1"",""1954""
","
","","[{""page_index"":0,""viewing_time"":1893.0999999998603}]","1894.2999999998137","","","","","","","","","","","","","","","","","","","","","","","",""
"pit-comprehension","115","1075723","0.0-2.0-26.0-0.0","battery-v0.2","","""event"",""trial"",""time""
""fullscreenenter"",""1"",""1954""
""blur"",""7"",""44791""
""focus"",""7"",""46391""
""blur"",""19"",""356066""
""focus"",""19"",""360362""
","""event"",""trial"",""time""
""blur"",""7"",""44791""
""blur"",""19"",""356066""
","""event"",""trial"",""time""
""focus"",""7"",""46391""
""focus"",""19"",""360362""
","""event"",""trial"",""time""
""fullscreenenter"",""1"",""1954""
","
","","","5417","[""False""]","0","22","19144","7047","","","","","","","","","","","","","","","","","","",""
"pit-instructions","116","1077687","0.0-2.0-26.0-1.0","battery-v0.2","","""event"",""trial"",""time""
""fullscreenenter"",""1"",""1954""
""blur"",""7"",""44791""
""focus"",""7"",""46391""
""blur"",""19"",""356066""
""focus"",""19"",""360362""
","""event"",""trial"",""time""
""blur"",""7"",""44791""
""blur"",""19"",""356066""
","""event"",""trial"",""time""
""focus"",""7"",""46391""
""focus"",""19"",""360362""
","""event"",""trial"",""time""
""fullscreenenter"",""1"",""1954""
","
","","[{""page_index"":0,""viewing_time"":1916.0999999998603}]","1918","","","","","","","","","","","","","","","","","","","","","","","",""
"pit-instructions","117","1099615","0.0-3.0","battery-v0.2","","""event"",""trial"",""time""
""fullscreenenter"",""1"",""1954""
""blur"",""7"",""44791""
""focus"",""7"",""46391""
""blur"",""19"",""356066""
""focus"",""19"",""360362""
","""event"",""trial"",""time""
""blur"",""7"",""44791""
""blur"",""19"",""356066""
","""event"",""trial"",""time""
""focus"",""7"",""46391""
""focus"",""19"",""360362""
","""event"",""trial"",""time""
""fullscreenenter"",""1"",""1954""
","
","","[{""page_index"":0,""viewing_time"":9175.399999999907},{""page_index"":1,""viewing_time"":6714.199999999953},{""page_index"":2,""viewing_time"":6032.40000000014}]","21922.699999999953","","","","","","","","","","","","","","","","","","","","","","","",""
"pit-trial","118","1104487","0.0-4.0","battery-v0.2","","""event"",""trial"",""time""
""fullscreenenter"",""1"",""1954""
""blur"",""7"",""44791""
""focus"",""7"",""46391""
""blur"",""19"",""356066""
""focus"",""19"",""360362""
","""event"",""trial"",""time""
""blur"",""7"",""44791""
""blur"",""19"",""356066""
","""event"",""trial"",""time""
""focus"",""7"",""46391""
""focus"",""19"",""360362""
","""event"",""trial"",""time""
""fullscreenenter"",""1"",""1954""
","
","","","-1","","","22","19144","7047","&#9728;","elianto","#f73b6a7A","-1","-1","1","0","[]","0","1","","","19144","1","0","4","lose","no-go","0"
"pit-trial","119","1107854","0.0-5.0","battery-v0.2","","""event"",""trial"",""time""
""fullscreenenter"",""1"",""1954""
""blur"",""7"",""44791""
""focus"",""7"",""46391""
""blur"",""19"",""356066""
""focus"",""19"",""360362""
","""event"",""trial"",""time""
""blur"",""7"",""44791""
""blur"",""19"",""356066""
","""event"",""trial"",""time""
""focus"",""7"",""46391""
""focus"",""19"",""360362""
","""event"",""trial"",""time""
""fullscreenenter"",""1"",""1954""
","
","","","499.19999999995343","","","22","19144","7047","&#9733;","elianto","#3366ff99","-1"," ","0","0","[1352.3000000000466]","1","1","","","19144","2","2","2","win","no-go","0"
"pit-trial","120","1111885","0.0-6.0","battery-v0.2","","""event"",""trial"",""time""
""fullscreenenter"",""1"",""1954""
""blur"",""7"",""44791""
""focus"",""7"",""46391""
""blur"",""19"",""356066""
""focus"",""19"",""360362""
","""event"",""trial"",""time""
""blur"",""7"",""44791""
""blur"",""19"",""356066""
","""event"",""trial"",""time""
""focus"",""7"",""46391""
""focus"",""19"",""360362""
","""event"",""trial"",""time""
""fullscreenenter"",""1"",""1954""
","
","","","1169","","","22","19144","7047","&#9730;","elianto","#3366ff99"," "," ","1","0","[2025.4000000001397]","1","1","","","19144","3","1","1","win","go","1"
"pit-trial","121","1115522","0.0-7.0","battery-v0.2","","""event"",""trial"",""time""
""fullscreenenter"",""1"",""1954""
""blur"",""7"",""44791""
""focus"",""7"",""46391""
""blur"",""19"",""356066""
""focus"",""19"",""360362""
","""event"",""trial"",""time""
""blur"",""7"",""44791""
""blur"",""19"",""356066""
","""event"",""trial"",""time""
""focus"",""7"",""46391""
""focus"",""19"",""360362""
","""event"",""trial"",""time""
""fullscreenenter"",""1"",""1954""
","
","","","771.1999999999534","","","22","19144","7047","&#9752;","elianto","#f73b6a7A"," "," ","1","-10","[1621.3000000000466]","1","1","","","19144","4","3","3","lose","go","1"
"pit-trial","122","1120389","0.0-8.0","battery-v0.2","","""event"",""trial"",""time""
""fullscreenenter"",""1"",""1954""
""blur"",""7"",""44791""
""focus"",""7"",""46391""
""blur"",""19"",""356066""
""focus"",""19"",""360362""
","""event"",""trial"",""time""
""blur"",""7"",""44791""
""blur"",""19"",""356066""
","""event"",""trial"",""time""
""focus"",""7"",""46391""
""focus"",""19"",""360362""
","""event"",""trial"",""time""
""fullscreenenter"",""1"",""1954""
","
","","","-1","","","22","19144","7047","&#9752;","elianto","#f73b6a7A"," ","-1","0","-10","[]","0","1","","","19144","5","3","3","lose","go","0"
"pit-trial","123","1124114","0.0-9.0","battery-v0.2","","""event"",""trial"",""time""
""fullscreenenter"",""1"",""1954""
""blur"",""7"",""44791""
""focus"",""7"",""46391""
""blur"",""19"",""356066""
""focus"",""19"",""360362""
","""event"",""trial"",""time""
""blur"",""7"",""44791""
""blur"",""19"",""356066""
","""event"",""trial"",""time""
""focus"",""7"",""46391""
""focus"",""19"",""360362""
","""event"",""trial"",""time""
""fullscreenenter"",""1"",""1954""
","
","","","846.6999999999534","","","22","19144","7047","&#9728;","elianto","#f73b6a7A","-1"," ","0","-10","[1707.4000000001397]","1","1","","","19144","6","0","4","lose","no-go","0"
"pit-trial","124","1128157","0.0-10.0","battery-v0.2","","""event"",""trial"",""time""
""fullscreenenter"",""1"",""1954""
""blur"",""7"",""44791""
""focus"",""7"",""46391""
""blur"",""19"",""356066""
""focus"",""19"",""360362""
","""event"",""trial"",""time""
""blur"",""7"",""44791""
""blur"",""19"",""356066""
","""event"",""trial"",""time""
""focus"",""7"",""46391""
""focus"",""19"",""360362""
","""event"",""trial"",""time""
""fullscreenenter"",""1"",""1954""
","
","","","1181.9000000001397","","","22","19144","7047","&#9730;","elianto","#3366ff99"," "," ","1","+10","[2034]","1","1","","","19144","7","1","1","win","go","0"
"pit-trial","125","1131709","0.0-11.0","battery-v0.2","","""event"",""trial"",""time""
""fullscreenenter"",""1"",""1954""
""blur"",""7"",""44791""
""focus"",""7"",""46391""
""blur"",""19"",""356066""
""focus"",""19"",""360362""
","""event"",""trial"",""time""
""blur"",""7"",""44791""
""blur"",""19"",""356066""
","""event"",""trial"",""time""
""focus"",""7"",""46391""
""focus"",""19"",""360362""
","""event"",""trial"",""time""
""fullscreenenter"",""1"",""1954""
","
","","","689","","","22","19144","7047","&#9733;","elianto","#3366ff99","-1"," ","0","+10","[1547.3999999999069]","1","1","","","19144","8","2","2","win","no-go","1"
"pit-trial","126","1136564","0.0-12.0","battery-v0.2","","""event"",""trial"",""time""
""fullscreenenter"",""1"",""1954""
""blur"",""7"",""44791""
""focus"",""7"",""46391""
""blur"",""19"",""356066""
""focus"",""19"",""360362""
","""event"",""trial"",""time""
""blur"",""7"",""44791""
""blur"",""19"",""356066""
","""event"",""trial"",""time""
""focus"",""7"",""46391""
""focus"",""19"",""360362""
","""event"",""trial"",""time""
""fullscreenenter"",""1"",""1954""
","
","","","-1","","","22","19144","7047","&#9752;","elianto","#f73b6a7A"," ","-1","0","-10","[]","0","1","","","19144","9","3","3","lose","go","0"
"pit-trial","127","1139927","0.0-13.0","battery-v0.2","","""event"",""trial"",""time""
""fullscreenenter"",""1"",""1954""
""blur"",""7"",""44791""
""focus"",""7"",""46391""
""blur"",""19"",""356066""
""focus"",""19"",""360362""
","""event"",""trial"",""time""
""blur"",""7"",""44791""
""blur"",""19"",""356066""
","""event"",""trial"",""time""
""focus"",""7"",""46391""
""focus"",""19"",""360362""
","""event"",""trial"",""time""
""fullscreenenter"",""1"",""1954""
","
","","","508.4000000001397","","","22","19144","7047","&#9733;","elianto","#3366ff99","-1"," ","0","0","[1359.1999999999534]","1","1","","","19144","10","2","2","win","no-go","0"
"pit-trial","128","1144785","0.0-14.0","battery-v0.2","","""event"",""trial"",""time""
""fullscreenenter"",""1"",""1954""
""blur"",""7"",""44791""
""focus"",""7"",""46391""
""blur"",""19"",""356066""
""focus"",""19"",""360362""
","""event"",""trial"",""time""
""blur"",""7"",""44791""
""blur"",""19"",""356066""
","""event"",""trial"",""time""
""focus"",""7"",""46391""
""focus"",""19"",""360362""
","""event"",""trial"",""time""
""fullscreenenter"",""1"",""1954""
","
","","","-1","","","22","19144","7047","&#9728;","elianto","#f73b6a7A","-1","-1","1","0","[]","0","1","","","19144","11","0","4","lose","no-go","0"
"pit-trial","129","1149639","0.0-15.0","battery-v0.2","","""event"",""trial"",""time""
""fullscreenenter"",""1"",""1954""
""blur"",""7"",""44791""
""focus"",""7"",""46391""
""blur"",""19"",""356066""
""focus"",""19"",""360362""
","""event"",""trial"",""time""
""blur"",""7"",""44791""
""blur"",""19"",""356066""
","""event"",""trial"",""time""
""focus"",""7"",""46391""
""focus"",""19"",""360362""
","""event"",""trial"",""time""
""fullscreenenter"",""1"",""1954""
","
","","","-1","","","22","19144","7047","&#9730;","elianto","#3366ff99"," ","-1","0","+10","[]","0","1","","","19144","12","1","1","win","go","1"
"pit-trial","130","1154494","0.0-16.0","battery-v0.2","","""event"",""trial"",""time""
""fullscreenenter"",""1"",""1954""
""blur"",""7"",""44791""
""focus"",""7"",""46391""
""blur"",""19"",""356066""
""focus"",""19"",""360362""
","""event"",""trial"",""time""
""blur"",""7"",""44791""
""blur"",""19"",""356066""
","""event"",""trial"",""time""
""focus"",""7"",""46391""
""focus"",""19"",""360362""
","""event"",""trial"",""time""
""fullscreenenter"",""1"",""1954""
","
","","","-1","","","22","19144","7047","&#9752;","elianto","#f73b6a7A"," ","-1","0","-10","[]","0","1","","","19144","13","3","3","lose","go","0"
"pit-trial","131","1157858","0.0-17.0","battery-v0.2","","""event"",""trial"",""time""
""fullscreenenter"",""1"",""1954""
""blur"",""7"",""44791""
""focus"",""7"",""46391""
""blur"",""19"",""356066""
""focus"",""19"",""360362""
","""event"",""trial"",""time""
""blur"",""7"",""44791""
""blur"",""19"",""356066""
","""event"",""trial"",""time""
""focus"",""7"",""46391""
""focus"",""19"",""360362""
","""event"",""trial"",""time""
""fullscreenenter"",""1"",""1954""
","
","","","507.89999999990687","","","22","19144","7047","&#9728;","elianto","#f73b6a7A","-1"," ","0","-10","[1359.8000000000466]","1","1","","","19144","14","0","4","lose","no-go","0"
"pit-trial","132","1161423","0.0-18.0","battery-v0.2","","""event"",""trial"",""time""
""fullscreenenter"",""1"",""1954""
""blur"",""7"",""44791""
""focus"",""7"",""46391""
""blur"",""19"",""356066""
""focus"",""19"",""360362""
","""event"",""trial"",""time""
""blur"",""7"",""44791""
""blur"",""19"",""356066""
","""event"",""trial"",""time""
""focus"",""7"",""46391""
""focus"",""19"",""360362""
","""event"",""trial"",""time""
""fullscreenenter"",""1"",""1954""
","
","","","708.8999999999069","","","22","19144","7047","&#9730;","elianto","#3366ff99"," "," ","1","+10","[1560.0999999998603]","1","1","","","19144","15","1","1","win","go","0"
"pit-trial","133","1164533","0.0-19.0","battery-v0.2","","""event"",""trial"",""time""
""fullscreenenter"",""1"",""1954""
""blur"",""7"",""44791""
""focus"",""7"",""46391""
""blur"",""19"",""356066""
""focus"",""19"",""360362""
","""event"",""trial"",""time""
""blur"",""7"",""44791""
""blur"",""19"",""356066""
","""event"",""trial"",""time""
""focus"",""7"",""46391""
""focus"",""19"",""360362""
","""event"",""trial"",""time""
""fullscreenenter"",""1"",""1954""
","
","","","254.39999999990687","","","22","19144","7047","&#9733;","elianto","#3366ff99","-1"," ","0","0","[1104.6999999999534]","1","1","","","19144","16","2","2","win","no-go","0"
"pit-trial","134","1169387","0.0-20.0","battery-v0.2","","""event"",""trial"",""time""
""fullscreenenter"",""1"",""1954""
""blur"",""7"",""44791""
""focus"",""7"",""46391""
""blur"",""19"",""356066""
""focus"",""19"",""360362""
","""event"",""trial"",""time""
""blur"",""7"",""44791""
""blur"",""19"",""356066""
","""event"",""trial"",""time""
""focus"",""7"",""46391""
""focus"",""19"",""360362""
","""event"",""trial"",""time""
""fullscreenenter"",""1"",""1954""
","
","","","-1","","","22","19144","7047","&#9733;","elianto","#3366ff99","-1","-1","1","+10","[]","0","1","","","19144","17","2","2","win","no-go","0"
"pit-trial","135","1174243","0.0-21.0","battery-v0.2","","""event"",""trial"",""time""
""fullscreenenter"",""1"",""1954""
""blur"",""7"",""44791""
""focus"",""7"",""46391""
""blur"",""19"",""356066""
""focus"",""19"",""360362""
","""event"",""trial"",""time""
""blur"",""7"",""44791""
""blur"",""19"",""356066""
","""event"",""trial"",""time""
""focus"",""7"",""46391""
""focus"",""19"",""360362""
","""event"",""trial"",""time""
""fullscreenenter"",""1"",""1954""
","
","","","-1","","","22","19144","7047","&#9728;","elianto","#f73b6a7A","-1","-1","1","0","[]","0","1","","","19144","18","0","4","lose","no-go","0"
"pit-trial","136","1179097","0.0-22.0","battery-v0.2","","""event"",""trial"",""time""
""fullscreenenter"",""1"",""1954""
""blur"",""7"",""44791""
""focus"",""7"",""46391""
""blur"",""19"",""356066""
""focus"",""19"",""360362""
","""event"",""trial"",""time""
""blur"",""7"",""44791""
""blur"",""19"",""356066""
","""event"",""trial"",""time""
""focus"",""7"",""46391""
""focus"",""19"",""360362""
","""event"",""trial"",""time""
""fullscreenenter"",""1"",""1954""
","
","","","-1","","","22","19144","7047","&#9730;","elianto","#3366ff99"," ","-1","0","+10","[2964]","1","1","","","19144","19","1","1","win","go","1"
"pit-trial","137","1183951","0.0-23.0","battery-v0.2","","""event"",""trial"",""time""
""fullscreenenter"",""1"",""1954""
""blur"",""7"",""44791""
""focus"",""7"",""46391""
""blur"",""19"",""356066""
""focus"",""19"",""360362""
","""event"",""trial"",""time""
""blur"",""7"",""44791""
""blur"",""19"",""356066""
","""event"",""trial"",""time""
""focus"",""7"",""46391""
""focus"",""19"",""360362""
","""event"",""trial"",""time""
""fullscreenenter"",""1"",""1954""
","
","","","-1","","","22","19144","7047","&#9752;","elianto","#f73b6a7A"," ","-1","0","-10","[]","0","1","","","19144","20","3","3","lose","go","0"
"pit-instructions","138","1202405","0.0-24.0","battery-v0.2","","""event"",""trial"",""time""
""fullscreenenter"",""1"",""1954""
""blur"",""7"",""44791""
""focus"",""7"",""46391""
""blur"",""19"",""356066""
""focus"",""19"",""360362""
","""event"",""trial"",""time""
""blur"",""7"",""44791""
""blur"",""19"",""356066""
","""event"",""trial"",""time""
""focus"",""7"",""46391""
""focus"",""19"",""360362""
","""event"",""trial"",""time""
""fullscreenenter"",""1"",""1954""
","
","","[{""page_index"":0,""viewing_time"":9293.5},{""page_index"":1,""viewing_time"":9156.59999999986}]","18451.199999999953","","","","","","","","","","","","","","","","","","","","","","","",""
"pit-trial","139","1206239","0.0-25.0","battery-v0.2","","""event"",""trial"",""time""
""fullscreenenter"",""1"",""1954""
""blur"",""7"",""44791""
""focus"",""7"",""46391""
""blur"",""19"",""356066""
""focus"",""19"",""360362""
","""event"",""trial"",""time""
""blur"",""7"",""44791""
""blur"",""19"",""356066""
","""event"",""trial"",""time""
""focus"",""7"",""46391""
""focus"",""19"",""360362""
","""event"",""trial"",""time""
""fullscreenenter"",""1"",""1954""
","
","","","958.5999999998603","","","22","19144","7047","h","elianto","#f73b6a7A"," "," ","1","0","[1811.6999999999534]","1","2","","","19144","21","3","3","lose","go","0"
"pit-trial","140","1211117","0.0-26.0","battery-v0.2","","""event"",""trial"",""time""
""fullscreenenter"",""1"",""1954""
""blur"",""7"",""44791""
""focus"",""7"",""46391""
""blur"",""19"",""356066""
""focus"",""19"",""360362""
","""event"",""trial"",""time""
""blur"",""7"",""44791""
""blur"",""19"",""356066""
","""event"",""trial"",""time""
""focus"",""7"",""46391""
""focus"",""19"",""360362""
","""event"",""trial"",""time""
""fullscreenenter"",""1"",""1954""
","
","","","-1","","","22","19144","7047","y","elianto","#f73b6a7A","-1","-1","1","0","[]","0","2","","","19144","22","2","4","lose","no-go","0"
"pit-trial","141","1215063","0.0-27.0","battery-v0.2","","""event"",""trial"",""time""
""fullscreenenter"",""1"",""1954""
""blur"",""7"",""44791""
""focus"",""7"",""46391""
""blur"",""19"",""356066""
""focus"",""19"",""360362""
","""event"",""trial"",""time""
""blur"",""7"",""44791""
""blur"",""19"",""356066""
","""event"",""trial"",""time""
""focus"",""7"",""46391""
""focus"",""19"",""360362""
","""event"",""trial"",""time""
""fullscreenenter"",""1"",""1954""
","
","","","1072.8999999999069","","","22","19144","7047","m","elianto","#f73b6a7A","-1"," ","0","-10","[1932.3999999999069]","1","2","","","19144","23","0","4","lose","no-go","0"
"pit-trial","142","1219437","0.0-28.0","battery-v0.2","","""event"",""trial"",""time""
""fullscreenenter"",""1"",""1954""
""blur"",""7"",""44791""
""focus"",""7"",""46391""
""blur"",""19"",""356066""
""focus"",""19"",""360362""
","""event"",""trial"",""time""
""blur"",""7"",""44791""
""blur"",""19"",""356066""
","""event"",""trial"",""time""
""focus"",""7"",""46391""
""focus"",""19"",""360362""
","""event"",""trial"",""time""
""fullscreenenter"",""1"",""1954""
","
","","","1509","","","22","19144","7047","r","elianto","#3366ff99"," "," ","1","+10","[2361.4000000001397]","1","2","","","19144","24","1","1","win","go","0"
"pit-trial","143","1224301","0.0-29.0","battery-v0.2","","""event"",""trial"",""time""
""fullscreenenter"",""1"",""1954""
""blur"",""7"",""44791""
""focus"",""7"",""46391""
""blur"",""19"",""356066""
""focus"",""19"",""360362""
","""event"",""trial"",""time""
""blur"",""7"",""44791""
""blur"",""19"",""356066""
","""event"",""trial"",""time""
""focus"",""7"",""46391""
""focus"",""19"",""360362""
","""event"",""trial"",""time""
""fullscreenenter"",""1"",""1954""
","
","","","-1","","","22","19144","7047","y","elianto","#f73b6a7A","-1","-1","1","-10","[]","0","2","","","19144","25","2","4","lose","no-go","1"
"pit-trial","144","1229167","0.0-30.0","battery-v0.2","","""event"",""trial"",""time""
""fullscreenenter"",""1"",""1954""
""blur"",""7"",""44791""
""focus"",""7"",""46391""
""blur"",""19"",""356066""
""focus"",""19"",""360362""
","""event"",""trial"",""time""
""blur"",""7"",""44791""
""blur"",""19"",""356066""
","""event"",""trial"",""time""
""focus"",""7"",""46391""
""focus"",""19"",""360362""
","""event"",""trial"",""time""
""fullscreenenter"",""1"",""1954""
","
","","","-1","","","22","19144","7047","m","elianto","#f73b6a7A","-1","-1","1","0","[]","0","2","","","19144","26","0","4","lose","no-go","0"
"pit-trial","145","1233084","0.0-31.0","battery-v0.2","","""event"",""trial"",""time""
""fullscreenenter"",""1"",""1954""
""blur"",""7"",""44791""
""focus"",""7"",""46391""
""blur"",""19"",""356066""
""focus"",""19"",""360362""
","""event"",""trial"",""time""
""blur"",""7"",""44791""
""blur"",""19"",""356066""
","""event"",""trial"",""time""
""focus"",""7"",""46391""
""focus"",""19"",""360362""
","""event"",""trial"",""time""
""fullscreenenter"",""1"",""1954""
","
","","","1058.5","","","22","19144","7047","h","elianto","#f73b6a7A"," "," ","1","-10","[1914]","1","2","","","19144","27","3","3","lose","go","1"
"pit-trial","146","1237174","0.0-32.0","battery-v0.2","","""event"",""trial"",""time""
""fullscreenenter"",""1"",""1954""
""blur"",""7"",""44791""
""focus"",""7"",""46391""
""blur"",""19"",""356066""
""focus"",""19"",""360362""
","""event"",""trial"",""time""
""blur"",""7"",""44791""
""blur"",""19"",""356066""
","""event"",""trial"",""time""
""focus"",""7"",""46391""
""focus"",""19"",""360362""
","""event"",""trial"",""time""
""fullscreenenter"",""1"",""1954""
","
","","","1234.1999999999534","","","22","19144","7047","r","elianto","#3366ff99"," "," ","1","+10","[2085.600000000093]","1","2","","","19144","28","1","1","win","go","0"
"pit-trial","147","1241302","0.0-33.0","battery-v0.2","","""event"",""trial"",""time""
""fullscreenenter"",""1"",""1954""
""blur"",""7"",""44791""
""focus"",""7"",""46391""
""blur"",""19"",""356066""
""focus"",""19"",""360362""
","""event"",""trial"",""time""
""blur"",""7"",""44791""
""blur"",""19"",""356066""
","""event"",""trial"",""time""
""focus"",""7"",""46391""
""focus"",""19"",""360362""
","""event"",""trial"",""time""
""fullscreenenter"",""1"",""1954""
","
","","","1273.1000000000931","","","22","19144","7047","y","elianto","#f73b6a7A","-1"," ","0","-10","[2123.2000000001863]","1","2","","","19144","29","2","4","lose","no-go","0"
"pit-trial","148","1245187","0.0-34.0","battery-v0.2","","""event"",""trial"",""time""
""fullscreenenter"",""1"",""1954""
""blur"",""7"",""44791""
""focus"",""7"",""46391""
""blur"",""19"",""356066""
""focus"",""19"",""360362""
","""event"",""trial"",""time""
""blur"",""7"",""44791""
""blur"",""19"",""356066""
","""event"",""trial"",""time""
""focus"",""7"",""46391""
""focus"",""19"",""360362""
","""event"",""trial"",""time""
""fullscreenenter"",""1"",""1954""
","
","","","1029.5999999998603","","","22","19144","7047","r","elianto","#3366ff99"," "," ","1","+10","[1880.8000000000466]","1","2","","","19144","30","1","1","win","go","0"
"pit-trial","149","1250043","0.0-35.0","battery-v0.2","","""event"",""trial"",""time""
""fullscreenenter"",""1"",""1954""
""blur"",""7"",""44791""
""focus"",""7"",""46391""
""blur"",""19"",""356066""
""focus"",""19"",""360362""
","""event"",""trial"",""time""
""blur"",""7"",""44791""
""blur"",""19"",""356066""
","""event"",""trial"",""time""
""focus"",""7"",""46391""
""focus"",""19"",""360362""
","""event"",""trial"",""time""
""fullscreenenter"",""1"",""1954""
","
","","","-1","","","22","19144","7047","h","elianto","#f73b6a7A"," ","-1","0","-10","[]","0","2","","","19144","31","3","3","lose","go","0"
"pit-trial","150","1254896","0.0-36.0","battery-v0.2","","""event"",""trial"",""time""
""fullscreenenter"",""1"",""1954""
""blur"",""7"",""44791""
""focus"",""7"",""46391""
""blur"",""19"",""356066""
""focus"",""19"",""360362""
","""event"",""trial"",""time""
""blur"",""7"",""44791""
""blur"",""19"",""356066""
","""event"",""trial"",""time""
""focus"",""7"",""46391""
""focus"",""19"",""360362""
","""event"",""trial"",""time""
""fullscreenenter"",""1"",""1954""
","
","","","-1","","","22","19144","7047","m","elianto","#f73b6a7A","-1","-1","1","-10","[]","0","2","","","19144","32","0","4","lose","no-go","1"
"pit-trial","151","1259751","0.0-37.0","battery-v0.2","","""event"",""trial"",""time""
""fullscreenenter"",""1"",""1954""
""blur"",""7"",""44791""
""focus"",""7"",""46391""
""blur"",""19"",""356066""
""focus"",""19"",""360362""
","""event"",""trial"",""time""
""blur"",""7"",""44791""
""blur"",""19"",""356066""
","""event"",""trial"",""time""
""focus"",""7"",""46391""
""focus"",""19"",""360362""
","""event"",""trial"",""time""
""fullscreenenter"",""1"",""1954""
","
","","","-1","","","22","19144","7047","m","elianto","#f73b6a7A","-1","-1","1","0","[]","0","2","","","19144","33","0","4","lose","no-go","0"
"pit-trial","152","1264606","0.0-38.0","battery-v0.2","","""event"",""trial"",""time""
""fullscreenenter"",""1"",""1954""
""blur"",""7"",""44791""
""focus"",""7"",""46391""
""blur"",""19"",""356066""
""focus"",""19"",""360362""
","""event"",""trial"",""time""
""blur"",""7"",""44791""
""blur"",""19"",""356066""
","""event"",""trial"",""time""
""focus"",""7"",""46391""
""focus"",""19"",""360362""
","""event"",""trial"",""time""
""fullscreenenter"",""1"",""1954""
","
","","","-1","","","22","19144","7047","y","elianto","#f73b6a7A","-1","-1","1","0","[]","0","2","","","19144","34","2","4","lose","no-go","0"
"pit-trial","153","1269461","0.0-39.0","battery-v0.2","","""event"",""trial"",""time""
""fullscreenenter"",""1"",""1954""
""blur"",""7"",""44791""
""focus"",""7"",""46391""
""blur"",""19"",""356066""
""focus"",""19"",""360362""
","""event"",""trial"",""time""
""blur"",""7"",""44791""
""blur"",""19"",""356066""
","""event"",""trial"",""time""
""focus"",""7"",""46391""
""focus"",""19"",""360362""
","""event"",""trial"",""time""
""fullscreenenter"",""1"",""1954""
","
","","","-1","","","22","19144","7047","h","elianto","#f73b6a7A"," ","-1","0","-10","[]","0","2","","","19144","35","3","3","lose","go","0"
"pit-trial","154","1273317","0.0-40.0","battery-v0.2","","""event"",""trial"",""time""
""fullscreenenter"",""1"",""1954""
""blur"",""7"",""44791""
""focus"",""7"",""46391""
""blur"",""19"",""356066""
""focus"",""19"",""360362""
","""event"",""trial"",""time""
""blur"",""7"",""44791""
""blur"",""19"",""356066""
","""event"",""trial"",""time""
""focus"",""7"",""46391""
""focus"",""19"",""360362""
","""event"",""trial"",""time""
""fullscreenenter"",""1"",""1954""
","
","","","1000.1999999999534","","","22","19144","7047","r","elianto","#3366ff99"," "," ","1","0","[1850.6999999999534]","1","2","","","19144","36","1","1","win","go","1"
"pit-trial","155","1278170","0.0-41.0","battery-v0.2","","""event"",""trial"",""time""
""fullscreenenter"",""1"",""1954""
""blur"",""7"",""44791""
""focus"",""7"",""46391""
""blur"",""19"",""356066""
""focus"",""19"",""360362""
","""event"",""trial"",""time""
""blur"",""7"",""44791""
""blur"",""19"",""356066""
","""event"",""trial"",""time""
""focus"",""7"",""46391""
""focus"",""19"",""360362""
","""event"",""trial"",""time""
""fullscreenenter"",""1"",""1954""
","
","","","-1","","","22","19144","7047","m","elianto","#f73b6a7A","-1","-1","1","0","[]","0","2","","","19144","37","0","4","lose","no-go","0"
"pit-trial","156","1283026","0.0-42.0","battery-v0.2","","""event"",""trial"",""time""
""fullscreenenter"",""1"",""1954""
""blur"",""7"",""44791""
""focus"",""7"",""46391""
""blur"",""19"",""356066""
""focus"",""19"",""360362""
","""event"",""trial"",""time""
""blur"",""7"",""44791""
""blur"",""19"",""356066""
","""event"",""trial"",""time""
""focus"",""7"",""46391""
""focus"",""19"",""360362""
","""event"",""trial"",""time""
""fullscreenenter"",""1"",""1954""
","
