"trial_type","trial_index","time_elapsed","internal_node_id","task_version","subject_id","interactions","blur_events","focus_events","fullscreenenter_events","fullscreenexit_events","success","view_history","rt","responses","num_errors","age","subject","participantId","rune","rune_set","hex","correct","choice","accuracy","outcome","keys","total_keys","block","practice","value","sub","trial","stimulus","robot","valence","action","sham"
"pavlovia","0","14","0.0-0.0","battery-v0.2","","""event"",""trial"",""time""
""fullscreenenter"",""1"",""1839""
","
","
","""event"",""trial"",""time""
""fullscreenenter"",""1"",""1839""
","
","","","","","","","","","","","","","","","","","","","","","","","","","","",""
"fullscreen","1","2830","0.0-1.0","battery-v0.2","","""event"",""trial"",""time""
""fullscreenenter"",""1"",""1839""
","
","
","""event"",""trial"",""time""
""fullscreenenter"",""1"",""1839""
","
","true","","","","","","","","","","","","","","","","","","","","","","","","","",""
"pit-instructions","2","7280","0.0-2.0-0.0","battery-v0.2","","""event"",""trial"",""time""
""fullscreenenter"",""1"",""1839""
","
","
","""event"",""trial"",""time""
""fullscreenenter"",""1"",""1839""
","
","","[{""page_index"":0,""viewing_time"":4444.5}]","4445","","","","","","","","","","","","","","","","","","","","","","","",""
"pit-comprehension","3","12265","0.0-2.0-1.0-0.0","battery-v0.2","","""event"",""trial"",""time""
""fullscreenenter"",""1"",""1839""
","
","
","""event"",""trial"",""time""
""fullscreenenter"",""1"",""1839""
","
","","","4979.39999999851","[""shark""]","0","22","4380","1624","","","","","","","","","","","","","","","","","","",""
"pit-instructions","4","15051","0.0-2.0-1.0-1.0","battery-v0.2","","""event"",""trial"",""time""
""fullscreenenter"",""1"",""1839""
","
","
","""event"",""trial"",""time""
""fullscreenenter"",""1"",""1839""
","
","","[{""page_index"":0,""viewing_time"":2766}]","2766.60000000149","","","","","","","","","","","","","","","","","","","","","","","",""
"pit-comprehension","5","17963","0.0-2.0-2.0-0.0","battery-v0.2","","""event"",""trial"",""time""
""fullscreenenter"",""1"",""1839""
","
","
","""event"",""trial"",""time""
""fullscreenenter"",""1"",""1839""
","
","","","2907.3000000044703","[""tiger""]","0","22","4380","1624","","","","","","","","","","","","","","","","","","",""
"pit-instructions","6","19140","0.0-2.0-2.0-1.0","battery-v0.2","","""event"",""trial"",""time""
""fullscreenenter"",""1"",""1839""
","
","
","""event"",""trial"",""time""
""fullscreenenter"",""1"",""1839""
","
","","[{""page_index"":0,""viewing_time"":1172.2999999970198}]","1172.7999999970198","","","","","","","","","","","","","","","","","","","","","","","",""
"pit-instructions","7","100910","0.0-2.0-3.0","battery-v0.2","","""event"",""trial"",""time""
""fullscreenenter"",""1"",""1839""
","
","
","""event"",""trial"",""time""
""fullscreenenter"",""1"",""1839""
","
","","[{""page_index"":0,""viewing_time"":9446.5},{""page_index"":1,""viewing_time"":5071},{""page_index"":2,""viewing_time"":6198.70000000298},{""page_index"":3,""viewing_time"":5144.79999999702},{""page_index"":4,""viewing_time"":5052.39999999851},{""page_index"":5,""viewing_time"":5158.60000000149},{""page_index"":6,""viewing_time"":5518},{""page_index"":7,""viewing_time"":6495.30000000447},{""page_index"":8,""viewing_time"":7002.79999999702},{""page_index"":9,""viewing_time"":5129.60000000149},{""page_index"":10,""viewing_time"":7101.89999999851},{""page_index"":11,""viewing_time"":4036.5},{""page_index"":12,""viewing_time"":6359.5},{""page_index"":13,""viewing_time"":4048.7000000029802}]","81765","","","","","","","","","","","","","","","","","","","","","","","",""
"pit-trial","8","105792","0.0-2.0-4.0-0.0","battery-v0.2","","""event"",""trial"",""time""
""fullscreenenter"",""1"",""1839""
","
","
","""event"",""trial"",""time""
""fullscreenenter"",""1"",""1839""
","
","","","-1","","","22","4380","1624","&#9784;","elianto","#FFFFF080"," ","-1","0","&#10060","[3212.60000000149,4813.79999999702]","2","0","0","","","","","","","",""
"pit-trial","9","109655","0.0-2.0-4.1-0.1","battery-v0.2","","""event"",""trial"",""time""
""fullscreenenter"",""1"",""1839""
","
","
","""event"",""trial"",""time""
""fullscreenenter"",""1"",""1839""
","
","","","988.6999999955297","","","22","4380","1624","&#9784;","elianto","#FFFFF080"," "," ","1","&#10004","[1848.1999999955297]","1","0","0","","","","","","","",""
"pit-trial","10","112594","0.0-2.0-4.2-0.2","battery-v0.2","","""event"",""trial"",""time""
""fullscreenenter"",""1"",""1839""
","
","
","""event"",""trial"",""time""
""fullscreenenter"",""1"",""1839""
","
","","","78.29999999701977","","","22","4380","1624","&#9784;","elianto","#FFFFF080"," "," ","1","&#10004","[929.1999999955297]","1","0","0","","","","","","","",""
"pit-trial","11","115911","0.0-2.0-4.3-0.3","battery-v0.2","","""event"",""trial"",""time""
""fullscreenenter"",""1"",""1839""
","
","
","""event"",""trial"",""time""
""fullscreenenter"",""1"",""1839""
","
","","","443.5","","","22","4380","1624","&#9784;","elianto","#FFFFF080"," "," ","1","&#10004","[1301]","1","0","0","","","","","","","",""
"pit-trial","12","119175","0.0-2.0-4.4-0.4","battery-v0.2","","""event"",""trial"",""time""
""fullscreenenter"",""1"",""1839""
","
","
","""event"",""trial"",""time""
""fullscreenenter"",""1"",""1839""
","
","","","387.3999999985099","","","22","4380","1624","&#9784;","elianto","#FFFFF080"," "," ","1","&#10004","[1244]","1","0","0","","","","","","","",""
"pit-instructions","13","137724","0.0-2.0-5.0","battery-v0.2","","""event"",""trial"",""time""
""fullscreenenter"",""1"",""1839""
","
","
","""event"",""trial"",""time""
""fullscreenenter"",""1"",""1839""
","
","","[{""page_index"":0,""viewing_time"":4128},{""page_index"":1,""viewing_time"":5138.29999999702},{""page_index"":2,""viewing_time"":4091.4000000059605},{""page_index"":3,""viewing_time"":5187.69999999553}]","18545.89999999851","","","","","","","","","","","","","","","","","","","","","","","",""
"pit-trial","14","142611","0.0-2.0-6.0-0.0","battery-v0.2","","""event"",""trial"",""time""
""fullscreenenter"",""1"",""1839""
","
","
","""event"",""trial"",""time""
""fullscreenenter"",""1"",""1839""
","
","","","-1","","","22","4380","1624","&#9854;","elianto","#FFFFF080","-1","-1","1","&#10004","[]","0","0","1","","","","","","","",""
"pit-trial","15","147475","0.0-2.0-6.1-0.1","battery-v0.2","","""event"",""trial"",""time""
""fullscreenenter"",""1"",""1839""
","
","
","""event"",""trial"",""time""
""fullscreenenter"",""1"",""1839""
","
","","","-1","","","22","4380","1624","&#9854;","elianto","#FFFFF080","-1","-1","1","&#10004","[]","0","0","1","","","","","","","",""
"pit-trial","16","152344","0.0-2.0-6.2-0.2","battery-v0.2","","""event"",""trial"",""time""
""fullscreenenter"",""1"",""1839""
","
","
","""event"",""trial"",""time""
""fullscreenenter"",""1"",""1839""
","
","","","-1","","","22","4380","1624","&#9854;","elianto","#FFFFF080","-1","-1","1","&#10004","[]","0","0","1","","","","","","","",""
"pit-trial","17","157224","0.0-2.0-6.3-0.3","battery-v0.2","","""event"",""trial"",""time""
""fullscreenenter"",""1"",""1839""
","
","
","""event"",""trial"",""time""
""fullscreenenter"",""1"",""1839""
","
","","","-1","","","22","4380","1624","&#9854;","elianto","#FFFFF080","-1","-1","1","&#10004","[]","0","0","1","","","","","","","",""
"pit-trial","18","162104","0.0-2.0-6.4-0.4","battery-v0.2","","""event"",""trial"",""time""
""fullscreenenter"",""1"",""1839""
","
","
","""event"",""trial"",""time""
""fullscreenenter"",""1"",""1839""
","
","","","-1","","","22","4380","1624","&#9854;","elianto","#FFFFF080","-1","-1","1","&#10004","[]","0","0","1","","","","","","","",""
"pit-instructions","19","268059","0.0-2.0-7.0","battery-v0.2","","""event"",""trial"",""time""
""fullscreenenter"",""1"",""1839""
","
","
","""event"",""trial"",""time""
""fullscreenenter"",""1"",""1839""
","
","","[{""page_index"":0,""viewing_time"":5228.70000000298},{""page_index"":1,""viewing_time"":6078},{""page_index"":2,""viewing_time"":5122.89999999851},{""page_index"":3,""viewing_time"":5590.39999999851},{""page_index"":4,""viewing_time"":5202.10000000149},{""page_index"":5,""viewing_time"":5323.30000000447},{""page_index"":6,""viewing_time"":4131.19999999553},{""page_index"":7,""viewing_time"":7040.89999999851},{""page_index"":8,""viewing_time"":6024.4000000059605},{""page_index"":9,""viewing_time"":5745.39999999851},{""page_index"":10,""viewing_time"":6156.10000000149},{""page_index"":11,""viewing_time"":5638.29999999702},{""page_index"":12,""viewing_time"":6077.39999999851},{""page_index"":13,""viewing_time"":6183.10000000149},{""page_index"":14,""viewing_time"":6026.89999999851},{""page_index"":15,""viewing_time"":6162.20000000298},{""page_index"":16,""viewing_time"":8165.5},{""page_index"":17,""viewing_time"":6053}]","105950.60000000149","","","","","","","","","","","","","","","","","","","","","","","",""
"pit-trial","20","271606","0.0-2.0-8.0-0.0","battery-v0.2","","""event"",""trial"",""time""
""fullscreenenter"",""1"",""1839""
","
","
","""event"",""trial"",""time""
""fullscreenenter"",""1"",""1839""
","
","","","672.5","","","22","4380","1624","&#9776;","elianto","#3366ff99"," "," ","1","+10","[1525.5]","1","0","1","","","","","","","",""
"pit-trial","21","274852","0.0-2.0-8.0-1.0","battery-v0.2","","""event"",""trial"",""time""
""fullscreenenter"",""1"",""1839""
","
","
","""event"",""trial"",""time""
""fullscreenenter"",""1"",""1839""
","
","","","388.79999999701977","","","22","4380","1624","&#9776;","elianto","#3366ff99"," "," ","1","+10","[1238.8999999985099]","1","0","1","","","","","","","",""
"pit-trial","22","278271","0.0-2.0-8.0-2.0","battery-v0.2","","""event"",""trial"",""time""
""fullscreenenter"",""1"",""1839""
","
","
","""event"",""trial"",""time""
""fullscreenenter"",""1"",""1839""
","
","","","555.3999999985099","","","22","4380","1624","&#9776;","elianto","#3366ff99"," "," ","1","+10","[1405.6000000014901]","1","0","1","","","","","","","",""
"pit-trial","23","281545","0.0-2.0-8.0-3.0","battery-v0.2","","""event"",""trial"",""time""
""fullscreenenter"",""1"",""1839""
","
","
","""event"",""trial"",""time""
""fullscreenenter"",""1"",""1839""
","
","","","400.8999999985099","","","22","4380","1624","&#9776;","elianto","#3366ff99"," "," ","1","0","[1253.1000000014901]","1","0","1","","","","","","","",""
"pit-trial","24","284709","0.0-2.0-8.0-4.0","battery-v0.2","","""event"",""trial"",""time""
""fullscreenenter"",""1"",""1839""
","
","
","""event"",""trial"",""time""
""fullscreenenter"",""1"",""1839""
","
","","","299.6000000014901","","","22","4380","1624","&#9776;","elianto","#3366ff99"," "," ","1","+10","[1151.3999999985099]","1","0","1","","","","","","","",""
"pit-trial","25","288095","0.0-2.0-8.1-0.1","battery-v0.2","","""event"",""trial"",""time""
""fullscreenenter"",""1"",""1839""
","
","
","""event"",""trial"",""time""
""fullscreenenter"",""1"",""1839""
","
","","","511.3999999985099","","","22","4380","1624","&#9776;","elianto","#3366ff99"," "," ","1","+10","[1365.3999999985099]","1","0","1","","","","","","","",""
"pit-trial","26","291412","0.0-2.0-8.1-1.1","battery-v0.2","","""event"",""trial"",""time""
""fullscreenenter"",""1"",""1839""
","
","
","""event"",""trial"",""time""
""fullscreenenter"",""1"",""1839""
","
","","","443.1000000014901","","","22","4380","1624","&#9776;","elianto","#3366ff99"," "," ","1","+10","[1293.3999999985099]","1","0","1","","","","","","","",""
"pit-trial","27","294614","0.0-2.0-8.1-2.1","battery-v0.2","","""event"",""trial"",""time""
""fullscreenenter"",""1"",""1839""
","
","
","""event"",""trial"",""time""
""fullscreenenter"",""1"",""1839""
","
","","","334","","","22","4380","1624","&#9776;","elianto","#3366ff99"," "," ","1","+10","[1185.5]","1","0","1","","","","","","","",""
"pit-trial","28","297759","0.0-2.0-8.1-3.1","battery-v0.2","","""event"",""trial"",""time""
""fullscreenenter"",""1"",""1839""
","
","
","""event"",""trial"",""time""
""fullscreenenter"",""1"",""1839""
","
","","","289.20000000298023","","","22","4380","1624","&#9776;","elianto","#3366ff99"," "," ","1","0","[1140.1000000014901]","1","0","1","","","","","","","",""
"pit-trial","29","300760","0.0-2.0-8.1-4.1","battery-v0.2","","""event"",""trial"",""time""
""fullscreenenter"",""1"",""1839""
","
","
","""event"",""trial"",""time""
""fullscreenenter"",""1"",""1839""
","
","","","140.29999999701977","","","22","4380","1624","&#9776;","elianto","#3366ff99"," "," ","1","+10","[993.1000000014901]","1","0","1","","","","","","","",""
"pit-trial","30","303901","0.0-2.0-8.2-0.2","battery-v0.2","","""event"",""trial"",""time""
""fullscreenenter"",""1"",""1839""
","
","
","""event"",""trial"",""time""
""fullscreenenter"",""1"",""1839""
","
","","","278.8999999985099","","","22","4380","1624","&#9776;","elianto","#3366ff99"," "," ","1","+10","[1129]","1","0","1","","","","","","","",""
"pit-trial","31","307126","0.0-2.0-8.2-1.2","battery-v0.2","","""event"",""trial"",""time""
""fullscreenenter"",""1"",""1839""
","
","
","""event"",""trial"",""time""
""fullscreenenter"",""1"",""1839""
","
","","","349.79999999701977","","","22","4380","1624","&#9776;","elianto","#3366ff99"," "," ","1","+10","[331.69999999552965,1205.6999999955297]","2","0","1","","","","","","","",""
"pit-trial","32","310400","0.0-2.0-8.2-2.2","battery-v0.2","","""event"",""trial"",""time""
""fullscreenenter"",""1"",""1839""
","
","
","""event"",""trial"",""time""
""fullscreenenter"",""1"",""1839""
","
","","","413.79999999701977","","","22","4380","1624","&#9776;","elianto","#3366ff99"," "," ","1","+10","[1264.2999999970198]","1","0","1","","","","","","","",""
"pit-trial","33","313705","0.0-2.0-8.2-3.2","battery-v0.2","","""event"",""trial"",""time""
""fullscreenenter"",""1"",""1839""
","
","
","""event"",""trial"",""time""
""fullscreenenter"",""1"",""1839""
","
","","","443.8999999985099","","","22","4380","1624","&#9776;","elianto","#3366ff99"," "," ","1","0","[1295.2000000029802,1807.3000000044703]","2","0","1","","","","","","","",""
"pit-trial","34","316648","0.0-2.0-8.2-4.2","battery-v0.2","","""event"",""trial"",""time""
""fullscreenenter"",""1"",""1839""
","
","
","""event"",""trial"",""time""
""fullscreenenter"",""1"",""1839""
","
","","","83.80000000447035","","","22","4380","1624","&#9776;","elianto","#3366ff99"," "," ","1","+10","[935.2000000029802,1495.7000000029802]","2","0","1","","","","","","","",""
"call-function","35","316650","0.0-2.0-9.0","battery-v0.2","","""event"",""trial"",""time""
""fullscreenenter"",""1"",""1839""
","
","
","""event"",""trial"",""time""
""fullscreenenter"",""1"",""1839""
","
","","","","","","","","","","","","","","","","","","","","","","","","","","",""
"pit-instructions","36","354083","0.0-2.0-10.0","battery-v0.2","","""event"",""trial"",""time""
""fullscreenenter"",""1"",""1839""
","
","
","""event"",""trial"",""time""
""fullscreenenter"",""1"",""1839""
","
","","[{""page_index"":0,""viewing_time"":5857.60000000149},{""page_index"":1,""viewing_time"":6204.39999999851},{""page_index"":2,""viewing_time"":10191.80000000447},{""page_index"":3,""viewing_time"":8128.39999999851},{""page_index"":4,""viewing_time"":7046.39999999851}]","37429.5","","","","","","","","","","","","","","","","","","","","","","","",""
"pit-trial","37","358857","0.0-2.0-11.0-0.0","battery-v0.2","","""event"",""trial"",""time""
""fullscreenenter"",""1"",""1839""
","
","
","""event"",""trial"",""time""
""fullscreenenter"",""1"",""1839""
","
","","","1902","","","22","4380","1624","&#9761;","elianto","#3366ff99","-1"," ","0","0","[2755.3000000044703]","1","0","2","","","","","","","",""
"pit-trial","38","363728","0.0-2.0-11.0-1.0","battery-v0.2","","""event"",""trial"",""time""
""fullscreenenter"",""1"",""1839""
","
","
","""event"",""trial"",""time""
""fullscreenenter"",""1"",""1839""
","
","","","-1","","","22","4380","1624","&#9761;","elianto","#3366ff99","-1","-1","1","+10","[]","0","0","2","","","","","","","",""
"pit-trial","39","368616","0.0-2.0-11.0-2.0","battery-v0.2","","""event"",""trial"",""time""
""fullscreenenter"",""1"",""1839""
","
","
","""event"",""trial"",""time""
""fullscreenenter"",""1"",""1839""
","
","","","-1","","","22","4380","1624","&#9761;","elianto","#3366ff99","-1","-1","1","+10","[]","0","0","2","","","","","","","",""
"pit-trial","40","373494","0.0-2.0-11.0-3.0","battery-v0.2","","""event"",""trial"",""time""
""fullscreenenter"",""1"",""1839""
","
","
","""event"",""trial"",""time""
""fullscreenenter"",""1"",""1839""
","
","","","-1","","","22","4380","1624","&#9761;","elianto","#3366ff99","-1","-1","1","0","[]","0","0","2","","","","","","","",""
"pit-trial","41","378388","0.0-2.0-11.0-4.0","battery-v0.2","","""event"",""trial"",""time""
""fullscreenenter"",""1"",""1839""
","
","
","""event"",""trial"",""time""
""fullscreenenter"",""1"",""1839""
","
","","","-1","","","22","4380","1624","&#9761;","elianto","#3366ff99","-1","-1","1","+10","[]","0","0","2","","","","","","","",""
"pit-trial","42","383278","0.0-2.0-11.1-0.1","battery-v0.2","","""event"",""trial"",""time""
""fullscreenenter"",""1"",""1839""
","
","
","""event"",""trial"",""time""
""fullscreenenter"",""1"",""1839""
","
","","","-1","","","22","4380","1624","&#9761;","elianto","#3366ff99","-1","-1","1","+10","[]","0","0","2","","","","","","","",""
"pit-trial","43","388152","0.0-2.0-11.1-1.1","battery-v0.2","","""event"",""trial"",""time""
""fullscreenenter"",""1"",""1839""
","
","
","""event"",""trial"",""time""
""fullscreenenter"",""1"",""1839""
","
","","","-1","","","22","4380","1624","&#9761;","elianto","#3366ff99","-1","-1","1","+10","[]","0","0","2","","","","","","","",""
"pit-trial","44","393017","0.0-2.0-11.1-2.1","battery-v0.2","","""event"",""trial"",""time""
""fullscreenenter"",""1"",""1839""
","
","
","""event"",""trial"",""time""
""fullscreenenter"",""1"",""1839""
","
","","","-1","","","22","4380","1624","&#9761;","elianto","#3366ff99","-1","-1","1","+10","[]","0","0","2","","","","","","","",""
"pit-trial","45","397884","0.0-2.0-11.1-3.1","battery-v0.2","","""event"",""trial"",""time""
""fullscreenenter"",""1"",""1839""
","
","
","""event"",""trial"",""time""
""fullscreenenter"",""1"",""1839""
","
","","","-1","","","22","4380","1624","&#9761;","elianto","#3366ff99","-1","-1","1","0","[]","0","0","2","","","","","","","",""
"pit-trial","46","402755","0.0-2.0-11.1-4.1","battery-v0.2","","""event"",""trial"",""time""
""fullscreenenter"",""1"",""1839""
","
","
","""event"",""trial"",""time""
""fullscreenenter"",""1"",""1839""
","
","","","-1","","","22","4380","1624","&#9761;","elianto","#3366ff99","-1","-1","1","+10","[]","0","0","2","","","","","","","",""
"pit-trial","47","407625","0.0-2.0-11.2-0.2","battery-v0.2","","""event"",""trial"",""time""
""fullscreenenter"",""1"",""1839""
","
","
","""event"",""trial"",""time""
""fullscreenenter"",""1"",""1839""
","
","","","-1","","","22","4380","1624","&#9761;","elianto","#3366ff99","-1","-1","1","+10","[]","0","0","2","","","","","","","",""
"pit-trial","48","412491","0.0-2.0-11.2-1.2","battery-v0.2","","""event"",""trial"",""time""
""fullscreenenter"",""1"",""1839""
","
","
","""event"",""trial"",""time""
""fullscreenenter"",""1"",""1839""
","
","","","-1","","","22","4380","1624","&#9761;","elianto","#3366ff99","-1","-1","1","+10","[]","0","0","2","","","","","","","",""
"pit-trial","49","417354","0.0-2.0-11.2-2.2","battery-v0.2","","""event"",""trial"",""time""
""fullscreenenter"",""1"",""1839""
","
","
","""event"",""trial"",""time""
""fullscreenenter"",""1"",""1839""
","
","","","-1","","","22","4380","1624","&#9761;","elianto","#3366ff99","-1","-1","1","+10","[]","0","0","2","","","","","","","",""
"pit-trial","50","422222","0.0-2.0-11.2-3.2","battery-v0.2","","""event"",""trial"",""time""
""fullscreenenter"",""1"",""1839""
","
","
","""event"",""trial"",""time""
""fullscreenenter"",""1"",""1839""
","
","","","-1","","","22","4380","1624","&#9761;","elianto","#3366ff99","-1","-1","1","0","[]","0","0","2","","","","","","","",""
"pit-trial","51","427090","0.0-2.0-11.2-4.2","battery-v0.2","","""event"",""trial"",""time""
""fullscreenenter"",""1"",""1839""
","
","
","""event"",""trial"",""time""
""fullscreenenter"",""1"",""1839""
","
","","","-1","","","22","4380","1624","&#9761;","elianto","#3366ff99","-1","-1","1","+10","[]","0","0","2","","","","","","","",""
"pit-trial","52","431957","0.0-2.0-11.3-0.3","battery-v0.2","","""event"",""trial"",""time""
""fullscreenenter"",""1"",""1839""
","
","
","""event"",""trial"",""time""
""fullscreenenter"",""1"",""1839""
","
","","","-1","","","22","4380","1624","&#9761;","elianto","#3366ff99","-1","-1","1","+10","[]","0","0","2","","","","","","","",""
"pit-trial","53","436836","0.0-2.0-11.3-1.3","battery-v0.2","","""event"",""trial"",""time""
""fullscreenenter"",""1"",""1839""
","
","
","""event"",""trial"",""time""
""fullscreenenter"",""1"",""1839""
","
","","","-1","","","22","4380","1624","&#9761;","elianto","#3366ff99","-1","-1","1","+10","[]","0","0","2","","","","","","","",""
"pit-trial","54","441718","0.0-2.0-11.3-2.3","battery-v0.2","","""event"",""trial"",""time""
""fullscreenenter"",""1"",""1839""
","
","
","""event"",""trial"",""time""
""fullscreenenter"",""1"",""1839""
","
","","","-1","","","22","4380","1624","&#9761;","elianto","#3366ff99","-1","-1","1","+10","[]","0","0","2","","","","","","","",""
"pit-trial","55","446586","0.0-2.0-11.3-3.3","battery-v0.2","","""event"",""trial"",""time""
""fullscreenenter"",""1"",""1839""
","
","
","""event"",""trial"",""time""
""fullscreenenter"",""1"",""1839""
","
","","","-1","","","22","4380","1624","&#9761;","elianto","#3366ff99","-1","-1","1","0","[]","0","0","2","","","","","","","",""
"pit-trial","56","451459","0.0-2.0-11.3-4.3","battery-v0.2","","""event"",""trial"",""time""
""fullscreenenter"",""1"",""1839""
","
","
","""event"",""trial"",""time""
""fullscreenenter"",""1"",""1839""
","
","","","-1","","","22","4380","1624","&#9761;","elianto","#3366ff99","-1","-1","1","+10","[]","0","0","2","","","","","","","",""
"call-function","57","451460","0.0-2.0-12.0","battery-v0.2","","""event"",""trial"",""time""
""fullscreenenter"",""1"",""1839""
","
","
","""event"",""trial"",""time""
""fullscreenenter"",""1"",""1839""
","
","","","","","","","","","","","","","","","","","","","","","","","","","","",""
"pit-instructions","58","495103","0.0-2.0-13.0","battery-v0.2","","""event"",""trial"",""time""
""fullscreenenter"",""1"",""1839""
","
","
","""event"",""trial"",""time""
""fullscreenenter"",""1"",""1839""
","
","","[{""page_index"":0,""viewing_time"":7110},{""page_index"":1,""viewing_time"":17796.19999999553},{""page_index"":2,""viewing_time"":3182.5},{""page_index"":3,""viewing_time"":11473.89999999851},{""page_index"":4,""viewing_time"":4078.10000000149}]","43641.69999999553","","","","","","","","","","","","","","","","","","","","","","","",""
"pit-trial","59","498296","0.0-2.0-14.0-0.0","battery-v0.2","","""event"",""trial"",""time""
""fullscreenenter"",""1"",""1839""
","
","
","""event"",""trial"",""time""
""fullscreenenter"",""1"",""1839""
","
","","","325.69999999552965","","","22","4380","1624","&#9826;","elianto","#f73b6a7A","-1"," ","0","-10","[1180.3999999985099]","1","0","3","","","","","","","",""
"pit-trial","60","503165","0.0-2.0-14.0-1.0","battery-v0.2","","""event"",""trial"",""time""
""fullscreenenter"",""1"",""1839""
","
","
","""event"",""trial"",""time""
""fullscreenenter"",""1"",""1839""
","
","","","-1","","","22","4380","1624","&#9826;","elianto","#f73b6a7A","-1","-1","1","0","[]","0","0","3","","","","","","","",""
"pit-trial","61","508040","0.0-2.0-14.0-2.0","battery-v0.2","","""event"",""trial"",""time""
""fullscreenenter"",""1"",""1839""
","
","
","""event"",""trial"",""time""
""fullscreenenter"",""1"",""1839""
","
","","","-1","","","22","4380","1624","&#9826;","elianto","#f73b6a7A","-1","-1","1","0","[]","0","0","3","","","","","","","",""
"pit-trial","62","512898","0.0-2.0-14.0-3.0","battery-v0.2","","""event"",""trial"",""time""
""fullscreenenter"",""1"",""1839""
","
","
","""event"",""trial"",""time""
""fullscreenenter"",""1"",""1839""
","
","","","-1","","","22","4380","1624","&#9826;","elianto","#f73b6a7A","-1","-1","1","-10","[]","0","0","3","","","","","","","",""
"pit-trial","63","517768","0.0-2.0-14.0-4.0","battery-v0.2","","""event"",""trial"",""time""
""fullscreenenter"",""1"",""1839""
","
","
","""event"",""trial"",""time""
""fullscreenenter"",""1"",""1839""
","
","","","-1","","","22","4380","1624","&#9826;","elianto","#f73b6a7A","-1","-1","1","0","[]","0","0","3","","","","","","","",""
"pit-trial","64","522648","0.0-2.0-14.1-0.1","battery-v0.2","","""event"",""trial"",""time""
""fullscreenenter"",""1"",""1839""
","
","
","""event"",""trial"",""time""
""fullscreenenter"",""1"",""1839""
","
","","","-1","","","22","4380","1624","&#9826;","elianto","#f73b6a7A","-1","-1","1","0","[]","0","0","3","","","","","","","",""
"pit-trial","65","527520","0.0-2.0-14.1-1.1","battery-v0.2","","""event"",""trial"",""time""
""fullscreenenter"",""1"",""1839""
","
","
","""event"",""trial"",""time""
""fullscreenenter"",""1"",""1839""
","
","","","-1","","","22","4380","1624","&#9826;","elianto","#f73b6a7A","-1","-1","1","0","[]","0","0","3","","","","","","","",""
"pit-trial","66","532389","0.0-2.0-14.1-2.1","battery-v0.2","","""event"",""trial"",""time""
""fullscreenenter"",""1"",""1839""
","
","
","""event"",""trial"",""time""
""fullscreenenter"",""1"",""1839""
","
","","","-1","","","22","4380","1624","&#9826;","elianto","#f73b6a7A","-1","-1","1","0","[]","0","0","3","","","","","","","",""
"pit-trial","67","537264","0.0-2.0-14.1-3.1","battery-v0.2","","""event"",""trial"",""time""
""fullscreenenter"",""1"",""1839""
","
","
","""event"",""trial"",""time""
""fullscreenenter"",""1"",""1839""
","
","","","-1","","","22","4380","1624","&#9826;","elianto","#f73b6a7A","-1","-1","1","-10","[]","0","0","3","","","","","","","",""
"pit-trial","68","542131","0.0-2.0-14.1-4.1","battery-v0.2","","""event"",""trial"",""time""
""fullscreenenter"",""1"",""1839""
","
","
","""event"",""trial"",""time""
""fullscreenenter"",""1"",""1839""
","
","","","-1","","","22","4380","1624","&#9826;","elianto","#f73b6a7A","-1","-1","1","0","[]","0","0","3","","","","","","","",""
"pit-trial","69","546999","0.0-2.0-14.2-0.2","battery-v0.2","","""event"",""trial"",""time""
""fullscreenenter"",""1"",""1839""
","
","
","""event"",""trial"",""time""
""fullscreenenter"",""1"",""1839""
","
","","","-1","","","22","4380","1624","&#9826;","elianto","#f73b6a7A","-1","-1","1","0","[]","0","0","3","","","","","","","",""
"pit-trial","70","551873","0.0-2.0-14.2-1.2","battery-v0.2","","""event"",""trial"",""time""
""fullscreenenter"",""1"",""1839""
","
","
","""event"",""trial"",""time""
""fullscreenenter"",""1"",""1839""
","
","","","-1","","","22","4380","1624","&#9826;","elianto","#f73b6a7A","-1","-1","1","0","[]","0","0","3","","","","","","","",""
"pit-trial","71","556737","0.0-2.0-14.2-2.2","battery-v0.2","","""event"",""trial"",""time""
""fullscreenenter"",""1"",""1839""
","
","
","""event"",""trial"",""time""
""fullscreenenter"",""1"",""1839""
","
","","","-1","","","22","4380","1624","&#9826;","elianto","#f73b6a7A","-1","-1","1","0","[]","0","0","3","","","","","","","",""
"pit-trial","72","561602","0.0-2.0-14.2-3.2","battery-v0.2","","""event"",""trial"",""time""
""fullscreenenter"",""1"",""1839""
","
","
","""event"",""trial"",""time""
""fullscreenenter"",""1"",""1839""
","
","","","-1","","","22","4380","1624","&#9826;","elianto","#f73b6a7A","-1","-1","1","-10","[]","0","0","3","","","","","","","",""
"pit-trial","73","566469","0.0-2.0-14.2-4.2","battery-v0.2","","""event"",""trial"",""time""
""fullscreenenter"",""1"",""1839""
","
","
","""event"",""trial"",""time""
""fullscreenenter"",""1"",""1839""
","
","","","-1","","","22","4380","1624","&#9826;","elianto","#f73b6a7A","-1","-1","1","0","[]","0","0","3","","","","","","","",""
"pit-trial","74","571337","0.0-2.0-14.3-0.3","battery-v0.2","","""event"",""trial"",""time""
""fullscreenenter"",""1"",""1839""
","
","
","""event"",""trial"",""time""
""fullscreenenter"",""1"",""1839""
","
","","","-1","","","22","4380","1624","&#9826;","elianto","#f73b6a7A","-1","-1","1","0","[]","0","0","3","","","","","","","",""
"pit-trial","75","576204","0.0-2.0-14.3-1.3","battery-v0.2","","""event"",""trial"",""time""
""fullscreenenter"",""1"",""1839""
","
","
","""event"",""trial"",""time""
""fullscreenenter"",""1"",""1839""
","
","","","-1","","","22","4380","1624","&#9826;","elianto","#f73b6a7A","-1","-1","1","0","[]","0","0","3","","","","","","","",""
"pit-trial","76","581068","0.0-2.0-14.3-2.3","battery-v0.2","","""event"",""trial"",""time""
""fullscreenenter"",""1"",""1839""
","
","
","""event"",""trial"",""time""
""fullscreenenter"",""1"",""1839""
","
","","","-1","","","22","4380","1624","&#9826;","elianto","#f73b6a7A","-1","-1","1","0","[]","0","0","3","","","","","","","",""
"pit-trial","77","585942","0.0-2.0-14.3-3.3","battery-v0.2","","""event"",""trial"",""time""
""fullscreenenter"",""1"",""1839""
","
","
","""event"",""trial"",""time""
""fullscreenenter"",""1"",""1839""
","
","","","-1","","","22","4380","1624","&#9826;","elianto","#f73b6a7A","-1","-1","1","-10","[]","0","0","3","","","","","","","",""
"pit-trial","78","590822","0.0-2.0-14.3-4.3","battery-v0.2","","""event"",""trial"",""time""
""fullscreenenter"",""1"",""1839""
","
","
","""event"",""trial"",""time""
""fullscreenenter"",""1"",""1839""
","
","","","-1","","","22","4380","1624","&#9826;","elianto","#f73b6a7A","-1","-1","1","0","[]","0","0","3","","","","","","","",""
"call-function","79","590824","0.0-2.0-15.0","battery-v0.2","","""event"",""trial"",""time""
""fullscreenenter"",""1"",""1839""
","
","
","""event"",""trial"",""time""
""fullscreenenter"",""1"",""1839""
","
","","","","","","","","","","","","","","","","","","","","","","","","","","",""
"pit-instructions","80","613516","0.0-2.0-16.0","battery-v0.2","","""event"",""trial"",""time""
""fullscreenenter"",""1"",""1839""
","
","
","""event"",""trial"",""time""
""fullscreenenter"",""1"",""1839""
","
","","[{""page_index"":0,""viewing_time"":6181.5},{""page_index"":1,""viewing_time"":8191.29999999702},{""page_index"":2,""viewing_time"":4128},{""page_index"":3,""viewing_time"":4189.70000000298}]","22691.19999999553","","","","","","","","","","","","","","","","","","","","","","","",""
"pit-trial","81","616499","0.0-2.0-17.0-0.0","battery-v0.2","","""event"",""trial"",""time""
""fullscreenenter"",""1"",""1839""
","
","
","""event"",""trial"",""time""
""fullscreenenter"",""1"",""1839""
","
","","","118.29999999701977","","","22","4380","1624","&#9789;","elianto","#f73b6a7A"," "," ","1","0","[630.3000000044703,815.5,970,1126.1000000014901,1275.3000000044703,1404,1537.2000000029802,1695.7000000029802,1858.3000000044703,2001,2156.4000000059605]","11","0","4","","","","","","","",""
"pit-trial","82","619366","0.0-2.0-17.0-1.0","battery-v0.2","","""event"",""trial"",""time""
""fullscreenenter"",""1"",""1839""
","
","
","""event"",""trial"",""time""
""fullscreenenter"",""1"",""1839""
","
","","","7.899999998509884","","","22","4380","1624","&#9789;","elianto","#f73b6a7A"," "," ","1","0","[510.8999999985099,689.8999999985099,858.2000000029802,1044.2999999970198,1320.1000000014901,1507.2999999970198,1689.5,1897.2999999970198,2068.7999999970198,2276.2000000029802]","10","0","4","","","","","","","",""
"pit-trial","83","622852","0.0-2.0-17.0-2.0","battery-v0.2","","""event"",""trial"",""time""
""fullscreenenter"",""1"",""1839""
","
","
","""event"",""trial"",""time""
""fullscreenenter"",""1"",""1839""
","
","","","617.7000000029802","","","22","4380","1624","&#9789;","elianto","#f73b6a7A"," "," ","1","0","[1475.8000000044703,2475.2000000029802,2687.60000000149,2915.8000000044703,3128,3355.10000000149]","6","0","4","","","","","","","",""
"pit-trial","84","625838","0.0-2.0-17.0-3.0","battery-v0.2","","""event"",""trial"",""time""
""fullscreenenter"",""1"",""1839""
","
","
","""event"",""trial"",""time""
""fullscreenenter"",""1"",""1839""
","
","","","104.29999999701977","","","22","4380","1624","&#9789;","elianto","#f73b6a7A"," "," ","1","-10","[80,294.1000000014901,520.3000000044703,739.3000000044703,963.1000000014901,1166.3000000044703,1348.6000000014901,1548.5,1740.7000000029802,1955.8000000044703,2314.7000000029802,2581.9000000059605,2815.5]","13","0","4","","","","","","","",""
"pit-trial","85","628915","0.0-2.0-17.0-4.0","battery-v0.2","","""event"",""trial"",""time""
""fullscreenenter"",""1"",""1839""
","
","
","""event"",""trial"",""time""
""fullscreenenter"",""1"",""1839""
","
","","","213.39999999850988","","","22","4380","1624","&#9789;","elianto","#f73b6a7A"," "," ","1","0","[97.40000000596046,339.70000000298023,592.5,851.3000000044703,1064.8000000044703,1276.4000000059605,1512,1739.7000000029802,1973.9000000059605,2195.9000000059605,2401.8000000044703,2623.60000000149,2866.2000000029802]","13","0","4","","","","","","","",""
"pit-trial","86","631816","0.0-2.0-17.1-0.1","battery-v0.2","","""event"",""trial"",""time""
""fullscreenenter"",""1"",""1839""
","
","
","""event"",""trial"",""time""
""fullscreenenter"",""1"",""1839""
","
","","","35.69999999552965","","","22","4380","1624","&#9789;","elianto","#f73b6a7A"," "," ","1","0","[27.899999998509884,263.29999999701977,475.09999999403954,666.6999999955297,894,1116.6999999955297,1343.1999999955297,1565.6999999955297,1778.0999999940395,2009.1999999955297,2223.0999999940395,2435.89999999851,2702.6999999955297]","13","0","4","","","","","","","",""
"pit-trial","87","634763","0.0-2.0-17.1-1.1","battery-v0.2","","""event"",""trial"",""time""
""fullscreenenter"",""1"",""1839""
","
","
","""event"",""trial"",""time""
""fullscreenenter"",""1"",""1839""
","
","","","69.19999999552965","","","22","4380","1624","&#9789;","elianto","#f73b6a7A"," "," ","1","0","[65.30000000447035,271.5,481.80000000447035,707.5,925.5,1115.5,1349.5,1571.1000000014901,1769.3000000044703,2001.4000000059605,2216.8000000044703,2474.4000000059605,2715.9000000059605]","13","0","4","","","","","","","",""
"pit-trial","88","637743","0.0-2.0-17.1-2.1","battery-v0.2","","""event"",""trial"",""time""
""fullscreenenter"",""1"",""1839""
","
","
","""event"",""trial"",""time""
""fullscreenenter"",""1"",""1839""
","
","","","111.39999999850988","","","22","4380","1624","&#9789;","elianto","#f73b6a7A"," "," ","1","0","[208.60000000149012,558,750.5,970.7000000029802,1203.7000000029802,1384.2000000029802,1574.2000000029802,1740.7000000029802,1966.8000000044703,2176.5,2436.10000000149,2595.2000000029802,2790.2000000029802]","13","0","4","","","","","","","",""
"pit-trial","89","640663","0.0-2.0-17.1-3.1","battery-v0.2","","""event"",""trial"",""time""
""fullscreenenter"",""1"",""1839""
","
","
","""event"",""trial"",""time""
""fullscreenenter"",""1"",""1839""
","
","","","61","","","22","4380","1624","&#9789;","elianto","#f73b6a7A"," "," ","1","-10","[10.5,248.30000000447035,466,674.3999999985099,911.5,1141,1359.8999999985099,1595.2000000029802,1774.1000000014901,1982.2000000029802,2178.7000000029802,2379.60000000149,2613.3000000044703,2777.60000000149]","14","0","4","","","","","","","",""
"pit-trial","90","643610","0.0-2.0-17.1-4.1","battery-v0.2","","""event"",""trial"",""time""
""fullscreenenter"",""1"",""1839""
","
","
","""event"",""trial"",""time""
""fullscreenenter"",""1"",""1839""
","
","","","76.60000000149012","","","22","4380","1624","&#9789;","elianto","#f73b6a7A"," "," ","1","0","[58.099999994039536,252.09999999403954,468.8999999985099,691.3999999985099,936.3999999985099,1134.3999999985099,1738.8999999985099,2497.1999999955297,2909.39999999851]","9","0","4","","","","","","","",""
"pit-trial","91","646623","0.0-2.0-17.2-0.2","battery-v0.2","","""event"",""trial"",""time""
""fullscreenenter"",""1"",""1839""
","
","
","""event"",""trial"",""time""
""fullscreenenter"",""1"",""1839""
","
","","","143.19999999552965","","","22","4380","1624","&#9789;","elianto","#f73b6a7A"," "," ","1","0","[361.80000000447035,999.3999999985099,1353.7000000029802,1629.3000000044703,2065.39999999851,2391.2000000029802]","6","0","4","","","","","","","",""
"pit-trial","92","649483","0.0-2.0-17.2-1.2","battery-v0.2","","""event"",""trial"",""time""
""fullscreenenter"",""1"",""1839""
","
","
","""event"",""trial"",""time""
""fullscreenenter"",""1"",""1839""
","
","","","3.600000001490116","","","22","4380","1624","&#9789;","elianto","#f73b6a7A"," "," ","1","0","[634.7000000029802,854.1000000014901,1047.3999999985099,1265.1000000014901,1465.7999999970198,1654.2000000029802,2495.60000000149,2705.5]","8","0","4","","","","","","","",""
"pit-trial","93","652543","0.0-2.0-17.2-2.2","battery-v0.2","","""event"",""trial"",""time""
""fullscreenenter"",""1"",""1839""
","
","
","""event"",""trial"",""time""
""fullscreenenter"",""1"",""1839""
","
","","","191.79999999701977","","","22","4380","1624","&#9789;","elianto","#f73b6a7A"," "," ","1","0","[54.099999994039536,464.09999999403954,694.3999999985099,1044.0999999940395,1301,1584.6999999955297,2067.7999999970198]","7","0","4","","","","","","","",""
"pit-trial","94","656345","0.0-2.0-17.2-3.2","battery-v0.2","","""event"",""trial"",""time""
""fullscreenenter"",""1"",""1839""
","
","
","""event"",""trial"",""time""
""fullscreenenter"",""1"",""1839""
","
","","","938.7999999970198","","","22","4380","1624","&#9789;","elianto","#f73b6a7A"," "," ","1","-10","[1797.1999999955297]","1","0","4","","","","","","","",""
"pit-trial","95","659268","0.0-2.0-17.2-4.2","battery-v0.2","","""event"",""trial"",""time""
""fullscreenenter"",""1"",""1839""
","
","
","""event"",""trial"",""time""
""fullscreenenter"",""1"",""1839""
","
","","","58.600000001490116","","","22","4380","1624","&#9789;","elianto","#f73b6a7A"," "," ","1","0","[911.8999999985099]","1","0","4","","","","","","","",""
"pit-trial","96","662230","0.0-2.0-17.3-0.3","battery-v0.2","","""event"",""trial"",""time""
""fullscreenenter"",""1"",""1839""
","
","
","""event"",""trial"",""time""
""fullscreenenter"",""1"",""1839""
","
","","","100.80000000447035","","","22","4380","1624","&#9789;","elianto","#f73b6a7A"," "," ","1","0","[260.30000000447035,709,951.8000000044703,1152.3000000044703,1338.3000000044703,1539.9000000059605,1734.7000000029802,2073.9000000059605,2946.5]","9","0","4","","","","","","","",""
"pit-trial","97","665162","0.0-2.0-17.3-1.3","battery-v0.2","","""event"",""trial"",""time""
""fullscreenenter"",""1"",""1839""
","
","
","""event"",""trial"",""time""
""fullscreenenter"",""1"",""1839""
","
","","","73.39999999850988","","","22","4380","1624","&#9789;","elianto","#f73b6a7A"," "," ","1","0","[458,684.2999999970198,925.1999999955297,1148.8999999985099,1406.7999999970198,1883.1999999955297,2136.6999999955297,2356.2999999970198,2546.1999999955297,2718.39999999851,2900.1999999955297]","11","0","4","","","","","","","",""
"pit-trial","98","668343","0.0-2.0-17.3-2.3","battery-v0.2","","""event"",""trial"",""time""
""fullscreenenter"",""1"",""1839""
","
","
","""event"",""trial"",""time""
""fullscreenenter"",""1"",""1839""
","
","","","316.5","","","22","4380","1624","&#9789;","elianto","#f73b6a7A"," "," ","1","0","[174.5,353.80000000447035,556.6000000014901,1169.6000000014901,1463.5,1707.8000000044703,1912.8000000044703,2109.8000000044703,2306.2000000029802,2513.10000000149,2711.9000000059605,2936.7000000029802,3162.5]","13","0","4","","","","","","","",""
"pit-trial","99","671342","0.0-2.0-17.3-3.3","battery-v0.2","","""event"",""trial"",""time""
""fullscreenenter"",""1"",""1839""
","
","
","""event"",""trial"",""time""
""fullscreenenter"",""1"",""1839""
","
","","","131","","","22","4380","1624","&#9789;","elianto","#f73b6a7A"," "," ","1","-10","[181.5,383.59999999403954,583.5999999940395,789,984.0999999940395,1214.8999999985099,1405.0999999940395,1581.7999999970198,1773.5999999940395,1978.1999999955297,2205.7999999970198,2461.7999999970198,2689,2893.0999999940395]","14","0","4","","","","","","","",""
"pit-trial","100","674225","0.0-2.0-17.3-4.3","battery-v0.2","","""event"",""trial"",""time""
""fullscreenenter"",""1"",""1839""
","
","
","""event"",""trial"",""time""
""fullscreenenter"",""1"",""1839""
","
","","","11.300000004470348","","","22","4380","1624","&#9789;","elianto","#f73b6a7A"," "," ","1","0","[84.79999999701977,285.69999999552965,480.5,656,865,1052.5,1247.2999999970198,1439,1631.1999999955297,1843.2999999970198,2025.2999999970198,2239.2999999970198,2469.89999999851]","13","0","4","","","","","","","",""
"call-function","101","674227","0.0-2.0-18.0","battery-v0.2","","""event"",""trial"",""time""
""fullscreenenter"",""1"",""1839""
","
","
","""event"",""trial"",""time""
""fullscreenenter"",""1"",""1839""
","
","","","","","","","","","","","","","","","","","","","","","","","","","","",""
"pit-instructions","102","722367","0.0-2.0-19.0","battery-v0.2","","""event"",""trial"",""time""
""fullscreenenter"",""1"",""1839""
","
","
","""event"",""trial"",""time""
""fullscreenenter"",""1"",""1839""
","
","","[{""page_index"":0,""viewing_time"":6078.29999999702},{""page_index"":1,""viewing_time"":4151.10000000149},{""page_index"":2,""viewing_time"":8167.20000000298},{""page_index"":3,""viewing_time"":4152.29999999702},{""page_index"":4,""viewing_time"":6138.10000000149},{""page_index"":5,""viewing_time"":8101},{""page_index"":6,""viewing_time"":4127.79999999702},{""page_index"":7,""viewing_time"":4168.89999999851},{""page_index"":8,""viewing_time"":3053.3000000044703}]","48138.60000000149","","","","","","","","","","","","","","","","","","","","","","","",""
"pit-comprehension","103","726630","0.0-2.0-20.0-0.0","battery-v0.2","","""event"",""trial"",""time""
""fullscreenenter"",""1"",""1839""
","
","
","""event"",""trial"",""time""
""fullscreenenter"",""1"",""1839""
","
","","","4258.60000000149","[""SPACE""]","0","22","4380","1624","","","","","","","","","","","","","","","","","","",""
"pit-instructions","104","728820","0.0-2.0-20.0-1.0","battery-v0.2","","""event"",""trial"",""time""
""fullscreenenter"",""1"",""1839""
","
","
","""event"",""trial"",""time""
""fullscreenenter"",""1"",""1839""
","
","","[{""page_index"":0,""viewing_time"":2132.5}]","2132.89999999851","","","","","","","","","","","","","","","","","","","","","","","",""
"pit-comprehension","105","733373","0.0-2.0-21.0-0.0","battery-v0.2","","""event"",""trial"",""time""
""fullscreenenter"",""1"",""1839""
","
","
","""event"",""trial"",""time""
""fullscreenenter"",""1"",""1839""
","
","","","4548.89999999851","[""10""]","0","22","4380","1624","","","","","","","","","","","","","","","","","","",""
"pit-instructions","106","734948","0.0-2.0-21.0-1.0","battery-v0.2","","""event"",""trial"",""time""
""fullscreenenter"",""1"",""1839""
","
","
","""event"",""trial"",""time""
""fullscreenenter"",""1"",""1839""
","
","","[{""page_index"":0,""viewing_time"":1518.7000000029802}]","1519.3999999985099","","","","","","","","","","","","","","","","","","","","","","","",""
"pit-comprehension","107","741140","0.0-2.0-22.0-0.0","battery-v0.2","","""event"",""trial"",""time""
""fullscreenenter"",""1"",""1839""
","
","
","""event"",""trial"",""time""
""fullscreenenter"",""1"",""1839""
","
","","","6188","[""0""]","0","22","4380","1624","","","","","","","","","","","","","","","","","","",""
"pit-instructions","108","742347","0.0-2.0-22.0-1.0","battery-v0.2","","""event"",""trial"",""time""
""fullscreenenter"",""1"",""1839""
","
","
","""event"",""trial"",""time""
""fullscreenenter"",""1"",""1839""
","
","","[{""page_index"":0,""viewing_time"":1153.1000000014901}]","1153.4000000059605","","","","","","","","","","","","","","","","","","","","","","","",""
"pit-comprehension","109","750455","0.0-2.0-23.0-0.0","battery-v0.2","","""event"",""trial"",""time""
""fullscreenenter"",""1"",""1839""
","
","
","""event"",""trial"",""time""
""fullscreenenter"",""1"",""1839""
","
","","","8104.60000000149","[""True""]","0","22","4380","1624","","","","","","","","","","","","","","","","","","",""
"pit-instructions","110","751706","0.0-2.0-23.0-1.0","battery-v0.2","","""event"",""trial"",""time""
""fullscreenenter"",""1"",""1839""
","
","
","""event"",""trial"",""time""
""fullscreenenter"",""1"",""1839""
","
","","[{""page_index"":0,""viewing_time"":1190.8999999985099}]","1191.2000000029802","","","","","","","","","","","","","","","","","","","","","","","",""
"pit-comprehension","111","759057","0.0-2.0-24.0-0.0","battery-v0.2","","""event"",""trial"",""time""
""fullscreenenter"",""1"",""1839""
","
","
","""event"",""trial"",""time""
""fullscreenenter"",""1"",""1839""
","
","","","7348.10000000149","[""True""]","0","22","4380","1624","","","","","","","","","","","","","","","","","","",""
"pit-instructions","112","760249","0.0-2.0-24.0-1.0","battery-v0.2","","""event"",""trial"",""time""
""fullscreenenter"",""1"",""1839""
","
","
","""event"",""trial"",""time""
""fullscreenenter"",""1"",""1839""
","
","","[{""page_index"":0,""viewing_time"":1136.8000000044703}]","1137.1000000014901","","","","","","","","","","","","","","","","","","","","","","","",""
"pit-comprehension","113","766401","0.0-2.0-25.0-0.0","battery-v0.2","","""event"",""trial"",""time""
""fullscreenenter"",""1"",""1839""
","
","
","""event"",""trial"",""time""
""fullscreenenter"",""1"",""1839""
","
","","","6147.10000000149","[""True""]","0","22","4380","1624","","","","","","","","","","","","","","","","","","",""
"pit-instructions","114","767601","0.0-2.0-25.0-1.0","battery-v0.2","","""event"",""trial"",""time""
""fullscreenenter"",""1"",""1839""
","
","
","""event"",""trial"",""time""
""fullscreenenter"",""1"",""1839""
","
","","[{""page_index"":0,""viewing_time"":1146}]","1146.2999999970198","","","","","","","","","","","","","","","","","","","","","","","",""
"pit-comprehension","115","772180","0.0-2.0-26.0-0.0","battery-v0.2","","""event"",""trial"",""time""
""fullscreenenter"",""1"",""1839""
","
","
","""event"",""trial"",""time""
""fullscreenenter"",""1"",""1839""
","
","","","4576.39999999851","[""False""]","0","22","4380","1624","","","","","","","","","","","","","","","","","","",""
"pit-instructions","116","773423","0.0-2.0-26.0-1.0","battery-v0.2","","""event"",""trial"",""time""
""fullscreenenter"",""1"",""1839""
","
","
","""event"",""trial"",""time""
""fullscreenenter"",""1"",""1839""
","
","","[{""page_index"":0,""viewing_time"":1179.4000000059605}]","1179.6000000014901","","","","","","","","","","","","","","","","","","","","","","","",""
"pit-instructions","117","788937","0.0-3.0","battery-v0.2","","""event"",""trial"",""time""
""fullscreenenter"",""1"",""1839""
","
","
","""event"",""trial"",""time""
""fullscreenenter"",""1"",""1839""
","
","","[{""page_index"":0,""viewing_time"":4360.60000000149},{""page_index"":1,""viewing_time"":5129.39999999851},{""page_index"":2,""viewing_time"":6021.19999999553}]","15511.69999999553","","","","","","","","","","","","","","","","","","","","","","","",""
"pit-trial","118","792576","0.0-4.0","battery-v0.2","","""event"",""trial"",""time""
""fullscreenenter"",""1"",""1839""
","
","
","""event"",""trial"",""time""
""fullscreenenter"",""1"",""1839""
","
","","","778.6000000014901","","","22","4380","1624","&#9752;","elianto","#f73b6a7A"," "," ","1","0","[1630.2999999970198]","1","1","","","4380","1","3","3","lose","go","0"
"pit-trial","119","796824","0.0-5.0","battery-v0.2","","""event"",""trial"",""time""
""fullscreenenter"",""1"",""1839""
","
","
","""event"",""trial"",""time""
""fullscreenenter"",""1"",""1839""
","
","","","1384.6000000014901","","","22","4380","1624","&#9733;","elianto","#3366ff99","-1"," ","0","0","[2235]","1","1","","","4380","2","2","2","win","no-go","0"
"pit-trial","120","801112","0.0-6.0","battery-v0.2","","""event"",""trial"",""time""
""fullscreenenter"",""1"",""1839""
","
","
","""event"",""trial"",""time""
""fullscreenenter"",""1"",""1839""
","
","","","1419.3999999985099","","","22","4380","1624","&#9730;","elianto","#3366ff99"," "," ","1","+10","[2270]","1","1","","","4380","3","1","1","win","go","0"
"pit-trial","121","805992","0.0-7.0","battery-v0.2","","""event"",""trial"",""time""
""fullscreenenter"",""1"",""1839""
","
","
","""event"",""trial"",""time""
""fullscreenenter"",""1"",""1839""
","
","","","-1","","","22","4380","1624","&#9728;","elianto","#f73b6a7A","-1","-1","1","0","[]","0","1","","","4380","4","0","4","lose","no-go","0"
"pit-trial","122","810221","0.0-8.0","battery-v0.2","","""event"",""trial"",""time""
""fullscreenenter"",""1"",""1839""
","
","
","""event"",""trial"",""time""
""fullscreenenter"",""1"",""1839""
","
","","","1348","","","22","4380","1624","&#9733;","elianto","#3366ff99","-1"," ","0","0","[2204.6999999955297]","1","1","","","4380","5","2","2","win","no-go","0"
"pit-trial","123","815102","0.0-9.0","battery-v0.2","","""event"",""trial"",""time""
""fullscreenenter"",""1"",""1839""
","
","
","""event"",""trial"",""time""
""fullscreenenter"",""1"",""1839""
","
","","","-1","","","22","4380","1624","&#9728;","elianto","#f73b6a7A","-1","-1","1","-10","[]","0","1","","","4380","6","0","4","lose","no-go","1"
"pit-trial","124","819823","0.0-10.0","battery-v0.2","","""event"",""trial"",""time""
""fullscreenenter"",""1"",""1839""
","
","
","""event"",""trial"",""time""
""fullscreenenter"",""1"",""1839""
","
","","","1849.2000000029802","","","22","4380","1624","&#9752;","elianto","#f73b6a7A"," "," ","1","0","[2700]","1","1","","","4380","7","3","3","lose","go","0"
"pit-trial","125","823560","0.0-11.0","battery-v0.2","","""event"",""trial"",""time""
""fullscreenenter"",""1"",""1839""
","
","
","""event"",""trial"",""time""
""fullscreenenter"",""1"",""1839""
","
","","","860.6000000014901","","","22","4380","1624","&#9730;","elianto","#3366ff99"," "," ","1","+10","[1720.0999999940395]","1","1","","","4380","8","1","1","win","go","0"
"pit-trial","126","827114","0.0-12.0","battery-v0.2","","""event"",""trial"",""time""
""fullscreenenter"",""1"",""1839""
","
","
","""event"",""trial"",""time""
""fullscreenenter"",""1"",""1839""
","
","","","689.6000000014901","","","22","4380","1624","&#9730;","elianto","#3366ff99"," "," ","1","+10","[1545.1000000014901]","1","1","","","4380","9","1","1","win","go","0"
"pit-trial","127","831392","0.0-13.0","battery-v0.2","","""event"",""trial"",""time""
""fullscreenenter"",""1"",""1839""
","
","
","""event"",""trial"",""time""
""fullscreenenter"",""1"",""1839""
","
","","","1409.1999999955297","","","22","4380","1624","&#9728;","elianto","#f73b6a7A","-1"," ","0","-10","[2261.7999999970198]","1","1","","","4380","10","0","4","lose","no-go","0"
"pit-trial","128","835858","0.0-14.0","battery-v0.2","","""event"",""trial"",""time""
""fullscreenenter"",""1"",""1839""
","
","
","""event"",""trial"",""time""
""fullscreenenter"",""1"",""1839""
","
","","","1604.3999999985099","","","22","4380","1624","&#9752;","elianto","#f73b6a7A"," "," ","1","0","[2458]","1","1","","","4380","11","3","3","lose","go","0"
"pit-trial","129","839904","0.0-15.0","battery-v0.2","","""event"",""trial"",""time""
""fullscreenenter"",""1"",""1839""
","
","
","""event"",""trial"",""time""
""fullscreenenter"",""1"",""1839""
","
","","","1172.7999999970198","","","22","4380","1624","&#9733;","elianto","#3366ff99","-1"," ","0","0","[2025.7999999970198]","1","1","","","4380","12","2","2","win","no-go","0"
"pit-trial","130","844777","0.0-16.0","battery-v0.2","","""event"",""trial"",""time""
""fullscreenenter"",""1"",""1839""
","
","
","""event"",""trial"",""time""
""fullscreenenter"",""1"",""1839""
","
","","","-1","","","22","4380","1624","&#9728;","elianto","#f73b6a7A","-1","-1","1","0","[]","0","1","","","4380","13","0","4","lose","no-go","0"
"pit-trial","131","848618","0.0-17.0","battery-v0.2","","""event"",""trial"",""time""
""fullscreenenter"",""1"",""1839""
","
","
","""event"",""trial"",""time""
""fullscreenenter"",""1"",""1839""
","
","","","979.8999999985099","","","22","4380","1624","&#9730;","elianto","#3366ff99"," "," ","1","+10","[1830.2000000029802]","1","1","","","4380","14","1","1","win","go","0"
"pit-trial","132","852519","0.0-18.0","battery-v0.2","","""event"",""trial"",""time""
""fullscreenenter"",""1"",""1839""
","
","
","""event"",""trial"",""time""
""fullscreenenter"",""1"",""1839""
","
","","","1031.2999999970198","","","22","4380","1624","&#9752;","elianto","#f73b6a7A"," "," ","1","0","[1886.8999999985099]","1","1","","","4380","15","3","3","lose","go","0"
"pit-trial","133","856561","0.0-19.0","battery-v0.2","","""event"",""trial"",""time""
""fullscreenenter"",""1"",""1839""
","
","
","""event"",""trial"",""time""
""fullscreenenter"",""1"",""1839""
","
","","","1176.7999999970198","","","22","4380","1624","&#9733;","elianto","#3366ff99","-1"," ","0","+10","[2031.1999999955297]","1","1","","","4380","16","2","2","win","no-go","1"
"pit-trial","134","860229","0.0-20.0","battery-v0.2","","""event"",""trial"",""time""
""fullscreenenter"",""1"",""1839""
","
","
","""event"",""trial"",""time""
""fullscreenenter"",""1"",""1839""
","
","","","796.6999999955297","","","22","4380","1624","&#9733;","elianto","#3366ff99","-1"," ","0","+10","[1654.3999999985099]","1","1","","","4380","17","2","2","win","no-go","1"
"pit-trial","135","863920","0.0-21.0","battery-v0.2","","""event"",""trial"",""time""
""fullscreenenter"",""1"",""1839""
","
","
","""event"",""trial"",""time""
""fullscreenenter"",""1"",""1839""
","
","","","818.2999999970198","","","22","4380","1624","&#9730;","elianto","#3366ff99"," "," ","1","+10","[1676.1999999955297]","1","1","","","4380","18","1","1","win","go","0"
"pit-trial","136","867354","0.0-22.0","battery-v0.2","","""event"",""trial"",""time""
""fullscreenenter"",""1"",""1839""
","
","
","""event"",""trial"",""time""
""fullscreenenter"",""1"",""1839""
","
","","","575.7000000029802","","","22","4380","1624","&#9752;","elianto","#f73b6a7A"," "," ","1","0","[1426.6000000014901]","1","1","","","4380","19","3","3","lose","go","0"
"pit-trial","137","872232","0.0-23.0","battery-v0.2","","""event"",""trial"",""time""
""fullscreenenter"",""1"",""1839""
","
","
","""event"",""trial"",""time""
""fullscreenenter"",""1"",""1839""
","
","","","-1","","","22","4380","1624","&#9728;","elianto","#f73b6a7A","-1","-1","1","0","[]","0","1","","","4380","20","0","4","lose","no-go","0"
"pit-instructions","138","883387","0.0-24.0","battery-v0.2","","""event"",""trial"",""time""
""fullscreenenter"",""1"",""1839""
","
","
","""event"",""trial"",""time""
""fullscreenenter"",""1"",""1839""
","
","","[{""page_index"":0,""viewing_time"":5025.70000000298},{""page_index"":1,""viewing_time"":6126.70000000298}]","11153","","","","","","","","","","","","","","","","","","","","","","","",""
"pit-trial","139","887367","0.0-25.0","battery-v0.2","","""event"",""trial"",""time""
""fullscreenenter"",""1"",""1839""
","
","
","""event"",""trial"",""time""
""fullscreenenter"",""1"",""1839""
","
","","","1108.3999999985099","","","22","4380","1624","w","elianto","#f73b6a7A","-1"," ","0","-10","[1966.8999999985099]","1","2","","","4380","21","3","4","lose","no-go","0"
"pit-trial","140","891219","0.0-26.0","battery-v0.2","","""event"",""trial"",""time""
""fullscreenenter"",""1"",""1839""
","
","
","""event"",""trial"",""time""
""fullscreenenter"",""1"",""1839""
","
","","","986.3000000044703","","","22","4380","1624","j","elianto","#f73b6a7A"," "," ","1","0","[1843.2000000029802]","1","2","","","4380","22","0","3","lose","go","0"
"pit-trial","141","895611","0.0-27.0","battery-v0.2","","""event"",""trial"",""time""
""fullscreenenter"",""1"",""1839""
","
","
","""event"",""trial"",""time""
""fullscreenenter"",""1"",""1839""
","
","","","1522","","","22","4380","1624","e","elianto","#f73b6a7A"," "," ","1","0","[2378.4000000059605]","1","2","","","4380","23","2","3","lose","go","0"
"pit-trial","142","899500","0.0-28.0","battery-v0.2","","""event"",""trial"",""time""
""fullscreenenter"",""1"",""1839""
","
","
","""event"",""trial"",""time""
""fullscreenenter"",""1"",""1839""
","
","","","1028.7000000029802","","","22","4380","1624","d","elianto","#3366ff99","-1"," ","0","0","[1879.2000000029802]","1","2","","","4380","24","1","2","win","no-go","0"
"pit-trial","143","903478","0.0-29.0","battery-v0.2","","""event"",""trial"",""time""
""fullscreenenter"",""1"",""1839""
","
","
","""event"",""trial"",""time""
""fullscreenenter"",""1"",""1839""
","
","","","1111","","","22","4380","1624","w","elianto","#f73b6a7A","-1"," ","0","-10","[1966.5]","1","2","","","4380","25","3","4","lose","no-go","0"
"pit-trial","144","907409","0.0-30.0","battery-v0.2","","""event"",""trial"",""time""
""fullscreenenter"",""1"",""1839""
","
","
","""event"",""trial"",""time""
""fullscreenenter"",""1"",""1839""
","
","","","1056.2000000029802","","","22","4380","1624","j","elianto","#f73b6a7A"," "," ","1","0","[1915.6000000014901]","1","2","","","4380","26","0","3","lose","go","0"
"pit-trial","145","910793","0.0-31.0","battery-v0.2","","""event"",""trial"",""time""
""fullscreenenter"",""1"",""1839""
","
","
","""event"",""trial"",""time""
""fullscreenenter"",""1"",""1839""
","
","","","512.2999999970198","","","22","4380","1624","e","elianto","#f73b6a7A"," "," ","1","0","[1365.5]","1","2","","","4380","27","2","3","lose","go","0"
"pit-trial","146","915287","0.0-32.0","battery-v0.2","","""event"",""trial"",""time""
""fullscreenenter"",""1"",""1839""
","
","
","""event"",""trial"",""time""
""fullscreenenter"",""1"",""1839""
","
","","","1622.8999999985099","","","22","4380","1624","d","elianto","#3366ff99","-1"," ","0","0","[2484.8000000044703]","1","2","","","4380","28","1","2","win","no-go","0"
"pit-trial","147","920160","0.0-33.0","battery-v0.2","","""event"",""trial"",""time""
""fullscreenenter"",""1"",""1839""
","
","
","""event"",""trial"",""time""
""fullscreenenter"",""1"",""1839""
","
","","","-1","","","22","4380","1624","d","elianto","#3366ff99","-1","-1","1","+10","[]","0","2","","","4380","29","1","2","win","no-go","0"
"pit-trial","148","925032","0.0-34.0","battery-v0.2","","""event"",""trial"",""time""
""fullscreenenter"",""1"",""1839""
","
","
","""event"",""trial"",""time""
""fullscreenenter"",""1"",""1839""
","
","","","-1","","","22","4380","1624","w","elianto","#f73b6a7A","-1","-1","1","0","[]","0","2","","","4380","30","3","4","lose","no-go","0"
"pit-trial","149","928790","0.0-35.0","battery-v0.2","","""event"",""trial"",""time""
""fullscreenenter"",""1"",""1839""
","
","
","""event"",""trial"",""time""
""fullscreenenter"",""1"",""1839""
","
","","","896.1000000014901","","","22","4380","1624","j","elianto","#f73b6a7A"," "," ","1","0","[1747.3999999985099]","1","2","","","4380","31","0","3","lose","go","0"
"pit-trial","150","932341","0.0-36.0","battery-v0.2","","""event"",""trial"",""time""
""fullscreenenter"",""1"",""1839""
","
","
","""event"",""trial"",""time""
""fullscreenenter"",""1"",""1839""
","
","","","677.1999999955297","","","22","4380","1624","e","elianto","#f73b6a7A"," "," ","1","0","[1536.1999999955297]","1","2","","","4380","32","2","3","lose","go","0"
"pit-trial","151","935861","0.0-37.0","battery-v0.2","","""event"",""trial"",""time""
""fullscreenenter"",""1"",""1839""
","
","
","""event"",""trial"",""time""
""fullscreenenter"",""1"",""1839""
","
","","","650.7999999970198","","","22","4380","1624","j","elianto","#f73b6a7A"," "," ","1","-10","[1507.6999999955297]","1","2","","","4380","33","0","3","lose","go","1"
"pit-trial","152","939338","0.0-38.0","battery-v0.2","","""event"",""trial"",""time""
""fullscreenenter"",""1"",""1839""
","
","
","""event"",""trial"",""time""
""fullscreenenter"",""1"",""1839""
","
","","","612.3999999985099","","","22","4380","1624","e","elianto","#f73b6a7A"," "," ","1","0","[1465.7999999970198]","1","2","","","4380","34","2","3","lose","go","0"
"pit-trial","153","944202","0.0-39.0","battery-v0.2","","""event"",""trial"",""time""
""fullscreenenter"",""1"",""1839""
","
","
","""event"",""trial"",""time""
""fullscreenenter"",""1"",""1839""
","
","","","-1","","","22","4380","1624","d","elianto","#3366ff99","-1","-1","1","+10","[]","0","2","","","4380","35","1","2","win","no-go","0"
"pit-trial","154","949074","0.0-40.0","battery-v0.2","","""event"",""trial"",""time""
""fullscreenenter"",""1"",""1839""
","
","
","""event"",""trial"",""time""
""fullscreenenter"",""1"",""1839""
","
","","","-1","","","22","4380","1624","w","elianto","#f73b6a7A","-1","-1","1","0","[]","0","2","","","4380","36","3","4","lose","no-go","0"
"pit-trial","155","952941","0.0-41.0","battery-v0.2","","""event"",""trial"",""time""
""fullscreenenter"",""1"",""1839""
","
","
","""event"",""trial"",""time""
""fullscreenenter"",""1"",""1839""
","
","","","1003.4000000059605","","","22","4380","1624","e","elianto","#f73b6a7A"," "," ","1","0","[1853.7000000029802]","1","2","","","4380","37","2","3","lose","go","0"
"pit-trial","156","957809","0.0-42.0","battery-v0.2","","""event"",""trial"",""time""
""fullscreenenter"",""1"",""1839""
","
","
","""event"",""trial"",""time""
""fullscreenenter"",""1"",""1839""
","
","","","-1","","","22","4380","1624","w","elianto","#f73b6a7A","-1","-1","1","0","[]","0","2","","","4380","38","3","4","lose","no-go","0"
"pit-trial","157","962676","0.0-43.0","battery-v0.2","","""event"",""trial"",""time""
""fullscreenenter"",""1"",""1839""
","
","
","""event"",""trial"",""time""
""fullscreenenter"",""1"",""1839""
","
","","","-1","","","22","4380","1624","d","elianto","#3366ff99","-1","-1","1","+10","[]","0","2","","","4380","39","1","2","win","no-go","0"
"pit-trial","158","966535","0.0-44.0","battery-v0.2","","""event"",""trial"",""time""
""fullscreenenter"",""1"",""1839""
","
","
","""event"",""trial"",""time""
""fullscreenenter"",""1"",""1839""
","
","","","981.1000000014901","","","22","4380","1624","j","elianto","#f73b6a7A"," "," ","1","0","[1842.3000000044703]","1","2","","","4380","40","0","3","lose","go","0"
"pit-trial","159","971404","0.0-45.0","battery-v0.2","","""event"",""trial"",""time""
""fullscreenenter"",""1"",""1839""
","
","
","""event"",""trial"",""time""
""fullscreenenter"",""1"",""1839""
","
","","","-1","","","22","4380","1624","j","elianto","#f73b6a7A"," ","-1","0","-10","[3036.3000000044703]","1","2","","","4380","41","0","3","lose","go","0"
"pit-trial","160","974865","0.0-46.0","battery-v0.2","","""event"",""trial"",""time""
""fullscreenenter"",""1"",""1839""
","
","
","""event"",""trial"",""time""
""fullscreenenter"",""1"",""1839""
","
","","","600.6000000014901","","","22","4380","1624","e","elianto","#f73b6a7A"," "," ","1","0","[1451.3000000044703]","1","2","","","4380","42","2","3","lose","go","0"
"pit-trial","161","979730","0.0-47.0","battery-v0.2","","""event"",""trial"",""time""
""fullscreenenter"",""1"",""1839""
","
","
","""event"",""trial"",""time""
""fullscreenenter"",""1"",""1839""
","
","","","-1","","","22","4380","1624","d","elianto","#3366ff99","-1","-1","1","0","[]","0","2","","","4380","43","1","2","win","no-go","1"
"pit-trial","162","984596","0.0-48.0","battery-v0.2","","""event"",""trial"",""time""
""fullscreenenter"",""1"",""1839""
","
","
","""event"",""trial"",""time""
""fullscreenenter"",""1"",""1839""
","
","","","-1","","","22","4380","1624","w","elianto","#f73b6a7A","-1","-1","1","-10","[]","0","2","","","4380","44","3","4","lose","no-go","1"
"pit-trial","163","988599","0.0-49.0","battery-v0.2","","""event"",""trial"",""time""
""fullscreenenter"",""1"",""1839""
","
","
","""event"",""trial"",""time""
""fullscreenenter"",""1"",""1839""
","
","","","1134.8999999985099","","","22","4380","1624","e","elianto","#f73b6a7A"," "," ","1","0","[1985.5999999940395]","1","2","","","4380","45","2","3","lose","go","0"
"pit-trial","164","992201","0.0-50.0","battery-v0.2","","""event"",""trial"",""time""
""fullscreenenter"",""1"",""1839""
","
","
","""event"",""trial"",""time""
""fullscreenenter"",""1"",""1839""
","
","","","740.5999999940395","","","22","4380","1624","j","elianto","#f73b6a7A"," "," ","1","0","[1595.8000000044703]","1","2","","","4380","46","0","3","lose","go","0"
"pit-trial","165","997067","0.0-51.0","battery-v0.2","","""event"",""trial"",""time""
""fullscreenenter"",""1"",""1839""
","
","
","""event"",""trial"",""time""
""fullscreenenter"",""1"",""1839""
","
","","","-1","","","22","4380","1624","d","elianto","#3366ff99","-1","-1","1","+10","[]","0","2","","","4380","47","1","2","win","no-go","0"
"pit-trial","166","1001940","0.0-52.0","battery-v0.2","","""event"",""trial"",""time""
""fullscreenenter"",""1"",""1839""
","
","
","""event"",""trial"",""time""
""fullscreenenter"",""1"",""1839""
","
","","","-1","","","22","4380","1624","w","elianto","#f73b6a7A","-1","-1","1","-10","[]","0","2","","","4380","48","3","4","lose","no-go","1"
"pit-trial","167","1005630","0.0-53.0","battery-v0.2","","""event"",""trial"",""time""
""fullscreenenter"",""1"",""1839""
","
","
","""event"",""trial"",""time""
""fullscreenenter"",""1"",""1839""
","
","","","827","","","22","4380","1624","j","elianto","#f73b6a7A"," "," ","1","0","[1678.2000000029802]","1","2","","","4380","49","0","3","lose","go","0"
"pit-trial","168","1010503","0.0-54.0","battery-v0.2","","""event"",""trial"",""time""
""fullscreenenter"",""1"",""1839""
","
","
","""event"",""trial"",""time""
""fullscreenenter"",""1"",""1839""
","
","","","-1","","","22","4380","1624","w","elianto","#f73b6a7A","-1","-1","1","0","[]","0","2","","","4380","50","3","4","lose","no-go","0"
"pit-trial","169","1015374","0.0-55.0","battery-v0.2","","""event"",""trial"",""time""
""fullscreenenter"",""1"",""1839""
","
","
","""event"",""trial"",""time""
""fullscreenenter"",""1"",""1839""
","
","","","-1","","","22","4380","1624","d","elianto","#3366ff99","-1","-1","1","+10","[]","0","2","","","4380","51","1","2","win","no-go","0"
"pit-trial","170","1019059","0.0-56.0","battery-v0.2","","""event"",""trial"",""time""
""fullscreenenter"",""1"",""1839""
","
","
","""event"",""trial"",""time""
""fullscreenenter"",""1"",""1839""
","
","","","828.1000000014901","","","22","4380","1624","e","elianto","#f73b6a7A"," "," ","1","0","[1679.3999999985099]","1","2","","","4380","52","2","3","lose","go","0"
"pit-trial","171","1023932","0.0-57.0","battery-v0.2","","""event"",""trial"",""time""
""fullscreenenter"",""1"",""1839""
","
","
","""event"",""trial"",""time""
""fullscreenenter"",""1"",""1839""
","
","","","-1","","","22","4380","1624","w","elianto","#f73b6a7A","-1","-1","1","0","[]","0","2","","","4380","53","3","4","lose","no-go","0"
"pit-trial","172","1027611","0.0-58.0","battery-v0.2","","""event"",""trial"",""time""
""fullscreenenter"",""1"",""1839""
","
","
","""event"",""trial"",""time""
""fullscreenenter"",""1"",""1839""
","
","","","809.2999999970198","","","22","4380","1624","e","elianto","#f73b6a7A"," "," ","1","0","[1665.6000000014901]","1","2","","","4380","54","2","3","lose","go","0"
"pit-trial","173","1032489","0.0-59.0","battery-v0.2","","""event"",""trial"",""time""
""fullscreenenter"",""1"",""1839""
","
","
","""event"",""trial"",""time""
""fullscreenenter"",""1"",""1839""
","
","","","-1","","","22","4380","1624","d","elianto","#3366ff99","-1","-1","1","+10","[]","0","2","","","4380","55","1","2","win","no-go","0"
"pit-trial","174","1036336","0.0-60.0","battery-v0.2","","""event"",""trial"",""time""
""fullscreenenter"",""1"",""1839""
","
","
","""event"",""trial"",""time""
""fullscreenenter"",""1"",""1839""
","
","","","974.5","","","22","4380","1624","j","elianto","#f73b6a7A"," "," ","1","0","[1830]","1","2","","","4380","56","0","3","lose","go","0"
"pit-trial","175","1040209","0.0-61.0","battery-v0.2","","""event"",""trial"",""time""
""fullscreenenter"",""1"",""1839""
","
","
","""event"",""trial"",""time""
""fullscreenenter"",""1"",""1839""
","
","","","1007.7000000029802","","","22","4380","1624","e","elianto","#f73b6a7A"," "," ","1","0","[1858.1000000014901]","1","2","","","4380","57","2","3","lose","go","0"
"pit-trial","176","1045018","0.0-62.0","battery-v0.2","","""event"",""trial"",""time""
""fullscreenenter"",""1"",""1839""
","
","
","""event"",""trial"",""time""
""fullscreenenter"",""1"",""1839""
","
","","","1945.0999999940395","","","22","4380","1624","s","elianto","#3366ff99"," "," ","1","0","[2800.6999999955297]","1","2","","","4380","58","4","1","win","go","1"
"pit-trial","177","1049888","0.0-63.0","battery-v0.2","","""event"",""trial"",""time""
""fullscreenenter"",""1"",""1839""
","
","
","""event"",""trial"",""time""
""fullscreenenter"",""1"",""1839""
","
","","","-1","","","22","4380","1624","w","elianto","#f73b6a7A","-1","-1","1","0","[]","0","2","","","4380","59","3","4","lose","no-go","0"
"pit-trial","178","1053913","0.0-64.0","battery-v0.2","","""event"",""trial"",""time""
""fullscreenenter"",""1"",""1839""
","
","
","""event"",""trial"",""time""
""fullscreenenter"",""1"",""1839""
","
","","","1158.2000000029802","","","22","4380","1624","j","elianto","#f73b6a7A"," "," ","1","0","[2012.5]","1","2","","","4380","60","0","3","lose","go","0"
"pit-trial","179","1057404","0.0-65.0","battery-v0.2","","""event"",""trial"",""time""
""fullscreenenter"",""1"",""1839""
","
","
","""event"",""trial"",""time""
""fullscreenenter"",""1"",""1839""
","
","","","625.8999999985099","","","22","4380","1624","e","elianto","#f73b6a7A"," "," ","1","-10","[1476.7000000029802]","1","2","","","4380","61","2","3","lose","go","1"
"pit-trial","180","1062267","0.0-66.0","battery-v0.2","","""event"",""trial"",""time""
""fullscreenenter"",""1"",""1839""
","
","
","""event"",""trial"",""time""
""fullscreenenter"",""1"",""1839""
","
","","","-1","","","22","4380","1624","d","elianto","#3366ff99","-1","-1","1","+10","[]","0","2","","","4380","62","1","2","win","no-go","0"
"pit-trial","181","1067130","0.0-67.0","battery-v0.2","","""event"",""trial"",""time""
""fullscreenenter"",""1"",""1839""
","
","
","""event"",""trial"",""time""
""fullscreenenter"",""1"",""1839""
","
","","","-1","","","22","4380","1624","s","elianto","#3366ff99"," ","-1","0","0","[]","0","2","","","4380","63","4","1","win","go","0"
"pit-trial","182","1071997","0.0-68.0","battery-v0.2","","""event"",""trial"",""time""
""fullscreenenter"",""1"",""1839""
","
","
","""event"",""trial"",""time""
""fullscreenenter"",""1"",""1839""
","
","","","-1","","","22","4380","1624","w","elianto","#f73b6a7A","-1","-1","1","0","[]","0","2","","","4380","64","3","4","lose","no-go","0"
"pit-trial","183","1076152","0.0-69.0","battery-v0.2","","""event"",""trial"",""time""
""fullscreenenter"",""1"",""1839""
","
","
","""event"",""trial"",""time""
""fullscreenenter"",""1"",""1839""
","
","","","1293.6999999955297","","","22","4380","1624","s","elianto","#3366ff99"," "," ","1","0","[2151]","1","2","","","4380","65","4","1","win","go","1"
"pit-trial","184","1081019","0.0-70.0","battery-v0.2","","""event"",""trial"",""time""
""fullscreenenter"",""1"",""1839""
","
","
","""event"",""trial"",""time""
""fullscreenenter"",""1"",""1839""
","
","","","-1","","","22","4380","1624","w","elianto","#f73b6a7A","-1","-1","1","-10","[]","0","2","","","4380","66","3","4","lose","no-go","1"
"pit-trial","185","1085229","0.0-71.0","battery-v0.2","","""event"",""trial"",""time""
""fullscreenenter"",""1"",""1839""
","
","
","""event"",""trial"",""time""
""fullscreenenter"",""1"",""1839""
","
","","","1345.8000000044703","","","22","4380","1624","p","elianto","#3366ff99","-1"," ","0","0","[2197.89999999851]","1","2","","","4380","67","5","2","win","no-go","0"
"pit-trial","186","1090098","0.0-72.0","battery-v0.2","","""event"",""trial"",""time""
""fullscreenenter"",""1"",""1839""
","
","
","""event"",""trial"",""time""
""fullscreenenter"",""1"",""1839""
","
","","","-1","","","22","4380","1624","d","elianto","#3366ff99","-1","-1","1","+10","[]","0","2","","","4380","68","1","2","win","no-go","0"
"pit-trial","187","1094963","0.0-73.0","battery-v0.2","","""event"",""trial"",""time""
""fullscreenenter"",""1"",""1839""
","
","
","""event"",""trial"",""time""
""fullscreenenter"",""1"",""1839""
","
","","","-1","","","22","4380","1624","s","elianto","#3366ff99"," ","-1","0","0","[]","0","2","","","4380","69","4","1","win","go","0"
"pit-trial","188","1099027","0.0-74.0","battery-v0.2","","""event"",""trial"",""time""
""fullscreenenter"",""1"",""1839""
","
","
","""event"",""trial"",""time""
""fullscreenenter"",""1"",""1839""
","
","","","1206.7000000029802","","","22","4380","1624","p","elianto","#3366ff99","-1"," ","0","+10","[2057.5]","1","2","","","4380","70","5","2","win","no-go","1"
"pit-trial","189","1103900","0.0-75.0","battery-v0.2","","""event"",""trial"",""time""
""fullscreenenter"",""1"",""1839""
","
","
","""event"",""trial"",""time""
""fullscreenenter"",""1"",""1839""
","
","","","-1","","","22","4380","1624","d","elianto","#3366ff99","-1","-1","1","0","[]","0","2","","","4380","71","1","2","win","no-go","1"
"pit-trial","190","1107658","0.0-76.0","battery-v0.2","","""event"",""trial"",""time""
""fullscreenenter"",""1"",""1839""
","
","
","""event"",""trial"",""time""
""fullscreenenter"",""1"",""1839""
","
","","","885.3999999985099","","","22","4380","1624","e","elianto","#f73b6a7A"," "," ","1","0","[1746.6999999955297]","1","2","","","4380","72","2","3","lose","go","0"
"pit-trial","191","1111417","0.0-77.0","battery-v0.2","","""event"",""trial"",""time""
""fullscreenenter"",""1"",""1839""
","
","
","""event"",""trial"",""time""
""fullscreenenter"",""1"",""1839""
","
","","","895.1999999955297","","","22","4380","1624","p","elianto","#3366ff99","-1"," ","0","0","[1746.5]","1","2","","","4380","73","5","2","win","no-go","0"
"pit-trial","192","1115434","0.0-78.0","battery-v0.2","","""event"",""trial"",""time""
""fullscreenenter"",""1"",""1839""
","
","
","""event"",""trial"",""time""
""fullscreenenter"",""1"",""1839""
","
","","","1152.7000000029802","","","22","4380","1624","s","elianto","#3366ff99"," "," ","1","0","[2010.7000000029802]","1","2","","","4380","74","4","1","win","go","1"
"pit-trial","193","1120305","0.0-79.0","battery-v0.2","","""event"",""trial"",""time""
""fullscreenenter"",""1"",""1839""
","
","
","""event"",""trial"",""time""
""fullscreenenter"",""1"",""1839""
","
","","","-1","","","22","4380","1624","d","elianto","#3366ff99","-1","-1","1","+10","[]","0","2","","","4380","75","1","2","win","no-go","0"
"pit-trial","194","1125172","0.0-80.0","battery-v0.2","","""event"",""trial"",""time""
""fullscreenenter"",""1"",""1839""
","
","
","""event"",""trial"",""time""
""fullscreenenter"",""1"",""1839""
","
","","","-1","","","22","4380","1624","w","elianto","#f73b6a7A","-1","-1","1","0","[]","0","2","","","4380","76","3","4","lose","no-go","0"
"pit-trial","195","1128987","0.0-81.0","battery-v0.2","","""event"",""trial"",""time""
""fullscreenenter"",""1"",""1839""
","
","
","""event"",""trial"",""time""
""fullscreenenter"",""1"",""1839""
","
","","","945.7000000029802","","","22","4380","1624","p","elianto","#3366ff99","-1"," ","0","0","[1797.1000000014901]","1","2","","","4380","77","5","2","win","no-go","0"
"pit-trial","196","1133849","0.0-82.0","battery-v0.2","","""event"",""trial"",""time""
""fullscreenenter"",""1"",""1839""
","
","
","""event"",""trial"",""time""
""fullscreenenter"",""1"",""1839""
","
","","","-1","","","22","4380","1624","s","elianto","#3366ff99"," ","-1","0","0","[]","0","2","","","4380","78","4","1","win","go","0"
"pit-trial","197","1138713","0.0-83.0","battery-v0.2","","""event"",""trial"",""time""
""fullscreenenter"",""1"",""1839""
","
","
","""event"",""trial"",""time""
""fullscreenenter"",""1"",""1839""
","
","","","-1","","","22","4380","1624","s","elianto","#3366ff99"," ","-1","0","0","[]","0","2","","","4380","79","4","1","win","go","0"
"pit-trial","198","1143583","0.0-84.0","battery-v0.2","","""event"",""trial"",""time""
""fullscreenenter"",""1"",""1839""
","
","
","""event"",""trial"",""time""
""fullscreenenter"",""1"",""1839""
","
","","","-1","","","22","4380","1624","w","elianto","#f73b6a7A","-1","-1","1","0","[]","0","2","","","4380","80","3","4","lose","no-go","0"
"pit-trial","199","1147074","0.0-85.0","battery-v0.2","","""event"",""trial"",""time""
""fullscreenenter"",""1"",""1839""
","
","
","""event"",""trial"",""time""
""fullscreenenter"",""1"",""1839""
","
","","","629.5999999940395","","","22","4380","1624","p","elianto","#3366ff99","-1"," ","0","0","[1481.5999999940395]","1","2","","","4380","81","5","2","win","no-go","0"
"pit-trial","200","1151955","0.0-86.0","battery-v0.2","","""event"",""trial"",""time""
""fullscreenenter"",""1"",""1839""
","
","
","""event"",""trial"",""time""
""fullscreenenter"",""1"",""1839""
","
","","","-1","","","22","4380","1624","w","elianto","#f73b6a7A","-1","-1","1","0","[]","0","2","","","4380","82","3","4","lose","no-go","0"
"pit-trial","201","1156540","0.0-87.0","battery-v0.2","","""event"",""trial"",""time""
""fullscreenenter"",""1"",""1839""
","
","
","""event"",""trial"",""time""
""fullscreenenter"",""1"",""1839""
","
","","","1721.1999999955297","","","22","4380","1624","a","elianto","#f73b6a7A","-1"," ","0","0","[2574.5999999940395]","1","2","","","4380","83","7","4","lose","no-go","1"
"pit-trial","202","1161401","0.0-88.0","battery-v0.2","","""event"",""trial"",""time""
""fullscreenenter"",""1"",""1839""
","
","
","""event"",""trial"",""time""
""fullscreenenter"",""1"",""1839""
","
","","","-1","","","22","4380","1624","s","elianto","#3366ff99"," ","-1","0","0","[]","0","2","","","4380","84","4","1","win","go","0"
"pit-trial","203","1165181","0.0-89.0","battery-v0.2","","""event"",""trial"",""time""
""fullscreenenter"",""1"",""1839""
","
","
","""event"",""trial"",""time""
""fullscreenenter"",""1"",""1839""
","
","","","919","","","22","4380","1624","a","elianto","#f73b6a7A","-1"," ","0","-10","[1772.5]","1","2","","","4380","85","7","4","lose","no-go","0"
"pit-trial","204","1169370","0.0-90.0","battery-v0.2","","""event"",""trial"",""time""
""fullscreenenter"",""1"",""1839""
","
","
","""event"",""trial"",""time""
""fullscreenenter"",""1"",""1839""
","
","","","1321.7000000029802","","","22","4380","1624","g","elianto","#f73b6a7A"," "," ","1","0","[2183.39999999851]","1","2","","","4380","86","6","3","lose","go","0"
"pit-trial","205","1173825","0.0-91.0","battery-v0.2","","""event"",""trial"",""time""
""fullscreenenter"",""1"",""1839""
","
","
","""event"",""trial"",""time""
""fullscreenenter"",""1"",""1839""
","
","","","1590.3999999985099","","","22","4380","1624","p","elianto","#3366ff99","-1"," ","0","0","[2444.6999999955297]","1","2","","","4380","87","5","2","win","no-go","0"
"pit-trial","206","1178694","0.0-92.0","battery-v0.2","","""event"",""trial"",""time""
""fullscreenenter"",""1"",""1839""
","
","
","""event"",""trial"",""time""
""fullscreenenter"",""1"",""1839""
","
","","","-1","","","22","4380","1624","s","elianto","#3366ff99"," ","-1","0","0","[]","0","2","","","4380","88","4","1","win","go","0"
"pit-trial","207","1183561","0.0-93.0","battery-v0.2","","""event"",""trial"",""time""
""fullscreenenter"",""1"",""1839""
","
","
","""event"",""trial"",""time""
""fullscreenenter"",""1"",""1839""
","
","","","-1","","","22","4380","1624","p","elianto","#3366ff99","-1","-1","1","+10","[]","0","2","","","4380","89","5","2","win","no-go","0"
"pit-trial","208","1187578","0.0-94.0","battery-v0.2","","""event"",""trial"",""time""
""fullscreenenter"",""1"",""1839""
","
","
","""event"",""trial"",""time""
""fullscreenenter"",""1"",""1839""
","
","","","1143.7000000029802","","","22","4380","1624","a","elianto","#f73b6a7A","-1"," ","0","-10","[1999.6000000014901]","1","2","","","4380","90","7","4","lose","no-go","0"
"pit-trial","209","1191562","0.0-95.0","battery-v0.2","","""event"",""trial"",""time""
""fullscreenenter"",""1"",""1839""
","
","
","""event"",""trial"",""time""
""fullscreenenter"",""1"",""1839""
","
","","","1121","","","22","4380","1624","g","elianto","#f73b6a7A"," "," ","1","0","[1978.8000000044703]","1","2","","","4380","91","6","3","lose","go","0"
"pit-trial","210","1196425","0.0-96.0","battery-v0.2","","""event"",""trial"",""time""
""fullscreenenter"",""1"",""1839""
","
","
","""event"",""trial"",""time""
""fullscreenenter"",""1"",""1839""
","
","","","-1","","","22","4380","1624","s","elianto","#3366ff99"," ","-1","0","0","[]","0","2","","","4380","92","4","1","win","go","0"
"pit-trial","211","1201304","0.0-97.0","battery-v0.2","","""event"",""trial"",""time""
""fullscreenenter"",""1"",""1839""
","
","
","""event"",""trial"",""time""
""fullscreenenter"",""1"",""1839""
","
","","","-1","","","22","4380","1624","p","elianto","#3366ff99","-1","-1","1","+10","[]","0","2","","","4380","93","5","2","win","no-go","0"
"pit-trial","212","1205401","0.0-98.0","battery-v0.2","","""event"",""trial"",""time""
""fullscreenenter"",""1"",""1839""
","
","
","""event"",""trial"",""time""
""fullscreenenter"",""1"",""1839""
","
","","","1224.7999999970198","","","22","4380","1624","l","elianto","#3366ff99"," "," ","1","+10","[2081.39999999851]","1","2","","","4380","94","8","1","win","go","0"
"pit-trial","213","1210270","0.0-99.0","battery-v0.2","","""event"",""trial"",""time""
""fullscreenenter"",""1"",""1839""
","
","
","""event"",""trial"",""time""
""fullscreenenter"",""1"",""1839""
","
","","","-1","","","22","4380","1624","a","elianto","#f73b6a7A","-1","-1","1","0","[]","0","2","","","4380","95","7","4","lose","no-go","0"
"pit-trial","214","1214705","0.0-100.0","battery-v0.2","","""event"",""trial"",""time""
""fullscreenenter"",""1"",""1839""
","
","
","""event"",""trial"",""time""
""fullscreenenter"",""1"",""1839""
","
","","","1570","","","22","4380","1624","g","elianto","#f73b6a7A"," "," ","1","0","[2427.2999999970198]","1","2","","","4380","96","6","3","lose","go","0"
"pit-trial","215","1218307","0.0-101.0","battery-v0.2","","""event"",""trial"",""time""
""fullscreenenter"",""1"",""1839""
","
","
","""event"",""trial"",""time""
""fullscreenenter"",""1"",""1839""
","
","","","737.7000000029802","","","22","4380","1624","g","elianto","#f73b6a7A"," "," ","1","0","[1591.6000000014901]","1","2","","","4380","97","6","3","lose","go","0"
"pit-trial","216","1221844","0.0-102.0","battery-v0.2","","""event"",""trial"",""time""
""fullscreenenter"",""1"",""1839""
","
","
","""event"",""trial"",""time""
""fullscreenenter"",""1"",""1839""
","
","","","671.5","","","22","4380","1624","l","elianto","#3366ff99"," "," ","1","+10","[1523.5]","1","2","","","4380","98","8","1","win","go","0"
"pit-trial","217","1226722","0.0-103.0","battery-v0.2","","""event"",""trial"",""time""
""fullscreenenter"",""1"",""1839""
","
","
","""event"",""trial"",""time""
""fullscreenenter"",""1"",""1839""
","
","","","-1","","","22","4380","1624","a","elianto","#f73b6a7A","-1","-1","1","0","[]","0","2","","","4380","99","7","4","lose","no-go","0"
"pit-trial","218","1231585","0.0-104.0","battery-v0.2","","""event"",""trial"",""time""
""fullscreenenter"",""1"",""1839""
","
","
","""event"",""trial"",""time""
""fullscreenenter"",""1"",""1839""
","
","","","-1","","","22","4380","1624","p","elianto","#3366ff99","-1","-1","1","+10","[]","0","2","","","4380","100","5","2","win","no-go","0"
"pit-trial","219","1235635","0.0-105.0","battery-v0.2","","""event"",""trial"",""time""
""fullscreenenter"",""1"",""1839""
","
","
","""event"",""trial"",""time""
""fullscreenenter"",""1"",""1839""
","
","","","1188.5","","","22","4380","1624","u","elianto","#3366ff99"," "," ","1","+10","[2041.2999999970198]","1","2","","","4380","101","9","1","win","go","0"
"pit-trial","220","1239590","0.0-106.0","battery-v0.2","","""event"",""trial"",""time""
""fullscreenenter"",""1"",""1839""
","
","
","""event"",""trial"",""time""
""fullscreenenter"",""1"",""1839""
","
","","","1087.8000000044703","","","22","4380","1624","l","elianto","#3366ff99"," "," ","1","+10","[1939.8000000044703]","1","2","","","4380","102","8","1","win","go","0"
"pit-trial","221","1244460","0.0-107.0","battery-v0.2","","""event"",""trial"",""time""
""fullscreenenter"",""1"",""1839""
","
","
","""event"",""trial"",""time""
""fullscreenenter"",""1"",""1839""
","
","","","-1","","","22","4380","1624","p","elianto","#3366ff99","-1","-1","1","+10","[]","0","2","","","4380","103","5","2","win","no-go","0"
"pit-trial","222","1249340","0.0-108.0","battery-v0.2","","""event"",""trial"",""time""
""fullscreenenter"",""1"",""1839""
","
","
","""event"",""trial"",""time""
""fullscreenenter"",""1"",""1839""
","
","","","-1","","","22","4380","1624","a","elianto","#f73b6a7A","-1","-1","1","0","[]","0","2","","","4380","104","7","4","lose","no-go","0"
"pit-trial","223","1254213","0.0-109.0","battery-v0.2","","""event"",""trial"",""time""
""fullscreenenter"",""1"",""1839""
","
","
","""event"",""trial"",""time""
""fullscreenenter"",""1"",""1839""
","
","","","-1","","","22","4380","1624","s","elianto","#3366ff99"," ","-1","0","0","[]","0","2","","","4380","105","4","1","win","go","0"
"pit-trial","224","1258339","0.0-110.0","battery-v0.2","","""event"",""trial"",""time""
""fullscreenenter"",""1"",""1839""
","
","
","""event"",""trial"",""time""
""fullscreenenter"",""1"",""1839""
","
","","","1263.5","","","22","4380","1624","u","elianto","#3366ff99"," "," ","1","+10","[2114.5]","1","2","","","4380","106","9","1","win","go","0"
"pit-trial","225","1262002","0.0-111.0","battery-v0.2","","""event"",""trial"",""time""
""fullscreenenter"",""1"",""1839""
","
","
","""event"",""trial"",""time""
""fullscreenenter"",""1"",""1839""
","
","","","795.7999999970198","","","22","4380","1624","l","elianto","#3366ff99"," "," ","1","0","[1648.7999999970198]","1","2","","","4380","107","8","1","win","go","1"
"pit-trial","226","1265880","0.0-112.0","battery-v0.2","","""event"",""trial"",""time""
""fullscreenenter"",""1"",""1839""
","
","
","""event"",""trial"",""time""
""fullscreenenter"",""1"",""1839""
","
","","","1020.3000000044703","","","22","4380","1624","g","elianto","#f73b6a7A"," "," ","1","0","[1871.6000000014901]","1","2","","","4380","108","6","3","lose","go","0"
"pit-trial","227","1270715","0.0-113.0","battery-v0.2","","""event"",""trial"",""time""
""fullscreenenter"",""1"",""1839""
","
","
","""event"",""trial"",""time""
""fullscreenenter"",""1"",""1839""
","
","","","1977.9000000059605","","","22","4380","1624","p","elianto","#3366ff99","-1"," ","0","+10","[2828]","1","2","","","4380","109","5","2","win","no-go","1"
"pit-trial","228","1274345","0.0-114.0","battery-v0.2","","""event"",""trial"",""time""
""fullscreenenter"",""1"",""1839""
","
","
","""event"",""trial"",""time""
""fullscreenenter"",""1"",""1839""
","
","","","766.8999999985099","","","22","4380","1624","l","elianto","#3366ff99"," "," ","1","+10","[1623.7000000029802]","1","2","","","4380","110","8","1","win","go","0"
"pit-trial","229","1277863","0.0-115.0","battery-v0.2","","""event"",""trial"",""time""
""fullscreenenter"",""1"",""1839""
","
","
","""event"",""trial"",""time""
""fullscreenenter"",""1"",""1839""
","
","","","646.5999999940395","","","22","4380","1624","g","elianto","#f73b6a7A"," "," ","1","0","[1507.0999999940395]","1","2","","","4380","111","6","3","lose","go","0"
"pit-trial","230","1281535","0.0-116.0","battery-v0.2","","""event"",""trial"",""time""
""fullscreenenter"",""1"",""1839""
","
","
","""event"",""trial"",""time""
""fullscreenenter"",""1"",""1839""
","
","","","796.6000000014901","","","22","4380","1624","u","elianto","#3366ff99"," "," ","1","0","[1656.3999999985099]","1","2","","","4380","112","9","1","win","go","1"
"pit-trial","231","1285356","0.0-117.0","battery-v0.2","","""event"",""trial"",""time""
""fullscreenenter"",""1"",""1839""
","
","
","""event"",""trial"",""time""
""fullscreenenter"",""1"",""1839""
","
","","","957.7999999970198","","","22","4380","1624","p","elianto","#3366ff99","-1"," ","0","0","[1811.5999999940395]","1","2","","","4380","113","5","2","win","no-go","0"
"pit-trial","232","1289056","0.0-118.0","battery-v0.2","","""event"",""trial"",""time""
""fullscreenenter"",""1"",""1839""
","
","
","""event"",""trial"",""time""
""fullscreenenter"",""1"",""1839""
","
","","","833.2000000029802","","","22","4380","1624","u","elianto","#3366ff99"," "," ","1","+10","[1683.6999999955297]","1","2","","","4380","114","9","1","win","go","0"
"pit-trial","233","1292608","0.0-119.0","battery-v0.2","","""event"",""trial"",""time""
""fullscreenenter"",""1"",""1839""
","
","
","""event"",""trial"",""time""
""fullscreenenter"",""1"",""1839""
","
","","","682.4000000059605","","","22","4380","1624","l","elianto","#3366ff99"," "," ","1","+10","[1533.2000000029802]","1","2","","","4380","115","8","1","win","go","0"
"pit-trial","234","1296567","0.0-120.0","battery-v0.2","","""event"",""trial"",""time""
""fullscreenenter"",""1"",""1839""
","
","
","""event"",""trial"",""time""
""fullscreenenter"",""1"",""1839""
","
","","","1090.6000000014901","","","22","4380","1624","g","elianto","#f73b6a7A"," "," ","1","0","[1944.7999999970198]","1","2","","","4380","116","6","3","lose","go","0"
"pit-trial","235","1300193","0.0-121.0","battery-v0.2","","""event"",""trial"",""time""
""fullscreenenter"",""1"",""1839""
","
","
","""event"",""trial"",""time""
""fullscreenenter"",""1"",""1839""
","
","","","753.6000000014901","","","22","4380","1624","u","elianto","#3366ff99"," "," ","1","0","[1606.2999999970198]","1","2","","","4380","117","9","1","win","go","1"
"pit-trial","236","1303825","0.0-122.0","battery-v0.2","","""event"",""trial"",""time""
""fullscreenenter"",""1"",""1839""
","
","
","""event"",""trial"",""time""
""fullscreenenter"",""1"",""1839""
","
","","","760.5","","","22","4380","1624","g","elianto","#f73b6a7A"," "," ","1","0","[1616.7000000029802]","1","2","","","4380","118","6","3","lose","go","0"
"pit-trial","237","1307391","0.0-123.0","battery-v0.2","","""event"",""trial"",""time""
""fullscreenenter"",""1"",""1839""
","
","
","""event"",""trial"",""time""
""fullscreenenter"",""1"",""1839""
","
","","","696.6000000014901","","","22","4380","1624","l","elianto","#3366ff99"," "," ","1","+10","[1553.1000000014901]","1","2","","","4380","119","8","1","win","go","0"
"pit-trial","238","1310949","0.0-124.0","battery-v0.2","","""event"",""trial"",""time""
""fullscreenenter"",""1"",""1839""
","
","
","""event"",""trial"",""time""
""fullscreenenter"",""1"",""1839""
","
","","","690.7000000029802","","","22","4380","1624","p","elianto","#3366ff99","-1"," ","0","0","[1547.5]","1","2","","","4380","120","5","2","win","no-go","0"
"pit-trial","239","1314609","0.0-125.0","battery-v0.2","","""event"",""trial"",""time""
""fullscreenenter"",""1"",""1839""
","
","
","""event"",""trial"",""time""
""fullscreenenter"",""1"",""1839""
","
","","","800.8000000044703","","","22","4380","1624","l","elianto","#3366ff99"," "," ","1","+10","[1651]","1","2","","","4380","121","8","1","win","go","0"
"pit-trial","240","1319476","0.0-126.0","battery-v0.2","","""event"",""trial"",""time""
""fullscreenenter"",""1"",""1839""
","
","
","""event"",""trial"",""time""
""fullscreenenter"",""1"",""1839""
","
","","","-1","","","22","4380","1624","a","elianto","#f73b6a7A","-1","-1","1","-10","[]","0","2","","","4380","122","7","4","lose","no-go","1"
"pit-trial","241","1323151","0.0-127.0","battery-v0.2","","""event"",""trial"",""time""
""fullscreenenter"",""1"",""1839""
","
","
","""event"",""trial"",""time""
""fullscreenenter"",""1"",""1839""
","
","","","812.6000000014901","","","22","4380","1624","u","elianto","#3366ff99"," "," ","1","+10","[1663.7999999970198]","1","2","","","4380","123","9","1","win","go","0"
"pit-trial","242","1326680","0.0-128.0","battery-v0.2","","""event"",""trial"",""time""
""fullscreenenter"",""1"",""1839""
","
","
","""event"",""trial"",""time""
""fullscreenenter"",""1"",""1839""
","
","","","664.6999999955297","","","22","4380","1624","g","elianto","#f73b6a7A"," "," ","1","0","[1522.4000000059605]","1","2","","","4380","124","6","3","lose","go","0"
"pit-trial","243","1330470","0.0-129.0","battery-v0.2","","""event"",""trial"",""time""
""fullscreenenter"",""1"",""1839""
","
","
","""event"",""trial"",""time""
""fullscreenenter"",""1"",""1839""
","
","","","915.2000000029802","","","22","4380","1624","l","elianto","#3366ff99"," "," ","1","+10","[1774.1999999955297]","1","2","","","4380","125","8","1","win","go","0"
"pit-trial","244","1334202","0.0-130.0","battery-v0.2","","""event"",""trial"",""time""
""fullscreenenter"",""1"",""1839""
","
","
","""event"",""trial"",""time""
""fullscreenenter"",""1"",""1839""
","
","","","869.7000000029802","","","22","4380","1624","g","elianto","#f73b6a7A"," "," ","1","0","[1723.7000000029802]","1","2","","","4380","126","6","3","lose","go","0"
"pit-trial","245","1339065","0.0-131.0","battery-v0.2","","""event"",""trial"",""time""
""fullscreenenter"",""1"",""1839""
","
","
","""event"",""trial"",""time""
""fullscreenenter"",""1"",""1839""
","
","","","-1","","","22","4380","1624","a","elianto","#f73b6a7A","-1","-1","1","0","[]","0","2","","","4380","127","7","4","lose","no-go","0"
"pit-trial","246","1342588","0.0-132.0","battery-v0.2","","""event"",""trial"",""time""
""fullscreenenter"",""1"",""1839""
","
","
","""event"",""trial"",""time""
""fullscreenenter"",""1"",""1839""
","
","","","657.3000000044703","","","22","4380","1624","u","elianto","#3366ff99"," "," ","1","0","[1513.6000000014901]","1","2","","","4380","128","9","1","win","go","1"
"pit-trial","247","1346177","0.0-133.0","battery-v0.2","","""event"",""trial"",""time""
""fullscreenenter"",""1"",""1839""
","
","
","""event"",""trial"",""time""
""fullscreenenter"",""1"",""1839""
","
","","","733.4000000059605","","","22","4380","1624","l","elianto","#3366ff99"," "," ","1","+10","[1584.7000000029802]","1","2","","","4380","129","8","1","win","go","0"
"pit-trial","248","1351043","0.0-134.0","battery-v0.2","","""event"",""trial"",""time""
""fullscreenenter"",""1"",""1839""
","
","
","""event"",""trial"",""time""
""fullscreenenter"",""1"",""1839""
","
","","","-1","","","22","4380","1624","a","elianto","#f73b6a7A","-1","-1","1","0","[]","0","2","","","4380","130","7","4","lose","no-go","0"
"pit-trial","249","1354485","0.0-135.0","battery-v0.2","","""event"",""trial"",""time""
""fullscreenenter"",""1"",""1839""
","
","
","""event"",""trial"",""time""
""fullscreenenter"",""1"",""1839""
","
","","","577.3999999985099","","","22","4380","1624","u","elianto","#3366ff99"," "," ","1","+10","[1429.7000000029802]","1","2","","","4380","131","9","1","win","go","0"
"pit-trial","250","1358026","0.0-136.0","battery-v0.2","","""event"",""trial"",""time""
""fullscreenenter"",""1"",""1839""
","
","
","""event"",""trial"",""time""
""fullscreenenter"",""1"",""1839""
","
","","","683.3999999985099","","","22","4380","1624","g","elianto","#f73b6a7A"," "," ","1","0","[1534.7999999970198]","1","2","","","4380","132","6","3","lose","go","0"
"pit-trial","251","1361451","0.0-137.0","battery-v0.2","","""event"",""trial"",""time""
""fullscreenenter"",""1"",""1839""
","
","
","""event"",""trial"",""time""
""fullscreenenter"",""1"",""1839""
","
","","","563.8999999985099","","","22","4380","1624","g","elianto","#f73b6a7A"," "," ","1","0","[1415.5]","1","2","","","4380","133","6","3","lose","go","0"
"pit-trial","252","1366327","0.0-138.0","battery-v0.2","","""event"",""trial"",""time""
""fullscreenenter"",""1"",""1839""
","
","
","""event"",""trial"",""time""
""fullscreenenter"",""1"",""1839""
","
","","","-1","","","22","4380","1624","a","elianto","#f73b6a7A","-1","-1","1","0","[]","0","2","","","4380","134","7","4","lose","no-go","0"
"pit-trial","253","1369771","0.0-139.0","battery-v0.2","","""event"",""trial"",""time""
""fullscreenenter"",""1"",""1839""
","
","
","""event"",""trial"",""time""
""fullscreenenter"",""1"",""1839""
","
","","","580.2999999970198","","","22","4380","1624","l","elianto","#3366ff99"," "," ","1","+10","[1432.2999999970198]","1","2","","","4380","135","8","1","win","go","0"
"pit-trial","254","1373289","0.0-140.0","battery-v0.2","","""event"",""trial"",""time""
""fullscreenenter"",""1"",""1839""
","
","
","""event"",""trial"",""time""
""fullscreenenter"",""1"",""1839""
","
","","","646","","","22","4380","1624","u","elianto","#3366ff99"," "," ","1","0","[1503]","1","2","","","4380","136","9","1","win","go","1"
"pit-trial","255","1376748","0.0-141.0","battery-v0.2","","""event"",""trial"",""time""
""fullscreenenter"",""1"",""1839""
","
","
","""event"",""trial"",""time""
""fullscreenenter"",""1"",""1839""
","
","","","592.6000000014901","","","22","4380","1624","g","elianto","#f73b6a7A"," "," ","1","0","[1447.6000000014901]","1","2","","","4380","137","6","3","lose","go","0"
"pit-trial","256","1380226","0.0-142.0","battery-v0.2","","""event"",""trial"",""time""
""fullscreenenter"",""1"",""1839""
","
","
","""event"",""trial"",""time""
""fullscreenenter"",""1"",""1839""
","
","","","601.9000000059605","","","22","4380","1624","u","elianto","#3366ff99"," "," ","1","0","[1459.8000000044703]","1","2","","","4380","138","9","1","win","go","1"
"pit-trial","257","1385111","0.0-143.0","battery-v0.2","","""event"",""trial"",""time""
""fullscreenenter"",""1"",""1839""
","
","
","""event"",""trial"",""time""
""fullscreenenter"",""1"",""1839""
","
","","","-1","","","22","4380","1624","a","elianto","#f73b6a7A","-1","-1","1","0","[]","0","2","","","4380","139","7","4","lose","no-go","0"
"pit-trial","258","1388835","0.0-144.0","battery-v0.2","","""event"",""trial"",""time""
""fullscreenenter"",""1"",""1839""
","
","
","""event"",""trial"",""time""
""fullscreenenter"",""1"",""1839""
","
","","","868.3000000044703","","","22","4380","1624","l","elianto","#3366ff99"," "," ","1","+10","[1718.6000000014901]","1","2","","","4380","140","8","1","win","go","0"
"pit-instructions","259","1570044","0.0-145.0","battery-v0.2","","""event"",""trial"",""time""
""fullscreenenter"",""1"",""1839""
","
","
","""event"",""trial"",""time""
""fullscreenenter"",""1"",""1839""
","
