"trial_type","trial_index","time_elapsed","internal_node_id","task_version","subject_id","interactions","blur_events","focus_events","fullscreenenter_events","fullscreenexit_events","success","view_history","rt","responses","num_errors","age","subject","participantId","rune","rune_set","hex","correct","choice","accuracy","outcome","keys","total_keys","block","practice","value","sub","trial","stimulus","robot","valence","action","sham"
"pavlovia","0","6","0.0-0.0","battery-v0.2","","""event"",""trial"",""time""
""fullscreenenter"",""1"",""1262""
","
","
","""event"",""trial"",""time""
""fullscreenenter"",""1"",""1262""
","
","","","","","","","","","","","","","","","","","","","","","","","","","","",""
"fullscreen","1","2250","0.0-1.0","battery-v0.2","","""event"",""trial"",""time""
""fullscreenenter"",""1"",""1262""
","
","
","""event"",""trial"",""time""
""fullscreenenter"",""1"",""1262""
","
","true","","","","","","","","","","","","","","","","","","","","","","","","","",""
"pit-instructions","2","5989","0.0-2.0-0.0","battery-v0.2","","""event"",""trial"",""time""
""fullscreenenter"",""1"",""1262""
","
","
","""event"",""trial"",""time""
""fullscreenenter"",""1"",""1262""
","
","","[{""page_index"":0,""viewing_time"":3737.5}]","3737.5999999940395","","","","","","","","","","","","","","","","","","","","","","","",""
"pit-comprehension","3","9447","0.0-2.0-1.0-0.0","battery-v0.2","","""event"",""trial"",""time""
""fullscreenenter"",""1"",""1262""
","
","
","""event"",""trial"",""time""
""fullscreenenter"",""1"",""1262""
","
","","","3456.199999988079","[""shark""]","0","25","9988","4329","","","","","","","","","","","","","","","","","","",""
"pit-instructions","4","10682","0.0-2.0-1.0-1.0","battery-v0.2","","""event"",""trial"",""time""
""fullscreenenter"",""1"",""1262""
","
","
","""event"",""trial"",""time""
""fullscreenenter"",""1"",""1262""
","
","","[{""page_index"":0,""viewing_time"":1228.9000000059605}]","1229.0999999940395","","","","","","","","","","","","","","","","","","","","","","","",""
"pit-comprehension","5","13584","0.0-2.0-2.0-0.0","battery-v0.2","","""event"",""trial"",""time""
""fullscreenenter"",""1"",""1262""
","
","
","""event"",""trial"",""time""
""fullscreenenter"",""1"",""1262""
","
","","","2900.5","[""tiger""]","0","25","9988","4329","","","","","","","","","","","","","","","","","","",""
"pit-instructions","6","17354","0.0-2.0-2.0-1.0","battery-v0.2","","""event"",""trial"",""time""
""fullscreenenter"",""1"",""1262""
""blur"",""7"",""21930""
""focus"",""7"",""24066""
","""event"",""trial"",""time""
""blur"",""7"",""21930""
","""event"",""trial"",""time""
""focus"",""7"",""24066""
","""event"",""trial"",""time""
""fullscreenenter"",""1"",""1262""
","
","","[{""page_index"":0,""viewing_time"":3768.399999976158}]","3768.5","","","","","","","","","","","","","","","","","","","","","","","",""
"pit-instructions","7","115308","0.0-2.0-3.0","battery-v0.2","","""event"",""trial"",""time""
""fullscreenenter"",""1"",""1262""
""blur"",""7"",""21930""
""focus"",""7"",""24066""
","""event"",""trial"",""time""
""blur"",""7"",""21930""
","""event"",""trial"",""time""
""focus"",""7"",""24066""
","""event"",""trial"",""time""
""fullscreenenter"",""1"",""1262""
","
","","[{""page_index"":0,""viewing_time"":10104.09999999404},{""page_index"":1,""viewing_time"":6115.5999999940395},{""page_index"":2,""viewing_time"":9035.700000017881},{""page_index"":3,""viewing_time"":5633.699999988079},{""page_index"":4,""viewing_time"":5377.9000000059605},{""page_index"":5,""viewing_time"":9635.59999999404},{""page_index"":6,""viewing_time"":5079.5999999940395},{""page_index"":7,""viewing_time"":6684.100000023842},{""page_index"":8,""viewing_time"":6403.5999999940395},{""page_index"":9,""viewing_time"":7877.9000000059605},{""page_index"":10,""viewing_time"":7121.0999999940395},{""page_index"":11,""viewing_time"":8364},{""page_index"":12,""viewing_time"":6465.9000000059605},{""page_index"":13,""viewing_time"":4053.399999976158}]","97952.40000000596","","","","","","","","","","","","","","","","","","","","","","","",""
"pit-trial","8","118783","0.0-2.0-4.0-0.0","battery-v0.2","","""event"",""trial"",""time""
""fullscreenenter"",""1"",""1262""
""blur"",""7"",""21930""
""focus"",""7"",""24066""
","""event"",""trial"",""time""
""blur"",""7"",""21930""
","""event"",""trial"",""time""
""focus"",""7"",""24066""
","""event"",""trial"",""time""
""fullscreenenter"",""1"",""1262""
","
","","","611.4000000059605","","","25","9988","4329","&#9784;","elianto","#FFFFF080"," "," ","1","&#10004","[1473.199999988079]","1","0","0","","","","","","","",""
"pit-trial","9","122217","0.0-2.0-4.1-0.1","battery-v0.2","","""event"",""trial"",""time""
""fullscreenenter"",""1"",""1262""
""blur"",""7"",""21930""
""focus"",""7"",""24066""
","""event"",""trial"",""time""
""blur"",""7"",""21930""
","""event"",""trial"",""time""
""focus"",""7"",""24066""
","""event"",""trial"",""time""
""fullscreenenter"",""1"",""1262""
","
","","","570.2000000178814","","","25","9988","4329","&#9784;","elianto","#FFFFF080"," "," ","1","&#10004","[1422.2999999821186]","1","0","0","","","","","","","",""
"pit-trial","10","125692","0.0-2.0-4.2-0.2","battery-v0.2","","""event"",""trial"",""time""
""fullscreenenter"",""1"",""1262""
""blur"",""7"",""21930""
""focus"",""7"",""24066""
","""event"",""trial"",""time""
""blur"",""7"",""21930""
","""event"",""trial"",""time""
""focus"",""7"",""24066""
","""event"",""trial"",""time""
""fullscreenenter"",""1"",""1262""
","
","","","601.9000000059605","","","25","9988","4329","&#9784;","elianto","#FFFFF080"," "," ","1","&#10004","[1460]","1","0","0","","","","","","","",""
"pit-trial","11","128969","0.0-2.0-4.3-0.3","battery-v0.2","","""event"",""trial"",""time""
""fullscreenenter"",""1"",""1262""
""blur"",""7"",""21930""
""focus"",""7"",""24066""
","""event"",""trial"",""time""
""blur"",""7"",""21930""
","""event"",""trial"",""time""
""focus"",""7"",""24066""
","""event"",""trial"",""time""
""fullscreenenter"",""1"",""1262""
","
","","","413.10000002384186","","","25","9988","4329","&#9784;","elianto","#FFFFF080"," "," ","1","&#10004","[1265.2000000178814]","1","0","0","","","","","","","",""
"pit-trial","12","132169","0.0-2.0-4.4-0.4","battery-v0.2","","""event"",""trial"",""time""
""fullscreenenter"",""1"",""1262""
""blur"",""7"",""21930""
""focus"",""7"",""24066""
","""event"",""trial"",""time""
""blur"",""7"",""21930""
","""event"",""trial"",""time""
""focus"",""7"",""24066""
","""event"",""trial"",""time""
""fullscreenenter"",""1"",""1262""
","
","","","341.69999998807907","","","25","9988","4329","&#9784;","elianto","#FFFFF080"," "," ","1","&#10004","[1196.0999999940395]","1","0","0","","","","","","","",""
"pit-instructions","13","163760","0.0-2.0-5.0","battery-v0.2","","""event"",""trial"",""time""
""fullscreenenter"",""1"",""1262""
""blur"",""7"",""21930""
""focus"",""7"",""24066""
","""event"",""trial"",""time""
""blur"",""7"",""21930""
","""event"",""trial"",""time""
""focus"",""7"",""24066""
","""event"",""trial"",""time""
""fullscreenenter"",""1"",""1262""
","
","","[{""page_index"":0,""viewing_time"":5002.600000023842},{""page_index"":1,""viewing_time"":5982.5},{""page_index"":2,""viewing_time"":11646.699999988079},{""page_index"":3,""viewing_time"":8957.90000000596}]","31589.70000001788","","","","","","","","","","","","","","","","","","","","","","","",""
"pit-trial","14","168621","0.0-2.0-6.0-0.0","battery-v0.2","","""event"",""trial"",""time""
""fullscreenenter"",""1"",""1262""
""blur"",""7"",""21930""
""focus"",""7"",""24066""
","""event"",""trial"",""time""
""blur"",""7"",""21930""
","""event"",""trial"",""time""
""focus"",""7"",""24066""
","""event"",""trial"",""time""
""fullscreenenter"",""1"",""1262""
","
","","","-1","","","25","9988","4329","&#9854;","elianto","#FFFFF080","-1","-1","1","&#10004","[]","0","0","1","","","","","","","",""
"pit-trial","15","173490","0.0-2.0-6.1-0.1","battery-v0.2","","""event"",""trial"",""time""
""fullscreenenter"",""1"",""1262""
""blur"",""7"",""21930""
""focus"",""7"",""24066""
","""event"",""trial"",""time""
""blur"",""7"",""21930""
","""event"",""trial"",""time""
""focus"",""7"",""24066""
","""event"",""trial"",""time""
""fullscreenenter"",""1"",""1262""
","
","","","-1","","","25","9988","4329","&#9854;","elianto","#FFFFF080","-1","-1","1","&#10004","[]","0","0","1","","","","","","","",""
"pit-trial","16","178347","0.0-2.0-6.2-0.2","battery-v0.2","","""event"",""trial"",""time""
""fullscreenenter"",""1"",""1262""
""blur"",""7"",""21930""
""focus"",""7"",""24066""
","""event"",""trial"",""time""
""blur"",""7"",""21930""
","""event"",""trial"",""time""
""focus"",""7"",""24066""
","""event"",""trial"",""time""
""fullscreenenter"",""1"",""1262""
","
","","","-1","","","25","9988","4329","&#9854;","elianto","#FFFFF080","-1","-1","1","&#10004","[]","0","0","1","","","","","","","",""
"pit-trial","17","183217","0.0-2.0-6.3-0.3","battery-v0.2","","""event"",""trial"",""time""
""fullscreenenter"",""1"",""1262""
""blur"",""7"",""21930""
""focus"",""7"",""24066""
","""event"",""trial"",""time""
""blur"",""7"",""21930""
","""event"",""trial"",""time""
""focus"",""7"",""24066""
","""event"",""trial"",""time""
""fullscreenenter"",""1"",""1262""
","
","","","-1","","","25","9988","4329","&#9854;","elianto","#FFFFF080","-1","-1","1","&#10004","[]","0","0","1","","","","","","","",""
"pit-trial","18","188094","0.0-2.0-6.4-0.4","battery-v0.2","","""event"",""trial"",""time""
""fullscreenenter"",""1"",""1262""
""blur"",""7"",""21930""
""focus"",""7"",""24066""
","""event"",""trial"",""time""
""blur"",""7"",""21930""
","""event"",""trial"",""time""
""focus"",""7"",""24066""
","""event"",""trial"",""time""
""fullscreenenter"",""1"",""1262""
","
","","","-1","","","25","9988","4329","&#9854;","elianto","#FFFFF080","-1","-1","1","&#10004","[]","0","0","1","","","","","","","",""
"pit-instructions","19","303898","0.0-2.0-7.0","battery-v0.2","","""event"",""trial"",""time""
""fullscreenenter"",""1"",""1262""
""blur"",""7"",""21930""
""focus"",""7"",""24066""
","""event"",""trial"",""time""
""blur"",""7"",""21930""
","""event"",""trial"",""time""
""focus"",""7"",""24066""
","""event"",""trial"",""time""
""fullscreenenter"",""1"",""1262""
","
","","[{""page_index"":0,""viewing_time"":6253.299999982119},{""page_index"":1,""viewing_time"":7643.700000017881},{""page_index"":2,""viewing_time"":8833.5},{""page_index"":3,""viewing_time"":6305.5999999940395},{""page_index"":4,""viewing_time"":5315.5999999940395},{""page_index"":5,""viewing_time"":5030.0999999940395},{""page_index"":6,""viewing_time"":4435.4000000059605},{""page_index"":7,""viewing_time"":7830},{""page_index"":8,""viewing_time"":6857.5},{""page_index"":9,""viewing_time"":5560},{""page_index"":10,""viewing_time"":6055.5999999940395},{""page_index"":11,""viewing_time"":4507.800000011921},{""page_index"":12,""viewing_time"":7115.800000011921},{""page_index"":13,""viewing_time"":7321.799999982119},{""page_index"":14,""viewing_time"":6237.700000017881},{""page_index"":15,""viewing_time"":6399.699999988079},{""page_index"":16,""viewing_time"":6799.4000000059605},{""page_index"":17,""viewing_time"":7299.9000000059605}]","115802.59999999404","","","","","","","","","","","","","","","","","","","","","","","",""
"pit-trial","20","307415","0.0-2.0-8.0-0.0","battery-v0.2","","""event"",""trial"",""time""
""fullscreenenter"",""1"",""1262""
""blur"",""7"",""21930""
""focus"",""7"",""24066""
","""event"",""trial"",""time""
""blur"",""7"",""21930""
","""event"",""trial"",""time""
""focus"",""7"",""24066""
","""event"",""trial"",""time""
""fullscreenenter"",""1"",""1262""
","
","","","653","","","25","9988","4329","&#9776;","elianto","#3366ff99"," "," ","1","+10","[1507.2000000178814]","1","0","1","","","","","","","",""
"pit-trial","21","311167","0.0-2.0-8.0-1.0","battery-v0.2","","""event"",""trial"",""time""
""fullscreenenter"",""1"",""1262""
""blur"",""7"",""21930""
""focus"",""7"",""24066""
","""event"",""trial"",""time""
""blur"",""7"",""21930""
","""event"",""trial"",""time""
""focus"",""7"",""24066""
","""event"",""trial"",""time""
""fullscreenenter"",""1"",""1262""
","
","","","900.0999999940395","","","25","9988","4329","&#9776;","elianto","#3366ff99"," "," ","1","+10","[1750.8999999761581]","1","0","1","","","","","","","",""
"pit-trial","22","314813","0.0-2.0-8.0-2.0","battery-v0.2","","""event"",""trial"",""time""
""fullscreenenter"",""1"",""1262""
""blur"",""7"",""21930""
""focus"",""7"",""24066""
","""event"",""trial"",""time""
""blur"",""7"",""21930""
","""event"",""trial"",""time""
""focus"",""7"",""24066""
","""event"",""trial"",""time""
""fullscreenenter"",""1"",""1262""
","
","","","786","","","25","9988","4329","&#9776;","elianto","#3366ff99"," "," ","1","+10","[1638]","1","0","1","","","","","","","",""
"pit-trial","23","318250","0.0-2.0-8.0-3.0","battery-v0.2","","""event"",""trial"",""time""
""fullscreenenter"",""1"",""1262""
""blur"",""7"",""21930""
""focus"",""7"",""24066""
","""event"",""trial"",""time""
""blur"",""7"",""21930""
","""event"",""trial"",""time""
""focus"",""7"",""24066""
","""event"",""trial"",""time""
""fullscreenenter"",""1"",""1262""
","
","","","578.6000000238419","","","25","9988","4329","&#9776;","elianto","#3366ff99"," "," ","1","0","[1432.3999999761581]","1","0","1","","","","","","","",""
"pit-trial","24","321571","0.0-2.0-8.0-4.0","battery-v0.2","","""event"",""trial"",""time""
""fullscreenenter"",""1"",""1262""
""blur"",""7"",""21930""
""focus"",""7"",""24066""
","""event"",""trial"",""time""
""blur"",""7"",""21930""
","""event"",""trial"",""time""
""focus"",""7"",""24066""
","""event"",""trial"",""time""
""fullscreenenter"",""1"",""1262""
","
","","","454","","","25","9988","4329","&#9776;","elianto","#3366ff99"," "," ","1","+10","[1307.699999988079]","1","0","1","","","","","","","",""
"pit-trial","25","325264","0.0-2.0-8.1-0.1","battery-v0.2","","""event"",""trial"",""time""
""fullscreenenter"",""1"",""1262""
""blur"",""7"",""21930""
""focus"",""7"",""24066""
","""event"",""trial"",""time""
""blur"",""7"",""21930""
","""event"",""trial"",""time""
""focus"",""7"",""24066""
","""event"",""trial"",""time""
""fullscreenenter"",""1"",""1262""
","
","","","840.2000000178814","","","25","9988","4329","&#9776;","elianto","#3366ff99"," "," ","1","+10","[1690.2000000178814]","1","0","1","","","","","","","",""
"pit-trial","26","330130","0.0-2.0-8.1-1.1","battery-v0.2","","""event"",""trial"",""time""
""fullscreenenter"",""1"",""1262""
""blur"",""7"",""21930""
""focus"",""7"",""24066""
","""event"",""trial"",""time""
""blur"",""7"",""21930""
","""event"",""trial"",""time""
""focus"",""7"",""24066""
","""event"",""trial"",""time""
""fullscreenenter"",""1"",""1262""
","
","","","-1","","","25","9988","4329","&#9776;","elianto","#3366ff99"," ","-1","0","0","[277,3092.9000000059605]","2","0","1","","","","","","","",""
"pit-trial","27","333919","0.0-2.0-8.1-2.1","battery-v0.2","","""event"",""trial"",""time""
""fullscreenenter"",""1"",""1262""
""blur"",""7"",""21930""
""focus"",""7"",""24066""
","""event"",""trial"",""time""
""blur"",""7"",""21930""
","""event"",""trial"",""time""
""focus"",""7"",""24066""
","""event"",""trial"",""time""
""fullscreenenter"",""1"",""1262""
","
","","","936.0999999940395","","","25","9988","4329","&#9776;","elianto","#3366ff99"," "," ","1","+10","[1787,3258.5]","2","0","1","","","","","","","",""
"pit-trial","28","337501","0.0-2.0-8.1-3.1","battery-v0.2","","""event"",""trial"",""time""
""fullscreenenter"",""1"",""1262""
""blur"",""7"",""21930""
""focus"",""7"",""24066""
","""event"",""trial"",""time""
""blur"",""7"",""21930""
","""event"",""trial"",""time""
""focus"",""7"",""24066""
","""event"",""trial"",""time""
""fullscreenenter"",""1"",""1262""
","
","","","730.7000000178814","","","25","9988","4329","&#9776;","elianto","#3366ff99"," "," ","1","0","[1581.4000000059605]","1","0","1","","","","","","","",""
"pit-trial","29","340990","0.0-2.0-8.1-4.1","battery-v0.2","","""event"",""trial"",""time""
""fullscreenenter"",""1"",""1262""
""blur"",""7"",""21930""
""focus"",""7"",""24066""
","""event"",""trial"",""time""
""blur"",""7"",""21930""
","""event"",""trial"",""time""
""focus"",""7"",""24066""
","""event"",""trial"",""time""
""fullscreenenter"",""1"",""1262""
","
","","","636.5","","","25","9988","4329","&#9776;","elianto","#3366ff99"," "," ","1","+10","[1486.699999988079]","1","0","1","","","","","","","",""
"pit-trial","30","344390","0.0-2.0-8.2-0.2","battery-v0.2","","""event"",""trial"",""time""
""fullscreenenter"",""1"",""1262""
""blur"",""7"",""21930""
""focus"",""7"",""24066""
","""event"",""trial"",""time""
""blur"",""7"",""21930""
","""event"",""trial"",""time""
""focus"",""7"",""24066""
","""event"",""trial"",""time""
""fullscreenenter"",""1"",""1262""
","
","","","547","","","25","9988","4329","&#9776;","elianto","#3366ff99"," "," ","1","+10","[1397.7000000178814]","1","0","1","","","","","","","",""
"pit-trial","31","347638","0.0-2.0-8.2-1.2","battery-v0.2","","""event"",""trial"",""time""
""fullscreenenter"",""1"",""1262""
""blur"",""7"",""21930""
""focus"",""7"",""24066""
","""event"",""trial"",""time""
""blur"",""7"",""21930""
","""event"",""trial"",""time""
""focus"",""7"",""24066""
","""event"",""trial"",""time""
""fullscreenenter"",""1"",""1262""
","
","","","395.2000000178814","","","25","9988","4329","&#9776;","elianto","#3366ff99"," "," ","1","+10","[1246.4000000059605]","1","0","1","","","","","","","",""
"pit-trial","32","352491","0.0-2.0-8.2-2.2","battery-v0.2","","""event"",""trial"",""time""
""fullscreenenter"",""1"",""1262""
""blur"",""7"",""21930""
""focus"",""7"",""24066""
","""event"",""trial"",""time""
""blur"",""7"",""21930""
","""event"",""trial"",""time""
""focus"",""7"",""24066""
","""event"",""trial"",""time""
""fullscreenenter"",""1"",""1262""
","
","","","-1","","","25","9988","4329","&#9776;","elianto","#3366ff99"," ","-1","0","0","[]","0","0","1","","","","","","","",""
"pit-trial","33","355686","0.0-2.0-8.2-3.2","battery-v0.2","","""event"",""trial"",""time""
""fullscreenenter"",""1"",""1262""
""blur"",""7"",""21930""
""focus"",""7"",""24066""
","""event"",""trial"",""time""
""blur"",""7"",""21930""
","""event"",""trial"",""time""
""focus"",""7"",""24066""
","""event"",""trial"",""time""
""fullscreenenter"",""1"",""1262""
","
","","","342.90000000596046","","","25","9988","4329","&#9776;","elianto","#3366ff99"," "," ","1","0","[1192.7999999821186,2296.699999988079,2336.5999999940395,3000.5]","4","0","1","","","","","","","",""
"pit-trial","34","358885","0.0-2.0-8.2-4.2","battery-v0.2","","""event"",""trial"",""time""
""fullscreenenter"",""1"",""1262""
""blur"",""7"",""21930""
""focus"",""7"",""24066""
","""event"",""trial"",""time""
""blur"",""7"",""21930""
","""event"",""trial"",""time""
""focus"",""7"",""24066""
","""event"",""trial"",""time""
""fullscreenenter"",""1"",""1262""
","
","","","347.09999999403954","","","25","9988","4329","&#9776;","elianto","#3366ff99"," "," ","1","+10","[30.899999976158142,222.19999998807907,406.19999998807907,590.0999999940395,1198.2999999821186]","5","0","1","","","","","","","",""
"call-function","35","358886","0.0-2.0-9.0","battery-v0.2","","""event"",""trial"",""time""
""fullscreenenter"",""1"",""1262""
""blur"",""7"",""21930""
""focus"",""7"",""24066""
","""event"",""trial"",""time""
""blur"",""7"",""21930""
","""event"",""trial"",""time""
""focus"",""7"",""24066""
","""event"",""trial"",""time""
""fullscreenenter"",""1"",""1262""
","
","","","","","","","","","","","","","","","","","","","","","","","","","","",""
"pit-instructions","36","401347","0.0-2.0-10.0","battery-v0.2","","""event"",""trial"",""time""
""fullscreenenter"",""1"",""1262""
""blur"",""7"",""21930""
""focus"",""7"",""24066""
","""event"",""trial"",""time""
""blur"",""7"",""21930""
","""event"",""trial"",""time""
""focus"",""7"",""24066""
","""event"",""trial"",""time""
""fullscreenenter"",""1"",""1262""
","
","","[{""page_index"":0,""viewing_time"":8171.5},{""page_index"":1,""viewing_time"":6791.4000000059605},{""page_index"":2,""viewing_time"":9869.40000000596},{""page_index"":3,""viewing_time"":8051.799999982119},{""page_index"":4,""viewing_time"":9576}]","42460.19999998808","","","","","","","","","","","","","","","","","","","","","","","",""
"pit-trial","37","404783","0.0-2.0-11.0-0.0","battery-v0.2","","""event"",""trial"",""time""
""fullscreenenter"",""1"",""1262""
""blur"",""7"",""21930""
""focus"",""7"",""24066""
","""event"",""trial"",""time""
""blur"",""7"",""21930""
","""event"",""trial"",""time""
""focus"",""7"",""24066""
","""event"",""trial"",""time""
""fullscreenenter"",""1"",""1262""
","
","","","576.3999999761581","","","25","9988","4329","&#9761;","elianto","#3366ff99","-1"," ","0","0","[1431.199999988079]","1","0","2","","","","","","","",""
"pit-trial","38","409637","0.0-2.0-11.0-1.0","battery-v0.2","","""event"",""trial"",""time""
""fullscreenenter"",""1"",""1262""
""blur"",""7"",""21930""
""focus"",""7"",""24066""
","""event"",""trial"",""time""
""blur"",""7"",""21930""
","""event"",""trial"",""time""
""focus"",""7"",""24066""
","""event"",""trial"",""time""
""fullscreenenter"",""1"",""1262""
","
","","","-1","","","25","9988","4329","&#9761;","elianto","#3366ff99","-1","-1","1","+10","[]","0","0","2","","","","","","","",""
"pit-trial","39","414505","0.0-2.0-11.0-2.0","battery-v0.2","","""event"",""trial"",""time""
""fullscreenenter"",""1"",""1262""
""blur"",""7"",""21930""
""focus"",""7"",""24066""
","""event"",""trial"",""time""
""blur"",""7"",""21930""
","""event"",""trial"",""time""
""focus"",""7"",""24066""
","""event"",""trial"",""time""
""fullscreenenter"",""1"",""1262""
","
","","","-1","","","25","9988","4329","&#9761;","elianto","#3366ff99","-1","-1","1","+10","[]","0","0","2","","","","","","","",""
"pit-trial","40","419374","0.0-2.0-11.0-3.0","battery-v0.2","","""event"",""trial"",""time""
""fullscreenenter"",""1"",""1262""
""blur"",""7"",""21930""
""focus"",""7"",""24066""
","""event"",""trial"",""time""
""blur"",""7"",""21930""
","""event"",""trial"",""time""
""focus"",""7"",""24066""
","""event"",""trial"",""time""
""fullscreenenter"",""1"",""1262""
","
","","","-1","","","25","9988","4329","&#9761;","elianto","#3366ff99","-1","-1","1","0","[]","0","0","2","","","","","","","",""
"pit-trial","41","424242","0.0-2.0-11.0-4.0","battery-v0.2","","""event"",""trial"",""time""
""fullscreenenter"",""1"",""1262""
""blur"",""7"",""21930""
""focus"",""7"",""24066""
","""event"",""trial"",""time""
""blur"",""7"",""21930""
","""event"",""trial"",""time""
""focus"",""7"",""24066""
","""event"",""trial"",""time""
""fullscreenenter"",""1"",""1262""
","
","","","-1","","","25","9988","4329","&#9761;","elianto","#3366ff99","-1","-1","1","+10","[]","0","0","2","","","","","","","",""
"pit-trial","42","429106","0.0-2.0-11.1-0.1","battery-v0.2","","""event"",""trial"",""time""
""fullscreenenter"",""1"",""1262""
""blur"",""7"",""21930""
""focus"",""7"",""24066""
","""event"",""trial"",""time""
""blur"",""7"",""21930""
","""event"",""trial"",""time""
""focus"",""7"",""24066""
","""event"",""trial"",""time""
""fullscreenenter"",""1"",""1262""
","
","","","-1","","","25","9988","4329","&#9761;","elianto","#3366ff99","-1","-1","1","+10","[]","0","0","2","","","","","","","",""
"pit-trial","43","433959","0.0-2.0-11.1-1.1","battery-v0.2","","""event"",""trial"",""time""
""fullscreenenter"",""1"",""1262""
""blur"",""7"",""21930""
""focus"",""7"",""24066""
","""event"",""trial"",""time""
""blur"",""7"",""21930""
","""event"",""trial"",""time""
""focus"",""7"",""24066""
","""event"",""trial"",""time""
""fullscreenenter"",""1"",""1262""
","
","","","-1","","","25","9988","4329","&#9761;","elianto","#3366ff99","-1","-1","1","+10","[]","0","0","2","","","","","","","",""
"pit-trial","44","438811","0.0-2.0-11.1-2.1","battery-v0.2","","""event"",""trial"",""time""
""fullscreenenter"",""1"",""1262""
""blur"",""7"",""21930""
""focus"",""7"",""24066""
","""event"",""trial"",""time""
""blur"",""7"",""21930""
","""event"",""trial"",""time""
""focus"",""7"",""24066""
","""event"",""trial"",""time""
""fullscreenenter"",""1"",""1262""
","
","","","-1","","","25","9988","4329","&#9761;","elianto","#3366ff99","-1","-1","1","+10","[]","0","0","2","","","","","","","",""
"pit-trial","45","443663","0.0-2.0-11.1-3.1","battery-v0.2","","""event"",""trial"",""time""
""fullscreenenter"",""1"",""1262""
""blur"",""7"",""21930""
""focus"",""7"",""24066""
","""event"",""trial"",""time""
""blur"",""7"",""21930""
","""event"",""trial"",""time""
""focus"",""7"",""24066""
","""event"",""trial"",""time""
""fullscreenenter"",""1"",""1262""
","
","","","-1","","","25","9988","4329","&#9761;","elianto","#3366ff99","-1","-1","1","0","[]","0","0","2","","","","","","","",""
"pit-trial","46","448521","0.0-2.0-11.1-4.1","battery-v0.2","","""event"",""trial"",""time""
""fullscreenenter"",""1"",""1262""
""blur"",""7"",""21930""
""focus"",""7"",""24066""
","""event"",""trial"",""time""
""blur"",""7"",""21930""
","""event"",""trial"",""time""
""focus"",""7"",""24066""
","""event"",""trial"",""time""
""fullscreenenter"",""1"",""1262""
","
","","","-1","","","25","9988","4329","&#9761;","elianto","#3366ff99","-1","-1","1","+10","[]","0","0","2","","","","","","","",""
"pit-trial","47","453376","0.0-2.0-11.2-0.2","battery-v0.2","","""event"",""trial"",""time""
""fullscreenenter"",""1"",""1262""
""blur"",""7"",""21930""
""focus"",""7"",""24066""
","""event"",""trial"",""time""
""blur"",""7"",""21930""
","""event"",""trial"",""time""
""focus"",""7"",""24066""
","""event"",""trial"",""time""
""fullscreenenter"",""1"",""1262""
","
","","","-1","","","25","9988","4329","&#9761;","elianto","#3366ff99","-1","-1","1","+10","[]","0","0","2","","","","","","","",""
"pit-trial","48","458228","0.0-2.0-11.2-1.2","battery-v0.2","","""event"",""trial"",""time""
""fullscreenenter"",""1"",""1262""
""blur"",""7"",""21930""
""focus"",""7"",""24066""
","""event"",""trial"",""time""
""blur"",""7"",""21930""
","""event"",""trial"",""time""
""focus"",""7"",""24066""
","""event"",""trial"",""time""
""fullscreenenter"",""1"",""1262""
","
","","","-1","","","25","9988","4329","&#9761;","elianto","#3366ff99","-1","-1","1","+10","[]","0","0","2","","","","","","","",""
"pit-trial","49","463081","0.0-2.0-11.2-2.2","battery-v0.2","","""event"",""trial"",""time""
""fullscreenenter"",""1"",""1262""
""blur"",""7"",""21930""
""focus"",""7"",""24066""
","""event"",""trial"",""time""
""blur"",""7"",""21930""
","""event"",""trial"",""time""
""focus"",""7"",""24066""
","""event"",""trial"",""time""
""fullscreenenter"",""1"",""1262""
","
","","","-1","","","25","9988","4329","&#9761;","elianto","#3366ff99","-1","-1","1","+10","[]","0","0","2","","","","","","","",""
"pit-trial","50","467932","0.0-2.0-11.2-3.2","battery-v0.2","","""event"",""trial"",""time""
""fullscreenenter"",""1"",""1262""
""blur"",""7"",""21930""
""focus"",""7"",""24066""
","""event"",""trial"",""time""
""blur"",""7"",""21930""
","""event"",""trial"",""time""
""focus"",""7"",""24066""
","""event"",""trial"",""time""
""fullscreenenter"",""1"",""1262""
","
","","","-1","","","25","9988","4329","&#9761;","elianto","#3366ff99","-1","-1","1","0","[]","0","0","2","","","","","","","",""
"pit-trial","51","472784","0.0-2.0-11.2-4.2","battery-v0.2","","""event"",""trial"",""time""
""fullscreenenter"",""1"",""1262""
""blur"",""7"",""21930""
""focus"",""7"",""24066""
","""event"",""trial"",""time""
""blur"",""7"",""21930""
","""event"",""trial"",""time""
""focus"",""7"",""24066""
","""event"",""trial"",""time""
""fullscreenenter"",""1"",""1262""
","
","","","-1","","","25","9988","4329","&#9761;","elianto","#3366ff99","-1","-1","1","+10","[]","0","0","2","","","","","","","",""
"pit-trial","52","477643","0.0-2.0-11.3-0.3","battery-v0.2","","""event"",""trial"",""time""
""fullscreenenter"",""1"",""1262""
""blur"",""7"",""21930""
""focus"",""7"",""24066""
","""event"",""trial"",""time""
""blur"",""7"",""21930""
","""event"",""trial"",""time""
""focus"",""7"",""24066""
","""event"",""trial"",""time""
""fullscreenenter"",""1"",""1262""
","
","","","-1","","","25","9988","4329","&#9761;","elianto","#3366ff99","-1","-1","1","+10","[]","0","0","2","","","","","","","",""
"pit-trial","53","482495","0.0-2.0-11.3-1.3","battery-v0.2","","""event"",""trial"",""time""
""fullscreenenter"",""1"",""1262""
""blur"",""7"",""21930""
""focus"",""7"",""24066""
","""event"",""trial"",""time""
""blur"",""7"",""21930""
","""event"",""trial"",""time""
""focus"",""7"",""24066""
","""event"",""trial"",""time""
""fullscreenenter"",""1"",""1262""
","
","","","-1","","","25","9988","4329","&#9761;","elianto","#3366ff99","-1","-1","1","+10","[]","0","0","2","","","","","","","",""
"pit-trial","54","487348","0.0-2.0-11.3-2.3","battery-v0.2","","""event"",""trial"",""time""
""fullscreenenter"",""1"",""1262""
""blur"",""7"",""21930""
""focus"",""7"",""24066""
","""event"",""trial"",""time""
""blur"",""7"",""21930""
","""event"",""trial"",""time""
""focus"",""7"",""24066""
","""event"",""trial"",""time""
""fullscreenenter"",""1"",""1262""
","
","","","-1","","","25","9988","4329","&#9761;","elianto","#3366ff99","-1","-1","1","+10","[]","0","0","2","","","","","","","",""
"pit-trial","55","492200","0.0-2.0-11.3-3.3","battery-v0.2","","""event"",""trial"",""time""
""fullscreenenter"",""1"",""1262""
""blur"",""7"",""21930""
""focus"",""7"",""24066""
","""event"",""trial"",""time""
""blur"",""7"",""21930""
","""event"",""trial"",""time""
""focus"",""7"",""24066""
","""event"",""trial"",""time""
""fullscreenenter"",""1"",""1262""
","
","","","-1","","","25","9988","4329","&#9761;","elianto","#3366ff99","-1","-1","1","0","[]","0","0","2","","","","","","","",""
"pit-trial","56","497053","0.0-2.0-11.3-4.3","battery-v0.2","","""event"",""trial"",""time""
""fullscreenenter"",""1"",""1262""
""blur"",""7"",""21930""
""focus"",""7"",""24066""
","""event"",""trial"",""time""
""blur"",""7"",""21930""
","""event"",""trial"",""time""
""focus"",""7"",""24066""
","""event"",""trial"",""time""
""fullscreenenter"",""1"",""1262""
","
","","","-1","","","25","9988","4329","&#9761;","elianto","#3366ff99","-1","-1","1","+10","[]","0","0","2","","","","","","","",""
"call-function","57","497054","0.0-2.0-12.0","battery-v0.2","","""event"",""trial"",""time""
""fullscreenenter"",""1"",""1262""
""blur"",""7"",""21930""
""focus"",""7"",""24066""
","""event"",""trial"",""time""
""blur"",""7"",""21930""
","""event"",""trial"",""time""
""focus"",""7"",""24066""
","""event"",""trial"",""time""
""fullscreenenter"",""1"",""1262""
","
","","","","","","","","","","","","","","","","","","","","","","","","","","",""
"pit-instructions","58","539005","0.0-2.0-13.0","battery-v0.2","","""event"",""trial"",""time""
""fullscreenenter"",""1"",""1262""
""blur"",""7"",""21930""
""focus"",""7"",""24066""
","""event"",""trial"",""time""
""blur"",""7"",""21930""
","""event"",""trial"",""time""
""focus"",""7"",""24066""
","""event"",""trial"",""time""
""fullscreenenter"",""1"",""1262""
","
","","[{""page_index"":0,""viewing_time"":11198.800000011921},{""page_index"":1,""viewing_time"":7777.5999999940395},{""page_index"":2,""viewing_time"":6671.4000000059605},{""page_index"":3,""viewing_time"":11176},{""page_index"":4,""viewing_time"":5125.5}]","41949.5","","","","","","","","","","","","","","","","","","","","","","","",""
"pit-trial","59","542321","0.0-2.0-14.0-0.0","battery-v0.2","","""event"",""trial"",""time""
""fullscreenenter"",""1"",""1262""
""blur"",""7"",""21930""
""focus"",""7"",""24066""
","""event"",""trial"",""time""
""blur"",""7"",""21930""
","""event"",""trial"",""time""
""focus"",""7"",""24066""
","""event"",""trial"",""time""
""fullscreenenter"",""1"",""1262""
","
","","","453.2000000178814","","","25","9988","4329","&#9826;","elianto","#f73b6a7A","-1"," ","0","-10","[1303.5]","1","0","3","","","","","","","",""
"pit-trial","60","547178","0.0-2.0-14.0-1.0","battery-v0.2","","""event"",""trial"",""time""
""fullscreenenter"",""1"",""1262""
""blur"",""7"",""21930""
""focus"",""7"",""24066""
""blur"",""61"",""549089""
","""event"",""trial"",""time""
""blur"",""7"",""21930""
""blur"",""61"",""549089""
","""event"",""trial"",""time""
""focus"",""7"",""24066""
","""event"",""trial"",""time""
""fullscreenenter"",""1"",""1262""
","
","","","-1","","","25","9988","4329","&#9826;","elianto","#f73b6a7A","-1","-1","1","0","[]","0","0","3","","","","","","","",""
"pit-trial","61","552052","0.0-2.0-14.0-2.0","battery-v0.2","","""event"",""trial"",""time""
""fullscreenenter"",""1"",""1262""
""blur"",""7"",""21930""
""focus"",""7"",""24066""
""blur"",""61"",""549089""
","""event"",""trial"",""time""
""blur"",""7"",""21930""
""blur"",""61"",""549089""
","""event"",""trial"",""time""
""focus"",""7"",""24066""
","""event"",""trial"",""time""
""fullscreenenter"",""1"",""1262""
","
","","","-1","","","25","9988","4329","&#9826;","elianto","#f73b6a7A","-1","-1","1","0","[]","0","0","3","","","","","","","",""
"pit-trial","62","556922","0.0-2.0-14.0-3.0","battery-v0.2","","""event"",""trial"",""time""
""fullscreenenter"",""1"",""1262""
""blur"",""7"",""21930""
""focus"",""7"",""24066""
""blur"",""61"",""549089""
","""event"",""trial"",""time""
""blur"",""7"",""21930""
""blur"",""61"",""549089""
","""event"",""trial"",""time""
""focus"",""7"",""24066""
","""event"",""trial"",""time""
""fullscreenenter"",""1"",""1262""
","
","","","-1","","","25","9988","4329","&#9826;","elianto","#f73b6a7A","-1","-1","1","-10","[]","0","0","3","","","","","","","",""
"pit-trial","63","561778","0.0-2.0-14.0-4.0","battery-v0.2","","""event"",""trial"",""time""
""fullscreenenter"",""1"",""1262""
""blur"",""7"",""21930""
""focus"",""7"",""24066""
""blur"",""61"",""549089""
","""event"",""trial"",""time""
""blur"",""7"",""21930""
""blur"",""61"",""549089""
","""event"",""trial"",""time""
""focus"",""7"",""24066""
","""event"",""trial"",""time""
""fullscreenenter"",""1"",""1262""
","
","","","-1","","","25","9988","4329","&#9826;","elianto","#f73b6a7A","-1","-1","1","0","[]","0","0","3","","","","","","","",""
"pit-trial","64","566652","0.0-2.0-14.1-0.1","battery-v0.2","","""event"",""trial"",""time""
""fullscreenenter"",""1"",""1262""
""blur"",""7"",""21930""
""focus"",""7"",""24066""
""blur"",""61"",""549089""
","""event"",""trial"",""time""
""blur"",""7"",""21930""
""blur"",""61"",""549089""
","""event"",""trial"",""time""
""focus"",""7"",""24066""
","""event"",""trial"",""time""
""fullscreenenter"",""1"",""1262""
","
","","","-1","","","25","9988","4329","&#9826;","elianto","#f73b6a7A","-1","-1","1","0","[]","0","0","3","","","","","","","",""
"pit-trial","65","571504","0.0-2.0-14.1-1.1","battery-v0.2","","""event"",""trial"",""time""
""fullscreenenter"",""1"",""1262""
""blur"",""7"",""21930""
""focus"",""7"",""24066""
""blur"",""61"",""549089""
","""event"",""trial"",""time""
""blur"",""7"",""21930""
""blur"",""61"",""549089""
","""event"",""trial"",""time""
""focus"",""7"",""24066""
","""event"",""trial"",""time""
""fullscreenenter"",""1"",""1262""
","
","","","-1","","","25","9988","4329","&#9826;","elianto","#f73b6a7A","-1","-1","1","0","[]","0","0","3","","","","","","","",""
"pit-trial","66","576357","0.0-2.0-14.1-2.1","battery-v0.2","","""event"",""trial"",""time""
""fullscreenenter"",""1"",""1262""
""blur"",""7"",""21930""
""focus"",""7"",""24066""
""blur"",""61"",""549089""
","""event"",""trial"",""time""
""blur"",""7"",""21930""
""blur"",""61"",""549089""
","""event"",""trial"",""time""
""focus"",""7"",""24066""
","""event"",""trial"",""time""
""fullscreenenter"",""1"",""1262""
","
","","","-1","","","25","9988","4329","&#9826;","elianto","#f73b6a7A","-1","-1","1","0","[]","0","0","3","","","","","","","",""
"pit-trial","67","581209","0.0-2.0-14.1-3.1","battery-v0.2","","""event"",""trial"",""time""
""fullscreenenter"",""1"",""1262""
""blur"",""7"",""21930""
""focus"",""7"",""24066""
""blur"",""61"",""549089""
","""event"",""trial"",""time""
""blur"",""7"",""21930""
""blur"",""61"",""549089""
","""event"",""trial"",""time""
""focus"",""7"",""24066""
","""event"",""trial"",""time""
""fullscreenenter"",""1"",""1262""
","
","","","-1","","","25","9988","4329","&#9826;","elianto","#f73b6a7A","-1","-1","1","-10","[]","0","0","3","","","","","","","",""
"pit-trial","68","586070","0.0-2.0-14.1-4.1","battery-v0.2","","""event"",""trial"",""time""
""fullscreenenter"",""1"",""1262""
""blur"",""7"",""21930""
""focus"",""7"",""24066""
""blur"",""61"",""549089""
","""event"",""trial"",""time""
""blur"",""7"",""21930""
""blur"",""61"",""549089""
","""event"",""trial"",""time""
""focus"",""7"",""24066""
","""event"",""trial"",""time""
""fullscreenenter"",""1"",""1262""
","
","","","-1","","","25","9988","4329","&#9826;","elianto","#f73b6a7A","-1","-1","1","0","[]","0","0","3","","","","","","","",""
"pit-trial","69","590923","0.0-2.0-14.2-0.2","battery-v0.2","","""event"",""trial"",""time""
""fullscreenenter"",""1"",""1262""
""blur"",""7"",""21930""
""focus"",""7"",""24066""
""blur"",""61"",""549089""
","""event"",""trial"",""time""
""blur"",""7"",""21930""
""blur"",""61"",""549089""
","""event"",""trial"",""time""
""focus"",""7"",""24066""
","""event"",""trial"",""time""
""fullscreenenter"",""1"",""1262""
","
","","","-1","","","25","9988","4329","&#9826;","elianto","#f73b6a7A","-1","-1","1","0","[]","0","0","3","","","","","","","",""
"pit-trial","70","595776","0.0-2.0-14.2-1.2","battery-v0.2","","""event"",""trial"",""time""
""fullscreenenter"",""1"",""1262""
""blur"",""7"",""21930""
""focus"",""7"",""24066""
""blur"",""61"",""549089""
","""event"",""trial"",""time""
""blur"",""7"",""21930""
""blur"",""61"",""549089""
","""event"",""trial"",""time""
""focus"",""7"",""24066""
","""event"",""trial"",""time""
""fullscreenenter"",""1"",""1262""
","
","","","-1","","","25","9988","4329","&#9826;","elianto","#f73b6a7A","-1","-1","1","0","[]","0","0","3","","","","","","","",""
"pit-trial","71","600628","0.0-2.0-14.2-2.2","battery-v0.2","","""event"",""trial"",""time""
""fullscreenenter"",""1"",""1262""
""blur"",""7"",""21930""
""focus"",""7"",""24066""
""blur"",""61"",""549089""
","""event"",""trial"",""time""
""blur"",""7"",""21930""
""blur"",""61"",""549089""
","""event"",""trial"",""time""
""focus"",""7"",""24066""
","""event"",""trial"",""time""
""fullscreenenter"",""1"",""1262""
","
","","","-1","","","25","9988","4329","&#9826;","elianto","#f73b6a7A","-1","-1","1","0","[]","0","0","3","","","","","","","",""
"pit-trial","72","605480","0.0-2.0-14.2-3.2","battery-v0.2","","""event"",""trial"",""time""
""fullscreenenter"",""1"",""1262""
""blur"",""7"",""21930""
""focus"",""7"",""24066""
""blur"",""61"",""549089""
","""event"",""trial"",""time""
""blur"",""7"",""21930""
""blur"",""61"",""549089""
","""event"",""trial"",""time""
""focus"",""7"",""24066""
","""event"",""trial"",""time""
""fullscreenenter"",""1"",""1262""
","
","","","-1","","","25","9988","4329","&#9826;","elianto","#f73b6a7A","-1","-1","1","-10","[]","0","0","3","","","","","","","",""
"pit-trial","73","610332","0.0-2.0-14.2-4.2","battery-v0.2","","""event"",""trial"",""time""
""fullscreenenter"",""1"",""1262""
""blur"",""7"",""21930""
""focus"",""7"",""24066""
""blur"",""61"",""549089""
","""event"",""trial"",""time""
""blur"",""7"",""21930""
""blur"",""61"",""549089""
","""event"",""trial"",""time""
""focus"",""7"",""24066""
","""event"",""trial"",""time""
""fullscreenenter"",""1"",""1262""
","
","","","-1","","","25","9988","4329","&#9826;","elianto","#f73b6a7A","-1","-1","1","0","[]","0","0","3","","","","","","","",""
"pit-trial","74","615185","0.0-2.0-14.3-0.3","battery-v0.2","","""event"",""trial"",""time""
""fullscreenenter"",""1"",""1262""
""blur"",""7"",""21930""
""focus"",""7"",""24066""
""blur"",""61"",""549089""
","""event"",""trial"",""time""
""blur"",""7"",""21930""
""blur"",""61"",""549089""
","""event"",""trial"",""time""
""focus"",""7"",""24066""
","""event"",""trial"",""time""
""fullscreenenter"",""1"",""1262""
","
","","","-1","","","25","9988","4329","&#9826;","elianto","#f73b6a7A","-1","-1","1","0","[]","0","0","3","","","","","","","",""
"pit-trial","75","620039","0.0-2.0-14.3-1.3","battery-v0.2","","""event"",""trial"",""time""
""fullscreenenter"",""1"",""1262""
""blur"",""7"",""21930""
""focus"",""7"",""24066""
""blur"",""61"",""549089""
","""event"",""trial"",""time""
""blur"",""7"",""21930""
""blur"",""61"",""549089""
","""event"",""trial"",""time""
""focus"",""7"",""24066""
","""event"",""trial"",""time""
""fullscreenenter"",""1"",""1262""
","
","","","-1","","","25","9988","4329","&#9826;","elianto","#f73b6a7A","-1","-1","1","0","[]","0","0","3","","","","","","","",""
"pit-trial","76","624892","0.0-2.0-14.3-2.3","battery-v0.2","","""event"",""trial"",""time""
""fullscreenenter"",""1"",""1262""
""blur"",""7"",""21930""
""focus"",""7"",""24066""
""blur"",""61"",""549089""
","""event"",""trial"",""time""
""blur"",""7"",""21930""
""blur"",""61"",""549089""
","""event"",""trial"",""time""
""focus"",""7"",""24066""
","""event"",""trial"",""time""
""fullscreenenter"",""1"",""1262""
","
","","","-1","","","25","9988","4329","&#9826;","elianto","#f73b6a7A","-1","-1","1","0","[]","0","0","3","","","","","","","",""
"pit-trial","77","629744","0.0-2.0-14.3-3.3","battery-v0.2","","""event"",""trial"",""time""
""fullscreenenter"",""1"",""1262""
""blur"",""7"",""21930""
""focus"",""7"",""24066""
""blur"",""61"",""549089""
","""event"",""trial"",""time""
""blur"",""7"",""21930""
""blur"",""61"",""549089""
","""event"",""trial"",""time""
""focus"",""7"",""24066""
","""event"",""trial"",""time""
""fullscreenenter"",""1"",""1262""
","
","","","-1","","","25","9988","4329","&#9826;","elianto","#f73b6a7A","-1","-1","1","-10","[]","0","0","3","","","","","","","",""
"pit-trial","78","634597","0.0-2.0-14.3-4.3","battery-v0.2","","""event"",""trial"",""time""
""fullscreenenter"",""1"",""1262""
""blur"",""7"",""21930""
""focus"",""7"",""24066""
""blur"",""61"",""549089""
","""event"",""trial"",""time""
""blur"",""7"",""21930""
""blur"",""61"",""549089""
","""event"",""trial"",""time""
""focus"",""7"",""24066""
","""event"",""trial"",""time""
""fullscreenenter"",""1"",""1262""
","
","","","-1","","","25","9988","4329","&#9826;","elianto","#f73b6a7A","-1","-1","1","0","[]","0","0","3","","","","","","","",""
"call-function","79","634598","0.0-2.0-15.0","battery-v0.2","","""event"",""trial"",""time""
""fullscreenenter"",""1"",""1262""
""blur"",""7"",""21930""
""focus"",""7"",""24066""
""blur"",""61"",""549089""
""focus"",""80"",""642150""
","""event"",""trial"",""time""
""blur"",""7"",""21930""
""blur"",""61"",""549089""
","""event"",""trial"",""time""
""focus"",""7"",""24066""
""focus"",""80"",""642150""
","""event"",""trial"",""time""
""fullscreenenter"",""1"",""1262""
","
","","","","","","","","","","","","","","","","","","","","","","","","","","",""
"pit-instructions","80","661391","0.0-2.0-16.0","battery-v0.2","","""event"",""trial"",""time""
""fullscreenenter"",""1"",""1262""
""blur"",""7"",""21930""
""focus"",""7"",""24066""
""blur"",""61"",""549089""
""focus"",""80"",""642150""
","""event"",""trial"",""time""
""blur"",""7"",""21930""
""blur"",""61"",""549089""
","""event"",""trial"",""time""
""focus"",""7"",""24066""
""focus"",""80"",""642150""
","""event"",""trial"",""time""
""fullscreenenter"",""1"",""1262""
","
","","[{""page_index"":0,""viewing_time"":7644.200000017881},{""page_index"":1,""viewing_time"":8107.0999999940395},{""page_index"":2,""viewing_time"":4933.5999999940395},{""page_index"":3,""viewing_time"":6108.0999999940395}]","26793.09999999404","","","","","","","","","","","","","","","","","","","","","","","",""
"pit-trial","81","664566","0.0-2.0-17.0-0.0","battery-v0.2","","""event"",""trial"",""time""
""fullscreenenter"",""1"",""1262""
""blur"",""7"",""21930""
""focus"",""7"",""24066""
""blur"",""61"",""549089""
""focus"",""80"",""642150""
","""event"",""trial"",""time""
""blur"",""7"",""21930""
""blur"",""61"",""549089""
","""event"",""trial"",""time""
""focus"",""7"",""24066""
""focus"",""80"",""642150""
","""event"",""trial"",""time""
""fullscreenenter"",""1"",""1262""
","
","","","301.59999999403954","","","25","9988","4329","&#9789;","elianto","#f73b6a7A"," "," ","1","0","[407.40000000596046,1159.2999999821186]","2","0","4","","","","","","","",""
"pit-trial","82","667491","0.0-2.0-17.0-1.0","battery-v0.2","","""event"",""trial"",""time""
""fullscreenenter"",""1"",""1262""
""blur"",""7"",""21930""
""focus"",""7"",""24066""
""blur"",""61"",""549089""
""focus"",""80"",""642150""
","""event"",""trial"",""time""
""blur"",""7"",""21930""
""blur"",""61"",""549089""
","""event"",""trial"",""time""
""focus"",""7"",""24066""
""focus"",""80"",""642150""
","""event"",""trial"",""time""
""fullscreenenter"",""1"",""1262""
","
","","","58","","","25","9988","4329","&#9789;","elianto","#f73b6a7A"," "," ","1","0","[265.19999998807907,912.9000000059605,1145.0999999940395,1385]","4","0","4","","","","","","","",""
"pit-trial","83","670427","0.0-2.0-17.0-2.0","battery-v0.2","","""event"",""trial"",""time""
""fullscreenenter"",""1"",""1262""
""blur"",""7"",""21930""
""focus"",""7"",""24066""
""blur"",""61"",""549089""
""focus"",""80"",""642150""
","""event"",""trial"",""time""
""blur"",""7"",""21930""
""blur"",""61"",""549089""
","""event"",""trial"",""time""
""focus"",""7"",""24066""
""focus"",""80"",""642150""
","""event"",""trial"",""time""
""fullscreenenter"",""1"",""1262""
","
","","","75.2999999821186","","","25","9988","4329","&#9789;","elianto","#f73b6a7A"," "," ","1","0","[932,1155.800000011921,1347.800000011921]","3","0","4","","","","","","","",""
"pit-trial","84","673446","0.0-2.0-17.0-3.0","battery-v0.2","","""event"",""trial"",""time""
""fullscreenenter"",""1"",""1262""
""blur"",""7"",""21930""
""focus"",""7"",""24066""
""blur"",""61"",""549089""
""focus"",""80"",""642150""
","""event"",""trial"",""time""
""blur"",""7"",""21930""
""blur"",""61"",""549089""
","""event"",""trial"",""time""
""focus"",""7"",""24066""
""focus"",""80"",""642150""
","""event"",""trial"",""time""
""fullscreenenter"",""1"",""1262""
","
","","","151.69999998807907","","","25","9988","4329","&#9789;","elianto","#f73b6a7A"," "," ","1","-10","[1010.9000000059605]","1","0","4","","","","","","","",""
"pit-trial","85","676466","0.0-2.0-17.0-4.0","battery-v0.2","","""event"",""trial"",""time""
""fullscreenenter"",""1"",""1262""
""blur"",""7"",""21930""
""focus"",""7"",""24066""
""blur"",""61"",""549089""
""focus"",""80"",""642150""
","""event"",""trial"",""time""
""blur"",""7"",""21930""
""blur"",""61"",""549089""
","""event"",""trial"",""time""
""focus"",""7"",""24066""
""focus"",""80"",""642150""
","""event"",""trial"",""time""
""fullscreenenter"",""1"",""1262""
","
","","","151.19999998807907","","","25","9988","4329","&#9789;","elianto","#f73b6a7A"," "," ","1","0","[1015.5999999940395]","1","0","4","","","","","","","",""
"pit-trial","86","679525","0.0-2.0-17.1-0.1","battery-v0.2","","""event"",""trial"",""time""
""fullscreenenter"",""1"",""1262""
""blur"",""7"",""21930""
""focus"",""7"",""24066""
""blur"",""61"",""549089""
""focus"",""80"",""642150""
","""event"",""trial"",""time""
""blur"",""7"",""21930""
""blur"",""61"",""549089""
","""event"",""trial"",""time""
""focus"",""7"",""24066""
""focus"",""80"",""642150""
","""event"",""trial"",""time""
""fullscreenenter"",""1"",""1262""
","
","","","199.59999999403954","","","25","9988","4329","&#9789;","elianto","#f73b6a7A"," "," ","1","0","[1051.5999999940395]","1","0","4","","","","","","","",""
"pit-trial","87","682589","0.0-2.0-17.1-1.1","battery-v0.2","","""event"",""trial"",""time""
""fullscreenenter"",""1"",""1262""
""blur"",""7"",""21930""
""focus"",""7"",""24066""
""blur"",""61"",""549089""
""focus"",""80"",""642150""
","""event"",""trial"",""time""
""blur"",""7"",""21930""
""blur"",""61"",""549089""
","""event"",""trial"",""time""
""focus"",""7"",""24066""
""focus"",""80"",""642150""
","""event"",""trial"",""time""
""fullscreenenter"",""1"",""1262""
","
","","","200.69999998807907","","","25","9988","4329","&#9789;","elianto","#f73b6a7A"," "," ","1","0","[1056.699999988079]","1","0","4","","","","","","","",""
"pit-trial","88","685776","0.0-2.0-17.1-2.1","battery-v0.2","","""event"",""trial"",""time""
""fullscreenenter"",""1"",""1262""
""blur"",""7"",""21930""
""focus"",""7"",""24066""
""blur"",""61"",""549089""
""focus"",""80"",""642150""
","""event"",""trial"",""time""
""blur"",""7"",""21930""
""blur"",""61"",""549089""
","""event"",""trial"",""time""
""focus"",""7"",""24066""
""focus"",""80"",""642150""
","""event"",""trial"",""time""
""fullscreenenter"",""1"",""1262""
","
","","","334.5","","","25","9988","4329","&#9789;","elianto","#f73b6a7A"," "," ","1","0","[1184.699999988079]","1","0","4","","","","","","","",""
"pit-trial","89","688876","0.0-2.0-17.1-3.1","battery-v0.2","","""event"",""trial"",""time""
""fullscreenenter"",""1"",""1262""
""blur"",""7"",""21930""
""focus"",""7"",""24066""
""blur"",""61"",""549089""
""focus"",""80"",""642150""
","""event"",""trial"",""time""
""blur"",""7"",""21930""
""blur"",""61"",""549089""
","""event"",""trial"",""time""
""focus"",""7"",""24066""
""focus"",""80"",""642150""
","""event"",""trial"",""time""
""fullscreenenter"",""1"",""1262""
","
","","","232.40000000596046","","","25","9988","4329","&#9789;","elianto","#f73b6a7A"," "," ","1","-10","[1093]","1","0","4","","","","","","","",""
"pit-trial","90","691871","0.0-2.0-17.1-4.1","battery-v0.2","","""event"",""trial"",""time""
""fullscreenenter"",""1"",""1262""
""blur"",""7"",""21930""
""focus"",""7"",""24066""
""blur"",""61"",""549089""
""focus"",""80"",""642150""
","""event"",""trial"",""time""
""blur"",""7"",""21930""
""blur"",""61"",""549089""
","""event"",""trial"",""time""
""focus"",""7"",""24066""
""focus"",""80"",""642150""
","""event"",""trial"",""time""
""fullscreenenter"",""1"",""1262""
","
","","","130","","","25","9988","4329","&#9789;","elianto","#f73b6a7A"," "," ","1","0","[993.0999999940395]","1","0","4","","","","","","","",""
"pit-trial","91","694960","0.0-2.0-17.2-0.2","battery-v0.2","","""event"",""trial"",""time""
""fullscreenenter"",""1"",""1262""
""blur"",""7"",""21930""
""focus"",""7"",""24066""
""blur"",""61"",""549089""
""focus"",""80"",""642150""
","""event"",""trial"",""time""
""blur"",""7"",""21930""
""blur"",""61"",""549089""
","""event"",""trial"",""time""
""focus"",""7"",""24066""
""focus"",""80"",""642150""
","""event"",""trial"",""time""
""fullscreenenter"",""1"",""1262""
","
","","","235.7000000178814","","","25","9988","4329","&#9789;","elianto","#f73b6a7A"," "," ","1","0","[1086.300000011921]","1","0","4","","","","","","","",""
"pit-trial","92","697982","0.0-2.0-17.2-1.2","battery-v0.2","","""event"",""trial"",""time""
""fullscreenenter"",""1"",""1262""
""blur"",""7"",""21930""
""focus"",""7"",""24066""
""blur"",""61"",""549089""
""focus"",""80"",""642150""
","""event"",""trial"",""time""
""blur"",""7"",""21930""
""blur"",""61"",""549089""
","""event"",""trial"",""time""
""focus"",""7"",""24066""
""focus"",""80"",""642150""
","""event"",""trial"",""time""
""fullscreenenter"",""1"",""1262""
","
","","","171.39999997615814","","","25","9988","4329","&#9789;","elianto","#f73b6a7A"," "," ","1","0","[1021.5]","1","0","4","","","","","","","",""
"pit-trial","93","701078","0.0-2.0-17.2-2.2","battery-v0.2","","""event"",""trial"",""time""
""fullscreenenter"",""1"",""1262""
""blur"",""7"",""21930""
""focus"",""7"",""24066""
""blur"",""61"",""549089""
""focus"",""80"",""642150""
","""event"",""trial"",""time""
""blur"",""7"",""21930""
""blur"",""61"",""549089""
","""event"",""trial"",""time""
""focus"",""7"",""24066""
""focus"",""80"",""642150""
","""event"",""trial"",""time""
""fullscreenenter"",""1"",""1262""
","
","","","243.7999999821186","","","25","9988","4329","&#9789;","elianto","#f73b6a7A"," "," ","1","0","[1095]","1","0","4","","","","","","","",""
"pit-trial","94","704263","0.0-2.0-17.2-3.2","battery-v0.2","","""event"",""trial"",""time""
""fullscreenenter"",""1"",""1262""
""blur"",""7"",""21930""
""focus"",""7"",""24066""
""blur"",""61"",""549089""
""focus"",""80"",""642150""
","""event"",""trial"",""time""
""blur"",""7"",""21930""
""blur"",""61"",""549089""
","""event"",""trial"",""time""
""focus"",""7"",""24066""
""focus"",""80"",""642150""
","""event"",""trial"",""time""
""fullscreenenter"",""1"",""1262""
","
","","","332","","","25","9988","4329","&#9789;","elianto","#f73b6a7A"," "," ","1","-10","[1183.0999999940395]","1","0","4","","","","","","","",""
"pit-trial","95","707286","0.0-2.0-17.2-4.2","battery-v0.2","","""event"",""trial"",""time""
""fullscreenenter"",""1"",""1262""
""blur"",""7"",""21930""
""focus"",""7"",""24066""
""blur"",""61"",""549089""
""focus"",""80"",""642150""
","""event"",""trial"",""time""
""blur"",""7"",""21930""
""blur"",""61"",""549089""
","""event"",""trial"",""time""
""focus"",""7"",""24066""
""focus"",""80"",""642150""
","""event"",""trial"",""time""
""fullscreenenter"",""1"",""1262""
","
","","","170.7999999821186","","","25","9988","4329","&#9789;","elianto","#f73b6a7A"," "," ","1","0","[1021.7999999821186]","1","0","4","","","","","","","",""
"pit-trial","96","710356","0.0-2.0-17.3-0.3","battery-v0.2","","""event"",""trial"",""time""
""fullscreenenter"",""1"",""1262""
""blur"",""7"",""21930""
""focus"",""7"",""24066""
""blur"",""61"",""549089""
""focus"",""80"",""642150""
","""event"",""trial"",""time""
""blur"",""7"",""21930""
""blur"",""61"",""549089""
","""event"",""trial"",""time""
""focus"",""7"",""24066""
""focus"",""80"",""642150""
","""event"",""trial"",""time""
""fullscreenenter"",""1"",""1262""
","
","","","211.09999999403954","","","25","9988","4329","&#9789;","elianto","#f73b6a7A"," "," ","1","0","[1062]","1","0","4","","","","","","","",""
"pit-trial","97","713334","0.0-2.0-17.3-1.3","battery-v0.2","","""event"",""trial"",""time""
""fullscreenenter"",""1"",""1262""
""blur"",""7"",""21930""
""focus"",""7"",""24066""
""blur"",""61"",""549089""
""focus"",""80"",""642150""
","""event"",""trial"",""time""
""blur"",""7"",""21930""
""blur"",""61"",""549089""
","""event"",""trial"",""time""
""focus"",""7"",""24066""
""focus"",""80"",""642150""
","""event"",""trial"",""time""
""fullscreenenter"",""1"",""1262""
","
","","","126.09999999403954","","","25","9988","4329","&#9789;","elianto","#f73b6a7A"," "," ","1","0","[977]","1","0","4","","","","","","","",""
"pit-trial","98","716310","0.0-2.0-17.3-2.3","battery-v0.2","","""event"",""trial"",""time""
""fullscreenenter"",""1"",""1262""
""blur"",""7"",""21930""
""focus"",""7"",""24066""
""blur"",""61"",""549089""
""focus"",""80"",""642150""
","""event"",""trial"",""time""
""blur"",""7"",""21930""
""blur"",""61"",""549089""
","""event"",""trial"",""time""
""focus"",""7"",""24066""
""focus"",""80"",""642150""
","""event"",""trial"",""time""
""fullscreenenter"",""1"",""1262""
","
","","","123.09999999403954","","","25","9988","4329","&#9789;","elianto","#f73b6a7A"," "," ","1","0","[974.2000000178814]","1","0","4","","","","","","","",""
"pit-trial","99","719310","0.0-2.0-17.3-3.3","battery-v0.2","","""event"",""trial"",""time""
""fullscreenenter"",""1"",""1262""
""blur"",""7"",""21930""
""focus"",""7"",""24066""
""blur"",""61"",""549089""
""focus"",""80"",""642150""
","""event"",""trial"",""time""
""blur"",""7"",""21930""
""blur"",""61"",""549089""
","""event"",""trial"",""time""
""focus"",""7"",""24066""
""focus"",""80"",""642150""
","""event"",""trial"",""time""
""fullscreenenter"",""1"",""1262""
","
","","","147.10000002384186","","","25","9988","4329","&#9789;","elianto","#f73b6a7A"," "," ","1","-10","[222.30000001192093,998.2000000178814]","2","0","4","","","","","","","",""
"pit-trial","100","722350","0.0-2.0-17.3-4.3","battery-v0.2","","""event"",""trial"",""time""
""fullscreenenter"",""1"",""1262""
""blur"",""7"",""21930""
""focus"",""7"",""24066""
""blur"",""61"",""549089""
""focus"",""80"",""642150""
","""event"",""trial"",""time""
""blur"",""7"",""21930""
""blur"",""61"",""549089""
","""event"",""trial"",""time""
""focus"",""7"",""24066""
""focus"",""80"",""642150""
","""event"",""trial"",""time""
""fullscreenenter"",""1"",""1262""
","
","","","188","","","25","9988","4329","&#9789;","elianto","#f73b6a7A"," "," ","1","0","[1038.199999988079]","1","0","4","","","","","","","",""
"call-function","101","722351","0.0-2.0-18.0","battery-v0.2","","""event"",""trial"",""time""
""fullscreenenter"",""1"",""1262""
""blur"",""7"",""21930""
""focus"",""7"",""24066""
""blur"",""61"",""549089""
""focus"",""80"",""642150""
","""event"",""trial"",""time""
""blur"",""7"",""21930""
""blur"",""61"",""549089""
","""event"",""trial"",""time""
""focus"",""7"",""24066""
""focus"",""80"",""642150""
","""event"",""trial"",""time""
""fullscreenenter"",""1"",""1262""
","
","","","","","","","","","","","","","","","","","","","","","","","","","","",""
"pit-instructions","102","784124","0.0-2.0-19.0","battery-v0.2","","""event"",""trial"",""time""
""fullscreenenter"",""1"",""1262""
""blur"",""7"",""21930""
""focus"",""7"",""24066""
""blur"",""61"",""549089""
""focus"",""80"",""642150""
","""event"",""trial"",""time""
""blur"",""7"",""21930""
""blur"",""61"",""549089""
","""event"",""trial"",""time""
""focus"",""7"",""24066""
""focus"",""80"",""642150""
","""event"",""trial"",""time""
""fullscreenenter"",""1"",""1262""
","
","","[{""page_index"":0,""viewing_time"":6657},{""page_index"":1,""viewing_time"":4001.9000000059605},{""page_index"":2,""viewing_time"":9027.899999976158},{""page_index"":3,""viewing_time"":4051.4000000059605},{""page_index"":4,""viewing_time"":10527.800000011921},{""page_index"":5,""viewing_time"":8357.699999988079},{""page_index"":6,""viewing_time"":8519.5},{""page_index"":7,""viewing_time"":6209.700000017881},{""page_index"":8,""viewing_time"":4420.0999999940395}]","61773.19999998808","","","","","","","","","","","","","","","","","","","","","","","",""
"pit-comprehension","103","788634","0.0-2.0-20.0-0.0","battery-v0.2","","""event"",""trial"",""time""
""fullscreenenter"",""1"",""1262""
""blur"",""7"",""21930""
""focus"",""7"",""24066""
""blur"",""61"",""549089""
""focus"",""80"",""642150""
","""event"",""trial"",""time""
""blur"",""7"",""21930""
""blur"",""61"",""549089""
","""event"",""trial"",""time""
""focus"",""7"",""24066""
""focus"",""80"",""642150""
","""event"",""trial"",""time""
""fullscreenenter"",""1"",""1262""
","
","","","4508.200000017881","[""SPACE""]","0","25","9988","4329","","","","","","","","","","","","","","","","","","",""
"pit-instructions","104","791642","0.0-2.0-20.0-1.0","battery-v0.2","","""event"",""trial"",""time""
""fullscreenenter"",""1"",""1262""
""blur"",""7"",""21930""
""focus"",""7"",""24066""
""blur"",""61"",""549089""
""focus"",""80"",""642150""
","""event"",""trial"",""time""
""blur"",""7"",""21930""
""blur"",""61"",""549089""
","""event"",""trial"",""time""
""focus"",""7"",""24066""
""focus"",""80"",""642150""
","""event"",""trial"",""time""
""fullscreenenter"",""1"",""1262""
","
","","[{""page_index"":0,""viewing_time"":2981.5999999940395}]","2981.800000011921","","","","","","","","","","","","","","","","","","","","","","","",""
"pit-comprehension","105","797714","0.0-2.0-21.0-0.0","battery-v0.2","","""event"",""trial"",""time""
""fullscreenenter"",""1"",""1262""
""blur"",""7"",""21930""
""focus"",""7"",""24066""
""blur"",""61"",""549089""
""focus"",""80"",""642150""
","""event"",""trial"",""time""
""blur"",""7"",""21930""
""blur"",""61"",""549089""
","""event"",""trial"",""time""
""focus"",""7"",""24066""
""focus"",""80"",""642150""
","""event"",""trial"",""time""
""fullscreenenter"",""1"",""1262""
","
","","","6070.5999999940395","[""10""]","0","25","9988","4329","","","","","","","","","","","","","","","","","","",""
"pit-instructions","106","798863","0.0-2.0-21.0-1.0","battery-v0.2","","""event"",""trial"",""time""
""fullscreenenter"",""1"",""1262""
""blur"",""7"",""21930""
""focus"",""7"",""24066""
""blur"",""61"",""549089""
""focus"",""80"",""642150""
","""event"",""trial"",""time""
""blur"",""7"",""21930""
""blur"",""61"",""549089""
","""event"",""trial"",""time""
""focus"",""7"",""24066""
""focus"",""80"",""642150""
","""event"",""trial"",""time""
""fullscreenenter"",""1"",""1262""
","
","","[{""page_index"":0,""viewing_time"":1123.5}]","1123.5999999940395","","","","","","","","","","","","","","","","","","","","","","","",""
"pit-comprehension","107","805240","0.0-2.0-22.0-0.0","battery-v0.2","","""event"",""trial"",""time""
""fullscreenenter"",""1"",""1262""
""blur"",""7"",""21930""
""focus"",""7"",""24066""
""blur"",""61"",""549089""
""focus"",""80"",""642150""
","""event"",""trial"",""time""
""blur"",""7"",""21930""
""blur"",""61"",""549089""
","""event"",""trial"",""time""
""focus"",""7"",""24066""
""focus"",""80"",""642150""
","""event"",""trial"",""time""
""fullscreenenter"",""1"",""1262""
","
","","","6374.799999982119","[""0""]","0","25","9988","4329","","","","","","","","","","","","","","","","","","",""
"pit-instructions","108","806364","0.0-2.0-22.0-1.0","battery-v0.2","","""event"",""trial"",""time""
""fullscreenenter"",""1"",""1262""
""blur"",""7"",""21930""
""focus"",""7"",""24066""
""blur"",""61"",""549089""
""focus"",""80"",""642150""
","""event"",""trial"",""time""
""blur"",""7"",""21930""
""blur"",""61"",""549089""
","""event"",""trial"",""time""
""focus"",""7"",""24066""
""focus"",""80"",""642150""
","""event"",""trial"",""time""
""fullscreenenter"",""1"",""1262""
","
","","[{""page_index"":0,""viewing_time"":1099.0999999940395}]","1099.199999988079","","","","","","","","","","","","","","","","","","","","","","","",""
"pit-comprehension","109","817239","0.0-2.0-23.0-0.0","battery-v0.2","","""event"",""trial"",""time""
""fullscreenenter"",""1"",""1262""
""blur"",""7"",""21930""
""focus"",""7"",""24066""
""blur"",""61"",""549089""
""focus"",""80"",""642150""
","""event"",""trial"",""time""
""blur"",""7"",""21930""
""blur"",""61"",""549089""
","""event"",""trial"",""time""
""focus"",""7"",""24066""
""focus"",""80"",""642150""
","""event"",""trial"",""time""
""fullscreenenter"",""1"",""1262""
","
","","","10873.800000011921","[""True""]","0","25","9988","4329","","","","","","","","","","","","","","","","","","",""
"pit-instructions","110","818573","0.0-2.0-23.0-1.0","battery-v0.2","","""event"",""trial"",""time""
""fullscreenenter"",""1"",""1262""
""blur"",""7"",""21930""
""focus"",""7"",""24066""
""blur"",""61"",""549089""
""focus"",""80"",""642150""
","""event"",""trial"",""time""
""blur"",""7"",""21930""
""blur"",""61"",""549089""
","""event"",""trial"",""time""
""focus"",""7"",""24066""
""focus"",""80"",""642150""
","""event"",""trial"",""time""
""fullscreenenter"",""1"",""1262""
","
","","[{""page_index"":0,""viewing_time"":1308.5999999940395}]","1308.699999988079","","","","","","","","","","","","","","","","","","","","","","","",""
"pit-comprehension","111","826133","0.0-2.0-24.0-0.0","battery-v0.2","","""event"",""trial"",""time""
""fullscreenenter"",""1"",""1262""
""blur"",""7"",""21930""
""focus"",""7"",""24066""
""blur"",""61"",""549089""
""focus"",""80"",""642150""
","""event"",""trial"",""time""
""blur"",""7"",""21930""
""blur"",""61"",""549089""
","""event"",""trial"",""time""
""focus"",""7"",""24066""
""focus"",""80"",""642150""
","""event"",""trial"",""time""
""fullscreenenter"",""1"",""1262""
","
","","","7558.399999976158","[""True""]","0","25","9988","4329","","","","","","","","","","","","","","","","","","",""
"pit-instructions","112","827312","0.0-2.0-24.0-1.0","battery-v0.2","","""event"",""trial"",""time""
""fullscreenenter"",""1"",""1262""
""blur"",""7"",""21930""
""focus"",""7"",""24066""
""blur"",""61"",""549089""
""focus"",""80"",""642150""
","""event"",""trial"",""time""
""blur"",""7"",""21930""
""blur"",""61"",""549089""
","""event"",""trial"",""time""
""focus"",""7"",""24066""
""focus"",""80"",""642150""
","""event"",""trial"",""time""
""fullscreenenter"",""1"",""1262""
","
","","[{""page_index"":0,""viewing_time"":1152.1000000238419}]","1152.300000011921","","","","","","","","","","","","","","","","","","","","","","","",""
"pit-comprehension","113","833340","0.0-2.0-25.0-0.0","battery-v0.2","","""event"",""trial"",""time""
""fullscreenenter"",""1"",""1262""
""blur"",""7"",""21930""
""focus"",""7"",""24066""
""blur"",""61"",""549089""
""focus"",""80"",""642150""
","""event"",""trial"",""time""
""blur"",""7"",""21930""
""blur"",""61"",""549089""
","""event"",""trial"",""time""
""focus"",""7"",""24066""
""focus"",""80"",""642150""
","""event"",""trial"",""time""
""fullscreenenter"",""1"",""1262""
","
","","","6026.9000000059605","[""True""]","0","25","9988","4329","","","","","","","","","","","","","","","","","","",""
"pit-instructions","114","835494","0.0-2.0-25.0-1.0","battery-v0.2","","""event"",""trial"",""time""
""fullscreenenter"",""1"",""1262""
""blur"",""7"",""21930""
""focus"",""7"",""24066""
""blur"",""61"",""549089""
""focus"",""80"",""642150""
","""event"",""trial"",""time""
""blur"",""7"",""21930""
""blur"",""61"",""549089""
","""event"",""trial"",""time""
""focus"",""7"",""24066""
""focus"",""80"",""642150""
","""event"",""trial"",""time""
""fullscreenenter"",""1"",""1262""
","
","","[{""page_index"":0,""viewing_time"":2127.7000000178814}]","2127.7000000178814","","","","","","","","","","","","","","","","","","","","","","","",""
"pit-comprehension","115","839860","0.0-2.0-26.0-0.0","battery-v0.2","","""event"",""trial"",""time""
""fullscreenenter"",""1"",""1262""
""blur"",""7"",""21930""
""focus"",""7"",""24066""
""blur"",""61"",""549089""
""focus"",""80"",""642150""
","""event"",""trial"",""time""
""blur"",""7"",""21930""
""blur"",""61"",""549089""
","""event"",""trial"",""time""
""focus"",""7"",""24066""
""focus"",""80"",""642150""
","""event"",""trial"",""time""
""fullscreenenter"",""1"",""1262""
","
","","","4365.0999999940395","[""False""]","0","25","9988","4329","","","","","","","","","","","","","","","","","","",""
"pit-instructions","116","840933","0.0-2.0-26.0-1.0","battery-v0.2","","""event"",""trial"",""time""
""fullscreenenter"",""1"",""1262""
""blur"",""7"",""21930""
""focus"",""7"",""24066""
""blur"",""61"",""549089""
""focus"",""80"",""642150""
","""event"",""trial"",""time""
""blur"",""7"",""21930""
""blur"",""61"",""549089""
","""event"",""trial"",""time""
""focus"",""7"",""24066""
""focus"",""80"",""642150""
","""event"",""trial"",""time""
""fullscreenenter"",""1"",""1262""
","
","","[{""page_index"":0,""viewing_time"":1045.5}]","1045.5","","","","","","","","","","","","","","","","","","","","","","","",""
"pit-instructions","117","855797","0.0-3.0","battery-v0.2","","""event"",""trial"",""time""
""fullscreenenter"",""1"",""1262""
""blur"",""7"",""21930""
""focus"",""7"",""24066""
""blur"",""61"",""549089""
""focus"",""80"",""642150""
","""event"",""trial"",""time""
""blur"",""7"",""21930""
""blur"",""61"",""549089""
","""event"",""trial"",""time""
""focus"",""7"",""24066""
""focus"",""80"",""642150""
","""event"",""trial"",""time""
""fullscreenenter"",""1"",""1262""
","
","","[{""page_index"":0,""viewing_time"":3353.300000011921},{""page_index"":1,""viewing_time"":5235.399999976158},{""page_index"":2,""viewing_time"":6273.700000017881}]","14862.59999999404","","","","","","","","","","","","","","","","","","","","","","","",""
"pit-trial","118","859167","0.0-4.0","battery-v0.2","","""event"",""trial"",""time""
""fullscreenenter"",""1"",""1262""
""blur"",""7"",""21930""
""focus"",""7"",""24066""
""blur"",""61"",""549089""
""focus"",""80"",""642150""
","""event"",""trial"",""time""
""blur"",""7"",""21930""
""blur"",""61"",""549089""
","""event"",""trial"",""time""
""focus"",""7"",""24066""
""focus"",""80"",""642150""
","""event"",""trial"",""time""
""fullscreenenter"",""1"",""1262""
","
","","","499","","","25","9988","4329","&#9730;","elianto","#3366ff99"," "," ","1","+10","[1352.699999988079]","1","1","","","9988","1","1","1","win","go","0"
"pit-trial","119","863220","0.0-5.0","battery-v0.2","","""event"",""trial"",""time""
""fullscreenenter"",""1"",""1262""
""blur"",""7"",""21930""
""focus"",""7"",""24066""
""blur"",""61"",""549089""
""focus"",""80"",""642150""
","""event"",""trial"",""time""
""blur"",""7"",""21930""
""blur"",""61"",""549089""
","""event"",""trial"",""time""
""focus"",""7"",""24066""
""focus"",""80"",""642150""
","""event"",""trial"",""time""
""fullscreenenter"",""1"",""1262""
","
","","","1195.2000000178814","","","25","9988","4329","&#9733;","elianto","#3366ff99","-1"," ","0","0","[2047.2000000178814]","1","1","","","9988","2","2","2","win","no-go","0"
"pit-trial","120","866937","0.0-6.0","battery-v0.2","","""event"",""trial"",""time""
""fullscreenenter"",""1"",""1262""
""blur"",""7"",""21930""
""focus"",""7"",""24066""
""blur"",""61"",""549089""
""focus"",""80"",""642150""
","""event"",""trial"",""time""
""blur"",""7"",""21930""
""blur"",""61"",""549089""
","""event"",""trial"",""time""
""focus"",""7"",""24066""
""focus"",""80"",""642150""
","""event"",""trial"",""time""
""fullscreenenter"",""1"",""1262""
","
","","","848.6999999880791","","","25","9988","4329","&#9728;","elianto","#f73b6a7A","-1"," ","0","-10","[1706.5]","1","1","","","9988","3","0","4","lose","no-go","0"
"pit-trial","121","870830","0.0-7.0","battery-v0.2","","""event"",""trial"",""time""
""fullscreenenter"",""1"",""1262""
""blur"",""7"",""21930""
""focus"",""7"",""24066""
""blur"",""61"",""549089""
""focus"",""80"",""642150""
","""event"",""trial"",""time""
""blur"",""7"",""21930""
""blur"",""61"",""549089""
","""event"",""trial"",""time""
""focus"",""7"",""24066""
""focus"",""80"",""642150""
","""event"",""trial"",""time""
""fullscreenenter"",""1"",""1262""
","
","","","1024.7999999821186","","","25","9988","4329","&#9752;","elianto","#f73b6a7A"," "," ","1","-10","[1877.5999999940395]","1","1","","","9988","4","3","3","lose","go","1"
"pit-trial","122","874616","0.0-8.0","battery-v0.2","","""event"",""trial"",""time""
""fullscreenenter"",""1"",""1262""
""blur"",""7"",""21930""
""focus"",""7"",""24066""
""blur"",""61"",""549089""
""focus"",""80"",""642150""
","""event"",""trial"",""time""
""blur"",""7"",""21930""
""blur"",""61"",""549089""
","""event"",""trial"",""time""
""focus"",""7"",""24066""
""focus"",""80"",""642150""
","""event"",""trial"",""time""
""fullscreenenter"",""1"",""1262""
","
","","","931.1999999880791","","","25","9988","4329","&#9728;","elianto","#f73b6a7A","-1"," ","0","-10","[1784.300000011921]","1","1","","","9988","5","0","4","lose","no-go","0"
"pit-trial","123","878497","0.0-9.0","battery-v0.2","","""event"",""trial"",""time""
""fullscreenenter"",""1"",""1262""
""blur"",""7"",""21930""
""focus"",""7"",""24066""
""blur"",""61"",""549089""
""focus"",""80"",""642150""
","""event"",""trial"",""time""
""blur"",""7"",""21930""
""blur"",""61"",""549089""
","""event"",""trial"",""time""
""focus"",""7"",""24066""
""focus"",""80"",""642150""
","""event"",""trial"",""time""
""fullscreenenter"",""1"",""1262""
","
","","","1027.7999999821186","","","25","9988","4329","&#9730;","elianto","#3366ff99"," "," ","1","0","[1878]","1","1","","","9988","6","1","1","win","go","1"
"pit-trial","124","882119","0.0-10.0","battery-v0.2","","""event"",""trial"",""time""
""fullscreenenter"",""1"",""1262""
""blur"",""7"",""21930""
""focus"",""7"",""24066""
""blur"",""61"",""549089""
""focus"",""80"",""642150""
","""event"",""trial"",""time""
""blur"",""7"",""21930""
""blur"",""61"",""549089""
","""event"",""trial"",""time""
""focus"",""7"",""24066""
""focus"",""80"",""642150""
","""event"",""trial"",""time""
""fullscreenenter"",""1"",""1262""
","
","","","753.5","","","25","9988","4329","&#9733;","elianto","#3366ff99","-1"," ","0","0","[1612.2000000178814]","1","1","","","9988","7","2","2","win","no-go","0"
"pit-trial","125","886988","0.0-11.0","battery-v0.2","","""event"",""trial"",""time""
""fullscreenenter"",""1"",""1262""
""blur"",""7"",""21930""
""focus"",""7"",""24066""
""blur"",""61"",""549089""
""focus"",""80"",""642150""
","""event"",""trial"",""time""
""blur"",""7"",""21930""
""blur"",""61"",""549089""
","""event"",""trial"",""time""
""focus"",""7"",""24066""
""focus"",""80"",""642150""
","""event"",""trial"",""time""
""fullscreenenter"",""1"",""1262""
","
","","","-1","","","25","9988","4329","&#9752;","elianto","#f73b6a7A"," ","-1","0","-10","[]","0","1","","","9988","8","3","3","lose","go","0"
"pit-trial","126","890767","0.0-12.0","battery-v0.2","","""event"",""trial"",""time""
""fullscreenenter"",""1"",""1262""
""blur"",""7"",""21930""
""focus"",""7"",""24066""
""blur"",""61"",""549089""
""focus"",""80"",""642150""
","""event"",""trial"",""time""
""blur"",""7"",""21930""
""blur"",""61"",""549089""
","""event"",""trial"",""time""
""focus"",""7"",""24066""
""focus"",""80"",""642150""
","""event"",""trial"",""time""
""fullscreenenter"",""1"",""1262""
","
","","","926.5999999940395","","","25","9988","4329","&#9752;","elianto","#f73b6a7A"," "," ","1","-10","[1777.5,3121.600000023842]","2","1","","","9988","9","3","3","lose","go","1"
"pit-trial","127","895620","0.0-13.0","battery-v0.2","","""event"",""trial"",""time""
""fullscreenenter"",""1"",""1262""
""blur"",""7"",""21930""
""focus"",""7"",""24066""
""blur"",""61"",""549089""
""focus"",""80"",""642150""
","""event"",""trial"",""time""
""blur"",""7"",""21930""
""blur"",""61"",""549089""
","""event"",""trial"",""time""
""focus"",""7"",""24066""
""focus"",""80"",""642150""
","""event"",""trial"",""time""
""fullscreenenter"",""1"",""1262""
","
","","","-1","","","25","9988","4329","&#9728;","elianto","#f73b6a7A","-1","-1","1","-10","[]","0","1","","","9988","10","0","4","lose","no-go","1"
"pit-trial","128","899343","0.0-14.0","battery-v0.2","","""event"",""trial"",""time""
""fullscreenenter"",""1"",""1262""
""blur"",""7"",""21930""
""focus"",""7"",""24066""
""blur"",""61"",""549089""
""focus"",""80"",""642150""
","""event"",""trial"",""time""
""blur"",""7"",""21930""
""blur"",""61"",""549089""
","""event"",""trial"",""time""
""focus"",""7"",""24066""
""focus"",""80"",""642150""
","""event"",""trial"",""time""
""fullscreenenter"",""1"",""1262""
","
","","","861","","","25","9988","4329","&#9730;","elianto","#3366ff99"," "," ","1","0","[1712.800000011921]","1","1","","","9988","11","1","1","win","go","1"
"pit-trial","129","903070","0.0-15.0","battery-v0.2","","""event"",""trial"",""time""
""fullscreenenter"",""1"",""1262""
""blur"",""7"",""21930""
""focus"",""7"",""24066""
""blur"",""61"",""549089""
""focus"",""80"",""642150""
","""event"",""trial"",""time""
""blur"",""7"",""21930""
""blur"",""61"",""549089""
","""event"",""trial"",""time""
""focus"",""7"",""24066""
""focus"",""80"",""642150""
","""event"",""trial"",""time""
""fullscreenenter"",""1"",""1262""
","
","","","873.8999999761581","","","25","9988","4329","&#9733;","elianto","#3366ff99","-1"," ","0","0","[1725.199999988079]","1","1","","","9988","12","2","2","win","no-go","0"
"pit-trial","130","907923","0.0-16.0","battery-v0.2","","""event"",""trial"",""time""
""fullscreenenter"",""1"",""1262""
""blur"",""7"",""21930""
""focus"",""7"",""24066""
""blur"",""61"",""549089""
""focus"",""80"",""642150""
","""event"",""trial"",""time""
""blur"",""7"",""21930""
""blur"",""61"",""549089""
","""event"",""trial"",""time""
""focus"",""7"",""24066""
""focus"",""80"",""642150""
","""event"",""trial"",""time""
""fullscreenenter"",""1"",""1262""
","
","","","-1","","","25","9988","4329","&#9730;","elianto","#3366ff99"," ","-1","0","0","[]","0","1","","","9988","13","1","1","win","go","0"
"pit-trial","131","912776","0.0-17.0","battery-v0.2","","""event"",""trial"",""time""
""fullscreenenter"",""1"",""1262""
""blur"",""7"",""21930""
""focus"",""7"",""24066""
""blur"",""61"",""549089""
""focus"",""80"",""642150""
","""event"",""trial"",""time""
""blur"",""7"",""21930""
""blur"",""61"",""549089""
","""event"",""trial"",""time""
""focus"",""7"",""24066""
""focus"",""80"",""642150""
","""event"",""trial"",""time""
""fullscreenenter"",""1"",""1262""
","
","","","-1","","","25","9988","4329","&#9733;","elianto","#3366ff99","-1","-1","1","+10","[]","0","1","","","9988","14","2","2","win","no-go","0"
"pit-trial","132","916518","0.0-18.0","battery-v0.2","","""event"",""trial"",""time""
""fullscreenenter"",""1"",""1262""
""blur"",""7"",""21930""
""focus"",""7"",""24066""
""blur"",""61"",""549089""
""focus"",""80"",""642150""
","""event"",""trial"",""time""
""blur"",""7"",""21930""
""blur"",""61"",""549089""
","""event"",""trial"",""time""
""focus"",""7"",""24066""
""focus"",""80"",""642150""
","""event"",""trial"",""time""
""fullscreenenter"",""1"",""1262""
","
","","","888.0999999940395","","","25","9988","4329","&#9752;","elianto","#f73b6a7A"," "," ","1","0","[1739.699999988079]","1","1","","","9988","15","3","3","lose","go","0"
"pit-trial","133","920134","0.0-19.0","battery-v0.2","","""event"",""trial"",""time""
""fullscreenenter"",""1"",""1262""
""blur"",""7"",""21930""
""focus"",""7"",""24066""
""blur"",""61"",""549089""
""focus"",""80"",""642150""
","""event"",""trial"",""time""
""blur"",""7"",""21930""
""blur"",""61"",""549089""
","""event"",""trial"",""time""
""focus"",""7"",""24066""
""focus"",""80"",""642150""
","""event"",""trial"",""time""
""fullscreenenter"",""1"",""1262""
","
","","","762.5999999940395","","","25","9988","4329","&#9728;","elianto","#f73b6a7A","-1"," ","0","-10","[1613.6000000238419]","1","1","","","9988","16","0","4","lose","no-go","0"
"pit-trial","134","923990","0.0-20.0","battery-v0.2","","""event"",""trial"",""time""
""fullscreenenter"",""1"",""1262""
""blur"",""7"",""21930""
""focus"",""7"",""24066""
""blur"",""61"",""549089""
""focus"",""80"",""642150""
","""event"",""trial"",""time""
""blur"",""7"",""21930""
""blur"",""61"",""549089""
","""event"",""trial"",""time""
""focus"",""7"",""24066""
""focus"",""80"",""642150""
","""event"",""trial"",""time""
""fullscreenenter"",""1"",""1262""
","
","","","1002","","","25","9988","4329","&#9733;","elianto","#3366ff99","-1"," ","0","+10","[1853.0999999940395]","1","1","","","9988","17","2","2","win","no-go","1"
"pit-trial","135","928843","0.0-21.0","battery-v0.2","","""event"",""trial"",""time""
""fullscreenenter"",""1"",""1262""
""blur"",""7"",""21930""
""focus"",""7"",""24066""
""blur"",""61"",""549089""
""focus"",""80"",""642150""
","""event"",""trial"",""time""
""blur"",""7"",""21930""
""blur"",""61"",""549089""
","""event"",""trial"",""time""
""focus"",""7"",""24066""
""focus"",""80"",""642150""
","""event"",""trial"",""time""
""fullscreenenter"",""1"",""1262""
","
","","","-1","","","25","9988","4329","&#9730;","elianto","#3366ff99"," ","-1","0","0","[]","0","1","","","9988","18","1","1","win","go","0"
"pit-trial","136","932365","0.0-22.0","battery-v0.2","","""event"",""trial"",""time""
""fullscreenenter"",""1"",""1262""
""blur"",""7"",""21930""
""focus"",""7"",""24066""
""blur"",""61"",""549089""
""focus"",""80"",""642150""
","""event"",""trial"",""time""
""blur"",""7"",""21930""
""blur"",""61"",""549089""
","""event"",""trial"",""time""
""focus"",""7"",""24066""
""focus"",""80"",""642150""
","""event"",""trial"",""time""
""fullscreenenter"",""1"",""1262""
","
","","","668.9000000059605","","","25","9988","4329","&#9752;","elianto","#f73b6a7A"," "," ","1","0","[1519.9000000059605]","1","1","","","9988","19","3","3","lose","go","0"
"pit-trial","137","937217","0.0-23.0","battery-v0.2","","""event"",""trial"",""time""
""fullscreenenter"",""1"",""1262""
""blur"",""7"",""21930""
""focus"",""7"",""24066""
""blur"",""61"",""549089""
""focus"",""80"",""642150""
","""event"",""trial"",""time""
""blur"",""7"",""21930""
""blur"",""61"",""549089""
","""event"",""trial"",""time""
""focus"",""7"",""24066""
""focus"",""80"",""642150""
","""event"",""trial"",""time""
""fullscreenenter"",""1"",""1262""
","
","","","-1","","","25","9988","4329","&#9728;","elianto","#f73b6a7A","-1","-1","1","0","[]","0","1","","","9988","20","0","4","lose","no-go","0"
"pit-instructions","138","949313","0.0-24.0","battery-v0.2","","""event"",""trial"",""time""
""fullscreenenter"",""1"",""1262""
""blur"",""7"",""21930""
""focus"",""7"",""24066""
""blur"",""61"",""549089""
""focus"",""80"",""642150""
","""event"",""trial"",""time""
""blur"",""7"",""21930""
""blur"",""61"",""549089""
","""event"",""trial"",""time""
""focus"",""7"",""24066""
""focus"",""80"",""642150""
","""event"",""trial"",""time""
""fullscreenenter"",""1"",""1262""
","
","","[{""page_index"":0,""viewing_time"":5779.5},{""page_index"":1,""viewing_time"":6315.700000017881}]","12095.40000000596","","","","","","","","","","","","","","","","","","","","","","","",""
"pit-trial","139","953140","0.0-25.0","battery-v0.2","","""event"",""trial"",""time""
""fullscreenenter"",""1"",""1262""
""blur"",""7"",""21930""
""focus"",""7"",""24066""
""blur"",""61"",""549089""
""focus"",""80"",""642150""
","""event"",""trial"",""time""
""blur"",""7"",""21930""
""blur"",""61"",""549089""
","""event"",""trial"",""time""
""focus"",""7"",""24066""
""focus"",""80"",""642150""
","""event"",""trial"",""time""
""fullscreenenter"",""1"",""1262""
","
","","","956","","","25","9988","4329","g","elianto","#f73b6a7A"," "," ","1","-10","[1816.7999999821186]","1","2","","","9988","21","3","3","lose","go","1"
"pit-trial","140","956626","0.0-26.0","battery-v0.2","","""event"",""trial"",""time""
""fullscreenenter"",""1"",""1262""
""blur"",""7"",""21930""
""focus"",""7"",""24066""
""blur"",""61"",""549089""
""focus"",""80"",""642150""
","""event"",""trial"",""time""
""blur"",""7"",""21930""
""blur"",""61"",""549089""
","""event"",""trial"",""time""
""focus"",""7"",""24066""
""focus"",""80"",""642150""
","""event"",""trial"",""time""
""fullscreenenter"",""1"",""1262""
","
","","","615.9000000059605","","","25","9988","4329","l","elianto","#3366ff99"," "," ","1","0","[1470.1000000238419]","1","2","","","9988","22","1","1","win","go","1"
"pit-trial","141","960199","0.0-27.0","battery-v0.2","","""event"",""trial"",""time""
""fullscreenenter"",""1"",""1262""
""blur"",""7"",""21930""
""focus"",""7"",""24066""
""blur"",""61"",""549089""
""focus"",""80"",""642150""
","""event"",""trial"",""time""
""blur"",""7"",""21930""
""blur"",""61"",""549089""
","""event"",""trial"",""time""
""focus"",""7"",""24066""
""focus"",""80"",""642150""
","""event"",""trial"",""time""
""fullscreenenter"",""1"",""1262""
","
","","","707.4000000059605","","","25","9988","4329","a","elianto","#f73b6a7A","-1"," ","0","-10","[1560.2000000178814]","1","2","","","9988","23","2","4","lose","no-go","0"
"pit-trial","142","963718","0.0-28.0","battery-v0.2","","""event"",""trial"",""time""
""fullscreenenter"",""1"",""1262""
""blur"",""7"",""21930""
""focus"",""7"",""24066""
""blur"",""61"",""549089""
""focus"",""80"",""642150""
","""event"",""trial"",""time""
""blur"",""7"",""21930""
""blur"",""61"",""549089""
","""event"",""trial"",""time""
""focus"",""7"",""24066""
""focus"",""80"",""642150""
","""event"",""trial"",""time""
""fullscreenenter"",""1"",""1262""
","
","","","652.5","","","25","9988","4329","u","elianto","#f73b6a7A","-1"," ","0","-10","[1506.9000000059605]","1","2","","","9988","24","0","4","lose","no-go","0"
"pit-trial","143","968582","0.0-29.0","battery-v0.2","","""event"",""trial"",""time""
""fullscreenenter"",""1"",""1262""
""blur"",""7"",""21930""
""focus"",""7"",""24066""
""blur"",""61"",""549089""
""focus"",""80"",""642150""
","""event"",""trial"",""time""
""blur"",""7"",""21930""
""blur"",""61"",""549089""
","""event"",""trial"",""time""
""focus"",""7"",""24066""
""focus"",""80"",""642150""
","""event"",""trial"",""time""
""fullscreenenter"",""1"",""1262""
","
","","","-1","","","25","9988","4329","a","elianto","#f73b6a7A","-1","-1","1","0","[]","0","2","","","9988","25","2","4","lose","no-go","0"
"pit-trial","144","973455","0.0-30.0","battery-v0.2","","""event"",""trial"",""time""
""fullscreenenter"",""1"",""1262""
""blur"",""7"",""21930""
""focus"",""7"",""24066""
""blur"",""61"",""549089""
""focus"",""80"",""642150""
","""event"",""trial"",""time""
""blur"",""7"",""21930""
""blur"",""61"",""549089""
","""event"",""trial"",""time""
""focus"",""7"",""24066""
""focus"",""80"",""642150""
","""event"",""trial"",""time""
""fullscreenenter"",""1"",""1262""
","
","","","-1","","","25","9988","4329","g","elianto","#f73b6a7A"," ","-1","0","-10","[]","0","2","","","9988","26","3","3","lose","go","0"
"pit-trial","145","978324","0.0-31.0","battery-v0.2","","""event"",""trial"",""time""
""fullscreenenter"",""1"",""1262""
""blur"",""7"",""21930""
""focus"",""7"",""24066""
""blur"",""61"",""549089""
""focus"",""80"",""642150""
","""event"",""trial"",""time""
""blur"",""7"",""21930""
""blur"",""61"",""549089""
","""event"",""trial"",""time""
""focus"",""7"",""24066""
""focus"",""80"",""642150""
","""event"",""trial"",""time""
""fullscreenenter"",""1"",""1262""
","
","","","-1","","","25","9988","4329","u","elianto","#f73b6a7A","-1","-1","1","-10","[]","0","2","","","9988","27","0","4","lose","no-go","1"
"pit-trial","146","981883","0.0-32.0","battery-v0.2","","""event"",""trial"",""time""
""fullscreenenter"",""1"",""1262""
""blur"",""7"",""21930""
""focus"",""7"",""24066""
""blur"",""61"",""549089""
""focus"",""80"",""642150""
","""event"",""trial"",""time""
""blur"",""7"",""21930""
""blur"",""61"",""549089""
","""event"",""trial"",""time""
""focus"",""7"",""24066""
""focus"",""80"",""642150""
","""event"",""trial"",""time""
""fullscreenenter"",""1"",""1262""
","
","","","705.9000000059605","","","25","9988","4329","l","elianto","#3366ff99"," "," ","1","+10","[1557.7999999821186]","1","2","","","9988","28","1","1","win","go","0"
"pit-trial","147","986736","0.0-33.0","battery-v0.2","","""event"",""trial"",""time""
""fullscreenenter"",""1"",""1262""
""blur"",""7"",""21930""
""focus"",""7"",""24066""
""blur"",""61"",""549089""
""focus"",""80"",""642150""
","""event"",""trial"",""time""
""blur"",""7"",""21930""
""blur"",""61"",""549089""
","""event"",""trial"",""time""
""focus"",""7"",""24066""
""focus"",""80"",""642150""
","""event"",""trial"",""time""
""fullscreenenter"",""1"",""1262""
","
","","","-1","","","25","9988","4329","g","elianto","#f73b6a7A"," ","-1","0","-10","[]","0","2","","","9988","29","3","3","lose","go","0"
"pit-trial","148","991590","0.0-34.0","battery-v0.2","","""event"",""trial"",""time""
""fullscreenenter"",""1"",""1262""
""blur"",""7"",""21930""
""focus"",""7"",""24066""
""blur"",""61"",""549089""
""focus"",""80"",""642150""
","""event"",""trial"",""time""
""blur"",""7"",""21930""
""blur"",""61"",""549089""
","""event"",""trial"",""time""
""focus"",""7"",""24066""
""focus"",""80"",""642150""
","""event"",""trial"",""time""
""fullscreenenter"",""1"",""1262""
","
","","","-1","","","25","9988","4329","a","elianto","#f73b6a7A","-1","-1","1","-10","[]","0","2","","","9988","30","2","4","lose","no-go","1"
"pit-trial","149","995146","0.0-35.0","battery-v0.2","","""event"",""trial"",""time""
""fullscreenenter"",""1"",""1262""
""blur"",""7"",""21930""
""focus"",""7"",""24066""
""blur"",""61"",""549089""
""focus"",""80"",""642150""
","""event"",""trial"",""time""
""blur"",""7"",""21930""
""blur"",""61"",""549089""
","""event"",""trial"",""time""
""focus"",""7"",""24066""
""focus"",""80"",""642150""
","""event"",""trial"",""time""
""fullscreenenter"",""1"",""1262""
","
","","","704.2999999821186","","","25","9988","4329","l","elianto","#3366ff99"," "," ","1","+10","[1555.199999988079]","1","2","","","9988","31","1","1","win","go","0"
"pit-trial","150","998771","0.0-36.0","battery-v0.2","","""event"",""trial"",""time""
""fullscreenenter"",""1"",""1262""
""blur"",""7"",""21930""
""focus"",""7"",""24066""
""blur"",""61"",""549089""
""focus"",""80"",""642150""
","""event"",""trial"",""time""
""blur"",""7"",""21930""
""blur"",""61"",""549089""
","""event"",""trial"",""time""
""focus"",""7"",""24066""
""focus"",""80"",""642150""
","""event"",""trial"",""time""
""fullscreenenter"",""1"",""1262""
","
","","","771.8999999761581","","","25","9988","4329","u","elianto","#f73b6a7A","-1"," ","0","-10","[1622.699999988079]","1","2","","","9988","32","0","4","lose","no-go","0"
"pit-trial","151","1002618","0.0-37.0","battery-v0.2","","""event"",""trial"",""time""
""fullscreenenter"",""1"",""1262""
""blur"",""7"",""21930""
""focus"",""7"",""24066""
""blur"",""61"",""549089""
""focus"",""80"",""642150""
","""event"",""trial"",""time""
""blur"",""7"",""21930""
""blur"",""61"",""549089""
","""event"",""trial"",""time""
""focus"",""7"",""24066""
""focus"",""80"",""642150""
","""event"",""trial"",""time""
""fullscreenenter"",""1"",""1262""
","
","","","994.9000000059605","","","25","9988","4329","u","elianto","#f73b6a7A","-1"," ","0","-10","[1845.699999988079]","1","2","","","9988","33","0","4","lose","no-go","0"
"pit-trial","152","1007041","0.0-38.0","battery-v0.2","","""event"",""trial"",""time""
""fullscreenenter"",""1"",""1262""
""blur"",""7"",""21930""
""focus"",""7"",""24066""
""blur"",""61"",""549089""
""focus"",""80"",""642150""
","""event"",""trial"",""time""
""blur"",""7"",""21930""
""blur"",""61"",""549089""
","""event"",""trial"",""time""
""focus"",""7"",""24066""
""focus"",""80"",""642150""
","""event"",""trial"",""time""
""fullscreenenter"",""1"",""1262""
","
","","","1570.8999999761581","","","25","9988","4329","a","elianto","#f73b6a7A","-1"," ","0","-10","[2422.5]","1","2","","","9988","34","2","4","lose","no-go","0"
"pit-trial","153","1010594","0.0-39.0","battery-v0.2","","""event"",""trial"",""time""
""fullscreenenter"",""1"",""1262""
""blur"",""7"",""21930""
""focus"",""7"",""24066""
""blur"",""61"",""549089""
""focus"",""80"",""642150""
","""event"",""trial"",""time""
""blur"",""7"",""21930""
""blur"",""61"",""549089""
","""event"",""trial"",""time""
""focus"",""7"",""24066""
""focus"",""80"",""642150""
","""event"",""trial"",""time""
""fullscreenenter"",""1"",""1262""
","
","","","700.0999999940395","","","25","9988","4329","g","elianto","#f73b6a7A"," "," ","1","-10","[1550.5999999940395]","1","2","","","9988","35","3","3","lose","go","1"
"pit-trial","154","1014154","0.0-40.0","battery-v0.2","","""event"",""trial"",""time""
""fullscreenenter"",""1"",""1262""
""blur"",""7"",""21930""
""focus"",""7"",""24066""
""blur"",""61"",""549089""
""focus"",""80"",""642150""
","""event"",""trial"",""time""
""blur"",""7"",""21930""
""blur"",""61"",""549089""
","""event"",""trial"",""time""
""focus"",""7"",""24066""
""focus"",""80"",""642150""
","""event"",""trial"",""time""
""fullscreenenter"",""1"",""1262""
","
","","","707.4000000059605","","","25","9988","4329","l","elianto","#3366ff99"," "," ","1","+10","[1557.9000000059605]","1","2","","","9988","36","1","1","win","go","0"
"pit-trial","155","1017571","0.0-41.0","battery-v0.2","","""event"",""trial"",""time""
""fullscreenenter"",""1"",""1262""
""blur"",""7"",""21930""
""focus"",""7"",""24066""
""blur"",""61"",""549089""
""focus"",""80"",""642150""
","""event"",""trial"",""time""
""blur"",""7"",""21930""
""blur"",""61"",""549089""
","""event"",""trial"",""time""
""focus"",""7"",""24066""
""focus"",""80"",""642150""
","""event"",""trial"",""time""
""fullscreenenter"",""1"",""1262""
","
","","","563.6999999880791","","","25","9988","4329","l","elianto","#3366ff99"," "," ","1","+10","[1414.5]","1","2","","","9988","37","1","1","win","go","0"
"pit-trial","156","1022423","0.0-42.0","battery-v0.2","","""event"",""trial"",""time""
""fullscreenenter"",""1"",""1262""
""blur"",""7"",""21930""
""focus"",""7"",""24066""
""blur"",""61"",""549089""
""focus"",""80"",""642150""
","""event"",""trial"",""time""
""blur"",""7"",""21930""
""blur"",""61"",""549089""
","""event"",""trial"",""time""
""focus"",""7"",""24066""
""focus"",""80"",""642150""
","""event"",""trial"",""time""
""fullscreenenter"",""1"",""1262""
","
","","","-1","","","25","9988","4329","a","elianto","#f73b6a7A","-1","-1","1","-10","[]","0","2","","","9988","38","2","4","lose","no-go","1"
"pit-trial","157","1027276","0.0-43.0","battery-v0.2","","""event"",""trial"",""time""
""fullscreenenter"",""1"",""1262""
""blur"",""7"",""21930""
""focus"",""7"",""24066""
""blur"",""61"",""549089""
""focus"",""80"",""642150""
","""event"",""trial"",""time""
""blur"",""7"",""21930""
""blur"",""61"",""549089""
","""event"",""trial"",""time""
""focus"",""7"",""24066""
""focus"",""80"",""642150""
","""event"",""trial"",""time""
""fullscreenenter"",""1"",""1262""
","
","","","-1","","","25","9988","4329","g","elianto","#f73b6a7A"," ","-1","0","-10","[]","0","2","","","9988","39","3","3","lose","go","0"
"pit-trial","158","1030785","0.0-44.0","battery-v0.2","","""event"",""trial"",""time""
""fullscreenenter"",""1"",""1262""
""blur"",""7"",""21930""
""focus"",""7"",""24066""
""blur"",""61"",""549089""
""focus"",""80"",""642150""
","""event"",""trial"",""time""
""blur"",""7"",""21930""
""blur"",""61"",""549089""
","""event"",""trial"",""time""
""focus"",""7"",""24066""
""focus"",""80"",""642150""
","""event"",""trial"",""time""
""fullscreenenter"",""1"",""1262""
","
","","","657.6999999880791","","","25","9988","4329","u","elianto","#f73b6a7A","-1"," ","0","-10","[1507.7999999821186]","1","2","","","9988","40","0","4","lose","no-go","0"
"pit-trial","159","1034221","0.0-45.0","battery-v0.2","","""event"",""trial"",""time""
""fullscreenenter"",""1"",""1262""
""blur"",""7"",""21930""
""focus"",""7"",""24066""
""blur"",""61"",""549089""
""focus"",""80"",""642150""
","""event"",""trial"",""time""
""blur"",""7"",""21930""
""blur"",""61"",""549089""
","""event"",""trial"",""time""
""focus"",""7"",""24066""
""focus"",""80"",""642150""
","""event"",""trial"",""time""
""fullscreenenter"",""1"",""1262""
","
","","","578.9000000059605","","","25","9988","4329","l","elianto","#3366ff99"," "," ","1","+10","[1430]","1","2","","","9988","41","1","1","win","go","0"
"pit-trial","160","1037841","0.0-46.0","battery-v0.2","","""event"",""trial"",""time""
""fullscreenenter"",""1"",""1262""
""blur"",""7"",""21930""
""focus"",""7"",""24066""
""blur"",""61"",""549089""
""focus"",""80"",""642150""
","""event"",""trial"",""time""
""blur"",""7"",""21930""
""blur"",""61"",""549089""
","""event"",""trial"",""time""
""focus"",""7"",""24066""
""focus"",""80"",""642150""
","""event"",""trial"",""time""
""fullscreenenter"",""1"",""1262""
","
","","","768","","","25","9988","4329","u","elianto","#f73b6a7A","-1"," ","0","-10","[1618.300000011921]","1","2","","","9988","42","0","4","lose","no-go","0"
"pit-trial","161","1041982","0.0-47.0","battery-v0.2","","""event"",""trial"",""time""
""fullscreenenter"",""1"",""1262""
""blur"",""7"",""21930""
""focus"",""7"",""24066""
""blur"",""61"",""549089""
""focus"",""80"",""642150""
","""event"",""trial"",""time""
""blur"",""7"",""21930""
""blur"",""61"",""549089""
","""event"",""trial"",""time""
""focus"",""7"",""24066""
""focus"",""80"",""642150""
","""event"",""trial"",""time""
""fullscreenenter"",""1"",""1262""
","
","","","1283.7999999821186","","","25","9988","4329","a","elianto","#f73b6a7A","-1"," ","0","-10","[2134.5999999940395]","1","2","","","9988","43","2","4","lose","no-go","0"
"pit-trial","162","1046835","0.0-48.0","battery-v0.2","","""event"",""trial"",""time""
""fullscreenenter"",""1"",""1262""
""blur"",""7"",""21930""
""focus"",""7"",""24066""
""blur"",""61"",""549089""
""focus"",""80"",""642150""
","""event"",""trial"",""time""
""blur"",""7"",""21930""
""blur"",""61"",""549089""
","""event"",""trial"",""time""
""focus"",""7"",""24066""
""focus"",""80"",""642150""
","""event"",""trial"",""time""
""fullscreenenter"",""1"",""1262""
","
","","","-1","","","25","9988","4329","g","elianto","#f73b6a7A"," ","-1","0","-10","[]","0","2","","","9988","44","3","3","lose","go","0"
"pit-trial","163","1051688","0.0-49.0","battery-v0.2","","""event"",""trial"",""time""
""fullscreenenter"",""1"",""1262""
""blur"",""7"",""21930""
""focus"",""7"",""24066""
""blur"",""61"",""549089""
""focus"",""80"",""642150""
","""event"",""trial"",""time""
""blur"",""7"",""21930""
""blur"",""61"",""549089""
","""event"",""trial"",""time""
""focus"",""7"",""24066""
""focus"",""80"",""642150""
","""event"",""trial"",""time""
""fullscreenenter"",""1"",""1262""
","
","","","-1","","","25","9988","4329","g","elianto","#f73b6a7A"," ","-1","0","0","[]","0","2","","","9988","45","3","3","lose","go","1"
"pit-trial","164","1056541","0.0-50.0","battery-v0.2","","""event"",""trial"",""time""
""fullscreenenter"",""1"",""1262""
""blur"",""7"",""21930""
""focus"",""7"",""24066""
""blur"",""61"",""549089""
""focus"",""80"",""642150""
","""event"",""trial"",""time""
""blur"",""7"",""21930""
""blur"",""61"",""549089""
","""event"",""trial"",""time""
""focus"",""7"",""24066""
""focus"",""80"",""642150""
","""event"",""trial"",""time""
""fullscreenenter"",""1"",""1262""
","
","","","-1","","","25","9988","4329","a","elianto","#f73b6a7A","-1","-1","1","0","[]","0","2","","","9988","46","2","4","lose","no-go","0"
"pit-trial","165","1060080","0.0-51.0","battery-v0.2","","""event"",""trial"",""time""
""fullscreenenter"",""1"",""1262""
""blur"",""7"",""21930""
""focus"",""7"",""24066""
""blur"",""61"",""549089""
""focus"",""80"",""642150""
","""event"",""trial"",""time""
""blur"",""7"",""21930""
""blur"",""61"",""549089""
","""event"",""trial"",""time""
""focus"",""7"",""24066""
""focus"",""80"",""642150""
","""event"",""trial"",""time""
""fullscreenenter"",""1"",""1262""
","
","","","687.0999999940395","","","25","9988","4329","p","elianto","#3366ff99","-1"," ","0","0","[1537.199999988079]","1","2","","","9988","47","4","2","win","no-go","0"
