"trial_type","trial_index","time_elapsed","internal_node_id","task_version","subject_id","interactions","blur_events","focus_events","fullscreenenter_events","fullscreenexit_events","success","view_history","rt","responses","num_errors","age","subject","participantId","rune","rune_set","hex","correct","choice","accuracy","outcome","keys","total_keys","block","practice","value","sub","trial","stimulus","robot","valence","action","sham"
"pavlovia","0","14","0.0-0.0","battery-v0.2","","""event"",""trial"",""time""
""fullscreenenter"",""1"",""5072""
","
","
","""event"",""trial"",""time""
""fullscreenenter"",""1"",""5072""
","
","","","","","","","","","","","","","","","","","","","","","","","","","","",""
"fullscreen","1","6053","0.0-1.0","battery-v0.2","","""event"",""trial"",""time""
""fullscreenenter"",""1"",""5072""
","
","
","""event"",""trial"",""time""
""fullscreenenter"",""1"",""5072""
","
","true","","","","","","","","","","","","","","","","","","","","","","","","","",""
"pit-instructions","2","10287","0.0-2.0-0.0","battery-v0.2","","""event"",""trial"",""time""
""fullscreenenter"",""1"",""5072""
""blur"",""3"",""14790""
""focus"",""3"",""14877""
","""event"",""trial"",""time""
""blur"",""3"",""14790""
","""event"",""trial"",""time""
""focus"",""3"",""14877""
","""event"",""trial"",""time""
""fullscreenenter"",""1"",""5072""
","
","","[{""page_index"":0,""viewing_time"":4227.5}]","4228.5","","","","","","","","","","","","","","","","","","","","","","","",""
"pit-comprehension","3","17106","0.0-2.0-1.0-0.0","battery-v0.2","","""event"",""trial"",""time""
""fullscreenenter"",""1"",""5072""
""blur"",""3"",""14790""
""focus"",""3"",""14877""
","""event"",""trial"",""time""
""blur"",""3"",""14790""
","""event"",""trial"",""time""
""focus"",""3"",""14877""
","""event"",""trial"",""time""
""fullscreenenter"",""1"",""5072""
","
","","","6815","[""shark""]","0","20","15344","3165","","","","","","","","","","","","","","","","","","",""
"pit-instructions","4","18785","0.0-2.0-1.0-1.0","battery-v0.2","","""event"",""trial"",""time""
""fullscreenenter"",""1"",""5072""
""blur"",""3"",""14790""
""focus"",""3"",""14877""
","""event"",""trial"",""time""
""blur"",""3"",""14790""
","""event"",""trial"",""time""
""focus"",""3"",""14877""
","""event"",""trial"",""time""
""fullscreenenter"",""1"",""5072""
","
","","[{""page_index"":0,""viewing_time"":1663.7000000476837}]","1664","","","","","","","","","","","","","","","","","","","","","","","",""
"pit-comprehension","5","21256","0.0-2.0-2.0-0.0","battery-v0.2","","""event"",""trial"",""time""
""fullscreenenter"",""1"",""5072""
""blur"",""3"",""14790""
""focus"",""3"",""14877""
","""event"",""trial"",""time""
""blur"",""3"",""14790""
","""event"",""trial"",""time""
""focus"",""3"",""14877""
","""event"",""trial"",""time""
""fullscreenenter"",""1"",""5072""
","
","","","2467.899999856949","[""tiger""]","0","20","15344","3165","","","","","","","","","","","","","","","","","","",""
"pit-instructions","6","22488","0.0-2.0-2.0-1.0","battery-v0.2","","""event"",""trial"",""time""
""fullscreenenter"",""1"",""5072""
""blur"",""3"",""14790""
""focus"",""3"",""14877""
","""event"",""trial"",""time""
""blur"",""3"",""14790""
","""event"",""trial"",""time""
""focus"",""3"",""14877""
","""event"",""trial"",""time""
""fullscreenenter"",""1"",""5072""
","
","","[{""page_index"":0,""viewing_time"":1226.9000000953674}]","1227.9000000953674","","","","","","","","","","","","","","","","","","","","","","","",""
"pit-instructions","7","125239","0.0-2.0-3.0","battery-v0.2","","""event"",""trial"",""time""
""fullscreenenter"",""1"",""5072""
""blur"",""3"",""14790""
""focus"",""3"",""14877""
","""event"",""trial"",""time""
""blur"",""3"",""14790""
","""event"",""trial"",""time""
""focus"",""3"",""14877""
","""event"",""trial"",""time""
""fullscreenenter"",""1"",""5072""
","
","","[{""page_index"":0,""viewing_time"":8444.399999856949},{""page_index"":1,""viewing_time"":7315.799999952316},{""page_index"":2,""viewing_time"":6368},{""page_index"":3,""viewing_time"":6250.300000190735},{""page_index"":4,""viewing_time"":6882},{""page_index"":5,""viewing_time"":5951.5},{""page_index"":6,""viewing_time"":8902},{""page_index"":7,""viewing_time"":7016.599999904633},{""page_index"":8,""viewing_time"":8032.200000047684},{""page_index"":9,""viewing_time"":8683.899999856949},{""page_index"":10,""viewing_time"":8100.200000047684},{""page_index"":11,""viewing_time"":7942.200000047684},{""page_index"":12,""viewing_time"":6958.299999952316},{""page_index"":13,""viewing_time"":5899.900000095367}]","102748.29999995232","","","","","","","","","","","","","","","","","","","","","","","",""
"pit-trial","8","129097","0.0-2.0-4.0-0.0","battery-v0.2","","""event"",""trial"",""time""
""fullscreenenter"",""1"",""5072""
""blur"",""3"",""14790""
""focus"",""3"",""14877""
","""event"",""trial"",""time""
""blur"",""3"",""14790""
","""event"",""trial"",""time""
""focus"",""3"",""14877""
","""event"",""trial"",""time""
""fullscreenenter"",""1"",""5072""
","
","","","1001.5","","","20","15344","3165","&#9784;","elianto","#FFFFF080"," "," ","1","&#10004","[1852.7000000476837]","1","0","0","","","","","","","",""
"pit-trial","9","133653","0.0-2.0-4.1-0.1","battery-v0.2","","""event"",""trial"",""time""
""fullscreenenter"",""1"",""5072""
""blur"",""3"",""14790""
""focus"",""3"",""14877""
","""event"",""trial"",""time""
""blur"",""3"",""14790""
","""event"",""trial"",""time""
""focus"",""3"",""14877""
","""event"",""trial"",""time""
""fullscreenenter"",""1"",""5072""
","
","","","1702.7000000476837","","","20","15344","3165","&#9784;","elianto","#FFFFF080"," "," ","1","&#10004","[2553]","1","0","0","","","","","","","",""
"pit-trial","10","137031","0.0-2.0-4.2-0.2","battery-v0.2","","""event"",""trial"",""time""
""fullscreenenter"",""1"",""5072""
""blur"",""3"",""14790""
""focus"",""3"",""14877""
","""event"",""trial"",""time""
""blur"",""3"",""14790""
","""event"",""trial"",""time""
""focus"",""3"",""14877""
","""event"",""trial"",""time""
""fullscreenenter"",""1"",""5072""
","
","","","520.1000001430511","","","20","15344","3165","&#9784;","elianto","#FFFFF080"," "," ","1","&#10004","[1371.5999999046326]","1","0","0","","","","","","","",""
"pit-trial","11","140747","0.0-2.0-4.3-0.3","battery-v0.2","","""event"",""trial"",""time""
""fullscreenenter"",""1"",""5072""
""blur"",""3"",""14790""
""focus"",""3"",""14877""
","""event"",""trial"",""time""
""blur"",""3"",""14790""
","""event"",""trial"",""time""
""focus"",""3"",""14877""
","""event"",""trial"",""time""
""fullscreenenter"",""1"",""5072""
","
","","","860.4000000953674","","","20","15344","3165","&#9784;","elianto","#FFFFF080"," "," ","1","&#10004","[1711.4000000953674]","1","0","0","","","","","","","",""
"pit-trial","12","144092","0.0-2.0-4.4-0.4","battery-v0.2","","""event"",""trial"",""time""
""fullscreenenter"",""1"",""5072""
""blur"",""3"",""14790""
""focus"",""3"",""14877""
","""event"",""trial"",""time""
""blur"",""3"",""14790""
","""event"",""trial"",""time""
""focus"",""3"",""14877""
","""event"",""trial"",""time""
""fullscreenenter"",""1"",""5072""
","
","","","489.69999980926514","","","20","15344","3165","&#9784;","elianto","#FFFFF080"," "," ","1","&#10004","[1340]","1","0","0","","","","","","","",""
"pit-instructions","13","166257","0.0-2.0-5.0","battery-v0.2","","""event"",""trial"",""time""
""fullscreenenter"",""1"",""5072""
""blur"",""3"",""14790""
""focus"",""3"",""14877""
","""event"",""trial"",""time""
""blur"",""3"",""14790""
","""event"",""trial"",""time""
""focus"",""3"",""14877""
","""event"",""trial"",""time""
""fullscreenenter"",""1"",""5072""
","
","","[{""page_index"":0,""viewing_time"":4811.099999904633},{""page_index"":1,""viewing_time"":6098.700000047684},{""page_index"":2,""viewing_time"":6115.700000047684},{""page_index"":3,""viewing_time"":5133.700000047684}]","22160.200000047684","","","","","","","","","","","","","","","","","","","","","","","",""
"pit-trial","14","171112","0.0-2.0-6.0-0.0","battery-v0.2","","""event"",""trial"",""time""
""fullscreenenter"",""1"",""5072""
""blur"",""3"",""14790""
""focus"",""3"",""14877""
","""event"",""trial"",""time""
""blur"",""3"",""14790""
","""event"",""trial"",""time""
""focus"",""3"",""14877""
","""event"",""trial"",""time""
""fullscreenenter"",""1"",""5072""
","
","","","-1","","","20","15344","3165","&#9854;","elianto","#FFFFF080","-1","-1","1","&#10004","[]","0","0","1","","","","","","","",""
"pit-trial","15","175969","0.0-2.0-6.1-0.1","battery-v0.2","","""event"",""trial"",""time""
""fullscreenenter"",""1"",""5072""
""blur"",""3"",""14790""
""focus"",""3"",""14877""
","""event"",""trial"",""time""
""blur"",""3"",""14790""
","""event"",""trial"",""time""
""focus"",""3"",""14877""
","""event"",""trial"",""time""
""fullscreenenter"",""1"",""5072""
","
","","","-1","","","20","15344","3165","&#9854;","elianto","#FFFFF080","-1","-1","1","&#10004","[]","0","0","1","","","","","","","",""
"pit-trial","16","180824","0.0-2.0-6.2-0.2","battery-v0.2","","""event"",""trial"",""time""
""fullscreenenter"",""1"",""5072""
""blur"",""3"",""14790""
""focus"",""3"",""14877""
","""event"",""trial"",""time""
""blur"",""3"",""14790""
","""event"",""trial"",""time""
""focus"",""3"",""14877""
","""event"",""trial"",""time""
""fullscreenenter"",""1"",""5072""
","
","","","-1","","","20","15344","3165","&#9854;","elianto","#FFFFF080","-1","-1","1","&#10004","[]","0","0","1","","","","","","","",""
"pit-trial","17","185677","0.0-2.0-6.3-0.3","battery-v0.2","","""event"",""trial"",""time""
""fullscreenenter"",""1"",""5072""
""blur"",""3"",""14790""
""focus"",""3"",""14877""
","""event"",""trial"",""time""
""blur"",""3"",""14790""
","""event"",""trial"",""time""
""focus"",""3"",""14877""
","""event"",""trial"",""time""
""fullscreenenter"",""1"",""5072""
","
","","","-1","","","20","15344","3165","&#9854;","elianto","#FFFFF080","-1","-1","1","&#10004","[]","0","0","1","","","","","","","",""
"pit-trial","18","190532","0.0-2.0-6.4-0.4","battery-v0.2","","""event"",""trial"",""time""
""fullscreenenter"",""1"",""5072""
""blur"",""3"",""14790""
""focus"",""3"",""14877""
","""event"",""trial"",""time""
""blur"",""3"",""14790""
","""event"",""trial"",""time""
""focus"",""3"",""14877""
","""event"",""trial"",""time""
""fullscreenenter"",""1"",""5072""
","
","","","-1","","","20","15344","3165","&#9854;","elianto","#FFFFF080","-1","-1","1","&#10004","[]","0","0","1","","","","","","","",""
"pit-instructions","19","309042","0.0-2.0-7.0","battery-v0.2","","""event"",""trial"",""time""
""fullscreenenter"",""1"",""5072""
""blur"",""3"",""14790""
""focus"",""3"",""14877""
","""event"",""trial"",""time""
""blur"",""3"",""14790""
","""event"",""trial"",""time""
""focus"",""3"",""14877""
","""event"",""trial"",""time""
""fullscreenenter"",""1"",""5072""
","
","","[{""page_index"":0,""viewing_time"":6002.099999904633},{""page_index"":1,""viewing_time"":7618.200000047684},{""page_index"":2,""viewing_time"":6349.700000047684},{""page_index"":3,""viewing_time"":6915.899999856949},{""page_index"":4,""viewing_time"":5316.200000047684},{""page_index"":5,""viewing_time"":5601.700000047684},{""page_index"":6,""viewing_time"":4833.200000047684},{""page_index"":7,""viewing_time"":7917.799999952316},{""page_index"":8,""viewing_time"":7714.200000047684},{""page_index"":9,""viewing_time"":6150.399999856949},{""page_index"":10,""viewing_time"":6686.900000095367},{""page_index"":11,""viewing_time"":5016.700000047684},{""page_index"":12,""viewing_time"":7114.5},{""page_index"":13,""viewing_time"":7084.399999856949},{""page_index"":14,""viewing_time"":7166.700000047684},{""page_index"":15,""viewing_time"":6749.5},{""page_index"":16,""viewing_time"":6918.600000143051},{""page_index"":17,""viewing_time"":7348.199999809265}]","118505.5","","","","","","","","","","","","","","","","","","","","","","","",""
"pit-trial","20","312696","0.0-2.0-8.0-0.0","battery-v0.2","","""event"",""trial"",""time""
""fullscreenenter"",""1"",""5072""
""blur"",""3"",""14790""
""focus"",""3"",""14877""
","""event"",""trial"",""time""
""blur"",""3"",""14790""
","""event"",""trial"",""time""
""focus"",""3"",""14877""
","""event"",""trial"",""time""
""fullscreenenter"",""1"",""5072""
","
","","","800.5","","","20","15344","3165","&#9776;","elianto","#3366ff99"," "," ","1","+10","[1650.7999999523163]","1","0","1","","","","","","","",""
"pit-trial","21","316124","0.0-2.0-8.0-1.0","battery-v0.2","","""event"",""trial"",""time""
""fullscreenenter"",""1"",""5072""
""blur"",""3"",""14790""
""focus"",""3"",""14877""
","""event"",""trial"",""time""
""blur"",""3"",""14790""
","""event"",""trial"",""time""
""focus"",""3"",""14877""
","""event"",""trial"",""time""
""fullscreenenter"",""1"",""5072""
","
","","","573.5","","","20","15344","3165","&#9776;","elianto","#3366ff99"," "," ","1","+10","[1424.5]","1","0","1","","","","","","","",""
"pit-trial","22","319548","0.0-2.0-8.0-2.0","battery-v0.2","","""event"",""trial"",""time""
""fullscreenenter"",""1"",""5072""
""blur"",""3"",""14790""
""focus"",""3"",""14877""
","""event"",""trial"",""time""
""blur"",""3"",""14790""
","""event"",""trial"",""time""
""focus"",""3"",""14877""
","""event"",""trial"",""time""
""fullscreenenter"",""1"",""5072""
","
","","","570.0999999046326","","","20","15344","3165","&#9776;","elianto","#3366ff99"," "," ","1","+10","[1420.6999998092651]","1","0","1","","","","","","","",""
"pit-trial","23","322925","0.0-2.0-8.0-3.0","battery-v0.2","","""event"",""trial"",""time""
""fullscreenenter"",""1"",""5072""
""blur"",""3"",""14790""
""focus"",""3"",""14877""
","""event"",""trial"",""time""
""blur"",""3"",""14790""
","""event"",""trial"",""time""
""focus"",""3"",""14877""
","""event"",""trial"",""time""
""fullscreenenter"",""1"",""5072""
","
","","","522.7999999523163","","","20","15344","3165","&#9776;","elianto","#3366ff99"," "," ","1","0","[1373.7999999523163]","1","0","1","","","","","","","",""
"pit-trial","24","326312","0.0-2.0-8.0-4.0","battery-v0.2","","""event"",""trial"",""time""
""fullscreenenter"",""1"",""5072""
""blur"",""3"",""14790""
""focus"",""3"",""14877""
","""event"",""trial"",""time""
""blur"",""3"",""14790""
","""event"",""trial"",""time""
""focus"",""3"",""14877""
","""event"",""trial"",""time""
""fullscreenenter"",""1"",""5072""
","
","","","533.7000000476837","","","20","15344","3165","&#9776;","elianto","#3366ff99"," "," ","1","+10","[1384.5]","1","0","1","","","","","","","",""
"pit-trial","25","329667","0.0-2.0-8.1-0.1","battery-v0.2","","""event"",""trial"",""time""
""fullscreenenter"",""1"",""5072""
""blur"",""3"",""14790""
""focus"",""3"",""14877""
","""event"",""trial"",""time""
""blur"",""3"",""14790""
","""event"",""trial"",""time""
""focus"",""3"",""14877""
","""event"",""trial"",""time""
""fullscreenenter"",""1"",""5072""
","
","","","499.5","","","20","15344","3165","&#9776;","elianto","#3366ff99"," "," ","1","+10","[1350.2999999523163]","1","0","1","","","","","","","",""
"pit-trial","26","332997","0.0-2.0-8.1-1.1","battery-v0.2","","""event"",""trial"",""time""
""fullscreenenter"",""1"",""5072""
""blur"",""3"",""14790""
""focus"",""3"",""14877""
","""event"",""trial"",""time""
""blur"",""3"",""14790""
","""event"",""trial"",""time""
""focus"",""3"",""14877""
","""event"",""trial"",""time""
""fullscreenenter"",""1"",""5072""
","
","","","475.60000014305115","","","20","15344","3165","&#9776;","elianto","#3366ff99"," "," ","1","+10","[1326.3999998569489]","1","0","1","","","","","","","",""
"pit-trial","27","336264","0.0-2.0-8.1-2.1","battery-v0.2","","""event"",""trial"",""time""
""fullscreenenter"",""1"",""5072""
""blur"",""3"",""14790""
""focus"",""3"",""14877""
","""event"",""trial"",""time""
""blur"",""3"",""14790""
","""event"",""trial"",""time""
""focus"",""3"",""14877""
","""event"",""trial"",""time""
""fullscreenenter"",""1"",""5072""
","
","","","412.40000009536743","","","20","15344","3165","&#9776;","elianto","#3366ff99"," "," ","1","+10","[1263.3999998569489]","1","0","1","","","","","","","",""
"pit-trial","28","339503","0.0-2.0-8.1-3.1","battery-v0.2","","""event"",""trial"",""time""
""fullscreenenter"",""1"",""5072""
""blur"",""3"",""14790""
""focus"",""3"",""14877""
","""event"",""trial"",""time""
""blur"",""3"",""14790""
","""event"",""trial"",""time""
""focus"",""3"",""14877""
","""event"",""trial"",""time""
""fullscreenenter"",""1"",""5072""
","
","","","383.7999999523163","","","20","15344","3165","&#9776;","elianto","#3366ff99"," "," ","1","0","[1234.6999998092651]","1","0","1","","","","","","","",""
"pit-trial","29","342816","0.0-2.0-8.1-4.1","battery-v0.2","","""event"",""trial"",""time""
""fullscreenenter"",""1"",""5072""
""blur"",""3"",""14790""
""focus"",""3"",""14877""
","""event"",""trial"",""time""
""blur"",""3"",""14790""
","""event"",""trial"",""time""
""focus"",""3"",""14877""
","""event"",""trial"",""time""
""fullscreenenter"",""1"",""5072""
","
","","","459","","","20","15344","3165","&#9776;","elianto","#3366ff99"," "," ","1","+10","[1310.3000001907349]","1","0","1","","","","","","","",""
"pit-trial","30","346053","0.0-2.0-8.2-0.2","battery-v0.2","","""event"",""trial"",""time""
""fullscreenenter"",""1"",""5072""
""blur"",""3"",""14790""
""focus"",""3"",""14877""
","""event"",""trial"",""time""
""blur"",""3"",""14790""
","""event"",""trial"",""time""
""focus"",""3"",""14877""
","""event"",""trial"",""time""
""fullscreenenter"",""1"",""5072""
","
","","","381.2000000476837","","","20","15344","3165","&#9776;","elianto","#3366ff99"," "," ","1","+10","[1232]","1","0","1","","","","","","","",""
"pit-trial","31","349231","0.0-2.0-8.2-1.2","battery-v0.2","","""event"",""trial"",""time""
""fullscreenenter"",""1"",""5072""
""blur"",""3"",""14790""
""focus"",""3"",""14877""
","""event"",""trial"",""time""
""blur"",""3"",""14790""
","""event"",""trial"",""time""
""focus"",""3"",""14877""
","""event"",""trial"",""time""
""fullscreenenter"",""1"",""5072""
","
","","","324.40000009536743","","","20","15344","3165","&#9776;","elianto","#3366ff99"," "," ","1","+10","[1175]","1","0","1","","","","","","","",""
"pit-trial","32","352535","0.0-2.0-8.2-2.2","battery-v0.2","","""event"",""trial"",""time""
""fullscreenenter"",""1"",""5072""
""blur"",""3"",""14790""
""focus"",""3"",""14877""
","""event"",""trial"",""time""
""blur"",""3"",""14790""
","""event"",""trial"",""time""
""focus"",""3"",""14877""
","""event"",""trial"",""time""
""fullscreenenter"",""1"",""5072""
","
","","","450.7000000476837","","","20","15344","3165","&#9776;","elianto","#3366ff99"," "," ","1","+10","[1301.7000000476837]","1","0","1","","","","","","","",""
"pit-trial","33","355877","0.0-2.0-8.2-3.2","battery-v0.2","","""event"",""trial"",""time""
""fullscreenenter"",""1"",""5072""
""blur"",""3"",""14790""
""focus"",""3"",""14877""
","""event"",""trial"",""time""
""blur"",""3"",""14790""
","""event"",""trial"",""time""
""focus"",""3"",""14877""
","""event"",""trial"",""time""
""fullscreenenter"",""1"",""5072""
","
","","","487.7000000476837","","","20","15344","3165","&#9776;","elianto","#3366ff99"," "," ","1","0","[1338.9000000953674]","1","0","1","","","","","","","",""
"pit-trial","34","359108","0.0-2.0-8.2-4.2","battery-v0.2","","""event"",""trial"",""time""
""fullscreenenter"",""1"",""5072""
""blur"",""3"",""14790""
""focus"",""3"",""14877""
","""event"",""trial"",""time""
""blur"",""3"",""14790""
","""event"",""trial"",""time""
""focus"",""3"",""14877""
","""event"",""trial"",""time""
""fullscreenenter"",""1"",""5072""
","
","","","377.60000014305115","","","20","15344","3165","&#9776;","elianto","#3366ff99"," "," ","1","+10","[1228.2000000476837]","1","0","1","","","","","","","",""
"call-function","35","359111","0.0-2.0-9.0","battery-v0.2","","""event"",""trial"",""time""
""fullscreenenter"",""1"",""5072""
""blur"",""3"",""14790""
""focus"",""3"",""14877""
","""event"",""trial"",""time""
""blur"",""3"",""14790""
","""event"",""trial"",""time""
""focus"",""3"",""14877""
","""event"",""trial"",""time""
""fullscreenenter"",""1"",""5072""
","
","","","","","","","","","","","","","","","","","","","","","","","","","","",""
"pit-instructions","36","398127","0.0-2.0-10.0","battery-v0.2","","""event"",""trial"",""time""
""fullscreenenter"",""1"",""5072""
""blur"",""3"",""14790""
""focus"",""3"",""14877""
","""event"",""trial"",""time""
""blur"",""3"",""14790""
","""event"",""trial"",""time""
""focus"",""3"",""14877""
","""event"",""trial"",""time""
""fullscreenenter"",""1"",""5072""
","
","","[{""page_index"":0,""viewing_time"":5714.399999856949},{""page_index"":1,""viewing_time"":7249},{""page_index"":2,""viewing_time"":9701.100000143051},{""page_index"":3,""viewing_time"":8148.899999856949},{""page_index"":4,""viewing_time"":8201.400000095367}]","39015.5","","","","","","","","","","","","","","","","","","","","","","","",""
"pit-trial","37","402697","0.0-2.0-11.0-0.0","battery-v0.2","","""event"",""trial"",""time""
""fullscreenenter"",""1"",""5072""
""blur"",""3"",""14790""
""focus"",""3"",""14877""
","""event"",""trial"",""time""
""blur"",""3"",""14790""
","""event"",""trial"",""time""
""focus"",""3"",""14877""
","""event"",""trial"",""time""
""fullscreenenter"",""1"",""5072""
","
","","","1716.2000000476837","","","20","15344","3165","&#9761;","elianto","#3366ff99","-1"," ","0","0","[2566.600000143051]","1","0","2","","","","","","","",""
"pit-trial","38","407552","0.0-2.0-11.0-1.0","battery-v0.2","","""event"",""trial"",""time""
""fullscreenenter"",""1"",""5072""
""blur"",""3"",""14790""
""focus"",""3"",""14877""
","""event"",""trial"",""time""
""blur"",""3"",""14790""
","""event"",""trial"",""time""
""focus"",""3"",""14877""
","""event"",""trial"",""time""
""fullscreenenter"",""1"",""5072""
","
","","","-1","","","20","15344","3165","&#9761;","elianto","#3366ff99","-1","-1","1","+10","[]","0","0","2","","","","","","","",""
"pit-trial","39","411310","0.0-2.0-11.0-2.0","battery-v0.2","","""event"",""trial"",""time""
""fullscreenenter"",""1"",""5072""
""blur"",""3"",""14790""
""focus"",""3"",""14877""
","""event"",""trial"",""time""
""blur"",""3"",""14790""
","""event"",""trial"",""time""
""focus"",""3"",""14877""
","""event"",""trial"",""time""
""fullscreenenter"",""1"",""5072""
","
","","","903.4000000953674","","","20","15344","3165","&#9761;","elianto","#3366ff99","-1"," ","0","0","[1754.3999998569489]","1","0","2","","","","","","","",""
"pit-trial","40","414852","0.0-2.0-11.0-3.0","battery-v0.2","","""event"",""trial"",""time""
""fullscreenenter"",""1"",""5072""
""blur"",""3"",""14790""
""focus"",""3"",""14877""
","""event"",""trial"",""time""
""blur"",""3"",""14790""
","""event"",""trial"",""time""
""focus"",""3"",""14877""
","""event"",""trial"",""time""
""fullscreenenter"",""1"",""5072""
","
","","","688.7000000476837","","","20","15344","3165","&#9761;","elianto","#3366ff99","-1"," ","0","+10","[1539.7000000476837]","1","0","2","","","","","","","",""
"pit-trial","41","418376","0.0-2.0-11.0-4.0","battery-v0.2","","""event"",""trial"",""time""
""fullscreenenter"",""1"",""5072""
""blur"",""3"",""14790""
""focus"",""3"",""14877""
","""event"",""trial"",""time""
""blur"",""3"",""14790""
","""event"",""trial"",""time""
""focus"",""3"",""14877""
","""event"",""trial"",""time""
""fullscreenenter"",""1"",""5072""
","
","","","668.7999999523163","","","20","15344","3165","&#9761;","elianto","#3366ff99","-1"," ","0","0","[1520]","1","0","2","","","","","","","",""
"pit-trial","42","421968","0.0-2.0-11.1-0.1","battery-v0.2","","""event"",""trial"",""time""
""fullscreenenter"",""1"",""5072""
""blur"",""3"",""14790""
""focus"",""3"",""14877""
","""event"",""trial"",""time""
""blur"",""3"",""14790""
","""event"",""trial"",""time""
""focus"",""3"",""14877""
","""event"",""trial"",""time""
""fullscreenenter"",""1"",""5072""
","
","","","736.9000000953674","","","20","15344","3165","&#9761;","elianto","#3366ff99","-1"," ","0","0","[1588]","1","0","2","","","","","","","",""
"pit-trial","43","425274","0.0-2.0-11.1-1.1","battery-v0.2","","""event"",""trial"",""time""
""fullscreenenter"",""1"",""5072""
""blur"",""3"",""14790""
""focus"",""3"",""14877""
","""event"",""trial"",""time""
""blur"",""3"",""14790""
","""event"",""trial"",""time""
""focus"",""3"",""14877""
","""event"",""trial"",""time""
""fullscreenenter"",""1"",""5072""
","
","","","451.2999999523163","","","20","15344","3165","&#9761;","elianto","#3366ff99","-1"," ","0","0","[1302.2000000476837]","1","0","2","","","","","","","",""
"pit-trial","44","430128","0.0-2.0-11.1-2.1","battery-v0.2","","""event"",""trial"",""time""
""fullscreenenter"",""1"",""5072""
""blur"",""3"",""14790""
""focus"",""3"",""14877""
","""event"",""trial"",""time""
""blur"",""3"",""14790""
","""event"",""trial"",""time""
""focus"",""3"",""14877""
","""event"",""trial"",""time""
""fullscreenenter"",""1"",""5072""
","
","","","-1","","","20","15344","3165","&#9761;","elianto","#3366ff99","-1","-1","1","+10","[]","0","0","2","","","","","","","",""
"pit-trial","45","434982","0.0-2.0-11.1-3.1","battery-v0.2","","""event"",""trial"",""time""
""fullscreenenter"",""1"",""5072""
""blur"",""3"",""14790""
""focus"",""3"",""14877""
","""event"",""trial"",""time""
""blur"",""3"",""14790""
","""event"",""trial"",""time""
""focus"",""3"",""14877""
","""event"",""trial"",""time""
""fullscreenenter"",""1"",""5072""
","
","","","-1","","","20","15344","3165","&#9761;","elianto","#3366ff99","-1","-1","1","0","[]","0","0","2","","","","","","","",""
"pit-trial","46","439055","0.0-2.0-11.1-4.1","battery-v0.2","","""event"",""trial"",""time""
""fullscreenenter"",""1"",""5072""
""blur"",""3"",""14790""
""focus"",""3"",""14877""
","""event"",""trial"",""time""
""blur"",""3"",""14790""
","""event"",""trial"",""time""
""focus"",""3"",""14877""
","""event"",""trial"",""time""
""fullscreenenter"",""1"",""5072""
","
","","","1218.7000000476837","","","20","15344","3165","&#9761;","elianto","#3366ff99","-1"," ","0","0","[2069.2999999523163]","1","0","2","","","","","","","",""
"pit-trial","47","443749","0.0-2.0-11.2-0.2","battery-v0.2","","""event"",""trial"",""time""
""fullscreenenter"",""1"",""5072""
""blur"",""3"",""14790""
""focus"",""3"",""14877""
","""event"",""trial"",""time""
""blur"",""3"",""14790""
","""event"",""trial"",""time""
""focus"",""3"",""14877""
","""event"",""trial"",""time""
""fullscreenenter"",""1"",""5072""
","
","","","1839.9000000953674","","","20","15344","3165","&#9761;","elianto","#3366ff99","-1"," ","0","0","[2691.2999999523163]","1","0","2","","","","","","","",""
"pit-trial","48","447798","0.0-2.0-11.2-1.2","battery-v0.2","","""event"",""trial"",""time""
""fullscreenenter"",""1"",""5072""
""blur"",""3"",""14790""
""focus"",""3"",""14877""
","""event"",""trial"",""time""
""blur"",""3"",""14790""
","""event"",""trial"",""time""
""focus"",""3"",""14877""
","""event"",""trial"",""time""
""fullscreenenter"",""1"",""5072""
","
","","","1196","","","20","15344","3165","&#9761;","elianto","#3366ff99","-1"," ","0","0","[2046.4000000953674,2560.2000000476837]","2","0","2","","","","","","","",""
"pit-trial","49","452517","0.0-2.0-11.2-2.2","battery-v0.2","","""event"",""trial"",""time""
""fullscreenenter"",""1"",""5072""
""blur"",""3"",""14790""
""focus"",""3"",""14877""
","""event"",""trial"",""time""
""blur"",""3"",""14790""
","""event"",""trial"",""time""
""focus"",""3"",""14877""
","""event"",""trial"",""time""
""fullscreenenter"",""1"",""5072""
","
","","","1866.0999999046326","","","20","15344","3165","&#9761;","elianto","#3366ff99","-1"," ","0","0","[2716.399999856949]","1","0","2","","","","","","","",""
"pit-trial","50","457371","0.0-2.0-11.2-3.2","battery-v0.2","","""event"",""trial"",""time""
""fullscreenenter"",""1"",""5072""
""blur"",""3"",""14790""
""focus"",""3"",""14877""
","""event"",""trial"",""time""
""blur"",""3"",""14790""
","""event"",""trial"",""time""
""focus"",""3"",""14877""
","""event"",""trial"",""time""
""fullscreenenter"",""1"",""5072""
","
","","","-1","","","20","15344","3165","&#9761;","elianto","#3366ff99","-1","-1","1","0","[]","0","0","2","","","","","","","",""
"pit-trial","51","461123","0.0-2.0-11.2-4.2","battery-v0.2","","""event"",""trial"",""time""
""fullscreenenter"",""1"",""5072""
""blur"",""3"",""14790""
""focus"",""3"",""14877""
","""event"",""trial"",""time""
""blur"",""3"",""14790""
","""event"",""trial"",""time""
""focus"",""3"",""14877""
","""event"",""trial"",""time""
""fullscreenenter"",""1"",""5072""
","
","","","898.6000001430511","","","20","15344","3165","&#9761;","elianto","#3366ff99","-1"," ","0","0","[1748.7000000476837]","1","0","2","","","","","","","",""
"pit-trial","52","465978","0.0-2.0-11.3-0.3","battery-v0.2","","""event"",""trial"",""time""
""fullscreenenter"",""1"",""5072""
""blur"",""3"",""14790""
""focus"",""3"",""14877""
","""event"",""trial"",""time""
""blur"",""3"",""14790""
","""event"",""trial"",""time""
""focus"",""3"",""14877""
","""event"",""trial"",""time""
""fullscreenenter"",""1"",""5072""
","
","","","-1","","","20","15344","3165","&#9761;","elianto","#3366ff99","-1","-1","1","+10","[]","0","0","2","","","","","","","",""
"pit-trial","53","470260","0.0-2.0-11.3-1.3","battery-v0.2","","""event"",""trial"",""time""
""fullscreenenter"",""1"",""5072""
""blur"",""3"",""14790""
""focus"",""3"",""14877""
","""event"",""trial"",""time""
""blur"",""3"",""14790""
","""event"",""trial"",""time""
""focus"",""3"",""14877""
","""event"",""trial"",""time""
""fullscreenenter"",""1"",""5072""
","
","","","1427.4000000953674","","","20","15344","3165","&#9761;","elianto","#3366ff99","-1"," ","0","0","[2277.4000000953674]","1","0","2","","","","","","","",""
"pit-trial","54","475113","0.0-2.0-11.3-2.3","battery-v0.2","","""event"",""trial"",""time""
""fullscreenenter"",""1"",""5072""
""blur"",""3"",""14790""
""focus"",""3"",""14877""
","""event"",""trial"",""time""
""blur"",""3"",""14790""
","""event"",""trial"",""time""
""focus"",""3"",""14877""
","""event"",""trial"",""time""
""fullscreenenter"",""1"",""5072""
","
","","","-1","","","20","15344","3165","&#9761;","elianto","#3366ff99","-1","-1","1","+10","[]","0","0","2","","","","","","","",""
"pit-trial","55","479967","0.0-2.0-11.3-3.3","battery-v0.2","","""event"",""trial"",""time""
""fullscreenenter"",""1"",""5072""
""blur"",""3"",""14790""
""focus"",""3"",""14877""
","""event"",""trial"",""time""
""blur"",""3"",""14790""
","""event"",""trial"",""time""
""focus"",""3"",""14877""
","""event"",""trial"",""time""
""fullscreenenter"",""1"",""5072""
","
","","","-1","","","20","15344","3165","&#9761;","elianto","#3366ff99","-1","-1","1","0","[]","0","0","2","","","","","","","",""
"pit-trial","56","484068","0.0-2.0-11.3-4.3","battery-v0.2","","""event"",""trial"",""time""
""fullscreenenter"",""1"",""5072""
""blur"",""3"",""14790""
""focus"",""3"",""14877""
","""event"",""trial"",""time""
""blur"",""3"",""14790""
","""event"",""trial"",""time""
""focus"",""3"",""14877""
","""event"",""trial"",""time""
""fullscreenenter"",""1"",""5072""
","
","","","1245.5","","","20","15344","3165","&#9761;","elianto","#3366ff99","-1"," ","0","0","[2096.7000000476837]","1","0","2","","","","","","","",""
"call-function","57","484071","0.0-2.0-12.0","battery-v0.2","","""event"",""trial"",""time""
""fullscreenenter"",""1"",""5072""
""blur"",""3"",""14790""
""focus"",""3"",""14877""
","""event"",""trial"",""time""
""blur"",""3"",""14790""
","""event"",""trial"",""time""
""focus"",""3"",""14877""
","""event"",""trial"",""time""
""fullscreenenter"",""1"",""5072""
","
","","","","","","","","","","","","","","","","","","","","","","","","","","",""
"pit-instructions","58","520481","0.0-2.0-13.0","battery-v0.2","","""event"",""trial"",""time""
""fullscreenenter"",""1"",""5072""
""blur"",""3"",""14790""
""focus"",""3"",""14877""
","""event"",""trial"",""time""
""blur"",""3"",""14790""
","""event"",""trial"",""time""
""focus"",""3"",""14877""
","""event"",""trial"",""time""
""fullscreenenter"",""1"",""5072""
","
","","[{""page_index"":0,""viewing_time"":6357.200000047684},{""page_index"":1,""viewing_time"":7399.099999904633},{""page_index"":2,""viewing_time"":3518},{""page_index"":3,""viewing_time"":13765.299999952316},{""page_index"":4,""viewing_time"":5367.5}]","36408.09999990463","","","","","","","","","","","","","","","","","","","","","","","",""
"pit-trial","59","525336","0.0-2.0-14.0-0.0","battery-v0.2","","""event"",""trial"",""time""
""fullscreenenter"",""1"",""5072""
""blur"",""3"",""14790""
""focus"",""3"",""14877""
","""event"",""trial"",""time""
""blur"",""3"",""14790""
","""event"",""trial"",""time""
""focus"",""3"",""14877""
","""event"",""trial"",""time""
""fullscreenenter"",""1"",""5072""
","
","","","-1","","","20","15344","3165","&#9826;","elianto","#f73b6a7A","-1","-1","1","0","[]","0","0","3","","","","","","","",""
"pit-trial","60","530189","0.0-2.0-14.0-1.0","battery-v0.2","","""event"",""trial"",""time""
""fullscreenenter"",""1"",""5072""
""blur"",""3"",""14790""
""focus"",""3"",""14877""
","""event"",""trial"",""time""
""blur"",""3"",""14790""
","""event"",""trial"",""time""
""focus"",""3"",""14877""
","""event"",""trial"",""time""
""fullscreenenter"",""1"",""5072""
","
","","","-1","","","20","15344","3165","&#9826;","elianto","#f73b6a7A","-1","-1","1","0","[]","0","0","3","","","","","","","",""
"pit-trial","61","535043","0.0-2.0-14.0-2.0","battery-v0.2","","""event"",""trial"",""time""
""fullscreenenter"",""1"",""5072""
""blur"",""3"",""14790""
""focus"",""3"",""14877""
","""event"",""trial"",""time""
""blur"",""3"",""14790""
","""event"",""trial"",""time""
""focus"",""3"",""14877""
","""event"",""trial"",""time""
""fullscreenenter"",""1"",""5072""
","
","","","-1","","","20","15344","3165","&#9826;","elianto","#f73b6a7A","-1","-1","1","0","[]","0","0","3","","","","","","","",""
"pit-trial","62","539898","0.0-2.0-14.0-3.0","battery-v0.2","","""event"",""trial"",""time""
""fullscreenenter"",""1"",""5072""
""blur"",""3"",""14790""
""focus"",""3"",""14877""
","""event"",""trial"",""time""
""blur"",""3"",""14790""
","""event"",""trial"",""time""
""focus"",""3"",""14877""
","""event"",""trial"",""time""
""fullscreenenter"",""1"",""5072""
","
","","","-1","","","20","15344","3165","&#9826;","elianto","#f73b6a7A","-1","-1","1","-10","[]","0","0","3","","","","","","","",""
"pit-trial","63","544753","0.0-2.0-14.0-4.0","battery-v0.2","","""event"",""trial"",""time""
""fullscreenenter"",""1"",""5072""
""blur"",""3"",""14790""
""focus"",""3"",""14877""
","""event"",""trial"",""time""
""blur"",""3"",""14790""
","""event"",""trial"",""time""
""focus"",""3"",""14877""
","""event"",""trial"",""time""
""fullscreenenter"",""1"",""5072""
","
","","","-1","","","20","15344","3165","&#9826;","elianto","#f73b6a7A","-1","-1","1","0","[]","0","0","3","","","","","","","",""
"pit-trial","64","549608","0.0-2.0-14.1-0.1","battery-v0.2","","""event"",""trial"",""time""
""fullscreenenter"",""1"",""5072""
""blur"",""3"",""14790""
""focus"",""3"",""14877""
","""event"",""trial"",""time""
""blur"",""3"",""14790""
","""event"",""trial"",""time""
""focus"",""3"",""14877""
","""event"",""trial"",""time""
""fullscreenenter"",""1"",""5072""
","
","","","-1","","","20","15344","3165","&#9826;","elianto","#f73b6a7A","-1","-1","1","0","[]","0","0","3","","","","","","","",""
"pit-trial","65","554462","0.0-2.0-14.1-1.1","battery-v0.2","","""event"",""trial"",""time""
""fullscreenenter"",""1"",""5072""
""blur"",""3"",""14790""
""focus"",""3"",""14877""
","""event"",""trial"",""time""
""blur"",""3"",""14790""
","""event"",""trial"",""time""
""focus"",""3"",""14877""
","""event"",""trial"",""time""
""fullscreenenter"",""1"",""5072""
","
","","","-1","","","20","15344","3165","&#9826;","elianto","#f73b6a7A","-1","-1","1","0","[]","0","0","3","","","","","","","",""
"pit-trial","66","559316","0.0-2.0-14.1-2.1","battery-v0.2","","""event"",""trial"",""time""
""fullscreenenter"",""1"",""5072""
""blur"",""3"",""14790""
""focus"",""3"",""14877""
","""event"",""trial"",""time""
""blur"",""3"",""14790""
","""event"",""trial"",""time""
""focus"",""3"",""14877""
","""event"",""trial"",""time""
""fullscreenenter"",""1"",""5072""
","
","","","-1","","","20","15344","3165","&#9826;","elianto","#f73b6a7A","-1","-1","1","0","[]","0","0","3","","","","","","","",""
"pit-trial","67","564171","0.0-2.0-14.1-3.1","battery-v0.2","","""event"",""trial"",""time""
""fullscreenenter"",""1"",""5072""
""blur"",""3"",""14790""
""focus"",""3"",""14877""
","""event"",""trial"",""time""
""blur"",""3"",""14790""
","""event"",""trial"",""time""
""focus"",""3"",""14877""
","""event"",""trial"",""time""
""fullscreenenter"",""1"",""5072""
","
","","","-1","","","20","15344","3165","&#9826;","elianto","#f73b6a7A","-1","-1","1","-10","[]","0","0","3","","","","","","","",""
"pit-trial","68","569026","0.0-2.0-14.1-4.1","battery-v0.2","","""event"",""trial"",""time""
""fullscreenenter"",""1"",""5072""
""blur"",""3"",""14790""
""focus"",""3"",""14877""
","""event"",""trial"",""time""
""blur"",""3"",""14790""
","""event"",""trial"",""time""
""focus"",""3"",""14877""
","""event"",""trial"",""time""
""fullscreenenter"",""1"",""5072""
","
","","","-1","","","20","15344","3165","&#9826;","elianto","#f73b6a7A","-1","-1","1","0","[]","0","0","3","","","","","","","",""
"pit-trial","69","573883","0.0-2.0-14.2-0.2","battery-v0.2","","""event"",""trial"",""time""
""fullscreenenter"",""1"",""5072""
""blur"",""3"",""14790""
""focus"",""3"",""14877""
","""event"",""trial"",""time""
""blur"",""3"",""14790""
","""event"",""trial"",""time""
""focus"",""3"",""14877""
","""event"",""trial"",""time""
""fullscreenenter"",""1"",""5072""
","
","","","-1","","","20","15344","3165","&#9826;","elianto","#f73b6a7A","-1","-1","1","0","[]","0","0","3","","","","","","","",""
"pit-trial","70","578738","0.0-2.0-14.2-1.2","battery-v0.2","","""event"",""trial"",""time""
""fullscreenenter"",""1"",""5072""
""blur"",""3"",""14790""
""focus"",""3"",""14877""
","""event"",""trial"",""time""
""blur"",""3"",""14790""
","""event"",""trial"",""time""
""focus"",""3"",""14877""
","""event"",""trial"",""time""
""fullscreenenter"",""1"",""5072""
","
","","","-1","","","20","15344","3165","&#9826;","elianto","#f73b6a7A","-1","-1","1","0","[]","0","0","3","","","","","","","",""
"pit-trial","71","583591","0.0-2.0-14.2-2.2","battery-v0.2","","""event"",""trial"",""time""
""fullscreenenter"",""1"",""5072""
""blur"",""3"",""14790""
""focus"",""3"",""14877""
","""event"",""trial"",""time""
""blur"",""3"",""14790""
","""event"",""trial"",""time""
""focus"",""3"",""14877""
","""event"",""trial"",""time""
""fullscreenenter"",""1"",""5072""
","
","","","-1","","","20","15344","3165","&#9826;","elianto","#f73b6a7A","-1","-1","1","0","[]","0","0","3","","","","","","","",""
"pit-trial","72","588446","0.0-2.0-14.2-3.2","battery-v0.2","","""event"",""trial"",""time""
""fullscreenenter"",""1"",""5072""
""blur"",""3"",""14790""
""focus"",""3"",""14877""
","""event"",""trial"",""time""
""blur"",""3"",""14790""
","""event"",""trial"",""time""
""focus"",""3"",""14877""
","""event"",""trial"",""time""
""fullscreenenter"",""1"",""5072""
","
","","","-1","","","20","15344","3165","&#9826;","elianto","#f73b6a7A","-1","-1","1","-10","[]","0","0","3","","","","","","","",""
"pit-trial","73","593301","0.0-2.0-14.2-4.2","battery-v0.2","","""event"",""trial"",""time""
""fullscreenenter"",""1"",""5072""
""blur"",""3"",""14790""
""focus"",""3"",""14877""
","""event"",""trial"",""time""
""blur"",""3"",""14790""
","""event"",""trial"",""time""
""focus"",""3"",""14877""
","""event"",""trial"",""time""
""fullscreenenter"",""1"",""5072""
","
","","","-1","","","20","15344","3165","&#9826;","elianto","#f73b6a7A","-1","-1","1","0","[]","0","0","3","","","","","","","",""
"pit-trial","74","598158","0.0-2.0-14.3-0.3","battery-v0.2","","""event"",""trial"",""time""
""fullscreenenter"",""1"",""5072""
""blur"",""3"",""14790""
""focus"",""3"",""14877""
","""event"",""trial"",""time""
""blur"",""3"",""14790""
","""event"",""trial"",""time""
""focus"",""3"",""14877""
","""event"",""trial"",""time""
""fullscreenenter"",""1"",""5072""
","
","","","-1","","","20","15344","3165","&#9826;","elianto","#f73b6a7A","-1","-1","1","0","[]","0","0","3","","","","","","","",""
"pit-trial","75","603014","0.0-2.0-14.3-1.3","battery-v0.2","","""event"",""trial"",""time""
""fullscreenenter"",""1"",""5072""
""blur"",""3"",""14790""
""focus"",""3"",""14877""
","""event"",""trial"",""time""
""blur"",""3"",""14790""
","""event"",""trial"",""time""
""focus"",""3"",""14877""
","""event"",""trial"",""time""
""fullscreenenter"",""1"",""5072""
","
","","","-1","","","20","15344","3165","&#9826;","elianto","#f73b6a7A","-1","-1","1","0","[]","0","0","3","","","","","","","",""
"pit-trial","76","607868","0.0-2.0-14.3-2.3","battery-v0.2","","""event"",""trial"",""time""
""fullscreenenter"",""1"",""5072""
""blur"",""3"",""14790""
""focus"",""3"",""14877""
","""event"",""trial"",""time""
""blur"",""3"",""14790""
","""event"",""trial"",""time""
""focus"",""3"",""14877""
","""event"",""trial"",""time""
""fullscreenenter"",""1"",""5072""
","
","","","-1","","","20","15344","3165","&#9826;","elianto","#f73b6a7A","-1","-1","1","0","[]","0","0","3","","","","","","","",""
"pit-trial","77","612723","0.0-2.0-14.3-3.3","battery-v0.2","","""event"",""trial"",""time""
""fullscreenenter"",""1"",""5072""
""blur"",""3"",""14790""
""focus"",""3"",""14877""
","""event"",""trial"",""time""
""blur"",""3"",""14790""
","""event"",""trial"",""time""
""focus"",""3"",""14877""
","""event"",""trial"",""time""
""fullscreenenter"",""1"",""5072""
","
","","","-1","","","20","15344","3165","&#9826;","elianto","#f73b6a7A","-1","-1","1","-10","[]","0","0","3","","","","","","","",""
"pit-trial","78","617576","0.0-2.0-14.3-4.3","battery-v0.2","","""event"",""trial"",""time""
""fullscreenenter"",""1"",""5072""
""blur"",""3"",""14790""
""focus"",""3"",""14877""
","""event"",""trial"",""time""
""blur"",""3"",""14790""
","""event"",""trial"",""time""
""focus"",""3"",""14877""
","""event"",""trial"",""time""
""fullscreenenter"",""1"",""5072""
","
","","","-1","","","20","15344","3165","&#9826;","elianto","#f73b6a7A","-1","-1","1","0","[]","0","0","3","","","","","","","",""
"call-function","79","617578","0.0-2.0-15.0","battery-v0.2","","""event"",""trial"",""time""
""fullscreenenter"",""1"",""5072""
""blur"",""3"",""14790""
""focus"",""3"",""14877""
","""event"",""trial"",""time""
""blur"",""3"",""14790""
","""event"",""trial"",""time""
""focus"",""3"",""14877""
","""event"",""trial"",""time""
""fullscreenenter"",""1"",""5072""
","
","","","","","","","","","","","","","","","","","","","","","","","","","","",""
"pit-instructions","80","642416","0.0-2.0-16.0","battery-v0.2","","""event"",""trial"",""time""
""fullscreenenter"",""1"",""5072""
""blur"",""3"",""14790""
""focus"",""3"",""14877""
","""event"",""trial"",""time""
""blur"",""3"",""14790""
","""event"",""trial"",""time""
""focus"",""3"",""14877""
","""event"",""trial"",""time""
""fullscreenenter"",""1"",""5072""
","
","","[{""page_index"":0,""viewing_time"":6786},{""page_index"":1,""viewing_time"":9250.200000047684},{""page_index"":2,""viewing_time"":4182},{""page_index"":3,""viewing_time"":4618.700000047684}]","24837.799999952316","","","","","","","","","","","","","","","","","","","","","","","",""
"pit-trial","81","647271","0.0-2.0-17.0-0.0","battery-v0.2","","""event"",""trial"",""time""
""fullscreenenter"",""1"",""5072""
""blur"",""3"",""14790""
""focus"",""3"",""14877""
","""event"",""trial"",""time""
""blur"",""3"",""14790""
","""event"",""trial"",""time""
""focus"",""3"",""14877""
","""event"",""trial"",""time""
""fullscreenenter"",""1"",""5072""
","
","","","-1","","","20","15344","3165","&#9789;","elianto","#f73b6a7A"," ","-1","0","-10","[]","0","0","4","","","","","","","",""
"pit-trial","82","652126","0.0-2.0-17.0-1.0","battery-v0.2","","""event"",""trial"",""time""
""fullscreenenter"",""1"",""5072""
""blur"",""3"",""14790""
""focus"",""3"",""14877""
","""event"",""trial"",""time""
""blur"",""3"",""14790""
","""event"",""trial"",""time""
""focus"",""3"",""14877""
","""event"",""trial"",""time""
""fullscreenenter"",""1"",""5072""
","
","","","-1","","","20","15344","3165","&#9789;","elianto","#f73b6a7A"," ","-1","0","-10","[]","0","0","4","","","","","","","",""
"pit-trial","83","656435","0.0-2.0-17.0-2.0","battery-v0.2","","""event"",""trial"",""time""
""fullscreenenter"",""1"",""5072""
""blur"",""3"",""14790""
""focus"",""3"",""14877""
","""event"",""trial"",""time""
""blur"",""3"",""14790""
","""event"",""trial"",""time""
""focus"",""3"",""14877""
","""event"",""trial"",""time""
""fullscreenenter"",""1"",""5072""
","
","","","1454.7000000476837","","","20","15344","3165","&#9789;","elianto","#f73b6a7A"," "," ","1","0","[2305.9000000953674]","1","0","4","","","","","","","",""
"pit-trial","84","661290","0.0-2.0-17.0-3.0","battery-v0.2","","""event"",""trial"",""time""
""fullscreenenter"",""1"",""5072""
""blur"",""3"",""14790""
""focus"",""3"",""14877""
","""event"",""trial"",""time""
""blur"",""3"",""14790""
","""event"",""trial"",""time""
""focus"",""3"",""14877""
","""event"",""trial"",""time""
""fullscreenenter"",""1"",""5072""
","
","","","-1","","","20","15344","3165","&#9789;","elianto","#f73b6a7A"," ","-1","0","0","[]","0","0","4","","","","","","","",""
"pit-trial","85","666145","0.0-2.0-17.0-4.0","battery-v0.2","","""event"",""trial"",""time""
""fullscreenenter"",""1"",""5072""
""blur"",""3"",""14790""
""focus"",""3"",""14877""
","""event"",""trial"",""time""
""blur"",""3"",""14790""
","""event"",""trial"",""time""
""focus"",""3"",""14877""
","""event"",""trial"",""time""
""fullscreenenter"",""1"",""5072""
","
","","","-1","","","20","15344","3165","&#9789;","elianto","#f73b6a7A"," ","-1","0","-10","[]","0","0","4","","","","","","","",""
"pit-trial","86","671003","0.0-2.0-17.1-0.1","battery-v0.2","","""event"",""trial"",""time""
""fullscreenenter"",""1"",""5072""
""blur"",""3"",""14790""
""focus"",""3"",""14877""
","""event"",""trial"",""time""
""blur"",""3"",""14790""
","""event"",""trial"",""time""
""focus"",""3"",""14877""
","""event"",""trial"",""time""
""fullscreenenter"",""1"",""5072""
","
","","","-1","","","20","15344","3165","&#9789;","elianto","#f73b6a7A"," ","-1","0","-10","[]","0","0","4","","","","","","","",""
"pit-trial","87","675859","0.0-2.0-17.1-1.1","battery-v0.2","","""event"",""trial"",""time""
""fullscreenenter"",""1"",""5072""
""blur"",""3"",""14790""
""focus"",""3"",""14877""
","""event"",""trial"",""time""
""blur"",""3"",""14790""
","""event"",""trial"",""time""
""focus"",""3"",""14877""
","""event"",""trial"",""time""
""fullscreenenter"",""1"",""5072""
","
","","","-1","","","20","15344","3165","&#9789;","elianto","#f73b6a7A"," ","-1","0","-10","[]","0","0","4","","","","","","","",""
"pit-trial","88","680712","0.0-2.0-17.1-2.1","battery-v0.2","","""event"",""trial"",""time""
""fullscreenenter"",""1"",""5072""
""blur"",""3"",""14790""
""focus"",""3"",""14877""
","""event"",""trial"",""time""
""blur"",""3"",""14790""
","""event"",""trial"",""time""
""focus"",""3"",""14877""
","""event"",""trial"",""time""
""fullscreenenter"",""1"",""5072""
","
","","","-1","","","20","15344","3165","&#9789;","elianto","#f73b6a7A"," ","-1","0","-10","[]","0","0","4","","","","","","","",""
"pit-trial","89","685566","0.0-2.0-17.1-3.1","battery-v0.2","","""event"",""trial"",""time""
""fullscreenenter"",""1"",""5072""
""blur"",""3"",""14790""
""focus"",""3"",""14877""
","""event"",""trial"",""time""
""blur"",""3"",""14790""
","""event"",""trial"",""time""
""focus"",""3"",""14877""
","""event"",""trial"",""time""
""fullscreenenter"",""1"",""5072""
","
","","","-1","","","20","15344","3165","&#9789;","elianto","#f73b6a7A"," ","-1","0","0","[]","0","0","4","","","","","","","",""
"pit-trial","90","690420","0.0-2.0-17.1-4.1","battery-v0.2","","""event"",""trial"",""time""
""fullscreenenter"",""1"",""5072""
""blur"",""3"",""14790""
""focus"",""3"",""14877""
","""event"",""trial"",""time""
""blur"",""3"",""14790""
","""event"",""trial"",""time""
""focus"",""3"",""14877""
","""event"",""trial"",""time""
""fullscreenenter"",""1"",""5072""
","
","","","-1","","","20","15344","3165","&#9789;","elianto","#f73b6a7A"," ","-1","0","-10","[]","0","0","4","","","","","","","",""
"pit-trial","91","695277","0.0-2.0-17.2-0.2","battery-v0.2","","""event"",""trial"",""time""
""fullscreenenter"",""1"",""5072""
""blur"",""3"",""14790""
""focus"",""3"",""14877""
","""event"",""trial"",""time""
""blur"",""3"",""14790""
","""event"",""trial"",""time""
""focus"",""3"",""14877""
","""event"",""trial"",""time""
""fullscreenenter"",""1"",""5072""
","
","","","-1","","","20","15344","3165","&#9789;","elianto","#f73b6a7A"," ","-1","0","-10","[]","0","0","4","","","","","","","",""
"pit-trial","92","700131","0.0-2.0-17.2-1.2","battery-v0.2","","""event"",""trial"",""time""
""fullscreenenter"",""1"",""5072""
""blur"",""3"",""14790""
""focus"",""3"",""14877""
","""event"",""trial"",""time""
""blur"",""3"",""14790""
","""event"",""trial"",""time""
""focus"",""3"",""14877""
","""event"",""trial"",""time""
""fullscreenenter"",""1"",""5072""
","
","","","-1","","","20","15344","3165","&#9789;","elianto","#f73b6a7A"," ","-1","0","-10","[]","0","0","4","","","","","","","",""
"pit-trial","93","704987","0.0-2.0-17.2-2.2","battery-v0.2","","""event"",""trial"",""time""
""fullscreenenter"",""1"",""5072""
""blur"",""3"",""14790""
""focus"",""3"",""14877""
","""event"",""trial"",""time""
""blur"",""3"",""14790""
","""event"",""trial"",""time""
""focus"",""3"",""14877""
","""event"",""trial"",""time""
""fullscreenenter"",""1"",""5072""
","
","","","-1","","","20","15344","3165","&#9789;","elianto","#f73b6a7A"," ","-1","0","-10","[]","0","0","4","","","","","","","",""
"pit-trial","94","709842","0.0-2.0-17.2-3.2","battery-v0.2","","""event"",""trial"",""time""
""fullscreenenter"",""1"",""5072""
""blur"",""3"",""14790""
""focus"",""3"",""14877""
","""event"",""trial"",""time""
""blur"",""3"",""14790""
","""event"",""trial"",""time""
""focus"",""3"",""14877""
","""event"",""trial"",""time""
""fullscreenenter"",""1"",""5072""
","
","","","-1","","","20","15344","3165","&#9789;","elianto","#f73b6a7A"," ","-1","0","0","[]","0","0","4","","","","","","","",""
"pit-trial","95","714696","0.0-2.0-17.2-4.2","battery-v0.2","","""event"",""trial"",""time""
""fullscreenenter"",""1"",""5072""
""blur"",""3"",""14790""
""focus"",""3"",""14877""
","""event"",""trial"",""time""
""blur"",""3"",""14790""
","""event"",""trial"",""time""
""focus"",""3"",""14877""
","""event"",""trial"",""time""
""fullscreenenter"",""1"",""5072""
","
","","","-1","","","20","15344","3165","&#9789;","elianto","#f73b6a7A"," ","-1","0","-10","[]","0","0","4","","","","","","","",""
"pit-trial","96","719552","0.0-2.0-17.3-0.3","battery-v0.2","","""event"",""trial"",""time""
""fullscreenenter"",""1"",""5072""
""blur"",""3"",""14790""
""focus"",""3"",""14877""
","""event"",""trial"",""time""
""blur"",""3"",""14790""
","""event"",""trial"",""time""
""focus"",""3"",""14877""
","""event"",""trial"",""time""
""fullscreenenter"",""1"",""5072""
","
","","","-1","","","20","15344","3165","&#9789;","elianto","#f73b6a7A"," ","-1","0","-10","[]","0","0","4","","","","","","","",""
"pit-trial","97","724405","0.0-2.0-17.3-1.3","battery-v0.2","","""event"",""trial"",""time""
""fullscreenenter"",""1"",""5072""
""blur"",""3"",""14790""
""focus"",""3"",""14877""
","""event"",""trial"",""time""
""blur"",""3"",""14790""
","""event"",""trial"",""time""
""focus"",""3"",""14877""
","""event"",""trial"",""time""
""fullscreenenter"",""1"",""5072""
","
","","","-1","","","20","15344","3165","&#9789;","elianto","#f73b6a7A"," ","-1","0","-10","[]","0","0","4","","","","","","","",""
"pit-trial","98","729261","0.0-2.0-17.3-2.3","battery-v0.2","","""event"",""trial"",""time""
""fullscreenenter"",""1"",""5072""
""blur"",""3"",""14790""
""focus"",""3"",""14877""
","""event"",""trial"",""time""
""blur"",""3"",""14790""
","""event"",""trial"",""time""
""focus"",""3"",""14877""
","""event"",""trial"",""time""
""fullscreenenter"",""1"",""5072""
","
","","","-1","","","20","15344","3165","&#9789;","elianto","#f73b6a7A"," ","-1","0","-10","[]","0","0","4","","","","","","","",""
"pit-trial","99","734116","0.0-2.0-17.3-3.3","battery-v0.2","","""event"",""trial"",""time""
""fullscreenenter"",""1"",""5072""
""blur"",""3"",""14790""
""focus"",""3"",""14877""
","""event"",""trial"",""time""
""blur"",""3"",""14790""
","""event"",""trial"",""time""
""focus"",""3"",""14877""
","""event"",""trial"",""time""
""fullscreenenter"",""1"",""5072""
","
","","","-1","","","20","15344","3165","&#9789;","elianto","#f73b6a7A"," ","-1","0","0","[]","0","0","4","","","","","","","",""
"pit-trial","100","738971","0.0-2.0-17.3-4.3","battery-v0.2","","""event"",""trial"",""time""
""fullscreenenter"",""1"",""5072""
""blur"",""3"",""14790""
""focus"",""3"",""14877""
","""event"",""trial"",""time""
""blur"",""3"",""14790""
","""event"",""trial"",""time""
""focus"",""3"",""14877""
","""event"",""trial"",""time""
""fullscreenenter"",""1"",""5072""
","
","","","-1","","","20","15344","3165","&#9789;","elianto","#f73b6a7A"," ","-1","0","-10","[]","0","0","4","","","","","","","",""
"call-function","101","738975","0.0-2.0-18.0","battery-v0.2","","""event"",""trial"",""time""
""fullscreenenter"",""1"",""5072""
""blur"",""3"",""14790""
""focus"",""3"",""14877""
","""event"",""trial"",""time""
""blur"",""3"",""14790""
","""event"",""trial"",""time""
""focus"",""3"",""14877""
","""event"",""trial"",""time""
""fullscreenenter"",""1"",""5072""
","
","","","","","","","","","","","","","","","","","","","","","","","","","","",""
"pit-instructions","102","809801","0.0-2.0-19.0","battery-v0.2","","""event"",""trial"",""time""
""fullscreenenter"",""1"",""5072""
""blur"",""3"",""14790""
""focus"",""3"",""14877""
","""event"",""trial"",""time""
""blur"",""3"",""14790""
","""event"",""trial"",""time""
""focus"",""3"",""14877""
","""event"",""trial"",""time""
""fullscreenenter"",""1"",""5072""
","
","","[{""page_index"":0,""viewing_time"":6607.899999856949},{""page_index"":1,""viewing_time"":5449.600000143051},{""page_index"":2,""viewing_time"":13633.299999952316},{""page_index"":3,""viewing_time"":7602},{""page_index"":4,""viewing_time"":8765.599999904633},{""page_index"":5,""viewing_time"":9017.200000047684},{""page_index"":6,""viewing_time"":9233.799999952316},{""page_index"":7,""viewing_time"":6316.5},{""page_index"":8,""viewing_time"":4199.400000095367}]","70825.79999995232","","","","","","","","","","","","","","","","","","","","","","","",""
"pit-comprehension","103","814852","0.0-2.0-20.0-0.0","battery-v0.2","","""event"",""trial"",""time""
""fullscreenenter"",""1"",""5072""
""blur"",""3"",""14790""
""focus"",""3"",""14877""
","""event"",""trial"",""time""
""blur"",""3"",""14790""
","""event"",""trial"",""time""
""focus"",""3"",""14877""
","""event"",""trial"",""time""
""fullscreenenter"",""1"",""5072""
","
","","","5047.099999904633","[""SPACE""]","0","20","15344","3165","","","","","","","","","","","","","","","","","","",""
"pit-instructions","104","817686","0.0-2.0-20.0-1.0","battery-v0.2","","""event"",""trial"",""time""
""fullscreenenter"",""1"",""5072""
""blur"",""3"",""14790""
""focus"",""3"",""14877""
","""event"",""trial"",""time""
""blur"",""3"",""14790""
","""event"",""trial"",""time""
""focus"",""3"",""14877""
","""event"",""trial"",""time""
""fullscreenenter"",""1"",""5072""
","
","","[{""page_index"":0,""viewing_time"":2811.899999856949}]","2812.7999999523163","","","","","","","","","","","","","","","","","","","","","","","",""
"pit-comprehension","105","823801","0.0-2.0-21.0-0.0","battery-v0.2","","""event"",""trial"",""time""
""fullscreenenter"",""1"",""5072""
""blur"",""3"",""14790""
""focus"",""3"",""14877""
","""event"",""trial"",""time""
""blur"",""3"",""14790""
","""event"",""trial"",""time""
""focus"",""3"",""14877""
","""event"",""trial"",""time""
""fullscreenenter"",""1"",""5072""
","
","","","6109.899999856949","[""10""]","0","20","15344","3165","","","","","","","","","","","","","","","","","","",""
"pit-instructions","106","825403","0.0-2.0-21.0-1.0","battery-v0.2","","""event"",""trial"",""time""
""fullscreenenter"",""1"",""5072""
""blur"",""3"",""14790""
""focus"",""3"",""14877""
","""event"",""trial"",""time""
""blur"",""3"",""14790""
","""event"",""trial"",""time""
""focus"",""3"",""14877""
","""event"",""trial"",""time""
""fullscreenenter"",""1"",""5072""
","
","","[{""page_index"":0,""viewing_time"":1580.6999998092651}]","1581.5999999046326","","","","","","","","","","","","","","","","","","","","","","","",""
"pit-comprehension","107","832653","0.0-2.0-22.0-0.0","battery-v0.2","","""event"",""trial"",""time""
""fullscreenenter"",""1"",""5072""
""blur"",""3"",""14790""
""focus"",""3"",""14877""
","""event"",""trial"",""time""
""blur"",""3"",""14790""
","""event"",""trial"",""time""
""focus"",""3"",""14877""
","""event"",""trial"",""time""
""fullscreenenter"",""1"",""5072""
","
","","","7244.799999952316","[""-10""]","1","20","15344","3165","","","","","","","","","","","","","","","","","","",""
"pit-instructions","108","837835","0.0-2.0-22.0-1.0","battery-v0.2","","""event"",""trial"",""time""
""fullscreenenter"",""1"",""5072""
""blur"",""3"",""14790""
""focus"",""3"",""14877""
","""event"",""trial"",""time""
""blur"",""3"",""14790""
","""event"",""trial"",""time""
""focus"",""3"",""14877""
","""event"",""trial"",""time""
""fullscreenenter"",""1"",""5072""
","
","","[{""page_index"":0,""viewing_time"":5161}]","5161.699999809265","","","","","","","","","","","","","","","","","","","","","","","",""
"pit-instructions","109","838853","0.0-2.0-22.0-2.0-0.0","battery-v0.2","","""event"",""trial"",""time""
""fullscreenenter"",""1"",""5072""
""blur"",""3"",""14790""
""focus"",""3"",""14877""
","""event"",""trial"",""time""
""blur"",""3"",""14790""
","""event"",""trial"",""time""
""focus"",""3"",""14877""
","""event"",""trial"",""time""
""fullscreenenter"",""1"",""5072""
","
","","[{""page_index"":0,""viewing_time"":1014.7999999523163}]","1015.6999998092651","","","","","","","","","","","","","","","","","","","","","","","",""
"pit-comprehension","110","845338","0.0-2.0-22.1-0.1","battery-v0.2","","""event"",""trial"",""time""
""fullscreenenter"",""1"",""5072""
""blur"",""3"",""14790""
""focus"",""3"",""14877""
","""event"",""trial"",""time""
""blur"",""3"",""14790""
","""event"",""trial"",""time""
""focus"",""3"",""14877""
","""event"",""trial"",""time""
""fullscreenenter"",""1"",""5072""
","
","","","6480.700000047684","[""0""]","0","20","15344","3165","","","","","","","","","","","","","","","","","","",""
"pit-instructions","111","847385","0.0-2.0-22.1-1.1","battery-v0.2","","""event"",""trial"",""time""
""fullscreenenter"",""1"",""5072""
""blur"",""3"",""14790""
""focus"",""3"",""14877""
","""event"",""trial"",""time""
""blur"",""3"",""14790""
","""event"",""trial"",""time""
""focus"",""3"",""14877""
","""event"",""trial"",""time""
""fullscreenenter"",""1"",""5072""
","
","","[{""page_index"":0,""viewing_time"":2021.5}]","2022","","","","","","","","","","","","","","","","","","","","","","","",""
"pit-comprehension","112","856088","0.0-2.0-23.0-0.0","battery-v0.2","","""event"",""trial"",""time""
""fullscreenenter"",""1"",""5072""
""blur"",""3"",""14790""
""focus"",""3"",""14877""
","""event"",""trial"",""time""
""blur"",""3"",""14790""
","""event"",""trial"",""time""
""focus"",""3"",""14877""
","""event"",""trial"",""time""
""fullscreenenter"",""1"",""5072""
","
","","","8699.400000095367","[""True""]","0","20","15344","3165","","","","","","","","","","","","","","","","","","",""
"pit-instructions","113","857986","0.0-2.0-23.0-1.0","battery-v0.2","","""event"",""trial"",""time""
""fullscreenenter"",""1"",""5072""
""blur"",""3"",""14790""
""focus"",""3"",""14877""
","""event"",""trial"",""time""
""blur"",""3"",""14790""
","""event"",""trial"",""time""
""focus"",""3"",""14877""
","""event"",""trial"",""time""
""fullscreenenter"",""1"",""5072""
","
","","[{""page_index"":0,""viewing_time"":1873.5}]","1874.2000000476837","","","","","","","","","","","","","","","","","","","","","","","",""
"pit-comprehension","114","865388","0.0-2.0-24.0-0.0","battery-v0.2","","""event"",""trial"",""time""
""fullscreenenter"",""1"",""5072""
""blur"",""3"",""14790""
""focus"",""3"",""14877""
","""event"",""trial"",""time""
""blur"",""3"",""14790""
","""event"",""trial"",""time""
""focus"",""3"",""14877""
","""event"",""trial"",""time""
""fullscreenenter"",""1"",""5072""
","
","","","7397.699999809265","[""True""]","0","20","15344","3165","","","","","","","","","","","","","","","","","","",""
"pit-instructions","115","869918","0.0-2.0-24.0-1.0","battery-v0.2","","""event"",""trial"",""time""
""fullscreenenter"",""1"",""5072""
""blur"",""3"",""14790""
""focus"",""3"",""14877""
","""event"",""trial"",""time""
""blur"",""3"",""14790""
","""event"",""trial"",""time""
""focus"",""3"",""14877""
","""event"",""trial"",""time""
""fullscreenenter"",""1"",""5072""
","
","","[{""page_index"":0,""viewing_time"":4506.700000047684}]","4507","","","","","","","","","","","","","","","","","","","","","","","",""
"pit-comprehension","116","876638","0.0-2.0-25.0-0.0","battery-v0.2","","""event"",""trial"",""time""
""fullscreenenter"",""1"",""5072""
""blur"",""3"",""14790""
""focus"",""3"",""14877""
","""event"",""trial"",""time""
""blur"",""3"",""14790""
","""event"",""trial"",""time""
""focus"",""3"",""14877""
","""event"",""trial"",""time""
""fullscreenenter"",""1"",""5072""
","
","","","6717.099999904633","[""True""]","0","20","15344","3165","","","","","","","","","","","","","","","","","","",""
"pit-instructions","117","878570","0.0-2.0-25.0-1.0","battery-v0.2","","""event"",""trial"",""time""
""fullscreenenter"",""1"",""5072""
""blur"",""3"",""14790""
""focus"",""3"",""14877""
","""event"",""trial"",""time""
""blur"",""3"",""14790""
","""event"",""trial"",""time""
""focus"",""3"",""14877""
","""event"",""trial"",""time""
""fullscreenenter"",""1"",""5072""
","
","","[{""page_index"":0,""viewing_time"":1908.8999998569489}]","1909.5999999046326","","","","","","","","","","","","","","","","","","","","","","","",""
"pit-comprehension","118","883170","0.0-2.0-26.0-0.0","battery-v0.2","","""event"",""trial"",""time""
""fullscreenenter"",""1"",""5072""
""blur"",""3"",""14790""
""focus"",""3"",""14877""
","""event"",""trial"",""time""
""blur"",""3"",""14790""
","""event"",""trial"",""time""
""focus"",""3"",""14877""
","""event"",""trial"",""time""
""fullscreenenter"",""1"",""5072""
","
","","","4595.900000095367","[""False""]","0","20","15344","3165","","","","","","","","","","","","","","","","","","",""
"pit-instructions","119","885487","0.0-2.0-26.0-1.0","battery-v0.2","","""event"",""trial"",""time""
""fullscreenenter"",""1"",""5072""
""blur"",""3"",""14790""
""focus"",""3"",""14877""
","""event"",""trial"",""time""
""blur"",""3"",""14790""
","""event"",""trial"",""time""
""focus"",""3"",""14877""
","""event"",""trial"",""time""
""fullscreenenter"",""1"",""5072""
","
","","[{""page_index"":0,""viewing_time"":2292}]","2292.7000000476837","","","","","","","","","","","","","","","","","","","","","","","",""
"pit-instructions","120","901919","0.0-3.0","battery-v0.2","","""event"",""trial"",""time""
""fullscreenenter"",""1"",""5072""
""blur"",""3"",""14790""
""focus"",""3"",""14877""
","""event"",""trial"",""time""
""blur"",""3"",""14790""
","""event"",""trial"",""time""
""focus"",""3"",""14877""
","""event"",""trial"",""time""
""fullscreenenter"",""1"",""5072""
","
","","[{""page_index"":0,""viewing_time"":3863.600000143051},{""page_index"":1,""viewing_time"":6248.599999904633},{""page_index"":2,""viewing_time"":6316.200000047684}]","16428.700000047684","","","","","","","","","","","","","","","","","","","","","","","",""
"pit-trial","121","906242","0.0-4.0","battery-v0.2","","""event"",""trial"",""time""
""fullscreenenter"",""1"",""5072""
""blur"",""3"",""14790""
""focus"",""3"",""14877""
","""event"",""trial"",""time""
""blur"",""3"",""14790""
","""event"",""trial"",""time""
""focus"",""3"",""14877""
","""event"",""trial"",""time""
""fullscreenenter"",""1"",""5072""
","
","","","1467.8999998569489","","","20","15344","3165","&#9728;","elianto","#f73b6a7A","-1"," ","0","-10","[2318.399999856949]","1","1","","","15344","1","0","4","lose","no-go","0"
"pit-trial","122","909825","0.0-5.0","battery-v0.2","","""event"",""trial"",""time""
""fullscreenenter"",""1"",""5072""
""blur"",""3"",""14790""
""focus"",""3"",""14877""
","""event"",""trial"",""time""
""blur"",""3"",""14790""
","""event"",""trial"",""time""
""focus"",""3"",""14877""
","""event"",""trial"",""time""
""fullscreenenter"",""1"",""5072""
","
","","","728.7000000476837","","","20","15344","3165","&#9733;","elianto","#3366ff99","-1"," ","0","+10","[1579.2999999523163]","1","1","","","15344","2","2","2","win","no-go","1"
"pit-trial","123","913336","0.0-6.0","battery-v0.2","","""event"",""trial"",""time""
""fullscreenenter"",""1"",""5072""
""blur"",""3"",""14790""
""focus"",""3"",""14877""
","""event"",""trial"",""time""
""blur"",""3"",""14790""
","""event"",""trial"",""time""
""focus"",""3"",""14877""
","""event"",""trial"",""time""
""fullscreenenter"",""1"",""5072""
","
","","","655.7999999523163","","","20","15344","3165","&#9730;","elianto","#3366ff99"," "," ","1","+10","[1506.7999999523163]","1","1","","","15344","3","1","1","win","go","0"
"pit-trial","124","916858","0.0-7.0","battery-v0.2","","""event"",""trial"",""time""
""fullscreenenter"",""1"",""5072""
""blur"",""3"",""14790""
""focus"",""3"",""14877""
","""event"",""trial"",""time""
""blur"",""3"",""14790""
","""event"",""trial"",""time""
""focus"",""3"",""14877""
","""event"",""trial"",""time""
""fullscreenenter"",""1"",""5072""
","
","","","668.8999998569489","","","20","15344","3165","&#9752;","elianto","#f73b6a7A"," "," ","1","0","[1520.0999999046326]","1","1","","","15344","4","3","3","lose","go","0"
"pit-trial","125","920455","0.0-8.0","battery-v0.2","","""event"",""trial"",""time""
""fullscreenenter"",""1"",""5072""
""blur"",""3"",""14790""
""focus"",""3"",""14877""
","""event"",""trial"",""time""
""blur"",""3"",""14790""
","""event"",""trial"",""time""
""focus"",""3"",""14877""
","""event"",""trial"",""time""
""fullscreenenter"",""1"",""5072""
","
","","","741.7000000476837","","","20","15344","3165","&#9733;","elianto","#3366ff99","-1"," ","0","0","[1592.8000001907349]","1","1","","","15344","5","2","2","win","no-go","0"
"pit-trial","126","925311","0.0-9.0","battery-v0.2","","""event"",""trial"",""time""
""fullscreenenter"",""1"",""5072""
""blur"",""3"",""14790""
""focus"",""3"",""14877""
","""event"",""trial"",""time""
""blur"",""3"",""14790""
","""event"",""trial"",""time""
""focus"",""3"",""14877""
","""event"",""trial"",""time""
""fullscreenenter"",""1"",""5072""
","
","","","-1","","","20","15344","3165","&#9728;","elianto","#f73b6a7A","-1","-1","1","0","[]","0","1","","","15344","6","0","4","lose","no-go","0"
"pit-trial","127","929063","0.0-10.0","battery-v0.2","","""event"",""trial"",""time""
""fullscreenenter"",""1"",""5072""
""blur"",""3"",""14790""
""focus"",""3"",""14877""
","""event"",""trial"",""time""
""blur"",""3"",""14790""
","""event"",""trial"",""time""
""focus"",""3"",""14877""
","""event"",""trial"",""time""
""fullscreenenter"",""1"",""5072""
","
","","","897.5","","","20","15344","3165","&#9730;","elianto","#3366ff99"," "," ","1","+10","[1748.0999999046326]","1","1","","","15344","7","1","1","win","go","0"
"pit-trial","128","933919","0.0-11.0","battery-v0.2","","""event"",""trial"",""time""
""fullscreenenter"",""1"",""5072""
""blur"",""3"",""14790""
""focus"",""3"",""14877""
","""event"",""trial"",""time""
""blur"",""3"",""14790""
","""event"",""trial"",""time""
""focus"",""3"",""14877""
","""event"",""trial"",""time""
""fullscreenenter"",""1"",""5072""
","
","","","-1","","","20","15344","3165","&#9752;","elianto","#f73b6a7A"," ","-1","0","-10","[]","0","1","","","15344","8","3","3","lose","go","0"
"pit-trial","129","937972","0.0-12.0","battery-v0.2","","""event"",""trial"",""time""
""fullscreenenter"",""1"",""5072""
""blur"",""3"",""14790""
""focus"",""3"",""14877""
","""event"",""trial"",""time""
""blur"",""3"",""14790""
","""event"",""trial"",""time""
""focus"",""3"",""14877""
","""event"",""trial"",""time""
""fullscreenenter"",""1"",""5072""
","
","","","1200.0999999046326","","","20","15344","3165","&#9733;","elianto","#3366ff99","-1"," ","0","0","[2050.899999856949]","1","1","","","15344","9","2","2","win","no-go","0"
"pit-trial","130","942828","0.0-13.0","battery-v0.2","","""event"",""trial"",""time""
""fullscreenenter"",""1"",""5072""
""blur"",""3"",""14790""
""focus"",""3"",""14877""
","""event"",""trial"",""time""
""blur"",""3"",""14790""
","""event"",""trial"",""time""
""focus"",""3"",""14877""
","""event"",""trial"",""time""
""fullscreenenter"",""1"",""5072""
","
","","","-1","","","20","15344","3165","&#9752;","elianto","#f73b6a7A"," ","-1","0","-10","[]","0","1","","","15344","10","3","3","lose","go","0"
"pit-trial","131","947683","0.0-14.0","battery-v0.2","","""event"",""trial"",""time""
""fullscreenenter"",""1"",""5072""
""blur"",""3"",""14790""
""focus"",""3"",""14877""
","""event"",""trial"",""time""
""blur"",""3"",""14790""
","""event"",""trial"",""time""
""focus"",""3"",""14877""
","""event"",""trial"",""time""
""fullscreenenter"",""1"",""5072""
","
","","","-1","","","20","15344","3165","&#9728;","elianto","#f73b6a7A","-1","-1","1","0","[]","0","1","","","15344","11","0","4","lose","no-go","0"
"pit-trial","132","951229","0.0-15.0","battery-v0.2","","""event"",""trial"",""time""
""fullscreenenter"",""1"",""5072""
""blur"",""3"",""14790""
""focus"",""3"",""14877""
","""event"",""trial"",""time""
""blur"",""3"",""14790""
","""event"",""trial"",""time""
""focus"",""3"",""14877""
","""event"",""trial"",""time""
""fullscreenenter"",""1"",""5072""
","
","","","690.5999999046326","","","20","15344","3165","&#9730;","elianto","#3366ff99"," "," ","1","+10","[1541.6999998092651]","1","1","","","15344","12","1","1","win","go","0"
"pit-trial","133","954623","0.0-16.0","battery-v0.2","","""event"",""trial"",""time""
""fullscreenenter"",""1"",""5072""
""blur"",""3"",""14790""
""focus"",""3"",""14877""
","""event"",""trial"",""time""
""blur"",""3"",""14790""
","""event"",""trial"",""time""
""focus"",""3"",""14877""
","""event"",""trial"",""time""
""fullscreenenter"",""1"",""5072""
","
","","","537.5","","","20","15344","3165","&#9730;","elianto","#3366ff99"," "," ","1","+10","[1388.7999999523163]","1","1","","","15344","13","1","1","win","go","0"
"pit-trial","134","959477","0.0-17.0","battery-v0.2","","""event"",""trial"",""time""
""fullscreenenter"",""1"",""5072""
""blur"",""3"",""14790""
""focus"",""3"",""14877""
","""event"",""trial"",""time""
""blur"",""3"",""14790""
","""event"",""trial"",""time""
""focus"",""3"",""14877""
","""event"",""trial"",""time""
""fullscreenenter"",""1"",""5072""
","
","","","-1","","","20","15344","3165","&#9733;","elianto","#3366ff99","-1","-1","1","+10","[]","0","1","","","15344","14","2","2","win","no-go","0"
"pit-trial","135","964332","0.0-18.0","battery-v0.2","","""event"",""trial"",""time""
""fullscreenenter"",""1"",""5072""
""blur"",""3"",""14790""
""focus"",""3"",""14877""
","""event"",""trial"",""time""
""blur"",""3"",""14790""
","""event"",""trial"",""time""
""focus"",""3"",""14877""
","""event"",""trial"",""time""
""fullscreenenter"",""1"",""5072""
","
","","","-1","","","20","15344","3165","&#9752;","elianto","#f73b6a7A"," ","-1","0","-10","[]","0","1","","","15344","15","3","3","lose","go","0"
"pit-trial","136","969188","0.0-19.0","battery-v0.2","","""event"",""trial"",""time""
""fullscreenenter"",""1"",""5072""
""blur"",""3"",""14790""
""focus"",""3"",""14877""
","""event"",""trial"",""time""
""blur"",""3"",""14790""
","""event"",""trial"",""time""
""focus"",""3"",""14877""
","""event"",""trial"",""time""
""fullscreenenter"",""1"",""5072""
","
","","","-1","","","20","15344","3165","&#9728;","elianto","#f73b6a7A","-1","-1","1","0","[]","0","1","","","15344","16","0","4","lose","no-go","0"
"pit-trial","137","972644","0.0-20.0","battery-v0.2","","""event"",""trial"",""time""
""fullscreenenter"",""1"",""5072""
""blur"",""3"",""14790""
""focus"",""3"",""14877""
","""event"",""trial"",""time""
""blur"",""3"",""14790""
","""event"",""trial"",""time""
""focus"",""3"",""14877""
","""event"",""trial"",""time""
""fullscreenenter"",""1"",""5072""
","
","","","600.2000000476837","","","20","15344","3165","&#9733;","elianto","#3366ff99","-1"," ","0","0","[1451.8999998569489]","1","1","","","15344","17","2","2","win","no-go","0"
"pit-trial","138","976622","0.0-21.0","battery-v0.2","","""event"",""trial"",""time""
""fullscreenenter"",""1"",""5072""
""blur"",""3"",""14790""
""focus"",""3"",""14877""
","""event"",""trial"",""time""
""blur"",""3"",""14790""
","""event"",""trial"",""time""
""focus"",""3"",""14877""
","""event"",""trial"",""time""
""fullscreenenter"",""1"",""5072""
","
","","","1122","","","20","15344","3165","&#9728;","elianto","#f73b6a7A","-1"," ","0","-10","[1972.6000001430511]","1","1","","","15344","18","0","4","lose","no-go","0"
"pit-trial","139","980027","0.0-22.0","battery-v0.2","","""event"",""trial"",""time""
""fullscreenenter"",""1"",""5072""
""blur"",""3"",""14790""
""focus"",""3"",""14877""
","""event"",""trial"",""time""
""blur"",""3"",""14790""
","""event"",""trial"",""time""
""focus"",""3"",""14877""
","""event"",""trial"",""time""
""fullscreenenter"",""1"",""5072""
","
","","","551.8999998569489","","","20","15344","3165","&#9730;","elianto","#3366ff99"," "," ","1","+10","[1402.2000000476837]","1","1","","","15344","19","1","1","win","go","0"
"pit-trial","140","984883","0.0-23.0","battery-v0.2","","""event"",""trial"",""time""
""fullscreenenter"",""1"",""5072""
""blur"",""3"",""14790""
""focus"",""3"",""14877""
","""event"",""trial"",""time""
""blur"",""3"",""14790""
","""event"",""trial"",""time""
""focus"",""3"",""14877""
","""event"",""trial"",""time""
""fullscreenenter"",""1"",""5072""
","
","","","-1","","","20","15344","3165","&#9752;","elianto","#f73b6a7A"," ","-1","0","-10","[]","0","1","","","15344","20","3","3","lose","go","0"
"pit-instructions","141","997023","0.0-24.0","battery-v0.2","","""event"",""trial"",""time""
""fullscreenenter"",""1"",""5072""
""blur"",""3"",""14790""
""focus"",""3"",""14877""
","""event"",""trial"",""time""
""blur"",""3"",""14790""
","""event"",""trial"",""time""
""focus"",""3"",""14877""
","""event"",""trial"",""time""
""fullscreenenter"",""1"",""5072""
","
","","[{""page_index"":0,""viewing_time"":5585.900000095367},{""page_index"":1,""viewing_time"":6549.899999856949}]","12136.5","","","","","","","","","","","","","","","","","","","","","","","",""
"pit-trial","142","1000555","0.0-25.0","battery-v0.2","","""event"",""trial"",""time""
""fullscreenenter"",""1"",""5072""
""blur"",""3"",""14790""
""focus"",""3"",""14877""
","""event"",""trial"",""time""
""blur"",""3"",""14790""
","""event"",""trial"",""time""
""focus"",""3"",""14877""
","""event"",""trial"",""time""
""fullscreenenter"",""1"",""5072""
","
","","","676.5","","","20","15344","3165","u","elianto","#f73b6a7A"," "," ","1","0","[1527]","1","2","","","15344","21","0","3","lose","go","0"
"pit-trial","143","1003900","0.0-26.0","battery-v0.2","","""event"",""trial"",""time""
""fullscreenenter"",""1"",""5072""
""blur"",""3"",""14790""
""focus"",""3"",""14877""
","""event"",""trial"",""time""
""blur"",""3"",""14790""
","""event"",""trial"",""time""
""focus"",""3"",""14877""
","""event"",""trial"",""time""
""fullscreenenter"",""1"",""5072""
","
","","","488.90000009536743","","","20","15344","3165","l","elianto","#3366ff99","-1"," ","0","0","[1340.7000000476837]","1","2","","","15344","22","1","2","win","no-go","0"
"pit-trial","144","1007285","0.0-27.0","battery-v0.2","","""event"",""trial"",""time""
""fullscreenenter"",""1"",""5072""
""blur"",""3"",""14790""
""focus"",""3"",""14877""
","""event"",""trial"",""time""
""blur"",""3"",""14790""
","""event"",""trial"",""time""
""focus"",""3"",""14877""
","""event"",""trial"",""time""
""fullscreenenter"",""1"",""5072""
","
","","","530.3999998569489","","","20","15344","3165","a","elianto","#f73b6a7A"," "," ","1","0","[1381.3999998569489]","1","2","","","15344","23","2","3","lose","go","0"
"pit-trial","145","1012140","0.0-28.0","battery-v0.2","","""event"",""trial"",""time""
""fullscreenenter"",""1"",""5072""
""blur"",""3"",""14790""
""focus"",""3"",""14877""
","""event"",""trial"",""time""
""blur"",""3"",""14790""
","""event"",""trial"",""time""
""focus"",""3"",""14877""
","""event"",""trial"",""time""
""fullscreenenter"",""1"",""5072""
","
","","","-1","","","20","15344","3165","g","elianto","#f73b6a7A","-1","-1","1","0","[]","0","2","","","15344","24","3","4","lose","no-go","0"
"pit-trial","146","1016996","0.0-29.0","battery-v0.2","","""event"",""trial"",""time""
""fullscreenenter"",""1"",""5072""
""blur"",""3"",""14790""
""focus"",""3"",""14877""
","""event"",""trial"",""time""
""blur"",""3"",""14790""
","""event"",""trial"",""time""
""focus"",""3"",""14877""
","""event"",""trial"",""time""
""fullscreenenter"",""1"",""5072""
","
","","","-1","","","20","15344","3165","a","elianto","#f73b6a7A"," ","-1","0","-10","[]","0","2","","","15344","25","2","3","lose","go","0"
"pit-trial","147","1021851","0.0-30.0","battery-v0.2","","""event"",""trial"",""time""
""fullscreenenter"",""1"",""5072""
""blur"",""3"",""14790""
""focus"",""3"",""14877""
","""event"",""trial"",""time""
""blur"",""3"",""14790""
","""event"",""trial"",""time""
""focus"",""3"",""14877""
","""event"",""trial"",""time""
""fullscreenenter"",""1"",""5072""
","
","","","-1","","","20","15344","3165","u","elianto","#f73b6a7A"," ","-1","0","-10","[]","0","2","","","15344","26","0","3","lose","go","0"
"pit-trial","148","1025387","0.0-31.0","battery-v0.2","","""event"",""trial"",""time""
""fullscreenenter"",""1"",""5072""
""blur"",""3"",""14790""
""focus"",""3"",""14877""
","""event"",""trial"",""time""
""blur"",""3"",""14790""
","""event"",""trial"",""time""
""focus"",""3"",""14877""
","""event"",""trial"",""time""
""fullscreenenter"",""1"",""5072""
","
","","","682.5","","","20","15344","3165","l","elianto","#3366ff99","-1"," ","0","0","[1533.5]","1","2","","","15344","27","1","2","win","no-go","0"
"pit-trial","149","1028773","0.0-32.0","battery-v0.2","","""event"",""trial"",""time""
""fullscreenenter"",""1"",""5072""
""blur"",""3"",""14790""
""focus"",""3"",""14877""
","""event"",""trial"",""time""
""blur"",""3"",""14790""
","""event"",""trial"",""time""
""focus"",""3"",""14877""
","""event"",""trial"",""time""
""fullscreenenter"",""1"",""5072""
","
","","","530.5999999046326","","","20","15344","3165","g","elianto","#f73b6a7A","-1"," ","0","0","[1381.7999999523163]","1","2","","","15344","28","3","4","lose","no-go","1"
"pit-trial","150","1032335","0.0-33.0","battery-v0.2","","""event"",""trial"",""time""
""fullscreenenter"",""1"",""5072""
""blur"",""3"",""14790""
""focus"",""3"",""14877""
","""event"",""trial"",""time""
""blur"",""3"",""14790""
","""event"",""trial"",""time""
""focus"",""3"",""14877""
","""event"",""trial"",""time""
""fullscreenenter"",""1"",""5072""
","
","","","706.0999999046326","","","20","15344","3165","g","elianto","#f73b6a7A","-1"," ","0","0","[1556.8999998569489]","1","2","","","15344","29","3","4","lose","no-go","1"
"pit-trial","151","1037190","0.0-34.0","battery-v0.2","","""event"",""trial"",""time""
""fullscreenenter"",""1"",""5072""
""blur"",""3"",""14790""
""focus"",""3"",""14877""
","""event"",""trial"",""time""
""blur"",""3"",""14790""
","""event"",""trial"",""time""
""focus"",""3"",""14877""
","""event"",""trial"",""time""
""fullscreenenter"",""1"",""5072""
","
","","","-1","","","20","15344","3165","u","elianto","#f73b6a7A"," ","-1","0","-10","[]","0","2","","","15344","30","0","3","lose","go","0"
"pit-trial","152","1041724","0.0-35.0","battery-v0.2","","""event"",""trial"",""time""
""fullscreenenter"",""1"",""5072""
""blur"",""3"",""14790""
""focus"",""3"",""14877""
","""event"",""trial"",""time""
""blur"",""3"",""14790""
","""event"",""trial"",""time""
""focus"",""3"",""14877""
","""event"",""trial"",""time""
""fullscreenenter"",""1"",""5072""
","
","","","1679.8999998569489","","","20","15344","3165","l","elianto","#3366ff99","-1"," ","0","0","[2530.2999999523163]","1","2","","","15344","31","1","2","win","no-go","0"
"pit-trial","153","1046578","0.0-36.0","battery-v0.2","","""event"",""trial"",""time""
""fullscreenenter"",""1"",""5072""
""blur"",""3"",""14790""
""focus"",""3"",""14877""
","""event"",""trial"",""time""
""blur"",""3"",""14790""
","""event"",""trial"",""time""
""focus"",""3"",""14877""
","""event"",""trial"",""time""
""fullscreenenter"",""1"",""5072""
","
","","","-1","","","20","15344","3165","a","elianto","#f73b6a7A"," ","-1","0","-10","[]","0","2","","","15344","32","2","3","lose","go","0"
"pit-trial","154","1051433","0.0-37.0","battery-v0.2","","""event"",""trial"",""time""
""fullscreenenter"",""1"",""5072""
""blur"",""3"",""14790""
""focus"",""3"",""14877""
","""event"",""trial"",""time""
""blur"",""3"",""14790""
","""event"",""trial"",""time""
""focus"",""3"",""14877""
","""event"",""trial"",""time""
""fullscreenenter"",""1"",""5072""
","
","","","-1","","","20","15344","3165","l","elianto","#3366ff99","-1","-1","1","+10","[]","0","2","","","15344","33","1","2","win","no-go","0"
"pit-trial","155","1056289","0.0-38.0","battery-v0.2","","""event"",""trial"",""time""
""fullscreenenter"",""1"",""5072""
""blur"",""3"",""14790""
""focus"",""3"",""14877""
","""event"",""trial"",""time""
""blur"",""3"",""14790""
","""event"",""trial"",""time""
""focus"",""3"",""14877""
","""event"",""trial"",""time""
""fullscreenenter"",""1"",""5072""
","
","","","-1","","","20","15344","3165","g","elianto","#f73b6a7A","-1","-1","1","-10","[]","0","2","","","15344","34","3","4","lose","no-go","1"
"pit-trial","156","1061144","0.0-39.0","battery-v0.2","","""event"",""trial"",""time""
""fullscreenenter"",""1"",""5072""
""blur"",""3"",""14790""
""focus"",""3"",""14877""
","""event"",""trial"",""time""
""blur"",""3"",""14790""
","""event"",""trial"",""time""
""focus"",""3"",""14877""
","""event"",""trial"",""time""
""fullscreenenter"",""1"",""5072""
","
","","","-1","","","20","15344","3165","u","elianto","#f73b6a7A"," ","-1","0","-10","[]","0","2","","","15344","35","0","3","lose","go","0"
"pit-trial","157","1065999","0.0-40.0","battery-v0.2","","""event"",""trial"",""time""
""fullscreenenter"",""1"",""5072""
""blur"",""3"",""14790""
""focus"",""3"",""14877""
","""event"",""trial"",""time""
""blur"",""3"",""14790""
","""event"",""trial"",""time""
""focus"",""3"",""14877""
","""event"",""trial"",""time""
""fullscreenenter"",""1"",""5072""
","
","","","-1","","","20","15344","3165","a","elianto","#f73b6a7A"," ","-1","0","0","[]","0","2","","","15344","36","2","3","lose","go","1"
"pit-trial","158","1070854","0.0-41.0","battery-v0.2","","""event"",""trial"",""time""
""fullscreenenter"",""1"",""5072""
""blur"",""3"",""14790""
""focus"",""3"",""14877""
","""event"",""trial"",""time""
""blur"",""3"",""14790""
","""event"",""trial"",""time""
""focus"",""3"",""14877""
","""event"",""trial"",""time""
""fullscreenenter"",""1"",""5072""
","
","","","-1","","","20","15344","3165","u","elianto","#f73b6a7A"," ","-1","0","0","[]","0","2","","","15344","37","0","3","lose","go","1"
"pit-trial","159","1075710","0.0-42.0","battery-v0.2","","""event"",""trial"",""time""
""fullscreenenter"",""1"",""5072""
""blur"",""3"",""14790""
""focus"",""3"",""14877""
","""event"",""trial"",""time""
""blur"",""3"",""14790""
","""event"",""trial"",""time""
""focus"",""3"",""14877""
","""event"",""trial"",""time""
""fullscreenenter"",""1"",""5072""
","
","","","-1","","","20","15344","3165","a","elianto","#f73b6a7A"," ","-1","0","-10","[]","0","2","","","15344","38","2","3","lose","go","0"
"pit-trial","160","1080563","0.0-43.0","battery-v0.2","","""event"",""trial"",""time""
""fullscreenenter"",""1"",""5072""
""blur"",""3"",""14790""
""focus"",""3"",""14877""
","""event"",""trial"",""time""
""blur"",""3"",""14790""
","""event"",""trial"",""time""
""focus"",""3"",""14877""
","""event"",""trial"",""time""
""fullscreenenter"",""1"",""5072""
","
","","","-1","","","20","15344","3165","l","elianto","#3366ff99","-1","-1","1","+10","[]","0","2","","","15344","39","1","2","win","no-go","0"
"pit-trial","161","1085419","0.0-44.0","battery-v0.2","","""event"",""trial"",""time""
""fullscreenenter"",""1"",""5072""
""blur"",""3"",""14790""
""focus"",""3"",""14877""
","""event"",""trial"",""time""
""blur"",""3"",""14790""
","""event"",""trial"",""time""
""focus"",""3"",""14877""
","""event"",""trial"",""time""
""fullscreenenter"",""1"",""5072""
","
","","","-1","","","20","15344","3165","g","elianto","#f73b6a7A","-1","-1","1","0","[]","0","2","","","15344","40","3","4","lose","no-go","0"
"pit-trial","162","1089119","0.0-45.0","battery-v0.2","","""event"",""trial"",""time""
""fullscreenenter"",""1"",""5072""
""blur"",""3"",""14790""
""focus"",""3"",""14877""
","""event"",""trial"",""time""
""blur"",""3"",""14790""
","""event"",""trial"",""time""
""focus"",""3"",""14877""
","""event"",""trial"",""time""
""fullscreenenter"",""1"",""5072""
","
","","","844.5","","","20","15344","3165","l","elianto","#3366ff99","-1"," ","0","0","[1694.9000000953674]","1","2","","","15344","41","1","2","win","no-go","0"
"pit-trial","163","1093974","0.0-46.0","battery-v0.2","","""event"",""trial"",""time""
""fullscreenenter"",""1"",""5072""
""blur"",""3"",""14790""
""focus"",""3"",""14877""
","""event"",""trial"",""time""
""blur"",""3"",""14790""
","""event"",""trial"",""time""
""focus"",""3"",""14877""
","""event"",""trial"",""time""
""fullscreenenter"",""1"",""5072""
","
","","","-1","","","20","15344","3165","g","elianto","#f73b6a7A","-1","-1","1","0","[]","0","2","","","15344","42","3","4","lose","no-go","0"
"pit-trial","164","1098829","0.0-47.0","battery-v0.2","","""event"",""trial"",""time""
""fullscreenenter"",""1"",""5072""
""blur"",""3"",""14790""
""focus"",""3"",""14877""
","""event"",""trial"",""time""
""blur"",""3"",""14790""
","""event"",""trial"",""time""
""focus"",""3"",""14877""
","""event"",""trial"",""time""
""fullscreenenter"",""1"",""5072""
","
","","","-1","","","20","15344","3165","a","elianto","#f73b6a7A"," ","-1","0","0","[]","0","2","","","15344","43","2","3","lose","go","1"
"pit-trial","165","1103684","0.0-48.0","battery-v0.2","","""event"",""trial"",""time""
""fullscreenenter"",""1"",""5072""
""blur"",""3"",""14790""
""focus"",""3"",""14877""
","""event"",""trial"",""time""
""blur"",""3"",""14790""
","""event"",""trial"",""time""
""focus"",""3"",""14877""
","""event"",""trial"",""time""
""fullscreenenter"",""1"",""5072""
","
","","","-1","","","20","15344","3165","u","elianto","#f73b6a7A"," ","-1","0","0","[]","0","2","","","15344","44","0","3","lose","go","1"
"pit-trial","166","1108539","0.0-49.0","battery-v0.2","","""event"",""trial"",""time""
""fullscreenenter"",""1"",""5072""
""blur"",""3"",""14790""
""focus"",""3"",""14877""
","""event"",""trial"",""time""
""blur"",""3"",""14790""
","""event"",""trial"",""time""
""focus"",""3"",""14877""
","""event"",""trial"",""time""
""fullscreenenter"",""1"",""5072""
","
","","","-1","","","20","15344","3165","u","elianto","#f73b6a7A"," ","-1","0","0","[]","0","2","","","15344","45","0","3","lose","go","1"
"pit-trial","167","1113395","0.0-50.0","battery-v0.2","","""event"",""trial"",""time""
""fullscreenenter"",""1"",""5072""
""blur"",""3"",""14790""
""focus"",""3"",""14877""
","""event"",""trial"",""time""
""blur"",""3"",""14790""
","""event"",""trial"",""time""
""focus"",""3"",""14877""
","""event"",""trial"",""time""
""fullscreenenter"",""1"",""5072""
","
","","","-1","","","20","15344","3165","l","elianto","#3366ff99","-1","-1","1","+10","[]","0","2","","","15344","46","1","2","win","no-go","0"
"pit-trial","168","1118250","0.0-51.0","battery-v0.2","","""event"",""trial"",""time""
""fullscreenenter"",""1"",""5072""
""blur"",""3"",""14790""
""focus"",""3"",""14877""
","""event"",""trial"",""time""
""blur"",""3"",""14790""
","""event"",""trial"",""time""
""focus"",""3"",""14877""
","""event"",""trial"",""time""
""fullscreenenter"",""1"",""5072""
","
","","","-1","","","20","15344","3165","g","elianto","#f73b6a7A","-1","-1","1","-10","[]","0","2","","","15344","47","3","4","lose","no-go","1"
"pit-trial","169","1123106","0.0-52.0","battery-v0.2","","""event"",""trial"",""time""
""fullscreenenter"",""1"",""5072""
""blur"",""3"",""14790""
""focus"",""3"",""14877""
","""event"",""trial"",""time""
""blur"",""3"",""14790""
","""event"",""trial"",""time""
""focus"",""3"",""14877""
","""event"",""trial"",""time""
""fullscreenenter"",""1"",""5072""
","
","","","-1","","","20","15344","3165","a","elianto","#f73b6a7A"," ","-1","0","-10","[]","0","2","","","15344","48","2","3","lose","go","0"
"pit-trial","170","1127241","0.0-53.0","battery-v0.2","","""event"",""trial"",""time""
""fullscreenenter"",""1"",""5072""
""blur"",""3"",""14790""
""focus"",""3"",""14877""
","""event"",""trial"",""time""
""blur"",""3"",""14790""
","""event"",""trial"",""time""
""focus"",""3"",""14877""
","""event"",""trial"",""time""
""fullscreenenter"",""1"",""5072""
","
","","","1279.7999999523163","","","20","15344","3165","u","elianto","#f73b6a7A"," "," ","1","-10","[2130.399999856949]","1","2","","","15344","49","0","3","lose","go","1"
"pit-trial","171","1130830","0.0-54.0","battery-v0.2","","""event"",""trial"",""time""
""fullscreenenter"",""1"",""5072""
""blur"",""3"",""14790""
""focus"",""3"",""14877""
","""event"",""trial"",""time""
""blur"",""3"",""14790""
","""event"",""trial"",""time""
""focus"",""3"",""14877""
","""event"",""trial"",""time""
""fullscreenenter"",""1"",""5072""
","
","","","735.4000000953674","","","20","15344","3165","g","elianto","#f73b6a7A","-1"," ","0","-10","[1586.5999999046326]","1","2","","","15344","50","3","4","lose","no-go","0"
"pit-trial","172","1134752","0.0-55.0","battery-v0.2","","""event"",""trial"",""time""
""fullscreenenter"",""1"",""5072""
""blur"",""3"",""14790""
""focus"",""3"",""14877""
","""event"",""trial"",""time""
""blur"",""3"",""14790""
","""event"",""trial"",""time""
""focus"",""3"",""14877""
","""event"",""trial"",""time""
""fullscreenenter"",""1"",""5072""
","
","","","1067.2999999523163","","","20","15344","3165","l","elianto","#3366ff99","-1"," ","0","0","[1918.2999999523163]","1","2","","","15344","51","1","2","win","no-go","0"
"pit-trial","173","1139607","0.0-56.0","battery-v0.2","","""event"",""trial"",""time""
""fullscreenenter"",""1"",""5072""
""blur"",""3"",""14790""
""focus"",""3"",""14877""
","""event"",""trial"",""time""
""blur"",""3"",""14790""
","""event"",""trial"",""time""
""focus"",""3"",""14877""
","""event"",""trial"",""time""
""fullscreenenter"",""1"",""5072""
","
","","","-1","","","20","15344","3165","a","elianto","#f73b6a7A"," ","-1","0","-10","[]","0","2","","","15344","52","2","3","lose","go","0"
"pit-trial","174","1143361","0.0-57.0","battery-v0.2","","""event"",""trial"",""time""
""fullscreenenter"",""1"",""5072""
""blur"",""3"",""14790""
""focus"",""3"",""14877""
","""event"",""trial"",""time""
""blur"",""3"",""14790""
","""event"",""trial"",""time""
""focus"",""3"",""14877""
","""event"",""trial"",""time""
""fullscreenenter"",""1"",""5072""
","
","","","899.6000001430511","","","20","15344","3165","l","elianto","#3366ff99","-1"," ","0","0","[1749.8999998569489]","1","2","","","15344","53","1","2","win","no-go","0"
"pit-trial","175","1148217","0.0-58.0","battery-v0.2","","""event"",""trial"",""time""
""fullscreenenter"",""1"",""5072""
""blur"",""3"",""14790""
""focus"",""3"",""14877""
","""event"",""trial"",""time""
""blur"",""3"",""14790""
","""event"",""trial"",""time""
""focus"",""3"",""14877""
","""event"",""trial"",""time""
""fullscreenenter"",""1"",""5072""
","
","","","-1","","","20","15344","3165","a","elianto","#f73b6a7A"," ","-1","0","0","[]","0","2","","","15344","54","2","3","lose","go","1"
"pit-trial","176","1153072","0.0-59.0","battery-v0.2","","""event"",""trial"",""time""
""fullscreenenter"",""1"",""5072""
""blur"",""3"",""14790""
""focus"",""3"",""14877""
","""event"",""trial"",""time""
""blur"",""3"",""14790""
","""event"",""trial"",""time""
""focus"",""3"",""14877""
","""event"",""trial"",""time""
""fullscreenenter"",""1"",""5072""
","
","","","-1","","","20","15344","3165","u","elianto","#f73b6a7A"," ","-1","0","0","[]","0","2","","","15344","55","0","3","lose","go","1"
"pit-trial","177","1157927","0.0-60.0","battery-v0.2","","""event"",""trial"",""time""
""fullscreenenter"",""1"",""5072""
""blur"",""3"",""14790""
""focus"",""3"",""14877""
","""event"",""trial"",""time""
""blur"",""3"",""14790""
","""event"",""trial"",""time""
""focus"",""3"",""14877""
","""event"",""trial"",""time""
""fullscreenenter"",""1"",""5072""
","
","","","-1","","","20","15344","3165","g","elianto","#f73b6a7A","-1","-1","1","0","[]","0","2","","","15344","56","3","4","lose","no-go","0"
"pit-trial","178","1162781","0.0-61.0","battery-v0.2","","""event"",""trial"",""time""
""fullscreenenter"",""1"",""5072""
""blur"",""3"",""14790""
""focus"",""3"",""14877""
","""event"",""trial"",""time""
""blur"",""3"",""14790""
","""event"",""trial"",""time""
""focus"",""3"",""14877""
","""event"",""trial"",""time""
""fullscreenenter"",""1"",""5072""
","
","","","-1","","","20","15344","3165","a","elianto","#f73b6a7A"," ","-1","0","-10","[]","0","2","","","15344","57","2","3","lose","go","0"
"pit-trial","179","1167634","0.0-62.0","battery-v0.2","","""event"",""trial"",""time""
""fullscreenenter"",""1"",""5072""
""blur"",""3"",""14790""
""focus"",""3"",""14877""
","""event"",""trial"",""time""
""blur"",""3"",""14790""
","""event"",""trial"",""time""
""focus"",""3"",""14877""
","""event"",""trial"",""time""
""fullscreenenter"",""1"",""5072""
","
","","","-1","","","20","15344","3165","g","elianto","#f73b6a7A","-1","-1","1","0","[]","0","2","","","15344","58","3","4","lose","no-go","0"
"pit-trial","180","1172490","0.0-63.0","battery-v0.2","","""event"",""trial"",""time""
""fullscreenenter"",""1"",""5072""
""blur"",""3"",""14790""
""focus"",""3"",""14877""
","""event"",""trial"",""time""
""blur"",""3"",""14790""
","""event"",""trial"",""time""
""focus"",""3"",""14877""
","""event"",""trial"",""time""
""fullscreenenter"",""1"",""5072""
","
","","","-1","","","20","15344","3165","u","elianto","#f73b6a7A"," ","-1","0","-10","[]","0","2","","","15344","59","0","3","lose","go","0"
"pit-trial","181","1177345","0.0-64.0","battery-v0.2","","""event"",""trial"",""time""
""fullscreenenter"",""1"",""5072""
""blur"",""3"",""14790""
""focus"",""3"",""14877""
","""event"",""trial"",""time""
""blur"",""3"",""14790""
","""event"",""trial"",""time""
""focus"",""3"",""14877""
","""event"",""trial"",""time""
""fullscreenenter"",""1"",""5072""
","
","","","-1","","","20","15344","3165","p","elianto","#3366ff99"," ","-1","0","0","[]","0","2","","","15344","60","4","1","win","go","0"
"pit-trial","182","1180819","0.0-65.0","battery-v0.2","","""event"",""trial"",""time""
""fullscreenenter"",""1"",""5072""
""blur"",""3"",""14790""
""focus"",""3"",""14877""
","""event"",""trial"",""time""
""blur"",""3"",""14790""
","""event"",""trial"",""time""
""focus"",""3"",""14877""
","""event"",""trial"",""time""
""fullscreenenter"",""1"",""5072""
","
","","","618.5999999046326","","","20","15344","3165","l","elianto","#3366ff99","-1"," ","0","0","[1469.2999999523163]","1","2","","","15344","61","1","2","win","no-go","0"
"pit-trial","183","1185673","0.0-66.0","battery-v0.2","","""event"",""trial"",""time""
""fullscreenenter"",""1"",""5072""
""blur"",""3"",""14790""
""focus"",""3"",""14877""
","""event"",""trial"",""time""
""blur"",""3"",""14790""
","""event"",""trial"",""time""
""focus"",""3"",""14877""
","""event"",""trial"",""time""
""fullscreenenter"",""1"",""5072""
","
","","","-1","","","20","15344","3165","a","elianto","#f73b6a7A"," ","-1","0","-10","[]","0","2","","","15344","62","2","3","lose","go","0"
"pit-trial","184","1190528","0.0-67.0","battery-v0.2","","""event"",""trial"",""time""
""fullscreenenter"",""1"",""5072""
""blur"",""3"",""14790""
""focus"",""3"",""14877""
","""event"",""trial"",""time""
""blur"",""3"",""14790""
","""event"",""trial"",""time""
""focus"",""3"",""14877""
","""event"",""trial"",""time""
""fullscreenenter"",""1"",""5072""
","
","","","-1","","","20","15344","3165","g","elianto","#f73b6a7A","-1","-1","1","-10","[]","0","2","","","15344","63","3","4","lose","no-go","1"
"pit-trial","185","1195382","0.0-68.0","battery-v0.2","","""event"",""trial"",""time""
""fullscreenenter"",""1"",""5072""
""blur"",""3"",""14790""
""focus"",""3"",""14877""
","""event"",""trial"",""time""
""blur"",""3"",""14790""
","""event"",""trial"",""time""
""focus"",""3"",""14877""
","""event"",""trial"",""time""
""fullscreenenter"",""1"",""5072""
","
","","","-1","","","20","15344","3165","p","elianto","#3366ff99"," ","-1","0","0","[]","0","2","","","15344","64","4","1","win","go","0"
"pit-trial","186","1200237","0.0-69.0","battery-v0.2","","""event"",""trial"",""time""
""fullscreenenter"",""1"",""5072""
""blur"",""3"",""14790""
""focus"",""3"",""14877""
","""event"",""trial"",""time""
""blur"",""3"",""14790""
","""event"",""trial"",""time""
""focus"",""3"",""14877""
","""event"",""trial"",""time""
""fullscreenenter"",""1"",""5072""
","
