"trial_type","trial_index","time_elapsed","internal_node_id","task_version","subject_id","interactions","blur_events","focus_events","fullscreenenter_events","fullscreenexit_events","success","view_history","rt","responses","num_errors","age","subject","participantId","rune","rune_set","hex","correct","choice","accuracy","outcome","keys","total_keys","block","practice","value","sub","trial","stimulus","robot","valence","action","sham"
"pavlovia","0","18","0.0-0.0","battery-v0.2","","""event"",""trial"",""time""
""fullscreenenter"",""1"",""4773""
","
","
","""event"",""trial"",""time""
""fullscreenenter"",""1"",""4773""
","
","","","","","","","","","","","","","","","","","","","","","","","","","","",""
"fullscreen","1","5633","0.0-1.0","battery-v0.2","","""event"",""trial"",""time""
""fullscreenenter"",""1"",""4773""
","
","
","""event"",""trial"",""time""
""fullscreenenter"",""1"",""4773""
","
","true","","","","","","","","","","","","","","","","","","","","","","","","","",""
"pit-instructions","2","13638","0.0-2.0-0.0","battery-v0.2","","""event"",""trial"",""time""
""fullscreenenter"",""1"",""4773""
","
","
","""event"",""trial"",""time""
""fullscreenenter"",""1"",""4773""
","
","","[{""page_index"":0,""viewing_time"":7988.5}]","7989.5","","","","","","","","","","","","","","","","","","","","","","","",""
"pit-comprehension","3","19192","0.0-2.0-1.0-0.0","battery-v0.2","","""event"",""trial"",""time""
""fullscreenenter"",""1"",""4773""
","
","
","""event"",""trial"",""time""
""fullscreenenter"",""1"",""4773""
","
","","","5546.60000038147","[""shark""]","0","16","7697","123","","","","","","","","","","","","","","","","","","",""
"pit-instructions","4","21701","0.0-2.0-1.0-1.0","battery-v0.2","","""event"",""trial"",""time""
""fullscreenenter"",""1"",""4773""
","
","
","""event"",""trial"",""time""
""fullscreenenter"",""1"",""4773""
","
","","[{""page_index"":0,""viewing_time"":2476.5999999046326}]","2477.0999999046326","","","","","","","","","","","","","","","","","","","","","","","",""
"pit-comprehension","5","27075","0.0-2.0-2.0-0.0","battery-v0.2","","""event"",""trial"",""time""
""fullscreenenter"",""1"",""4773""
","
","
","""event"",""trial"",""time""
""fullscreenenter"",""1"",""4773""
","
","","","5365.400000095367","[""tiger""]","0","16","7697","123","","","","","","","","","","","","","","","","","","",""
"pit-instructions","6","29404","0.0-2.0-2.0-1.0","battery-v0.2","","""event"",""trial"",""time""
""fullscreenenter"",""1"",""4773""
","
","
","""event"",""trial"",""time""
""fullscreenenter"",""1"",""4773""
","
","","[{""page_index"":0,""viewing_time"":2321.300000190735}]","2322.199999809265","","","","","","","","","","","","","","","","","","","","","","","",""
"pit-instructions","7","151510","0.0-2.0-3.0","battery-v0.2","","""event"",""trial"",""time""
""fullscreenenter"",""1"",""4773""
","
","
","""event"",""trial"",""time""
""fullscreenenter"",""1"",""4773""
","
","","[{""page_index"":0,""viewing_time"":13001.099999904633},{""page_index"":1,""viewing_time"":9891.5},{""page_index"":2,""viewing_time"":7703},{""page_index"":3,""viewing_time"":9359},{""page_index"":4,""viewing_time"":6556.199999809265},{""page_index"":5,""viewing_time"":6839.10000038147},{""page_index"":6,""viewing_time"":8466},{""page_index"":7,""viewing_time"":8585},{""page_index"":8,""viewing_time"":6638.5},{""page_index"":9,""viewing_time"":16879.199999809265},{""page_index"":10,""viewing_time"":7862.699999809265},{""page_index"":11,""viewing_time"":7674.300000190735},{""page_index"":12,""viewing_time"":6194.699999809265},{""page_index"":13,""viewing_time"":6446.5}]","122097.5","","","","","","","","","","","","","","","","","","","","","","","",""
"pit-trial","8","155187","0.0-2.0-4.0-0.0","battery-v0.2","","""event"",""trial"",""time""
""fullscreenenter"",""1"",""4773""
","
","
","""event"",""trial"",""time""
""fullscreenenter"",""1"",""4773""
","
","","","799.5","","","16","7697","123","&#9784;","elianto","#FFFFF080"," "," ","1","&#10004","[1650.9000000953674]","1","0","0","","","","","","","",""
"pit-trial","9","158958","0.0-2.0-4.1-0.1","battery-v0.2","","""event"",""trial"",""time""
""fullscreenenter"",""1"",""4773""
","
","
","""event"",""trial"",""time""
""fullscreenenter"",""1"",""4773""
","
","","","903","","","16","7697","123","&#9784;","elianto","#FFFFF080"," "," ","1","&#10004","[1762.8000001907349]","1","0","0","","","","","","","",""
"pit-trial","10","162536","0.0-2.0-4.2-0.2","battery-v0.2","","""event"",""trial"",""time""
""fullscreenenter"",""1"",""4773""
","
","
","""event"",""trial"",""time""
""fullscreenenter"",""1"",""4773""
","
","","","694","","","16","7697","123","&#9784;","elianto","#FFFFF080"," "," ","1","&#10004","[1551.4000000953674]","1","0","0","","","","","","","",""
"pit-trial","11","166117","0.0-2.0-4.3-0.3","battery-v0.2","","""event"",""trial"",""time""
""fullscreenenter"",""1"",""4773""
","
","
","""event"",""trial"",""time""
""fullscreenenter"",""1"",""4773""
","
","","","704.6999998092651","","","16","7697","123","&#9784;","elianto","#FFFFF080"," "," ","1","&#10004","[1557.5]","1","0","0","","","","","","","",""
"pit-trial","12","169666","0.0-2.0-4.4-0.4","battery-v0.2","","""event"",""trial"",""time""
""fullscreenenter"",""1"",""4773""
","
","
","""event"",""trial"",""time""
""fullscreenenter"",""1"",""4773""
","
","","","678.7000002861023","","","16","7697","123","&#9784;","elianto","#FFFFF080"," "," ","1","&#10004","[1529.5]","1","0","0","","","","","","","",""
"pit-instructions","13","197725","0.0-2.0-5.0","battery-v0.2","","""event"",""trial"",""time""
""fullscreenenter"",""1"",""4773""
","
","
","""event"",""trial"",""time""
""fullscreenenter"",""1"",""4773""
","
","","[{""page_index"":0,""viewing_time"":6072},{""page_index"":1,""viewing_time"":7472.800000190735},{""page_index"":2,""viewing_time"":5772.5},{""page_index"":3,""viewing_time"":8734.39999961853}]","28052.199999809265","","","","","","","","","","","","","","","","","","","","","","","",""
"pit-trial","14","202608","0.0-2.0-6.0-0.0","battery-v0.2","","""event"",""trial"",""time""
""fullscreenenter"",""1"",""4773""
","
","
","""event"",""trial"",""time""
""fullscreenenter"",""1"",""4773""
","
","","","-1","","","16","7697","123","&#9854;","elianto","#FFFFF080","-1","-1","1","&#10004","[]","0","0","1","","","","","","","",""
"pit-trial","15","207488","0.0-2.0-6.1-0.1","battery-v0.2","","""event"",""trial"",""time""
""fullscreenenter"",""1"",""4773""
","
","
","""event"",""trial"",""time""
""fullscreenenter"",""1"",""4773""
","
","","","-1","","","16","7697","123","&#9854;","elianto","#FFFFF080","-1","-1","1","&#10004","[]","0","0","1","","","","","","","",""
"pit-trial","16","212362","0.0-2.0-6.2-0.2","battery-v0.2","","""event"",""trial"",""time""
""fullscreenenter"",""1"",""4773""
","
","
","""event"",""trial"",""time""
""fullscreenenter"",""1"",""4773""
","
","","","-1","","","16","7697","123","&#9854;","elianto","#FFFFF080","-1","-1","1","&#10004","[]","0","0","1","","","","","","","",""
"pit-trial","17","217237","0.0-2.0-6.3-0.3","battery-v0.2","","""event"",""trial"",""time""
""fullscreenenter"",""1"",""4773""
","
","
","""event"",""trial"",""time""
""fullscreenenter"",""1"",""4773""
","
","","","-1","","","16","7697","123","&#9854;","elianto","#FFFFF080","-1","-1","1","&#10004","[]","0","0","1","","","","","","","",""
"pit-trial","18","222107","0.0-2.0-6.4-0.4","battery-v0.2","","""event"",""trial"",""time""
""fullscreenenter"",""1"",""4773""
","
","
","""event"",""trial"",""time""
""fullscreenenter"",""1"",""4773""
","
","","","-1","","","16","7697","123","&#9854;","elianto","#FFFFF080","-1","-1","1","&#10004","[]","0","0","1","","","","","","","",""
"pit-instructions","19","380919","0.0-2.0-7.0","battery-v0.2","","""event"",""trial"",""time""
""fullscreenenter"",""1"",""4773""
","
","
","""event"",""trial"",""time""
""fullscreenenter"",""1"",""4773""
","
","","[{""page_index"":0,""viewing_time"":6312.60000038147},{""page_index"":1,""viewing_time"":23063.599999904633},{""page_index"":2,""viewing_time"":9055.299999713898},{""page_index"":3,""viewing_time"":8471.60000038147},{""page_index"":4,""viewing_time"":6403.799999713898},{""page_index"":5,""viewing_time"":7117.099999904633},{""page_index"":6,""viewing_time"":5619.200000286102},{""page_index"":7,""viewing_time"":7903.599999904633},{""page_index"":8,""viewing_time"":7979.699999809265},{""page_index"":9,""viewing_time"":6091.60000038147},{""page_index"":10,""viewing_time"":6955.299999713898},{""page_index"":11,""viewing_time"":6261.599999904633},{""page_index"":12,""viewing_time"":9796.200000286102},{""page_index"":13,""viewing_time"":7838.599999904633},{""page_index"":14,""viewing_time"":10588},{""page_index"":15,""viewing_time"":11932.400000095367},{""page_index"":16,""viewing_time"":8561.5},{""page_index"":17,""viewing_time"":8851.900000095367}]","158804.10000038147","","","","","","","","","","","","","","","","","","","","","","","",""
"pit-trial","20","384581","0.0-2.0-8.0-0.0","battery-v0.2","","""event"",""trial"",""time""
""fullscreenenter"",""1"",""4773""
","
","
","""event"",""trial"",""time""
""fullscreenenter"",""1"",""4773""
","
","","","787.2000002861023","","","16","7697","123","&#9776;","elianto","#3366ff99"," "," ","1","+10","[1643.5999999046326]","1","0","1","","","","","","","",""
"pit-trial","21","388117","0.0-2.0-8.0-1.0","battery-v0.2","","""event"",""trial"",""time""
""fullscreenenter"",""1"",""4773""
","
","
","""event"",""trial"",""time""
""fullscreenenter"",""1"",""4773""
","
","","","665.5","","","16","7697","123","&#9776;","elianto","#3366ff99"," "," ","1","+10","[1520.7999997138977]","1","0","1","","","","","","","",""
"pit-trial","22","391581","0.0-2.0-8.0-2.0","battery-v0.2","","""event"",""trial"",""time""
""fullscreenenter"",""1"",""4773""
","
","
","""event"",""trial"",""time""
""fullscreenenter"",""1"",""4773""
","
","","","587.9000000953674","","","16","7697","123","&#9776;","elianto","#3366ff99"," "," ","1","+10","[1438.7000002861023]","1","0","1","","","","","","","",""
"pit-trial","23","395087","0.0-2.0-8.0-3.0","battery-v0.2","","""event"",""trial"",""time""
""fullscreenenter"",""1"",""4773""
","
","
","""event"",""trial"",""time""
""fullscreenenter"",""1"",""4773""
","
","","","646.0999999046326","","","16","7697","123","&#9776;","elianto","#3366ff99"," "," ","1","0","[1496.5]","1","0","1","","","","","","","",""
"pit-trial","24","398551","0.0-2.0-8.0-4.0","battery-v0.2","","""event"",""trial"",""time""
""fullscreenenter"",""1"",""4773""
","
","
","""event"",""trial"",""time""
""fullscreenenter"",""1"",""4773""
","
","","","599.0999999046326","","","16","7697","123","&#9776;","elianto","#3366ff99"," "," ","1","+10","[1455.6999998092651]","1","0","1","","","","","","","",""
"pit-trial","25","402072","0.0-2.0-8.1-0.1","battery-v0.2","","""event"",""trial"",""time""
""fullscreenenter"",""1"",""4773""
","
","
","""event"",""trial"",""time""
""fullscreenenter"",""1"",""4773""
","
","","","642.4000000953674","","","16","7697","123","&#9776;","elianto","#3366ff99"," "," ","1","+10","[1500]","1","0","1","","","","","","","",""
"pit-trial","26","405726","0.0-2.0-8.1-1.1","battery-v0.2","","""event"",""trial"",""time""
""fullscreenenter"",""1"",""4773""
","
","
","""event"",""trial"",""time""
""fullscreenenter"",""1"",""4773""
","
","","","782.3000001907349","","","16","7697","123","&#9776;","elianto","#3366ff99"," "," ","1","+10","[1634.2000002861023]","1","0","1","","","","","","","",""
"pit-trial","27","409227","0.0-2.0-8.1-2.1","battery-v0.2","","""event"",""trial"",""time""
""fullscreenenter"",""1"",""4773""
","
","
","""event"",""trial"",""time""
""fullscreenenter"",""1"",""4773""
","
","","","642.6999998092651","","","16","7697","123","&#9776;","elianto","#3366ff99"," "," ","1","+10","[1496]","1","0","1","","","","","","","",""
"pit-trial","28","412780","0.0-2.0-8.1-3.1","battery-v0.2","","""event"",""trial"",""time""
""fullscreenenter"",""1"",""4773""
","
","
","""event"",""trial"",""time""
""fullscreenenter"",""1"",""4773""
","
","","","692.0999999046326","","","16","7697","123","&#9776;","elianto","#3366ff99"," "," ","1","0","[1543.3999996185303]","1","0","1","","","","","","","",""
"pit-trial","29","416331","0.0-2.0-8.1-4.1","battery-v0.2","","""event"",""trial"",""time""
""fullscreenenter"",""1"",""4773""
","
","
","""event"",""trial"",""time""
""fullscreenenter"",""1"",""4773""
","
","","","691.3000001907349","","","16","7697","123","&#9776;","elianto","#3366ff99"," "," ","1","+10","[1543.9000000953674]","1","0","1","","","","","","","",""
"pit-trial","30","420166","0.0-2.0-8.2-0.2","battery-v0.2","","""event"",""trial"",""time""
""fullscreenenter"",""1"",""4773""
","
","
","""event"",""trial"",""time""
""fullscreenenter"",""1"",""4773""
","
","","","974.5","","","16","7697","123","&#9776;","elianto","#3366ff99"," "," ","1","+10","[1825.4000000953674]","1","0","1","","","","","","","",""
"pit-trial","31","423517","0.0-2.0-8.2-1.2","battery-v0.2","","""event"",""trial"",""time""
""fullscreenenter"",""1"",""4773""
","
","
","""event"",""trial"",""time""
""fullscreenenter"",""1"",""4773""
","
","","","493","","","16","7697","123","&#9776;","elianto","#3366ff99"," "," ","1","+10","[1343.4000000953674]","1","0","1","","","","","","","",""
"pit-trial","32","427072","0.0-2.0-8.2-2.2","battery-v0.2","","""event"",""trial"",""time""
""fullscreenenter"",""1"",""4773""
","
","
","""event"",""trial"",""time""
""fullscreenenter"",""1"",""4773""
","
","","","695.8000001907349","","","16","7697","123","&#9776;","elianto","#3366ff99"," "," ","1","+10","[1547.3000001907349]","1","0","1","","","","","","","",""
"pit-trial","33","430542","0.0-2.0-8.2-3.2","battery-v0.2","","""event"",""trial"",""time""
""fullscreenenter"",""1"",""4773""
","
","
","""event"",""trial"",""time""
""fullscreenenter"",""1"",""4773""
","
","","","612.5","","","16","7697","123","&#9776;","elianto","#3366ff99"," "," ","1","0","[1463.6999998092651]","1","0","1","","","","","","","",""
"pit-trial","34","433986","0.0-2.0-8.2-4.2","battery-v0.2","","""event"",""trial"",""time""
""fullscreenenter"",""1"",""4773""
","
","
","""event"",""trial"",""time""
""fullscreenenter"",""1"",""4773""
","
","","","586.9000000953674","","","16","7697","123","&#9776;","elianto","#3366ff99"," "," ","1","+10","[1436.9000000953674]","1","0","1","","","","","","","",""
"call-function","35","433993","0.0-2.0-9.0","battery-v0.2","","""event"",""trial"",""time""
""fullscreenenter"",""1"",""4773""
","
","
","""event"",""trial"",""time""
""fullscreenenter"",""1"",""4773""
","
","","","","","","","","","","","","","","","","","","","","","","","","","","",""
"pit-instructions","36","480518","0.0-2.0-10.0","battery-v0.2","","""event"",""trial"",""time""
""fullscreenenter"",""1"",""4773""
","
","
","""event"",""trial"",""time""
""fullscreenenter"",""1"",""4773""
","
","","[{""page_index"":0,""viewing_time"":10594.099999904633},{""page_index"":1,""viewing_time"":7292.300000190735},{""page_index"":2,""viewing_time"":9961.199999809265},{""page_index"":3,""viewing_time"":10191},{""page_index"":4,""viewing_time"":8484.300000190735}]","46523.40000009537","","","","","","","","","","","","","","","","","","","","","","","",""
"pit-trial","37","485380","0.0-2.0-11.0-0.0","battery-v0.2","","""event"",""trial"",""time""
""fullscreenenter"",""1"",""4773""
","
","
","""event"",""trial"",""time""
""fullscreenenter"",""1"",""4773""
","
","","","-1","","","16","7697","123","&#9761;","elianto","#3366ff99","-1","-1","1","+10","[]","0","0","2","","","","","","","",""
"pit-trial","38","490255","0.0-2.0-11.0-1.0","battery-v0.2","","""event"",""trial"",""time""
""fullscreenenter"",""1"",""4773""
","
","
","""event"",""trial"",""time""
""fullscreenenter"",""1"",""4773""
","
","","","-1","","","16","7697","123","&#9761;","elianto","#3366ff99","-1","-1","1","+10","[]","0","0","2","","","","","","","",""
"pit-trial","39","495145","0.0-2.0-11.0-2.0","battery-v0.2","","""event"",""trial"",""time""
""fullscreenenter"",""1"",""4773""
","
","
","""event"",""trial"",""time""
""fullscreenenter"",""1"",""4773""
","
","","","-1","","","16","7697","123","&#9761;","elianto","#3366ff99","-1","-1","1","+10","[]","0","0","2","","","","","","","",""
"pit-trial","40","500025","0.0-2.0-11.0-3.0","battery-v0.2","","""event"",""trial"",""time""
""fullscreenenter"",""1"",""4773""
","
","
","""event"",""trial"",""time""
""fullscreenenter"",""1"",""4773""
","
","","","-1","","","16","7697","123","&#9761;","elianto","#3366ff99","-1","-1","1","0","[]","0","0","2","","","","","","","",""
"pit-trial","41","504890","0.0-2.0-11.0-4.0","battery-v0.2","","""event"",""trial"",""time""
""fullscreenenter"",""1"",""4773""
","
","
","""event"",""trial"",""time""
""fullscreenenter"",""1"",""4773""
","
","","","-1","","","16","7697","123","&#9761;","elianto","#3366ff99","-1","-1","1","+10","[]","0","0","2","","","","","","","",""
"pit-trial","42","509766","0.0-2.0-11.1-0.1","battery-v0.2","","""event"",""trial"",""time""
""fullscreenenter"",""1"",""4773""
","
","
","""event"",""trial"",""time""
""fullscreenenter"",""1"",""4773""
","
","","","-1","","","16","7697","123","&#9761;","elianto","#3366ff99","-1","-1","1","+10","[]","0","0","2","","","","","","","",""
"pit-trial","43","514624","0.0-2.0-11.1-1.1","battery-v0.2","","""event"",""trial"",""time""
""fullscreenenter"",""1"",""4773""
","
","
","""event"",""trial"",""time""
""fullscreenenter"",""1"",""4773""
","
","","","-1","","","16","7697","123","&#9761;","elianto","#3366ff99","-1","-1","1","+10","[]","0","0","2","","","","","","","",""
"pit-trial","44","519482","0.0-2.0-11.1-2.1","battery-v0.2","","""event"",""trial"",""time""
""fullscreenenter"",""1"",""4773""
","
","
","""event"",""trial"",""time""
""fullscreenenter"",""1"",""4773""
","
","","","-1","","","16","7697","123","&#9761;","elianto","#3366ff99","-1","-1","1","+10","[]","0","0","2","","","","","","","",""
"pit-trial","45","524338","0.0-2.0-11.1-3.1","battery-v0.2","","""event"",""trial"",""time""
""fullscreenenter"",""1"",""4773""
","
","
","""event"",""trial"",""time""
""fullscreenenter"",""1"",""4773""
","
","","","-1","","","16","7697","123","&#9761;","elianto","#3366ff99","-1","-1","1","0","[]","0","0","2","","","","","","","",""
"pit-trial","46","529196","0.0-2.0-11.1-4.1","battery-v0.2","","""event"",""trial"",""time""
""fullscreenenter"",""1"",""4773""
","
","
","""event"",""trial"",""time""
""fullscreenenter"",""1"",""4773""
","
","","","-1","","","16","7697","123","&#9761;","elianto","#3366ff99","-1","-1","1","+10","[]","0","0","2","","","","","","","",""
"pit-trial","47","534056","0.0-2.0-11.2-0.2","battery-v0.2","","""event"",""trial"",""time""
""fullscreenenter"",""1"",""4773""
","
","
","""event"",""trial"",""time""
""fullscreenenter"",""1"",""4773""
","
","","","-1","","","16","7697","123","&#9761;","elianto","#3366ff99","-1","-1","1","+10","[]","0","0","2","","","","","","","",""
"pit-trial","48","538912","0.0-2.0-11.2-1.2","battery-v0.2","","""event"",""trial"",""time""
""fullscreenenter"",""1"",""4773""
","
","
","""event"",""trial"",""time""
""fullscreenenter"",""1"",""4773""
","
","","","-1","","","16","7697","123","&#9761;","elianto","#3366ff99","-1","-1","1","+10","[]","0","0","2","","","","","","","",""
"pit-trial","49","543769","0.0-2.0-11.2-2.2","battery-v0.2","","""event"",""trial"",""time""
""fullscreenenter"",""1"",""4773""
","
","
","""event"",""trial"",""time""
""fullscreenenter"",""1"",""4773""
","
","","","-1","","","16","7697","123","&#9761;","elianto","#3366ff99","-1","-1","1","+10","[]","0","0","2","","","","","","","",""
"pit-trial","50","548625","0.0-2.0-11.2-3.2","battery-v0.2","","""event"",""trial"",""time""
""fullscreenenter"",""1"",""4773""
","
","
","""event"",""trial"",""time""
""fullscreenenter"",""1"",""4773""
","
","","","-1","","","16","7697","123","&#9761;","elianto","#3366ff99","-1","-1","1","0","[]","0","0","2","","","","","","","",""
"pit-trial","51","553483","0.0-2.0-11.2-4.2","battery-v0.2","","""event"",""trial"",""time""
""fullscreenenter"",""1"",""4773""
","
","
","""event"",""trial"",""time""
""fullscreenenter"",""1"",""4773""
","
","","","-1","","","16","7697","123","&#9761;","elianto","#3366ff99","-1","-1","1","+10","[]","0","0","2","","","","","","","",""
"pit-trial","52","558344","0.0-2.0-11.3-0.3","battery-v0.2","","""event"",""trial"",""time""
""fullscreenenter"",""1"",""4773""
","
","
","""event"",""trial"",""time""
""fullscreenenter"",""1"",""4773""
","
","","","-1","","","16","7697","123","&#9761;","elianto","#3366ff99","-1","-1","1","+10","[]","0","0","2","","","","","","","",""
"pit-trial","53","563201","0.0-2.0-11.3-1.3","battery-v0.2","","""event"",""trial"",""time""
""fullscreenenter"",""1"",""4773""
","
","
","""event"",""trial"",""time""
""fullscreenenter"",""1"",""4773""
","
","","","-1","","","16","7697","123","&#9761;","elianto","#3366ff99","-1","-1","1","+10","[]","0","0","2","","","","","","","",""
"pit-trial","54","568059","0.0-2.0-11.3-2.3","battery-v0.2","","""event"",""trial"",""time""
""fullscreenenter"",""1"",""4773""
","
","
","""event"",""trial"",""time""
""fullscreenenter"",""1"",""4773""
","
","","","-1","","","16","7697","123","&#9761;","elianto","#3366ff99","-1","-1","1","+10","[]","0","0","2","","","","","","","",""
"pit-trial","55","572918","0.0-2.0-11.3-3.3","battery-v0.2","","""event"",""trial"",""time""
""fullscreenenter"",""1"",""4773""
","
","
","""event"",""trial"",""time""
""fullscreenenter"",""1"",""4773""
","
","","","-1","","","16","7697","123","&#9761;","elianto","#3366ff99","-1","-1","1","0","[]","0","0","2","","","","","","","",""
"pit-trial","56","577776","0.0-2.0-11.3-4.3","battery-v0.2","","""event"",""trial"",""time""
""fullscreenenter"",""1"",""4773""
","
","
","""event"",""trial"",""time""
""fullscreenenter"",""1"",""4773""
","
","","","-1","","","16","7697","123","&#9761;","elianto","#3366ff99","-1","-1","1","+10","[]","0","0","2","","","","","","","",""
"call-function","57","577778","0.0-2.0-12.0","battery-v0.2","","""event"",""trial"",""time""
""fullscreenenter"",""1"",""4773""
","
","
","""event"",""trial"",""time""
""fullscreenenter"",""1"",""4773""
","
","","","","","","","","","","","","","","","","","","","","","","","","","","",""
"pit-instructions","58","617125","0.0-2.0-13.0","battery-v0.2","","""event"",""trial"",""time""
""fullscreenenter"",""1"",""4773""
","
","
","""event"",""trial"",""time""
""fullscreenenter"",""1"",""4773""
","
","","[{""page_index"":0,""viewing_time"":7561.300000190735},{""page_index"":1,""viewing_time"":8316.199999809265},{""page_index"":2,""viewing_time"":5682},{""page_index"":3,""viewing_time"":11374.099999904633},{""page_index"":4,""viewing_time"":6412.300000190735}]","39346.40000009537","","","","","","","","","","","","","","","","","","","","","","","",""
"pit-trial","59","620798","0.0-2.0-14.0-0.0","battery-v0.2","","""event"",""trial"",""time""
""fullscreenenter"",""1"",""4773""
","
","
","""event"",""trial"",""time""
""fullscreenenter"",""1"",""4773""
","
","","","797.4000000953674","","","16","7697","123","&#9826;","elianto","#f73b6a7A","-1"," ","0","-10","[1661.5999999046326]","1","0","3","","","","","","","",""
"pit-trial","60","625679","0.0-2.0-14.0-1.0","battery-v0.2","","""event"",""trial"",""time""
""fullscreenenter"",""1"",""4773""
","
","
","""event"",""trial"",""time""
""fullscreenenter"",""1"",""4773""
","
","","","-1","","","16","7697","123","&#9826;","elianto","#f73b6a7A","-1","-1","1","0","[]","0","0","3","","","","","","","",""
"pit-trial","61","630568","0.0-2.0-14.0-2.0","battery-v0.2","","""event"",""trial"",""time""
""fullscreenenter"",""1"",""4773""
","
","
","""event"",""trial"",""time""
""fullscreenenter"",""1"",""4773""
","
","","","-1","","","16","7697","123","&#9826;","elianto","#f73b6a7A","-1","-1","1","0","[]","0","0","3","","","","","","","",""
"pit-trial","62","635428","0.0-2.0-14.0-3.0","battery-v0.2","","""event"",""trial"",""time""
""fullscreenenter"",""1"",""4773""
","
","
","""event"",""trial"",""time""
""fullscreenenter"",""1"",""4773""
","
","","","-1","","","16","7697","123","&#9826;","elianto","#f73b6a7A","-1","-1","1","-10","[]","0","0","3","","","","","","","",""
"pit-trial","63","640302","0.0-2.0-14.0-4.0","battery-v0.2","","""event"",""trial"",""time""
""fullscreenenter"",""1"",""4773""
","
","
","""event"",""trial"",""time""
""fullscreenenter"",""1"",""4773""
","
","","","-1","","","16","7697","123","&#9826;","elianto","#f73b6a7A","-1","-1","1","0","[]","0","0","3","","","","","","","",""
"pit-trial","64","645172","0.0-2.0-14.1-0.1","battery-v0.2","","""event"",""trial"",""time""
""fullscreenenter"",""1"",""4773""
","
","
","""event"",""trial"",""time""
""fullscreenenter"",""1"",""4773""
","
","","","-1","","","16","7697","123","&#9826;","elianto","#f73b6a7A","-1","-1","1","0","[]","0","0","3","","","","","","","",""
"pit-trial","65","650028","0.0-2.0-14.1-1.1","battery-v0.2","","""event"",""trial"",""time""
""fullscreenenter"",""1"",""4773""
","
","
","""event"",""trial"",""time""
""fullscreenenter"",""1"",""4773""
","
","","","-1","","","16","7697","123","&#9826;","elianto","#f73b6a7A","-1","-1","1","0","[]","0","0","3","","","","","","","",""
"pit-trial","66","654886","0.0-2.0-14.1-2.1","battery-v0.2","","""event"",""trial"",""time""
""fullscreenenter"",""1"",""4773""
","
","
","""event"",""trial"",""time""
""fullscreenenter"",""1"",""4773""
","
","","","-1","","","16","7697","123","&#9826;","elianto","#f73b6a7A","-1","-1","1","0","[]","0","0","3","","","","","","","",""
"pit-trial","67","659743","0.0-2.0-14.1-3.1","battery-v0.2","","""event"",""trial"",""time""
""fullscreenenter"",""1"",""4773""
","
","
","""event"",""trial"",""time""
""fullscreenenter"",""1"",""4773""
","
","","","-1","","","16","7697","123","&#9826;","elianto","#f73b6a7A","-1","-1","1","-10","[]","0","0","3","","","","","","","",""
"pit-trial","68","664601","0.0-2.0-14.1-4.1","battery-v0.2","","""event"",""trial"",""time""
""fullscreenenter"",""1"",""4773""
","
","
","""event"",""trial"",""time""
""fullscreenenter"",""1"",""4773""
","
","","","-1","","","16","7697","123","&#9826;","elianto","#f73b6a7A","-1","-1","1","0","[]","0","0","3","","","","","","","",""
"pit-trial","69","669460","0.0-2.0-14.2-0.2","battery-v0.2","","""event"",""trial"",""time""
""fullscreenenter"",""1"",""4773""
","
","
","""event"",""trial"",""time""
""fullscreenenter"",""1"",""4773""
","
","","","-1","","","16","7697","123","&#9826;","elianto","#f73b6a7A","-1","-1","1","0","[]","0","0","3","","","","","","","",""
"pit-trial","70","674317","0.0-2.0-14.2-1.2","battery-v0.2","","""event"",""trial"",""time""
""fullscreenenter"",""1"",""4773""
","
","
","""event"",""trial"",""time""
""fullscreenenter"",""1"",""4773""
","
","","","-1","","","16","7697","123","&#9826;","elianto","#f73b6a7A","-1","-1","1","0","[]","0","0","3","","","","","","","",""
"pit-trial","71","679174","0.0-2.0-14.2-2.2","battery-v0.2","","""event"",""trial"",""time""
""fullscreenenter"",""1"",""4773""
","
","
","""event"",""trial"",""time""
""fullscreenenter"",""1"",""4773""
","
","","","-1","","","16","7697","123","&#9826;","elianto","#f73b6a7A","-1","-1","1","0","[]","0","0","3","","","","","","","",""
"pit-trial","72","684031","0.0-2.0-14.2-3.2","battery-v0.2","","""event"",""trial"",""time""
""fullscreenenter"",""1"",""4773""
","
","
","""event"",""trial"",""time""
""fullscreenenter"",""1"",""4773""
","
","","","-1","","","16","7697","123","&#9826;","elianto","#f73b6a7A","-1","-1","1","-10","[]","0","0","3","","","","","","","",""
"pit-trial","73","688887","0.0-2.0-14.2-4.2","battery-v0.2","","""event"",""trial"",""time""
""fullscreenenter"",""1"",""4773""
","
","
","""event"",""trial"",""time""
""fullscreenenter"",""1"",""4773""
","
","","","-1","","","16","7697","123","&#9826;","elianto","#f73b6a7A","-1","-1","1","0","[]","0","0","3","","","","","","","",""
"pit-trial","74","693747","0.0-2.0-14.3-0.3","battery-v0.2","","""event"",""trial"",""time""
""fullscreenenter"",""1"",""4773""
","
","
","""event"",""trial"",""time""
""fullscreenenter"",""1"",""4773""
","
","","","-1","","","16","7697","123","&#9826;","elianto","#f73b6a7A","-1","-1","1","0","[]","0","0","3","","","","","","","",""
"pit-trial","75","698606","0.0-2.0-14.3-1.3","battery-v0.2","","""event"",""trial"",""time""
""fullscreenenter"",""1"",""4773""
","
","
","""event"",""trial"",""time""
""fullscreenenter"",""1"",""4773""
","
","","","-1","","","16","7697","123","&#9826;","elianto","#f73b6a7A","-1","-1","1","0","[]","0","0","3","","","","","","","",""
"pit-trial","76","703462","0.0-2.0-14.3-2.3","battery-v0.2","","""event"",""trial"",""time""
""fullscreenenter"",""1"",""4773""
","
","
","""event"",""trial"",""time""
""fullscreenenter"",""1"",""4773""
","
","","","-1","","","16","7697","123","&#9826;","elianto","#f73b6a7A","-1","-1","1","0","[]","0","0","3","","","","","","","",""
"pit-trial","77","708320","0.0-2.0-14.3-3.3","battery-v0.2","","""event"",""trial"",""time""
""fullscreenenter"",""1"",""4773""
","
","
","""event"",""trial"",""time""
""fullscreenenter"",""1"",""4773""
","
","","","-1","","","16","7697","123","&#9826;","elianto","#f73b6a7A","-1","-1","1","-10","[]","0","0","3","","","","","","","",""
"pit-trial","78","713178","0.0-2.0-14.3-4.3","battery-v0.2","","""event"",""trial"",""time""
""fullscreenenter"",""1"",""4773""
","
","
","""event"",""trial"",""time""
""fullscreenenter"",""1"",""4773""
","
","","","-1","","","16","7697","123","&#9826;","elianto","#f73b6a7A","-1","-1","1","0","[]","0","0","3","","","","","","","",""
"call-function","79","713182","0.0-2.0-15.0","battery-v0.2","","""event"",""trial"",""time""
""fullscreenenter"",""1"",""4773""
","
","
","""event"",""trial"",""time""
""fullscreenenter"",""1"",""4773""
","
","","","","","","","","","","","","","","","","","","","","","","","","","","",""
"pit-instructions","80","766553","0.0-2.0-16.0","battery-v0.2","","""event"",""trial"",""time""
""fullscreenenter"",""1"",""4773""
","
","
","""event"",""trial"",""time""
""fullscreenenter"",""1"",""4773""
","
","","[{""page_index"":0,""viewing_time"":8094.099999904633},{""page_index"":1,""viewing_time"":11544.900000095367},{""page_index"":2,""viewing_time"":18827.699999809265},{""page_index"":3,""viewing_time"":14901.60000038147}]","53368.90000009537","","","","","","","","","","","","","","","","","","","","","","","",""
"pit-trial","81","770176","0.0-2.0-17.0-0.0","battery-v0.2","","""event"",""trial"",""time""
""fullscreenenter"",""1"",""4773""
","
","
","""event"",""trial"",""time""
""fullscreenenter"",""1"",""4773""
","
","","","761.3999996185303","","","16","7697","123","&#9789;","elianto","#f73b6a7A"," "," ","1","0","[1612.4000000953674]","1","0","4","","","","","","","",""
"pit-trial","82","773761","0.0-2.0-17.0-1.0","battery-v0.2","","""event"",""trial"",""time""
""fullscreenenter"",""1"",""4773""
","
","
","""event"",""trial"",""time""
""fullscreenenter"",""1"",""4773""
","
","","","708.9000000953674","","","16","7697","123","&#9789;","elianto","#f73b6a7A"," "," ","1","0","[1569.1999998092651]","1","0","4","","","","","","","",""
"pit-trial","83","777270","0.0-2.0-17.0-2.0","battery-v0.2","","""event"",""trial"",""time""
""fullscreenenter"",""1"",""4773""
","
","
","""event"",""trial"",""time""
""fullscreenenter"",""1"",""4773""
","
","","","637.3000001907349","","","16","7697","123","&#9789;","elianto","#f73b6a7A"," "," ","1","0","[1489.8000001907349]","1","0","4","","","","","","","",""
"pit-trial","84","780795","0.0-2.0-17.0-3.0","battery-v0.2","","""event"",""trial"",""time""
""fullscreenenter"",""1"",""4773""
","
","
","""event"",""trial"",""time""
""fullscreenenter"",""1"",""4773""
","
","","","654.4000000953674","","","16","7697","123","&#9789;","elianto","#f73b6a7A"," "," ","1","-10","[1515.5999999046326]","1","0","4","","","","","","","",""
"pit-trial","85","784315","0.0-2.0-17.0-4.0","battery-v0.2","","""event"",""trial"",""time""
""fullscreenenter"",""1"",""4773""
","
","
","""event"",""trial"",""time""
""fullscreenenter"",""1"",""4773""
","
","","","652.6000003814697","","","16","7697","123","&#9789;","elianto","#f73b6a7A"," "," ","1","0","[1512.1000003814697]","1","0","4","","","","","","","",""
"pit-trial","86","787782","0.0-2.0-17.1-0.1","battery-v0.2","","""event"",""trial"",""time""
""fullscreenenter"",""1"",""4773""
","
","
","""event"",""trial"",""time""
""fullscreenenter"",""1"",""4773""
","
","","","598.5999999046326","","","16","7697","123","&#9789;","elianto","#f73b6a7A"," "," ","1","0","[1456.4000000953674]","1","0","4","","","","","","","",""
"pit-trial","87","791406","0.0-2.0-17.1-1.1","battery-v0.2","","""event"",""trial"",""time""
""fullscreenenter"",""1"",""4773""
","
","
","""event"",""trial"",""time""
""fullscreenenter"",""1"",""4773""
","
","","","769.0999999046326","","","16","7697","123","&#9789;","elianto","#f73b6a7A"," "," ","1","0","[1619.2000002861023]","1","0","4","","","","","","","",""
"pit-trial","88","795048","0.0-2.0-17.1-2.1","battery-v0.2","","""event"",""trial"",""time""
""fullscreenenter"",""1"",""4773""
","
","
","""event"",""trial"",""time""
""fullscreenenter"",""1"",""4773""
","
","","","783.9000000953674","","","16","7697","123","&#9789;","elianto","#f73b6a7A"," "," ","1","0","[1635.5]","1","0","4","","","","","","","",""
"pit-trial","89","798823","0.0-2.0-17.1-3.1","battery-v0.2","","""event"",""trial"",""time""
""fullscreenenter"",""1"",""4773""
","
","
","""event"",""trial"",""time""
""fullscreenenter"",""1"",""4773""
","
","","","915.8999996185303","","","16","7697","123","&#9789;","elianto","#f73b6a7A"," "," ","1","-10","[1767.7999997138977]","1","0","4","","","","","","","",""
"pit-trial","90","802212","0.0-2.0-17.1-4.1","battery-v0.2","","""event"",""trial"",""time""
""fullscreenenter"",""1"",""4773""
","
","
","""event"",""trial"",""time""
""fullscreenenter"",""1"",""4773""
","
","","","533.0999999046326","","","16","7697","123","&#9789;","elianto","#f73b6a7A"," "," ","1","0","[1383.1999998092651]","1","0","4","","","","","","","",""
"pit-trial","91","805621","0.0-2.0-17.2-0.2","battery-v0.2","","""event"",""trial"",""time""
""fullscreenenter"",""1"",""4773""
","
","
","""event"",""trial"",""time""
""fullscreenenter"",""1"",""4773""
","
","","","553","","","16","7697","123","&#9789;","elianto","#f73b6a7A"," "," ","1","0","[1405.1000003814697]","1","0","4","","","","","","","",""
"pit-trial","92","809195","0.0-2.0-17.2-1.2","battery-v0.2","","""event"",""trial"",""time""
""fullscreenenter"",""1"",""4773""
","
","
","""event"",""trial"",""time""
""fullscreenenter"",""1"",""4773""
","
","","","718.9000000953674","","","16","7697","123","&#9789;","elianto","#f73b6a7A"," "," ","1","0","[1570.8999996185303]","1","0","4","","","","","","","",""
"pit-trial","93","812944","0.0-2.0-17.2-2.2","battery-v0.2","","""event"",""trial"",""time""
""fullscreenenter"",""1"",""4773""
","
","
","""event"",""trial"",""time""
""fullscreenenter"",""1"",""4773""
","
","","","883.8000001907349","","","16","7697","123","&#9789;","elianto","#f73b6a7A"," "," ","1","0","[1733.9000000953674]","1","0","4","","","","","","","",""
"pit-trial","94","816593","0.0-2.0-17.2-3.2","battery-v0.2","","""event"",""trial"",""time""
""fullscreenenter"",""1"",""4773""
","
","
","""event"",""trial"",""time""
""fullscreenenter"",""1"",""4773""
","
","","","792","","","16","7697","123","&#9789;","elianto","#f73b6a7A"," "," ","1","-10","[1643.0999999046326]","1","0","4","","","","","","","",""
"pit-trial","95","820291","0.0-2.0-17.2-4.2","battery-v0.2","","""event"",""trial"",""time""
""fullscreenenter"",""1"",""4773""
","
","
","""event"",""trial"",""time""
""fullscreenenter"",""1"",""4773""
","
","","","842.4000000953674","","","16","7697","123","&#9789;","elianto","#f73b6a7A"," "," ","1","0","[1692.8000001907349]","1","0","4","","","","","","","",""
"pit-trial","96","823903","0.0-2.0-17.3-0.3","battery-v0.2","","""event"",""trial"",""time""
""fullscreenenter"",""1"",""4773""
","
","
","""event"",""trial"",""time""
""fullscreenenter"",""1"",""4773""
","
","","","753","","","16","7697","123","&#9789;","elianto","#f73b6a7A"," "," ","1","0","[1604.1999998092651]","1","0","4","","","","","","","",""
"pit-trial","97","827725","0.0-2.0-17.3-1.3","battery-v0.2","","""event"",""trial"",""time""
""fullscreenenter"",""1"",""4773""
","
","
","""event"",""trial"",""time""
""fullscreenenter"",""1"",""4773""
","
","","","964.3000001907349","","","16","7697","123","&#9789;","elianto","#f73b6a7A"," "," ","1","0","[1815]","1","0","4","","","","","","","",""
"pit-trial","98","831260","0.0-2.0-17.3-2.3","battery-v0.2","","""event"",""trial"",""time""
""fullscreenenter"",""1"",""4773""
","
","
","""event"",""trial"",""time""
""fullscreenenter"",""1"",""4773""
","
","","","677.8999996185303","","","16","7697","123","&#9789;","elianto","#f73b6a7A"," "," ","1","0","[1528]","1","0","4","","","","","","","",""
"pit-trial","99","835114","0.0-2.0-17.3-3.3","battery-v0.2","","""event"",""trial"",""time""
""fullscreenenter"",""1"",""4773""
","
","
","""event"",""trial"",""time""
""fullscreenenter"",""1"",""4773""
","
","","","996.0999999046326","","","16","7697","123","&#9789;","elianto","#f73b6a7A"," "," ","1","-10","[1847.3000001907349]","1","0","4","","","","","","","",""
"pit-trial","100","838583","0.0-2.0-17.3-4.3","battery-v0.2","","""event"",""trial"",""time""
""fullscreenenter"",""1"",""4773""
","
","
","""event"",""trial"",""time""
""fullscreenenter"",""1"",""4773""
","
","","","609.5999999046326","","","16","7697","123","&#9789;","elianto","#f73b6a7A"," "," ","1","0","[1461]","1","0","4","","","","","","","",""
"call-function","101","838587","0.0-2.0-18.0","battery-v0.2","","""event"",""trial"",""time""
""fullscreenenter"",""1"",""4773""
","
","
","""event"",""trial"",""time""
""fullscreenenter"",""1"",""4773""
","
","","","","","","","","","","","","","","","","","","","","","","","","","","",""
"pit-instructions","102","919478","0.0-2.0-19.0","battery-v0.2","","""event"",""trial"",""time""
""fullscreenenter"",""1"",""4773""
","
","
","""event"",""trial"",""time""
""fullscreenenter"",""1"",""4773""
","
","","[{""page_index"":0,""viewing_time"":7796.300000190735},{""page_index"":1,""viewing_time"":6556.299999713898},{""page_index"":2,""viewing_time"":14830.400000095367},{""page_index"":3,""viewing_time"":10246.400000095367},{""page_index"":4,""viewing_time"":9813.400000095367},{""page_index"":5,""viewing_time"":9151.599999904633},{""page_index"":6,""viewing_time"":9766.599999904633},{""page_index"":7,""viewing_time"":7218.599999904633},{""page_index"":8,""viewing_time"":5508.700000286102}]","80888.90000009537","","","","","","","","","","","","","","","","","","","","","","","",""
"pit-comprehension","103","926704","0.0-2.0-20.0-0.0","battery-v0.2","","""event"",""trial"",""time""
""fullscreenenter"",""1"",""4773""
","
","
","""event"",""trial"",""time""
""fullscreenenter"",""1"",""4773""
","
","","","7218","[""SPACE""]","0","16","7697","123","","","","","","","","","","","","","","","","","","",""
"pit-instructions","104","930697","0.0-2.0-20.0-1.0","battery-v0.2","","""event"",""trial"",""time""
""fullscreenenter"",""1"",""4773""
","
","
","""event"",""trial"",""time""
""fullscreenenter"",""1"",""4773""
","
","","[{""page_index"":0,""viewing_time"":3837.9000000953674}]","3838.9000000953674","","","","","","","","","","","","","","","","","","","","","","","",""
"pit-comprehension","105","939519","0.0-2.0-21.0-0.0","battery-v0.2","","""event"",""trial"",""time""
""fullscreenenter"",""1"",""4773""
","
","
","""event"",""trial"",""time""
""fullscreenenter"",""1"",""4773""
","
","","","8810.799999713898","[""10""]","0","16","7697","123","","","","","","","","","","","","","","","","","","",""
"pit-instructions","106","945158","0.0-2.0-21.0-1.0","battery-v0.2","","""event"",""trial"",""time""
""fullscreenenter"",""1"",""4773""
","
","
","""event"",""trial"",""time""
""fullscreenenter"",""1"",""4773""
","
","","[{""page_index"":0,""viewing_time"":5504.700000286102}]","5505.400000095367","","","","","","","","","","","","","","","","","","","","","","","",""
"pit-comprehension","107","955915","0.0-2.0-22.0-0.0","battery-v0.2","","""event"",""trial"",""time""
""fullscreenenter"",""1"",""4773""
","
","
","""event"",""trial"",""time""
""fullscreenenter"",""1"",""4773""
","
","","","10745.099999904633","[""0""]","0","16","7697","123","","","","","","","","","","","","","","","","","","",""
"pit-instructions","108","959105","0.0-2.0-22.0-1.0","battery-v0.2","","""event"",""trial"",""time""
""fullscreenenter"",""1"",""4773""
","
","
","""event"",""trial"",""time""
""fullscreenenter"",""1"",""4773""
","
","","[{""page_index"":0,""viewing_time"":3083.2999997138977}]","3083.699999809265","","","","","","","","","","","","","","","","","","","","","","","",""
"pit-comprehension","109","971418","0.0-2.0-23.0-0.0","battery-v0.2","","""event"",""trial"",""time""
""fullscreenenter"",""1"",""4773""
","
","
","""event"",""trial"",""time""
""fullscreenenter"",""1"",""4773""
","
","","","12306.900000095367","[""True""]","0","16","7697","123","","","","","","","","","","","","","","","","","","",""
"pit-instructions","110","974528","0.0-2.0-23.0-1.0","battery-v0.2","","""event"",""trial"",""time""
""fullscreenenter"",""1"",""4773""
","
","
","""event"",""trial"",""time""
""fullscreenenter"",""1"",""4773""
","
","","[{""page_index"":0,""viewing_time"":2998}]","2998.4000000953674","","","","","","","","","","","","","","","","","","","","","","","",""
"pit-comprehension","111","985365","0.0-2.0-24.0-0.0","battery-v0.2","","""event"",""trial"",""time""
""fullscreenenter"",""1"",""4773""
","
","
","""event"",""trial"",""time""
""fullscreenenter"",""1"",""4773""
","
","","","10830.39999961853","[""True""]","0","16","7697","123","","","","","","","","","","","","","","","","","","",""
"pit-instructions","112","989008","0.0-2.0-24.0-1.0","battery-v0.2","","""event"",""trial"",""time""
""fullscreenenter"",""1"",""4773""
","
","
","""event"",""trial"",""time""
""fullscreenenter"",""1"",""4773""
","
","","[{""page_index"":0,""viewing_time"":3530.7999997138977}]","3531.7999997138977","","","","","","","","","","","","","","","","","","","","","","","",""
"pit-comprehension","113","999382","0.0-2.0-25.0-0.0","battery-v0.2","","""event"",""trial"",""time""
""fullscreenenter"",""1"",""4773""
","
","
","""event"",""trial"",""time""
""fullscreenenter"",""1"",""4773""
","
","","","10367","[""True""]","0","16","7697","123","","","","","","","","","","","","","","","","","","",""
"pit-instructions","114","1002080","0.0-2.0-25.0-1.0","battery-v0.2","","""event"",""trial"",""time""
""fullscreenenter"",""1"",""4773""
","
","
","""event"",""trial"",""time""
""fullscreenenter"",""1"",""4773""
","
","","[{""page_index"":0,""viewing_time"":2584.4000000953674}]","2584.9000000953674","","","","","","","","","","","","","","","","","","","","","","","",""
"pit-comprehension","115","1010549","0.0-2.0-26.0-0.0","battery-v0.2","","""event"",""trial"",""time""
""fullscreenenter"",""1"",""4773""
","
","
","""event"",""trial"",""time""
""fullscreenenter"",""1"",""4773""
","
","","","8457","[""False""]","0","16","7697","123","","","","","","","","","","","","","","","","","","",""
"pit-instructions","116","1013338","0.0-2.0-26.0-1.0","battery-v0.2","","""event"",""trial"",""time""
""fullscreenenter"",""1"",""4773""
","
","
","""event"",""trial"",""time""
""fullscreenenter"",""1"",""4773""
","
","","[{""page_index"":0,""viewing_time"":2670}]","2670.5","","","","","","","","","","","","","","","","","","","","","","","",""
"pit-instructions","117","1032837","0.0-3.0","battery-v0.2","","""event"",""trial"",""time""
""fullscreenenter"",""1"",""4773""
","
","
","""event"",""trial"",""time""
""fullscreenenter"",""1"",""4773""
","
","","[{""page_index"":0,""viewing_time"":4811.900000095367},{""page_index"":1,""viewing_time"":5437.900000095367},{""page_index"":2,""viewing_time"":9244.699999809265}]","19495.10000038147","","","","","","","","","","","","","","","","","","","","","","","",""
"pit-trial","118","1036727","0.0-4.0","battery-v0.2","","""event"",""trial"",""time""
""fullscreenenter"",""1"",""4773""
","
","
","""event"",""trial"",""time""
""fullscreenenter"",""1"",""4773""
","
","","","1015.5","","","16","7697","123","&#9733;","elianto","#3366ff99","-1"," ","0","0","[1866.4000000953674]","1","1","","","7697","1","2","2","win","no-go","0"
"pit-trial","119","1040916","0.0-5.0","battery-v0.2","","""event"",""trial"",""time""
""fullscreenenter"",""1"",""4773""
","
","
","""event"",""trial"",""time""
""fullscreenenter"",""1"",""4773""
","
","","","1317.1999998092651","","","16","7697","123","&#9730;","elianto","#3366ff99"," "," ","1","+10","[2172.9000000953674]","1","1","","","7697","2","1","1","win","go","0"
"pit-trial","120","1045106","0.0-6.0","battery-v0.2","","""event"",""trial"",""time""
""fullscreenenter"",""1"",""4773""
","
","
","""event"",""trial"",""time""
""fullscreenenter"",""1"",""4773""
","
","","","1305.9000000953674","","","16","7697","123","&#9728;","elianto","#f73b6a7A","-1"," ","0","-10","[2171.4000000953674]","1","1","","","7697","3","0","4","lose","no-go","0"
"pit-trial","121","1049055","0.0-7.0","battery-v0.2","","""event"",""trial"",""time""
""fullscreenenter"",""1"",""4773""
","
","
","""event"",""trial"",""time""
""fullscreenenter"",""1"",""4773""
","
","","","1080.5999999046326","","","16","7697","123","&#9752;","elianto","#f73b6a7A"," "," ","1","0","[1939.9000000953674]","1","1","","","7697","4","3","3","lose","go","0"
"pit-trial","122","1053251","0.0-8.0","battery-v0.2","","""event"",""trial"",""time""
""fullscreenenter"",""1"",""4773""
","
","
","""event"",""trial"",""time""
""fullscreenenter"",""1"",""4773""
","
","","","1308.3999996185303","","","16","7697","123","&#9752;","elianto","#f73b6a7A"," "," ","1","0","[2172.5999999046326]","1","1","","","7697","5","3","3","lose","go","0"
"pit-trial","123","1058146","0.0-9.0","battery-v0.2","","""event"",""trial"",""time""
""fullscreenenter"",""1"",""4773""
","
","
","""event"",""trial"",""time""
""fullscreenenter"",""1"",""4773""
","
","","","-1","","","16","7697","123","&#9728;","elianto","#f73b6a7A","-1","-1","1","0","[]","0","1","","","7697","6","0","4","lose","no-go","0"
"pit-trial","124","1062258","0.0-10.0","battery-v0.2","","""event"",""trial"",""time""
""fullscreenenter"",""1"",""4773""
","
","
","""event"",""trial"",""time""
""fullscreenenter"",""1"",""4773""
","
","","","1245.7999997138977","","","16","7697","123","&#9730;","elianto","#3366ff99"," "," ","1","+10","[2105]","1","1","","","7697","7","1","1","win","go","0"
"pit-trial","125","1067116","0.0-11.0","battery-v0.2","","""event"",""trial"",""time""
""fullscreenenter"",""1"",""4773""
","
","
","""event"",""trial"",""time""
""fullscreenenter"",""1"",""4773""
","
","","","-1","","","16","7697","123","&#9733;","elianto","#3366ff99","-1","-1","1","0","[]","0","1","","","7697","8","2","2","win","no-go","1"
"pit-trial","126","1071973","0.0-12.0","battery-v0.2","","""event"",""trial"",""time""
""fullscreenenter"",""1"",""4773""
","
","
","""event"",""trial"",""time""
""fullscreenenter"",""1"",""4773""
","
","","","-1","","","16","7697","123","&#9728;","elianto","#f73b6a7A","-1","-1","1","0","[]","0","1","","","7697","9","0","4","lose","no-go","0"
"pit-trial","127","1075950","0.0-13.0","battery-v0.2","","""event"",""trial"",""time""
""fullscreenenter"",""1"",""4773""
","
","
","""event"",""trial"",""time""
""fullscreenenter"",""1"",""4773""
","
","","","1118.5","","","16","7697","123","&#9752;","elianto","#f73b6a7A"," "," ","1","0","[1968.9000000953674]","1","1","","","7697","10","3","3","lose","go","0"
"pit-trial","128","1079946","0.0-14.0","battery-v0.2","","""event"",""trial"",""time""
""fullscreenenter"",""1"",""4773""
","
","
","""event"",""trial"",""time""
""fullscreenenter"",""1"",""4773""
","
","","","1138.3000001907349","","","16","7697","123","&#9733;","elianto","#3366ff99","-1"," ","0","0","[1989.1999998092651]","1","1","","","7697","11","2","2","win","no-go","0"
"pit-trial","129","1084083","0.0-15.0","battery-v0.2","","""event"",""trial"",""time""
""fullscreenenter"",""1"",""4773""
","
","
","""event"",""trial"",""time""
""fullscreenenter"",""1"",""4773""
","
","","","1278.6999998092651","","","16","7697","123","&#9730;","elianto","#3366ff99"," "," ","1","+10","[2129.5999999046326]","1","1","","","7697","12","1","1","win","go","0"
"pit-trial","130","1088273","0.0-16.0","battery-v0.2","","""event"",""trial"",""time""
""fullscreenenter"",""1"",""4773""
","
","
","""event"",""trial"",""time""
""fullscreenenter"",""1"",""4773""
","
","","","1332.3000001907349","","","16","7697","123","&#9730;","elianto","#3366ff99"," "," ","1","+10","[2182.5]","1","1","","","7697","13","1","1","win","go","0"
"pit-trial","131","1093130","0.0-17.0","battery-v0.2","","""event"",""trial"",""time""
""fullscreenenter"",""1"",""4773""
","
","
","""event"",""trial"",""time""
""fullscreenenter"",""1"",""4773""
","
","","","-1","","","16","7697","123","&#9728;","elianto","#f73b6a7A","-1","-1","1","0","[]","0","1","","","7697","14","0","4","lose","no-go","0"
"pit-trial","132","1096721","0.0-18.0","battery-v0.2","","""event"",""trial"",""time""
""fullscreenenter"",""1"",""4773""
","
","
","""event"",""trial"",""time""
""fullscreenenter"",""1"",""4773""
","
","","","730.4000000953674","","","16","7697","123","&#9752;","elianto","#f73b6a7A"," "," ","1","0","[1582.3999996185303]","1","1","","","7697","15","3","3","lose","go","0"
"pit-trial","133","1101578","0.0-19.0","battery-v0.2","","""event"",""trial"",""time""
""fullscreenenter"",""1"",""4773""
","
","
","""event"",""trial"",""time""
""fullscreenenter"",""1"",""4773""
","
","","","-1","","","16","7697","123","&#9733;","elianto","#3366ff99","-1","-1","1","+10","[]","0","1","","","7697","16","2","2","win","no-go","0"
"pit-trial","134","1105722","0.0-20.0","battery-v0.2","","""event"",""trial"",""time""
""fullscreenenter"",""1"",""4773""
","
","
","""event"",""trial"",""time""
""fullscreenenter"",""1"",""4773""
","
","","","1285.5999999046326","","","16","7697","123","&#9752;","elianto","#f73b6a7A"," "," ","1","0","[2136.300000190735]","1","1","","","7697","17","3","3","lose","go","0"
"pit-trial","135","1110578","0.0-21.0","battery-v0.2","","""event"",""trial"",""time""
""fullscreenenter"",""1"",""4773""
","
","
","""event"",""trial"",""time""
""fullscreenenter"",""1"",""4773""
","
","","","-1","","","16","7697","123","&#9733;","elianto","#3366ff99","-1","-1","1","+10","[]","0","1","","","7697","18","2","2","win","no-go","0"
"pit-trial","136","1114516","0.0-22.0","battery-v0.2","","""event"",""trial"",""time""
""fullscreenenter"",""1"",""4773""
","
","
","""event"",""trial"",""time""
""fullscreenenter"",""1"",""4773""
","
","","","1078.4000000953674","","","16","7697","123","&#9730;","elianto","#3366ff99"," "," ","1","+10","[1929.9000000953674]","1","1","","","7697","19","1","1","win","go","0"
"pit-trial","137","1119374","0.0-23.0","battery-v0.2","","""event"",""trial"",""time""
""fullscreenenter"",""1"",""4773""
","
","
","""event"",""trial"",""time""
""fullscreenenter"",""1"",""4773""
","
","","","-1","","","16","7697","123","&#9728;","elianto","#f73b6a7A","-1","-1","1","0","[]","0","1","","","7697","20","0","4","lose","no-go","0"
"pit-instructions","138","1138004","0.0-24.0","battery-v0.2","","""event"",""trial"",""time""
""fullscreenenter"",""1"",""4773""
","
","
","""event"",""trial"",""time""
""fullscreenenter"",""1"",""4773""
","
","","[{""page_index"":0,""viewing_time"":8838.200000286102},{""page_index"":1,""viewing_time"":9788}]","18626.800000190735","","","","","","","","","","","","","","","","","","","","","","","",""
"pit-trial","139","1141897","0.0-25.0","battery-v0.2","","""event"",""trial"",""time""
""fullscreenenter"",""1"",""4773""
","
","
","""event"",""trial"",""time""
""fullscreenenter"",""1"",""4773""
","
","","","1017","","","16","7697","123","d","elianto","#3366ff99","-1"," ","0","0","[1867.8000001907349]","1","2","","","7697","21","1","2","win","no-go","0"
"pit-trial","140","1145995","0.0-26.0","battery-v0.2","","""event"",""trial"",""time""
""fullscreenenter"",""1"",""4773""
","
","
","""event"",""trial"",""time""
""fullscreenenter"",""1"",""4773""
","
","","","1232.7999997138977","","","16","7697","123","e","elianto","#f73b6a7A"," "," ","1","0","[2083.0999999046326]","1","2","","","7697","22","2","3","lose","go","0"
"pit-trial","141","1150871","0.0-27.0","battery-v0.2","","""event"",""trial"",""time""
""fullscreenenter"",""1"",""4773""
","
","
","""event"",""trial"",""time""
""fullscreenenter"",""1"",""4773""
","
","","","-1","","","16","7697","123","j","elianto","#f73b6a7A"," ","-1","0","-10","[]","0","2","","","7697","23","0","3","lose","go","0"
"pit-trial","142","1155142","0.0-28.0","battery-v0.2","","""event"",""trial"",""time""
""fullscreenenter"",""1"",""4773""
","
","
","""event"",""trial"",""time""
""fullscreenenter"",""1"",""4773""
","
","","","1390.3000001907349","","","16","7697","123","w","elianto","#f73b6a7A","-1"," ","0","-10","[2248.4000000953674]","1","2","","","7697","24","3","4","lose","no-go","0"
"pit-trial","143","1159367","0.0-29.0","battery-v0.2","","""event"",""trial"",""time""
""fullscreenenter"",""1"",""4773""
","
","
","""event"",""trial"",""time""
""fullscreenenter"",""1"",""4773""
","
","","","1351.0999999046326","","","16","7697","123","e","elianto","#f73b6a7A"," "," ","1","0","[2205.800000190735]","1","2","","","7697","25","2","3","lose","go","0"
"pit-trial","144","1164230","0.0-30.0","battery-v0.2","","""event"",""trial"",""time""
""fullscreenenter"",""1"",""4773""
","
","
","""event"",""trial"",""time""
""fullscreenenter"",""1"",""4773""
","
","","","-1","","","16","7697","123","d","elianto","#3366ff99","-1","-1","1","+10","[]","0","2","","","7697","26","1","2","win","no-go","0"
"pit-trial","145","1169087","0.0-31.0","battery-v0.2","","""event"",""trial"",""time""
""fullscreenenter"",""1"",""4773""
","
","
","""event"",""trial"",""time""
""fullscreenenter"",""1"",""4773""
","
","","","-1","","","16","7697","123","w","elianto","#f73b6a7A","-1","-1","1","0","[]","0","2","","","7697","27","3","4","lose","no-go","0"
"pit-trial","146","1172726","0.0-32.0","battery-v0.2","","""event"",""trial"",""time""
""fullscreenenter"",""1"",""4773""
","
","
","""event"",""trial"",""time""
""fullscreenenter"",""1"",""4773""
","
","","","781.6999998092651","","","16","7697","123","j","elianto","#f73b6a7A"," "," ","1","0","[1632.1999998092651]","1","2","","","7697","28","0","3","lose","go","0"
"pit-trial","147","1177583","0.0-33.0","battery-v0.2","","""event"",""trial"",""time""
""fullscreenenter"",""1"",""4773""
","
","
","""event"",""trial"",""time""
""fullscreenenter"",""1"",""4773""
","
","","","-1","","","16","7697","123","w","elianto","#f73b6a7A","-1","-1","1","0","[]","0","2","","","7697","29","3","4","lose","no-go","0"
"pit-trial","148","1182441","0.0-34.0","battery-v0.2","","""event"",""trial"",""time""
""fullscreenenter"",""1"",""4773""
","
","
","""event"",""trial"",""time""
""fullscreenenter"",""1"",""4773""
","
","","","-1","","","16","7697","123","d","elianto","#3366ff99","-1","-1","1","+10","[]","0","2","","","7697","30","1","2","win","no-go","0"
"pit-trial","149","1186003","0.0-35.0","battery-v0.2","","""event"",""trial"",""time""
""fullscreenenter"",""1"",""4773""
","
","
","""event"",""trial"",""time""
""fullscreenenter"",""1"",""4773""
","
","","","703.5999999046326","","","16","7697","123","j","elianto","#f73b6a7A"," "," ","1","0","[1554.2000002861023]","1","2","","","7697","31","0","3","lose","go","0"
"pit-trial","150","1190248","0.0-36.0","battery-v0.2","","""event"",""trial"",""time""
""fullscreenenter"",""1"",""4773""
","
","
","""event"",""trial"",""time""
""fullscreenenter"",""1"",""4773""
","
","","","1385.8000001907349","","","16","7697","123","e","elianto","#f73b6a7A"," "," ","1","-10","[2237.4000000953674]","1","2","","","7697","32","2","3","lose","go","1"
"pit-trial","151","1195106","0.0-37.0","battery-v0.2","","""event"",""trial"",""time""
""fullscreenenter"",""1"",""4773""
","
","
","""event"",""trial"",""time""
""fullscreenenter"",""1"",""4773""
","
","","","-1","","","16","7697","123","d","elianto","#3366ff99","-1","-1","1","+10","[]","0","2","","","7697","33","1","2","win","no-go","0"
"pit-trial","152","1198985","0.0-38.0","battery-v0.2","","""event"",""trial"",""time""
""fullscreenenter"",""1"",""4773""
","
","
","""event"",""trial"",""time""
""fullscreenenter"",""1"",""4773""
","
","","","1018.5999999046326","","","16","7697","123","j","elianto","#f73b6a7A"," "," ","1","0","[1872.6999998092651]","1","2","","","7697","34","0","3","lose","go","0"
"pit-trial","153","1203843","0.0-39.0","battery-v0.2","","""event"",""trial"",""time""
""fullscreenenter"",""1"",""4773""
","
","
","""event"",""trial"",""time""
""fullscreenenter"",""1"",""4773""
","
","","","-1","","","16","7697","123","w","elianto","#f73b6a7A","-1","-1","1","-10","[]","0","2","","","7697","35","3","4","lose","no-go","1"
"pit-trial","154","1207528","0.0-40.0","battery-v0.2","","""event"",""trial"",""time""
""fullscreenenter"",""1"",""4773""
","
","
","""event"",""trial"",""time""
""fullscreenenter"",""1"",""4773""
","
","","","822.8999996185303","","","16","7697","123","e","elianto","#f73b6a7A"," "," ","1","-10","[1676]","1","2","","","7697","36","2","3","lose","go","1"
"pit-trial","155","1212385","0.0-41.0","battery-v0.2","","""event"",""trial"",""time""
""fullscreenenter"",""1"",""4773""
","
","
","""event"",""trial"",""time""
""fullscreenenter"",""1"",""4773""
","
","","","-1","","","16","7697","123","d","elianto","#3366ff99","-1","-1","1","0","[]","0","2","","","7697","37","1","2","win","no-go","1"
"pit-trial","156","1217241","0.0-42.0","battery-v0.2","","""event"",""trial"",""time""
""fullscreenenter"",""1"",""4773""
","
","
","""event"",""trial"",""time""
""fullscreenenter"",""1"",""4773""
","
","","","-1","","","16","7697","123","w","elianto","#f73b6a7A","-1","-1","1","0","[]","0","2","","","7697","38","3","4","lose","no-go","0"
"pit-trial","157","1220978","0.0-43.0","battery-v0.2","","""event"",""trial"",""time""
""fullscreenenter"",""1"",""4773""
","
","
","""event"",""trial"",""time""
""fullscreenenter"",""1"",""4773""
","
","","","877.0999999046326","","","16","7697","123","j","elianto","#f73b6a7A"," "," ","1","0","[1728.2000002861023]","1","2","","","7697","39","0","3","lose","go","0"
"pit-trial","158","1224610","0.0-44.0","battery-v0.2","","""event"",""trial"",""time""
""fullscreenenter"",""1"",""4773""
","
","
","""event"",""trial"",""time""
""fullscreenenter"",""1"",""4773""
","
","","","774.9000000953674","","","16","7697","123","e","elianto","#f73b6a7A"," "," ","1","0","[1625.1000003814697]","1","2","","","7697","40","2","3","lose","go","0"
"pit-trial","159","1229475","0.0-45.0","battery-v0.2","","""event"",""trial"",""time""
""fullscreenenter"",""1"",""4773""
","
","
","""event"",""trial"",""time""
""fullscreenenter"",""1"",""4773""
","
","","","-1","","","16","7697","123","w","elianto","#f73b6a7A","-1","-1","1","0","[]","0","2","","","7697","41","3","4","lose","no-go","0"
"pit-trial","160","1233525","0.0-46.0","battery-v0.2","","""event"",""trial"",""time""
""fullscreenenter"",""1"",""4773""
","
","
","""event"",""trial"",""time""
""fullscreenenter"",""1"",""4773""
","
","","","1188.9000000953674","","","16","7697","123","j","elianto","#f73b6a7A"," "," ","1","0","[2041.9000000953674]","1","2","","","7697","42","0","3","lose","go","0"
"pit-trial","161","1237488","0.0-47.0","battery-v0.2","","""event"",""trial"",""time""
""fullscreenenter"",""1"",""4773""
","
","
","""event"",""trial"",""time""
""fullscreenenter"",""1"",""4773""
","
","","","1105.5999999046326","","","16","7697","123","e","elianto","#f73b6a7A"," "," ","1","-10","[1956.3000001907349]","1","2","","","7697","43","2","3","lose","go","1"
"pit-trial","162","1242347","0.0-48.0","battery-v0.2","","""event"",""trial"",""time""
""fullscreenenter"",""1"",""4773""
","
","
","""event"",""trial"",""time""
""fullscreenenter"",""1"",""4773""
","
","","","-1","","","16","7697","123","d","elianto","#3366ff99","-1","-1","1","+10","[]","0","2","","","7697","44","1","2","win","no-go","0"
"pit-trial","163","1246931","0.0-49.0","battery-v0.2","","""event"",""trial"",""time""
""fullscreenenter"",""1"",""4773""
","
","
","""event"",""trial"",""time""
""fullscreenenter"",""1"",""4773""
","
","","","1726","","","16","7697","123","j","elianto","#f73b6a7A"," "," ","1","0","[2576.800000190735]","1","2","","","7697","45","0","3","lose","go","0"
"pit-trial","164","1251084","0.0-50.0","battery-v0.2","","""event"",""trial"",""time""
""fullscreenenter"",""1"",""4773""
","
","
","""event"",""trial"",""time""
""fullscreenenter"",""1"",""4773""
","
","","","1296.9000000953674","","","16","7697","123","e","elianto","#f73b6a7A"," "," ","1","0","[2147.2000002861023]","1","2","","","7697","46","2","3","lose","go","0"
"pit-trial","165","1255940","0.0-51.0","battery-v0.2","","""event"",""trial"",""time""
""fullscreenenter"",""1"",""4773""
","
","
","""event"",""trial"",""time""
""fullscreenenter"",""1"",""4773""
","
","","","-1","","","16","7697","123","d","elianto","#3366ff99","-1","-1","1","0","[]","0","2","","","7697","47","1","2","win","no-go","1"
"pit-trial","166","1260800","0.0-52.0","battery-v0.2","","""event"",""trial"",""time""
""fullscreenenter"",""1"",""4773""
","
","
","""event"",""trial"",""time""
""fullscreenenter"",""1"",""4773""
","
","","","-1","","","16","7697","123","w","elianto","#f73b6a7A","-1","-1","1","0","[]","0","2","","","7697","48","3","4","lose","no-go","0"
"pit-trial","167","1264568","0.0-53.0","battery-v0.2","","""event"",""trial"",""time""
""fullscreenenter"",""1"",""4773""
","
","
","""event"",""trial"",""time""
""fullscreenenter"",""1"",""4773""
","
","","","909.3999996185303","","","16","7697","123","j","elianto","#f73b6a7A"," "," ","1","0","[1761.0999999046326]","1","2","","","7697","49","0","3","lose","go","0"
"pit-trial","168","1268644","0.0-54.0","battery-v0.2","","""event"",""trial"",""time""
""fullscreenenter"",""1"",""4773""
","
","
","""event"",""trial"",""time""
""fullscreenenter"",""1"",""4773""
","
","","","1218.5999999046326","","","16","7697","123","e","elianto","#f73b6a7A"," "," ","1","-10","[2069.699999809265]","1","2","","","7697","50","2","3","lose","go","1"
"pit-trial","169","1273501","0.0-55.0","battery-v0.2","","""event"",""trial"",""time""
""fullscreenenter"",""1"",""4773""
","
","
","""event"",""trial"",""time""
""fullscreenenter"",""1"",""4773""
","
","","","-1","","","16","7697","123","w","elianto","#f73b6a7A","-1","-1","1","0","[]","0","2","","","7697","51","3","4","lose","no-go","0"
"pit-trial","170","1278358","0.0-56.0","battery-v0.2","","""event"",""trial"",""time""
""fullscreenenter"",""1"",""4773""
","
","
","""event"",""trial"",""time""
""fullscreenenter"",""1"",""4773""
","
","","","-1","","","16","7697","123","d","elianto","#3366ff99","-1","-1","1","+10","[]","0","2","","","7697","52","1","2","win","no-go","0"
"pit-trial","171","1282081","0.0-57.0","battery-v0.2","","""event"",""trial"",""time""
""fullscreenenter"",""1"",""4773""
","
","
","""event"",""trial"",""time""
""fullscreenenter"",""1"",""4773""
","
","","","867.0999999046326","","","16","7697","123","j","elianto","#f73b6a7A"," "," ","1","0","[1717]","1","2","","","7697","53","0","3","lose","go","0"
"pit-trial","172","1286939","0.0-58.0","battery-v0.2","","""event"",""trial"",""time""
""fullscreenenter"",""1"",""4773""
","
","
","""event"",""trial"",""time""
""fullscreenenter"",""1"",""4773""
","
","","","-1","","","16","7697","123","w","elianto","#f73b6a7A","-1","-1","1","0","[]","0","2","","","7697","54","3","4","lose","no-go","0"
"pit-trial","173","1290696","0.0-59.0","battery-v0.2","","""event"",""trial"",""time""
""fullscreenenter"",""1"",""4773""
","
","
","""event"",""trial"",""time""
""fullscreenenter"",""1"",""4773""
","
","","","899.6999998092651","","","16","7697","123","e","elianto","#f73b6a7A"," "," ","1","0","[1750.2000002861023]","1","2","","","7697","55","2","3","lose","go","0"
"pit-trial","174","1295553","0.0-60.0","battery-v0.2","","""event"",""trial"",""time""
""fullscreenenter"",""1"",""4773""
","
","
","""event"",""trial"",""time""
""fullscreenenter"",""1"",""4773""
","
","","","-1","","","16","7697","123","d","elianto","#3366ff99","-1","-1","1","+10","[]","0","2","","","7697","56","1","2","win","no-go","0"
"pit-trial","175","1299392","0.0-61.0","battery-v0.2","","""event"",""trial"",""time""
""fullscreenenter"",""1"",""4773""
","
","
","""event"",""trial"",""time""
""fullscreenenter"",""1"",""4773""
","
","","","978.2000002861023","","","16","7697","123","j","elianto","#f73b6a7A"," "," ","1","0","[1831.0999999046326]","1","2","","","7697","57","0","3","lose","go","0"
"pit-trial","176","1304183","0.0-62.0","battery-v0.2","","""event"",""trial"",""time""
""fullscreenenter"",""1"",""4773""
","
","
","""event"",""trial"",""time""
""fullscreenenter"",""1"",""4773""
","
","","","1932.5999999046326","","","16","7697","123","s","elianto","#3366ff99"," "," ","1","+10","[2783.800000190735]","1","2","","","7697","58","4","1","win","go","0"
"pit-trial","177","1308329","0.0-63.0","battery-v0.2","","""event"",""trial"",""time""
""fullscreenenter"",""1"",""4773""
","
","
","""event"",""trial"",""time""
""fullscreenenter"",""1"",""4773""
","
","","","1287.3000001907349","","","16","7697","123","e","elianto","#f73b6a7A"," "," ","1","0","[2139]","1","2","","","7697","59","2","3","lose","go","0"
"pit-trial","178","1313185","0.0-64.0","battery-v0.2","","""event"",""trial"",""time""
""fullscreenenter"",""1"",""4773""
","
","
","""event"",""trial"",""time""
""fullscreenenter"",""1"",""4773""
","
","","","-1","","","16","7697","123","w","elianto","#f73b6a7A","-1","-1","1","0","[]","0","2","","","7697","60","3","4","lose","no-go","0"
"pit-trial","179","1318041","0.0-65.0","battery-v0.2","","""event"",""trial"",""time""
""fullscreenenter"",""1"",""4773""
","
","
","""event"",""trial"",""time""
""fullscreenenter"",""1"",""4773""
","
","","","-1","","","16","7697","123","w","elianto","#f73b6a7A","-1","-1","1","0","[]","0","2","","","7697","61","3","4","lose","no-go","0"
"pit-trial","180","1321771","0.0-66.0","battery-v0.2","","""event"",""trial"",""time""
""fullscreenenter"",""1"",""4773""
","
","
","""event"",""trial"",""time""
""fullscreenenter"",""1"",""4773""
","
","","","867.2999997138977","","","16","7697","123","s","elianto","#3366ff99"," "," ","1","+10","[1723.5]","1","2","","","7697","62","4","1","win","go","0"
"pit-trial","181","1326413","0.0-67.0","battery-v0.2","","""event"",""trial"",""time""
""fullscreenenter"",""1"",""4773""
","
","
","""event"",""trial"",""time""
""fullscreenenter"",""1"",""4773""
","
","","","1785","","","16","7697","123","e","elianto","#f73b6a7A"," "," ","1","0","[2635.800000190735]","1","2","","","7697","63","2","3","lose","go","0"
"pit-trial","182","1331270","0.0-68.0","battery-v0.2","","""event"",""trial"",""time""
""fullscreenenter"",""1"",""4773""
","
","
","""event"",""trial"",""time""
""fullscreenenter"",""1"",""4773""
","
","","","-1","","","16","7697","123","d","elianto","#3366ff99","-1","-1","1","+10","[]","0","2","","","7697","64","1","2","win","no-go","0"
"pit-trial","183","1336128","0.0-69.0","battery-v0.2","","""event"",""trial"",""time""
""fullscreenenter"",""1"",""4773""
","
","
","""event"",""trial"",""time""
""fullscreenenter"",""1"",""4773""
","
","","","-1","","","16","7697","123","w","elianto","#f73b6a7A","-1","-1","1","0","[]","0","2","","","7697","65","3","4","lose","no-go","0"
"pit-trial","184","1339870","0.0-70.0","battery-v0.2","","""event"",""trial"",""time""
""fullscreenenter"",""1"",""4773""
","
","
","""event"",""trial"",""time""
""fullscreenenter"",""1"",""4773""
","
","","","884.2000002861023","","","16","7697","123","s","elianto","#3366ff99"," "," ","1","0","[1734.7000002861023]","1","2","","","7697","66","4","1","win","go","1"
"pit-trial","185","1344730","0.0-71.0","battery-v0.2","","""event"",""trial"",""time""
""fullscreenenter"",""1"",""4773""
","
","
","""event"",""trial"",""time""
""fullscreenenter"",""1"",""4773""
","
","","","-1","","","16","7697","123","d","elianto","#3366ff99","-1","-1","1","+10","[]","0","2","","","7697","67","1","2","win","no-go","0"
"pit-trial","186","1349162","0.0-72.0","battery-v0.2","","""event"",""trial"",""time""
""fullscreenenter"",""1"",""4773""
","
","
","""event"",""trial"",""time""
""fullscreenenter"",""1"",""4773""
","
","","","1574","","","16","7697","123","p","elianto","#3366ff99","-1"," ","0","+10","[2424]","1","2","","","7697","68","5","2","win","no-go","1"
"pit-trial","187","1353304","0.0-73.0","battery-v0.2","","""event"",""trial"",""time""
""fullscreenenter"",""1"",""4773""
","
","
","""event"",""trial"",""time""
""fullscreenenter"",""1"",""4773""
","
","","","1284.5","","","16","7697","123","e","elianto","#f73b6a7A"," "," ","1","0","[2134.9000000953674]","1","2","","","7697","69","2","3","lose","go","0"
"pit-trial","188","1357597","0.0-74.0","battery-v0.2","","""event"",""trial"",""time""
""fullscreenenter"",""1"",""4773""
","
","
","""event"",""trial"",""time""
""fullscreenenter"",""1"",""4773""
","
","","","1433.8000001907349","","","16","7697","123","p","elianto","#3366ff99","-1"," ","0","+10","[2285]","1","2","","","7697","70","5","2","win","no-go","1"
"pit-trial","189","1361533","0.0-75.0","battery-v0.2","","""event"",""trial"",""time""
""fullscreenenter"",""1"",""4773""
","
","
","""event"",""trial"",""time""
""fullscreenenter"",""1"",""4773""
","
","","","1079.6000003814697","","","16","7697","123","s","elianto","#3366ff99"," "," ","1","+10","[1930.3000001907349]","1","2","","","7697","71","4","1","win","go","0"
"pit-trial","190","1365151","0.0-76.0","battery-v0.2","","""event"",""trial"",""time""
""fullscreenenter"",""1"",""4773""
","
","
","""event"",""trial"",""time""
""fullscreenenter"",""1"",""4773""
","
","","","760","","","16","7697","123","d","elianto","#3366ff99","-1"," ","0","0","[1609.8999996185303]","1","2","","","7697","72","1","2","win","no-go","0"
"pit-trial","191","1368911","0.0-77.0","battery-v0.2","","""event"",""trial"",""time""
""fullscreenenter"",""1"",""4773""
","
","
","""event"",""trial"",""time""
""fullscreenenter"",""1"",""4773""
","
","","","901.5","","","16","7697","123","p","elianto","#3366ff99","-1"," ","0","0","[1753.2999997138977]","1","2","","","7697","73","5","2","win","no-go","0"
"pit-trial","192","1372602","0.0-78.0","battery-v0.2","","""event"",""trial"",""time""
""fullscreenenter"",""1"",""4773""
","
","
","""event"",""trial"",""time""
""fullscreenenter"",""1"",""4773""
","
","","","833.5999999046326","","","16","7697","123","s","elianto","#3366ff99"," "," ","1","+10","[1684.4000000953674]","1","2","","","7697","74","4","1","win","go","0"
"pit-trial","193","1377459","0.0-79.0","battery-v0.2","","""event"",""trial"",""time""
""fullscreenenter"",""1"",""4773""
","
","
","""event"",""trial"",""time""
""fullscreenenter"",""1"",""4773""
","
","","","-1","","","16","7697","123","w","elianto","#f73b6a7A","-1","-1","1","0","[]","0","2","","","7697","75","3","4","lose","no-go","0"
"pit-trial","194","1382317","0.0-80.0","battery-v0.2","","""event"",""trial"",""time""
""fullscreenenter"",""1"",""4773""
","
","
","""event"",""trial"",""time""
""fullscreenenter"",""1"",""4773""
","
","","","-1","","","16","7697","123","d","elianto","#3366ff99","-1","-1","1","+10","[]","0","2","","","7697","76","1","2","win","no-go","0"
"pit-trial","195","1387174","0.0-81.0","battery-v0.2","","""event"",""trial"",""time""
""fullscreenenter"",""1"",""4773""
","
","
","""event"",""trial"",""time""
""fullscreenenter"",""1"",""4773""
","
","","","-1","","","16","7697","123","w","elianto","#f73b6a7A","-1","-1","1","0","[]","0","2","","","7697","77","3","4","lose","no-go","0"
"pit-trial","196","1391163","0.0-82.0","battery-v0.2","","""event"",""trial"",""time""
""fullscreenenter"",""1"",""4773""
","
","
","""event"",""trial"",""time""
""fullscreenenter"",""1"",""4773""
","
","","","1130.0999999046326","","","16","7697","123","s","elianto","#3366ff99"," "," ","1","0","[1981.1000003814697]","1","2","","","7697","78","4","1","win","go","1"
"pit-trial","197","1394978","0.0-83.0","battery-v0.2","","""event"",""trial"",""time""
""fullscreenenter"",""1"",""4773""
","
","
","""event"",""trial"",""time""
""fullscreenenter"",""1"",""4773""
","
","","","952","","","16","7697","123","s","elianto","#3366ff99"," "," ","1","+10","[1807.2000002861023]","1","2","","","7697","79","4","1","win","go","0"
"pit-trial","198","1398919","0.0-84.0","battery-v0.2","","""event"",""trial"",""time""
""fullscreenenter"",""1"",""4773""
","
","
","""event"",""trial"",""time""
""fullscreenenter"",""1"",""4773""
","
","","","1081.4000000953674","","","16","7697","123","p","elianto","#3366ff99","-1"," ","0","+10","[1932.9000000953674]","1","2","","","7697","80","5","2","win","no-go","1"
"pit-trial","199","1402871","0.0-85.0","battery-v0.2","","""event"",""trial"",""time""
""fullscreenenter"",""1"",""4773""
","
","
","""event"",""trial"",""time""
""fullscreenenter"",""1"",""4773""
","
","","","1095.1999998092651","","","16","7697","123","p","elianto","#3366ff99","-1"," ","0","+10","[1945.4000000953674]","1","2","","","7697","81","5","2","win","no-go","1"
"pit-trial","200","1407731","0.0-86.0","battery-v0.2","","""event"",""trial"",""time""
""fullscreenenter"",""1"",""4773""
","
","
","""event"",""trial"",""time""
""fullscreenenter"",""1"",""4773""
","
","","","-1","","","16","7697","123","w","elianto","#f73b6a7A","-1","-1","1","0","[]","0","2","","","7697","82","3","4","lose","no-go","0"
"pit-trial","201","1412589","0.0-87.0","battery-v0.2","","""event"",""trial"",""time""
""fullscreenenter"",""1"",""4773""
","
","
","""event"",""trial"",""time""
""fullscreenenter"",""1"",""4773""
","
","","","-1","","","16","7697","123","a","elianto","#f73b6a7A","-1","-1","1","-10","[3746.0999999046326]","1","2","","","7697","83","7","4","lose","no-go","1"
"pit-trial","202","1416138","0.0-88.0","battery-v0.2","","""event"",""trial"",""time""
""fullscreenenter"",""1"",""4773""
","
","
","""event"",""trial"",""time""
""fullscreenenter"",""1"",""4773""
","
","","","691.5999999046326","","","16","7697","123","s","elianto","#3366ff99"," "," ","1","+10","[1542.2000002861023]","1","2","","","7697","84","4","1","win","go","0"
"pit-trial","203","1420060","0.0-89.0","battery-v0.2","","""event"",""trial"",""time""
""fullscreenenter"",""1"",""4773""
","
","
","""event"",""trial"",""time""
""fullscreenenter"",""1"",""4773""
","
","","","1063.3999996185303","","","16","7697","123","p","elianto","#3366ff99","-1"," ","0","0","[1913.6999998092651]","1","2","","","7697","85","5","2","win","no-go","0"
"pit-trial","204","1424918","0.0-90.0","battery-v0.2","","""event"",""trial"",""time""
""fullscreenenter"",""1"",""4773""
","
","
","""event"",""trial"",""time""
""fullscreenenter"",""1"",""4773""
","
","","","-1","","","16","7697","123","g","elianto","#f73b6a7A"," ","-1","0","-10","[3105.199999809265]","1","2","","","7697","86","6","3","lose","go","0"
"pit-trial","205","1428709","0.0-91.0","battery-v0.2","","""event"",""trial"",""time""
""fullscreenenter"",""1"",""4773""
","
","
","""event"",""trial"",""time""
""fullscreenenter"",""1"",""4773""
","
","","","932.8000001907349","","","16","7697","123","s","elianto","#3366ff99"," "," ","1","+10","[1784.0999999046326]","1","2","","","7697","87","4","1","win","go","0"
"pit-trial","206","1432920","0.0-92.0","battery-v0.2","","""event"",""trial"",""time""
""fullscreenenter"",""1"",""4773""
","
","
","""event"",""trial"",""time""
""fullscreenenter"",""1"",""4773""
","
","","","1353.4000000953674","","","16","7697","123","a","elianto","#f73b6a7A","-1"," ","0","-10","[2204.4000000953674]","1","2","","","7697","88","7","4","lose","no-go","0"
"pit-trial","207","1436815","0.0-93.0","battery-v0.2","","""event"",""trial"",""time""
""fullscreenenter"",""1"",""4773""
","
","
","""event"",""trial"",""time""
""fullscreenenter"",""1"",""4773""
","
","","","1037.7000002861023","","","16","7697","123","p","elianto","#3366ff99","-1"," ","0","0","[1887.7000002861023]","1","2","","","7697","89","5","2","win","no-go","0"
"pit-trial","208","1440842","0.0-94.0","battery-v0.2","","""event"",""trial"",""time""
""fullscreenenter"",""1"",""4773""
","
","
","""event"",""trial"",""time""
""fullscreenenter"",""1"",""4773""
","
","","","1169.1999998092651","","","16","7697","123","g","elianto","#f73b6a7A"," "," ","1","0","[2020.0999999046326]","1","2","","","7697","90","6","3","lose","go","0"
"pit-trial","209","1444549","0.0-95.0","battery-v0.2","","""event"",""trial"",""time""
""fullscreenenter"",""1"",""4773""
","
","
","""event"",""trial"",""time""
""fullscreenenter"",""1"",""4773""
","
","","","837.8000001907349","","","16","7697","123","s","elianto","#3366ff99"," "," ","1","+10","[1688.5]","1","2","","","7697","91","4","1","win","go","0"
"pit-trial","210","1448512","0.0-96.0","battery-v0.2","","""event"",""trial"",""time""
""fullscreenenter"",""1"",""4773""
","
","
","""event"",""trial"",""time""
""fullscreenenter"",""1"",""4773""
","
","","","1105.6999998092651","","","16","7697","123","a","elianto","#f73b6a7A","-1"," ","0","-10","[1956.5999999046326]","1","2","","","7697","92","7","4","lose","no-go","0"
"pit-trial","211","1452282","0.0-97.0","battery-v0.2","","""event"",""trial"",""time""
""fullscreenenter"",""1"",""4773""
","
","
","""event"",""trial"",""time""
""fullscreenenter"",""1"",""4773""
","
","","","912.5999999046326","","","16","7697","123","p","elianto","#3366ff99","-1"," ","0","0","[1763.4000000953674]","1","2","","","7697","93","5","2","win","no-go","0"
"pit-trial","212","1456489","0.0-98.0","battery-v0.2","","""event"",""trial"",""time""
""fullscreenenter"",""1"",""4773""
","
","
","""event"",""trial"",""time""
""fullscreenenter"",""1"",""4773""
","
","","","1348.1999998092651","","","16","7697","123","l","elianto","#3366ff99"," "," ","1","+10","[2199.5]","1","2","","","7697","94","8","1","win","go","0"
"pit-trial","213","1460796","0.0-99.0","battery-v0.2","","""event"",""trial"",""time""
""fullscreenenter"",""1"",""4773""
","
","
","""event"",""trial"",""time""
""fullscreenenter"",""1"",""4773""
","
","","","1448.5","","","16","7697","123","g","elianto","#f73b6a7A"," "," ","1","0","[2298.7999997138977]","1","2","","","7697","95","6","3","lose","go","0"
"pit-trial","214","1465654","0.0-100.0","battery-v0.2","","""event"",""trial"",""time""
""fullscreenenter"",""1"",""4773""
","
","
","""event"",""trial"",""time""
""fullscreenenter"",""1"",""4773""
","
","","","-1","","","16","7697","123","a","elianto","#f73b6a7A","-1","-1","1","0","[]","0","2","","","7697","96","7","4","lose","no-go","0"
"pit-trial","215","1470512","0.0-101.0","battery-v0.2","","""event"",""trial"",""time""
""fullscreenenter"",""1"",""4773""
","
","
","""event"",""trial"",""time""
""fullscreenenter"",""1"",""4773""
","
","","","-1","","","16","7697","123","a","elianto","#f73b6a7A","-1","-1","1","0","[]","0","2","","","7697","97","7","4","lose","no-go","0"
"pit-trial","216","1475121","0.0-102.0","battery-v0.2","","""event"",""trial"",""time""
""fullscreenenter"",""1"",""4773""
","
","
","""event"",""trial"",""time""
""fullscreenenter"",""1"",""4773""
","
","","","1751.5","","","16","7697","123","p","elianto","#3366ff99","-1"," ","0","0","[2601.5999999046326]","1","2","","","7697","98","5","2","win","no-go","0"
"pit-trial","217","1479233","0.0-103.0","battery-v0.2","","""event"",""trial"",""time""
""fullscreenenter"",""1"",""4773""
","
","
","""event"",""trial"",""time""
""fullscreenenter"",""1"",""4773""
","
","","","1254.5","","","16","7697","123","l","elianto","#3366ff99"," "," ","1","+10","[2105]","1","2","","","7697","99","8","1","win","go","0"
"pit-trial","218","1484070","0.0-104.0","battery-v0.2","","""event"",""trial"",""time""
""fullscreenenter"",""1"",""4773""
","
","
","""event"",""trial"",""time""
""fullscreenenter"",""1"",""4773""
","
","","","1977.6999998092651","","","16","7697","123","g","elianto","#f73b6a7A"," "," ","1","0","[2829.2999997138977]","1","2","","","7697","100","6","3","lose","go","0"
"pit-trial","219","1488926","0.0-105.0","battery-v0.2","","""event"",""trial"",""time""
""fullscreenenter"",""1"",""4773""
","
","
","""event"",""trial"",""time""
""fullscreenenter"",""1"",""4773""
","
","","","-1","","","16","7697","123","p","elianto","#3366ff99","-1","-1","1","+10","[]","0","2","","","7697","101","5","2","win","no-go","0"
"pit-trial","220","1493129","0.0-106.0","battery-v0.2","","""event"",""trial"",""time""
""fullscreenenter"",""1"",""4773""
","
","
","""event"",""trial"",""time""
""fullscreenenter"",""1"",""4773""
","
","","","1345.3000001907349","","","16","7697","123","u","elianto","#3366ff99"," "," ","1","+10","[2195.7000002861023]","1","2","","","7697","102","9","1","win","go","0"
"pit-trial","221","1497989","0.0-107.0","battery-v0.2","","""event"",""trial"",""time""
""fullscreenenter"",""1"",""4773""
","
","
","""event"",""trial"",""time""
""fullscreenenter"",""1"",""4773""
","
","","","-1","","","16","7697","123","a","elianto","#f73b6a7A","-1","-1","1","-10","[]","0","2","","","7697","103","7","4","lose","no-go","1"
"pit-trial","222","1501762","0.0-108.0","battery-v0.2","","""event"",""trial"",""time""
""fullscreenenter"",""1"",""4773""
","
","
","""event"",""trial"",""time""
""fullscreenenter"",""1"",""4773""
","
","","","916","","","16","7697","123","l","elianto","#3366ff99"," "," ","1","+10","[1766.9000000953674]","1","2","","","7697","104","8","1","win","go","0"
"pit-trial","223","1505909","0.0-109.0","battery-v0.2","","""event"",""trial"",""time""
""fullscreenenter"",""1"",""4773""
","
","
","""event"",""trial"",""time""
""fullscreenenter"",""1"",""4773""
","
","","","1286.9000000953674","","","16","7697","123","l","elianto","#3366ff99"," "," ","1","+10","[2138.9000000953674]","1","2","","","7697","105","8","1","win","go","0"
"pit-trial","224","1509708","0.0-110.0","battery-v0.2","","""event"",""trial"",""time""
""fullscreenenter"",""1"",""4773""
","
","
","""event"",""trial"",""time""
""fullscreenenter"",""1"",""4773""
","
","","","941","","","16","7697","123","u","elianto","#3366ff99"," "," ","1","0","[1791.0999999046326]","1","2","","","7697","106","9","1","win","go","1"
"pit-trial","225","1513701","0.0-111.0","battery-v0.2","","""event"",""trial"",""time""
""fullscreenenter"",""1"",""4773""
","
","
","""event"",""trial"",""time""
""fullscreenenter"",""1"",""4773""
","
","","","1136.5999999046326","","","16","7697","123","s","elianto","#3366ff99"," "," ","1","+10","[1987.0999999046326]","1","2","","","7697","107","4","1","win","go","0"
"pit-trial","226","1517738","0.0-112.0","battery-v0.2","","""event"",""trial"",""time""
""fullscreenenter"",""1"",""4773""
","
","
","""event"",""trial"",""time""
""fullscreenenter"",""1"",""4773""
","
","","","1177.6999998092651","","","16","7697","123","g","elianto","#f73b6a7A"," "," ","1","0","[2027.9000000953674]","1","2","","","7697","108","6","3","lose","go","0"
"pit-trial","227","1521989","0.0-113.0","battery-v0.2","","""event"",""trial"",""time""
""fullscreenenter"",""1"",""4773""
","
","
","""event"",""trial"",""time""
""fullscreenenter"",""1"",""4773""
","
","","","1392.5","","","16","7697","123","l","elianto","#3366ff99"," "," ","1","0","[2243.6000003814697]","1","2","","","7697","109","8","1","win","go","1"
"pit-trial","228","1526846","0.0-114.0","battery-v0.2","","""event"",""trial"",""time""
""fullscreenenter"",""1"",""4773""
","
","
","""event"",""trial"",""time""
""fullscreenenter"",""1"",""4773""
","
","","","-1","","","16","7697","123","p","elianto","#3366ff99","-1","-1","1","0","[]","0","2","","","7697","110","5","2","win","no-go","1"
"pit-trial","229","1530736","0.0-115.0","battery-v0.2","","""event"",""trial"",""time""
""fullscreenenter"",""1"",""4773""
","
","
","""event"",""trial"",""time""
""fullscreenenter"",""1"",""4773""
","
","","","1017.7999997138977","","","16","7697","123","g","elianto","#f73b6a7A"," "," ","1","-10","[1869.2999997138977]","1","2","","","7697","111","6","3","lose","go","1"
"pit-trial","230","1534771","0.0-116.0","battery-v0.2","","""event"",""trial"",""time""
""fullscreenenter"",""1"",""4773""
","
","
","""event"",""trial"",""time""
""fullscreenenter"",""1"",""4773""
","
","","","1176.2999997138977","","","16","7697","123","u","elianto","#3366ff99"," "," ","1","+10","[2027.0999999046326]","1","2","","","7697","112","9","1","win","go","0"
"pit-trial","231","1538415","0.0-117.0","battery-v0.2","","""event"",""trial"",""time""
""fullscreenenter"",""1"",""4773""
","
","
","""event"",""trial"",""time""
""fullscreenenter"",""1"",""4773""
","
","","","787","","","16","7697","123","p","elianto","#3366ff99","-1"," ","0","0","[1637.9000000953674]","1","2","","","7697","113","5","2","win","no-go","0"
"pit-trial","232","1543272","0.0-118.0","battery-v0.2","","""event"",""trial"",""time""
""fullscreenenter"",""1"",""4773""
","
","
","""event"",""trial"",""time""
""fullscreenenter"",""1"",""4773""
","
","","","-1","","","16","7697","123","g","elianto","#f73b6a7A"," ","-1","0","-10","[]","0","2","","","7697","114","6","3","lose","go","0"
"pit-trial","233","1547810","0.0-119.0","battery-v0.2","","""event"",""trial"",""time""
""fullscreenenter"",""1"",""4773""
","
","
","""event"",""trial"",""time""
""fullscreenenter"",""1"",""4773""
","
","","","1680.2999997138977","","","16","7697","123","u","elianto","#3366ff99"," "," ","1","0","[2530.8999996185303]","1","2","","","7697","115","9","1","win","go","1"
"pit-trial","234","1552093","0.0-120.0","battery-v0.2","","""event"",""trial"",""time""
""fullscreenenter"",""1"",""4773""
","
","
","""event"",""trial"",""time""
""fullscreenenter"",""1"",""4773""
","
","","","1421.1000003814697","","","16","7697","123","l","elianto","#3366ff99"," "," ","1","+10","[2271.3999996185303]","1","2","","","7697","116","8","1","win","go","0"
"pit-trial","235","1556112","0.0-121.0","battery-v0.2","","""event"",""trial"",""time""
""fullscreenenter"",""1"",""4773""
","
","
","""event"",""trial"",""time""
""fullscreenenter"",""1"",""4773""
","
","","","1159.7999997138977","","","16","7697","123","g","elianto","#f73b6a7A"," "," ","1","0","[2010.5999999046326]","1","2","","","7697","117","6","3","lose","go","0"
"pit-trial","236","1560824","0.0-122.0","battery-v0.2","","""event"",""trial"",""time""
""fullscreenenter"",""1"",""4773""
","
","
","""event"",""trial"",""time""
""fullscreenenter"",""1"",""4773""
","
","","","1853","","","16","7697","123","l","elianto","#3366ff99"," "," ","1","+10","[2703.7999997138977]","1","2","","","7697","118","8","1","win","go","0"
"pit-trial","237","1565681","0.0-123.0","battery-v0.2","","""event"",""trial"",""time""
""fullscreenenter"",""1"",""4773""
","
","
","""event"",""trial"",""time""
""fullscreenenter"",""1"",""4773""
","
","","","-1","","","16","7697","123","u","elianto","#3366ff99"," ","-1","0","+10","[]","0","2","","","7697","119","9","1","win","go","1"
"pit-trial","238","1570540","0.0-124.0","battery-v0.2","","""event"",""trial"",""time""
""fullscreenenter"",""1"",""4773""
","
","
","""event"",""trial"",""time""
""fullscreenenter"",""1"",""4773""
","
","","","-1","","","16","7697","123","p","elianto","#3366ff99","-1","-1","1","+10","[]","0","2","","","7697","120","5","2","win","no-go","0"
"pit-trial","239","1575399","0.0-125.0","battery-v0.2","","""event"",""trial"",""time""
""fullscreenenter"",""1"",""4773""
","
","
","""event"",""trial"",""time""
""fullscreenenter"",""1"",""4773""
","
","","","-1","","","16","7697","123","a","elianto","#f73b6a7A","-1","-1","1","-10","[]","0","2","","","7697","121","7","4","lose","no-go","1"
"pit-trial","240","1580258","0.0-126.0","battery-v0.2","","""event"",""trial"",""time""
""fullscreenenter"",""1"",""4773""
","
","
","""event"",""trial"",""time""
""fullscreenenter"",""1"",""4773""
","
","","","-1","","","16","7697","123","u","elianto","#3366ff99"," ","-1","0","0","[]","0","2","","","7697","122","9","1","win","go","0"
"pit-trial","241","1583857","0.0-127.0","battery-v0.2","","""event"",""trial"",""time""
""fullscreenenter"",""1"",""4773""
","
","
","""event"",""trial"",""time""
""fullscreenenter"",""1"",""4773""
","
","","","740","","","16","7697","123","l","elianto","#3366ff99"," "," ","1","+10","[1591.5]","1","2","","","7697","123","8","1","win","go","0"
"pit-trial","242","1588716","0.0-128.0","battery-v0.2","","""event"",""trial"",""time""
""fullscreenenter"",""1"",""4773""
","
","
","""event"",""trial"",""time""
""fullscreenenter"",""1"",""4773""
","
","","","-1","","","16","7697","123","g","elianto","#f73b6a7A"," ","-1","0","0","[2872]","1","2","","","7697","124","6","3","lose","go","1"
"pit-trial","243","1593143","0.0-129.0","battery-v0.2","","""event"",""trial"",""time""
""fullscreenenter"",""1"",""4773""
","
","
","""event"",""trial"",""time""
""fullscreenenter"",""1"",""4773""
","
","","","1569.5999999046326","","","16","7697","123","a","elianto","#f73b6a7A","-1"," ","0","-10","[2420]","1","2","","","7697","125","7","4","lose","no-go","0"
"pit-trial","244","1597066","0.0-130.0","battery-v0.2","","""event"",""trial"",""time""
""fullscreenenter"",""1"",""4773""
","
","
","""event"",""trial"",""time""
""fullscreenenter"",""1"",""4773""
","
","","","1064.7000002861023","","","16","7697","123","u","elianto","#3366ff99"," "," ","1","+10","[1915.2000002861023]","1","2","","","7697","126","9","1","win","go","0"
"pit-trial","245","1601110","0.0-131.0","battery-v0.2","","""event"",""trial"",""time""
""fullscreenenter"",""1"",""4773""
","
","
","""event"",""trial"",""time""
""fullscreenenter"",""1"",""4773""
","
","","","1184.1999998092651","","","16","7697","123","g","elianto","#f73b6a7A"," "," ","1","0","[2035.5999999046326]","1","2","","","7697","127","6","3","lose","go","0"
"pit-trial","246","1605143","0.0-132.0","battery-v0.2","","""event"",""trial"",""time""
""fullscreenenter"",""1"",""4773""
","
","
","""event"",""trial"",""time""
""fullscreenenter"",""1"",""4773""
","
","","","1173.9000000953674","","","16","7697","123","l","elianto","#3366ff99"," "," ","1","+10","[2025.5999999046326]","1","2","","","7697","128","8","1","win","go","0"
"pit-trial","247","1609292","0.0-133.0","battery-v0.2","","""event"",""trial"",""time""
""fullscreenenter"",""1"",""4773""
","
","
","""event"",""trial"",""time""
""fullscreenenter"",""1"",""4773""
","
","","","1289.1999998092651","","","16","7697","123","u","elianto","#3366ff99"," "," ","1","+10","[2140.4000000953674]","1","2","","","7697","129","9","1","win","go","0"
"pit-trial","248","1614150","0.0-134.0","battery-v0.2","","""event"",""trial"",""time""
""fullscreenenter"",""1"",""4773""
","
","
","""event"",""trial"",""time""
""fullscreenenter"",""1"",""4773""
","
","","","-1","","","16","7697","123","a","elianto","#f73b6a7A","-1","-1","1","0","[]","0","2","","","7697","130","7","4","lose","no-go","0"
"pit-trial","249","1618225","0.0-135.0","battery-v0.2","","""event"",""trial"",""time""
""fullscreenenter"",""1"",""4773""
","
","
","""event"",""trial"",""time""
""fullscreenenter"",""1"",""4773""
","
","","","1216.5","","","16","7697","123","g","elianto","#f73b6a7A"," "," ","1","0","[2067.9000000953674]","1","2","","","7697","131","6","3","lose","go","0"
"pit-trial","250","1622172","0.0-136.0","battery-v0.2","","""event"",""trial"",""time""
""fullscreenenter"",""1"",""4773""
","
","
","""event"",""trial"",""time""
""fullscreenenter"",""1"",""4773""
","
","","","1089.2000002861023","","","16","7697","123","l","elianto","#3366ff99"," "," ","1","+10","[1939.8000001907349]","1","2","","","7697","132","8","1","win","go","0"
"pit-trial","251","1626133","0.0-137.0","battery-v0.2","","""event"",""trial"",""time""
""fullscreenenter"",""1"",""4773""
","
","
","""event"",""trial"",""time""
""fullscreenenter"",""1"",""4773""
","
","","","1101","","","16","7697","123","u","elianto","#3366ff99"," "," ","1","0","[1952.7000002861023]","1","2","","","7697","133","9","1","win","go","1"
"pit-trial","252","1630991","0.0-138.0","battery-v0.2","","""event"",""trial"",""time""
""fullscreenenter"",""1"",""4773""
","
","
","""event"",""trial"",""time""
""fullscreenenter"",""1"",""4773""
","
","","","-1","","","16","7697","123","a","elianto","#f73b6a7A","-1","-1","1","-10","[]","0","2","","","7697","134","7","4","lose","no-go","1"
"pit-trial","253","1634981","0.0-139.0","battery-v0.2","","""event"",""trial"",""time""
""fullscreenenter"",""1"",""4773""
","
","
","""event"",""trial"",""time""
""fullscreenenter"",""1"",""4773""
","
","","","1133","","","16","7697","123","l","elianto","#3366ff99"," "," ","1","0","[1983.0999999046326]","1","2","","","7697","135","8","1","win","go","1"
"pit-trial","254","1638710","0.0-140.0","battery-v0.2","","""event"",""trial"",""time""
""fullscreenenter"",""1"",""4773""
","
","
","""event"",""trial"",""time""
""fullscreenenter"",""1"",""4773""
","
","","","871.6999998092651","","","16","7697","123","g","elianto","#f73b6a7A"," "," ","1","0","[1722.5]","1","2","","","7697","136","6","3","lose","go","0"
"pit-trial","255","1643568","0.0-141.0","battery-v0.2","","""event"",""trial"",""time""
""fullscreenenter"",""1"",""4773""
","
","
","""event"",""trial"",""time""
""fullscreenenter"",""1"",""4773""
","
","","","-1","","","16","7697","123","u","elianto","#3366ff99"," ","-1","0","+10","[]","0","2","","","7697","137","9","1","win","go","1"
"pit-trial","256","1648424","0.0-142.0","battery-v0.2","","""event"",""trial"",""time""
""fullscreenenter"",""1"",""4773""
","
","
","""event"",""trial"",""time""
""fullscreenenter"",""1"",""4773""
","
","","","-1","","","16","7697","123","a","elianto","#f73b6a7A","-1","-1","1","0","[]","0","2","","","7697","138","7","4","lose","no-go","0"
"pit-trial","257","1653288","0.0-143.0","battery-v0.2","","""event"",""trial"",""time""
""fullscreenenter"",""1"",""4773""
","
","
","""event"",""trial"",""time""
""fullscreenenter"",""1"",""4773""
","
","","","-1","","","16","7697","123","g","elianto","#f73b6a7A"," ","-1","0","-10","[]","0","2","","","7697","139","6","3","lose","go","0"
"pit-trial","258","1657332","0.0-144.0","battery-v0.2","","""event"",""trial"",""time""
""fullscreenenter"",""1"",""4773""
","
","
","""event"",""trial"",""time""
""fullscreenenter"",""1"",""4773""
","
","","","1185.4000000953674","","","16","7697","123","l","elianto","#3366ff99"," "," ","1","+10","[2037.1999998092651]","1","2","","","7697","140","8","1","win","go","0"
"pit-instructions","259","1732918","0.0-145.0","battery-v0.2","","""event"",""trial"",""time""
""fullscreenenter"",""1"",""4773""
","
","
","""event"",""trial"",""time""
""fullscreenenter"",""1"",""4773""
","
","","[{""page_index"":0,""viewing_time"":66103.40000009537},{""page_index"":1,""viewing_time"":9478.099999904633}]","75582","","","","","","","","","","","","","","","","","","","","","","","",""
"pit-trial","260","1736782","0.0-146.0","battery-v0.2","","""event"",""trial"",""time""
""fullscreenenter"",""1"",""4773""
","
","
","""event"",""trial"",""time""
""fullscreenenter"",""1"",""4773""
","
","","","987.4000000953674","","","16","7697","123","b","elianto","#f73b6a7A"," "," ","1","0","[1842.3000001907349]","1","3","","","7697","141","3","3","lose","go","0"
"pit-trial","261","1741647","0.0-147.0","battery-v0.2","","""event"",""trial"",""time""
""fullscreenenter"",""1"",""4773""
","
","
","""event"",""trial"",""time""
""fullscreenenter"",""1"",""4773""
","
","","","-1","","","16","7697","123","t","elianto","#f73b6a7A","-1","-1","1","0","[]","0","3","","","7697","142","2","4","lose","no-go","0"
"pit-trial","262","1745887","0.0-148.0","battery-v0.2","","""event"",""trial"",""time""
""fullscreenenter"",""1"",""4773""
","
","
","""event"",""trial"",""time""
""fullscreenenter"",""1"",""4773""
","
","","","1376","","","16","7697","123","n","elianto","#f73b6a7A","-1"," ","0","-10","[2227.3999996185303]","1","3","","","7697","143","0","4","lose","no-go","0"
"pit-trial","263","1750029","0.0-149.0","battery-v0.2","","""event"",""trial"",""time""
""fullscreenenter"",""1"",""4773""
","
","
","""event"",""trial"",""time""
""fullscreenenter"",""1"",""4773""
","
","","","1272","","","16","7697","123","f","elianto","#3366ff99"," "," ","1","+10","[2131.4000000953674]","1","3","","","7697","144","1","1","win","go","0"
"pit-trial","264","1753728","0.0-150.0","battery-v0.2","","""event"",""trial"",""time""
""fullscreenenter"",""1"",""4773""
","
","
","""event"",""trial"",""time""
""fullscreenenter"",""1"",""4773""
","
","","","833","","","16","7697","123","f","elianto","#3366ff99"," "," ","1","+10","[1688]","1","3","","","7697","145","1","1","win","go","0"
"pit-trial","265","1758608","0.0-151.0","battery-v0.2","","""event"",""trial"",""time""
""fullscreenenter"",""1"",""4773""
","
","
","""event"",""trial"",""time""
""fullscreenenter"",""1"",""4773""
","
","","","-1","","","16","7697","123","t","elianto","#f73b6a7A","-1","-1","1","-10","[]","0","3","","","7697","146","2","4","lose","no-go","1"
"pit-trial","266","1763474","0.0-152.0","battery-v0.2","","""event"",""trial"",""time""
""fullscreenenter"",""1"",""4773""
","
","
","""event"",""trial"",""time""
""fullscreenenter"",""1"",""4773""
","
","","","-1","","","16","7697","123","n","elianto","#f73b6a7A","-1","-1","1","0","[]","0","3","","","7697","147","0","4","lose","no-go","0"
"pit-trial","267","1767267","0.0-153.0","battery-v0.2","","""event"",""trial"",""time""
""fullscreenenter"",""1"",""4773""
","
","
","""event"",""trial"",""time""
""fullscreenenter"",""1"",""4773""
","
","","","933.9000000953674","","","16","7697","123","b","elianto","#f73b6a7A"," "," ","1","0","[1785]","1","3","","","7697","148","3","3","lose","go","0"
"pit-trial","268","1772126","0.0-154.0","battery-v0.2","","""event"",""trial"",""time""
""fullscreenenter"",""1"",""4773""
","
","
