"trial_type","trial_index","time_elapsed","internal_node_id","task_version","subject_id","interactions","blur_events","focus_events","fullscreenenter_events","fullscreenexit_events","success","view_history","rt","responses","num_errors","age","subject","participantId","rune","rune_set","hex","correct","choice","accuracy","outcome","keys","total_keys","block","practice","value","sub","trial","stimulus","robot","valence","action","sham"
"pavlovia","0","7","0.0-0.0","battery-v0.2","","""event"",""trial"",""time""
""blur"",""1"",""4882""
""focus"",""1"",""94677""
""blur"",""1"",""97573""
""focus"",""1"",""102048""
""fullscreenenter"",""1"",""102158""
","""event"",""trial"",""time""
""blur"",""1"",""4882""
""blur"",""1"",""97573""
","""event"",""trial"",""time""
""focus"",""1"",""94677""
""focus"",""1"",""102048""
","""event"",""trial"",""time""
""fullscreenenter"",""1"",""102158""
","
","","","","","","","","","","","","","","","","","","","","","","","","","","",""
"fullscreen","1","103121","0.0-1.0","battery-v0.2","","""event"",""trial"",""time""
""blur"",""1"",""4882""
""focus"",""1"",""94677""
""blur"",""1"",""97573""
""focus"",""1"",""102048""
""fullscreenenter"",""1"",""102158""
","""event"",""trial"",""time""
""blur"",""1"",""4882""
""blur"",""1"",""97573""
","""event"",""trial"",""time""
""focus"",""1"",""94677""
""focus"",""1"",""102048""
","""event"",""trial"",""time""
""fullscreenenter"",""1"",""102158""
","
","true","","","","","","","","","","","","","","","","","","","","","","","","","",""
"pit-instructions","2","108273","0.0-2.0-0.0","battery-v0.2","","""event"",""trial"",""time""
""blur"",""1"",""4882""
""focus"",""1"",""94677""
""blur"",""1"",""97573""
""focus"",""1"",""102048""
""fullscreenenter"",""1"",""102158""
","""event"",""trial"",""time""
""blur"",""1"",""4882""
""blur"",""1"",""97573""
","""event"",""trial"",""time""
""focus"",""1"",""94677""
""focus"",""1"",""102048""
","""event"",""trial"",""time""
""fullscreenenter"",""1"",""102158""
","
","","[{""page_index"":0,""viewing_time"":5148.899999976158}]","5149.199999988079","","","","","","","","","","","","","","","","","","","","","","","",""
"pit-comprehension","3","111570","0.0-2.0-1.0-0.0","battery-v0.2","","""event"",""trial"",""time""
""blur"",""1"",""4882""
""focus"",""1"",""94677""
""blur"",""1"",""97573""
""focus"",""1"",""102048""
""fullscreenenter"",""1"",""102158""
","""event"",""trial"",""time""
""blur"",""1"",""4882""
""blur"",""1"",""97573""
","""event"",""trial"",""time""
""focus"",""1"",""94677""
""focus"",""1"",""102048""
","""event"",""trial"",""time""
""fullscreenenter"",""1"",""102158""
","
","","","3294.2000000178814","[""shark""]","0","20","8046","3966","","","","","","","","","","","","","","","","","","",""
"pit-instructions","4","114146","0.0-2.0-1.0-1.0","battery-v0.2","","""event"",""trial"",""time""
""blur"",""1"",""4882""
""focus"",""1"",""94677""
""blur"",""1"",""97573""
""focus"",""1"",""102048""
""fullscreenenter"",""1"",""102158""
","""event"",""trial"",""time""
""blur"",""1"",""4882""
""blur"",""1"",""97573""
","""event"",""trial"",""time""
""focus"",""1"",""94677""
""focus"",""1"",""102048""
","""event"",""trial"",""time""
""fullscreenenter"",""1"",""102158""
","
","","[{""page_index"":0,""viewing_time"":2563.699999988079}]","2564","","","","","","","","","","","","","","","","","","","","","","","",""
"pit-comprehension","5","117004","0.0-2.0-2.0-0.0","battery-v0.2","","""event"",""trial"",""time""
""blur"",""1"",""4882""
""focus"",""1"",""94677""
""blur"",""1"",""97573""
""focus"",""1"",""102048""
""fullscreenenter"",""1"",""102158""
","""event"",""trial"",""time""
""blur"",""1"",""4882""
""blur"",""1"",""97573""
","""event"",""trial"",""time""
""focus"",""1"",""94677""
""focus"",""1"",""102048""
","""event"",""trial"",""time""
""fullscreenenter"",""1"",""102158""
","
","","","2855.800000011921","[""tiger""]","0","20","8046","3966","","","","","","","","","","","","","","","","","","",""
"pit-instructions","6","119928","0.0-2.0-2.0-1.0","battery-v0.2","","""event"",""trial"",""time""
""blur"",""1"",""4882""
""focus"",""1"",""94677""
""blur"",""1"",""97573""
""focus"",""1"",""102048""
""fullscreenenter"",""1"",""102158""
","""event"",""trial"",""time""
""blur"",""1"",""4882""
""blur"",""1"",""97573""
","""event"",""trial"",""time""
""focus"",""1"",""94677""
""focus"",""1"",""102048""
","""event"",""trial"",""time""
""fullscreenenter"",""1"",""102158""
","
","","[{""page_index"":0,""viewing_time"":2921.399999976158}]","2921.699999988079","","","","","","","","","","","","","","","","","","","","","","","",""
"pit-instructions","7","226492","0.0-2.0-3.0","battery-v0.2","","""event"",""trial"",""time""
""blur"",""1"",""4882""
""focus"",""1"",""94677""
""blur"",""1"",""97573""
""focus"",""1"",""102048""
""fullscreenenter"",""1"",""102158""
","""event"",""trial"",""time""
""blur"",""1"",""4882""
""blur"",""1"",""97573""
","""event"",""trial"",""time""
""focus"",""1"",""94677""
""focus"",""1"",""102048""
","""event"",""trial"",""time""
""fullscreenenter"",""1"",""102158""
","
","","[{""page_index"":0,""viewing_time"":8975},{""page_index"":1,""viewing_time"":8043.799999982119},{""page_index"":2,""viewing_time"":7898},{""page_index"":3,""viewing_time"":5355},{""page_index"":4,""viewing_time"":7098.9000000059605},{""page_index"":5,""viewing_time"":5940},{""page_index"":6,""viewing_time"":8955.200000017881},{""page_index"":7,""viewing_time"":7910},{""page_index"":8,""viewing_time"":6096.0999999940395},{""page_index"":9,""viewing_time"":8302.299999982119},{""page_index"":10,""viewing_time"":11002.700000017881},{""page_index"":11,""viewing_time"":9011.799999982119},{""page_index"":12,""viewing_time"":6997.200000017881},{""page_index"":13,""viewing_time"":4972.699999988079}]","106559","","","","","","","","","","","","","","","","","","","","","","","",""
"pit-trial","8","230281","0.0-2.0-4.0-0.0","battery-v0.2","","""event"",""trial"",""time""
""blur"",""1"",""4882""
""focus"",""1"",""94677""
""blur"",""1"",""97573""
""focus"",""1"",""102048""
""fullscreenenter"",""1"",""102158""
","""event"",""trial"",""time""
""blur"",""1"",""4882""
""blur"",""1"",""97573""
","""event"",""trial"",""time""
""focus"",""1"",""94677""
""focus"",""1"",""102048""
","""event"",""trial"",""time""
""fullscreenenter"",""1"",""102158""
","
","","","926.5","","","20","8046","3966","&#9784;","elianto","#FFFFF080"," "," ","1","&#10004","[1777.1000000238419]","1","0","0","","","","","","","",""
"pit-trial","9","234501","0.0-2.0-4.1-0.1","battery-v0.2","","""event"",""trial"",""time""
""blur"",""1"",""4882""
""focus"",""1"",""94677""
""blur"",""1"",""97573""
""focus"",""1"",""102048""
""fullscreenenter"",""1"",""102158""
","""event"",""trial"",""time""
""blur"",""1"",""4882""
""blur"",""1"",""97573""
","""event"",""trial"",""time""
""focus"",""1"",""94677""
""focus"",""1"",""102048""
","""event"",""trial"",""time""
""fullscreenenter"",""1"",""102158""
","
","","","1359","","","20","8046","3966","&#9784;","elianto","#FFFFF080"," "," ","1","&#10004","[2213.4000000059605]","1","0","0","","","","","","","",""
"pit-trial","10","238547","0.0-2.0-4.2-0.2","battery-v0.2","","""event"",""trial"",""time""
""blur"",""1"",""4882""
""focus"",""1"",""94677""
""blur"",""1"",""97573""
""focus"",""1"",""102048""
""fullscreenenter"",""1"",""102158""
","""event"",""trial"",""time""
""blur"",""1"",""4882""
""blur"",""1"",""97573""
","""event"",""trial"",""time""
""focus"",""1"",""94677""
""focus"",""1"",""102048""
","""event"",""trial"",""time""
""fullscreenenter"",""1"",""102158""
","
","","","1180.9000000059605","","","20","8046","3966","&#9784;","elianto","#FFFFF080"," "," ","1","&#10004","[2035.9000000059605]","1","0","0","","","","","","","",""
"pit-trial","11","242439","0.0-2.0-4.3-0.3","battery-v0.2","","""event"",""trial"",""time""
""blur"",""1"",""4882""
""focus"",""1"",""94677""
""blur"",""1"",""97573""
""focus"",""1"",""102048""
""fullscreenenter"",""1"",""102158""
","""event"",""trial"",""time""
""blur"",""1"",""4882""
""blur"",""1"",""97573""
","""event"",""trial"",""time""
""focus"",""1"",""94677""
""focus"",""1"",""102048""
","""event"",""trial"",""time""
""fullscreenenter"",""1"",""102158""
","
","","","1028.8999999761581","","","20","8046","3966","&#9784;","elianto","#FFFFF080"," "," ","1","&#10004","[1884]","1","0","0","","","","","","","",""
"pit-trial","12","246046","0.0-2.0-4.4-0.4","battery-v0.2","","""event"",""trial"",""time""
""blur"",""1"",""4882""
""focus"",""1"",""94677""
""blur"",""1"",""97573""
""focus"",""1"",""102048""
""fullscreenenter"",""1"",""102158""
","""event"",""trial"",""time""
""blur"",""1"",""4882""
""blur"",""1"",""97573""
","""event"",""trial"",""time""
""focus"",""1"",""94677""
""focus"",""1"",""102048""
","""event"",""trial"",""time""
""fullscreenenter"",""1"",""102158""
","
","","","744.1999999880791","","","20","8046","3966","&#9784;","elianto","#FFFFF080"," "," ","1","&#10004","[1599]","1","0","0","","","","","","","",""
"pit-instructions","13","269772","0.0-2.0-5.0","battery-v0.2","","""event"",""trial"",""time""
""blur"",""1"",""4882""
""focus"",""1"",""94677""
""blur"",""1"",""97573""
""focus"",""1"",""102048""
""fullscreenenter"",""1"",""102158""
","""event"",""trial"",""time""
""blur"",""1"",""4882""
""blur"",""1"",""97573""
","""event"",""trial"",""time""
""focus"",""1"",""94677""
""focus"",""1"",""102048""
","""event"",""trial"",""time""
""fullscreenenter"",""1"",""102158""
","
","","[{""page_index"":0,""viewing_time"":5824.799999982119},{""page_index"":1,""viewing_time"":6839},{""page_index"":2,""viewing_time"":5287.300000011921},{""page_index"":3,""viewing_time"":5771.0999999940395}]","23722.5","","","","","","","","","","","","","","","","","","","","","","","",""
"pit-trial","14","274637","0.0-2.0-6.0-0.0","battery-v0.2","","""event"",""trial"",""time""
""blur"",""1"",""4882""
""focus"",""1"",""94677""
""blur"",""1"",""97573""
""focus"",""1"",""102048""
""fullscreenenter"",""1"",""102158""
","""event"",""trial"",""time""
""blur"",""1"",""4882""
""blur"",""1"",""97573""
","""event"",""trial"",""time""
""focus"",""1"",""94677""
""focus"",""1"",""102048""
","""event"",""trial"",""time""
""fullscreenenter"",""1"",""102158""
","
","","","-1","","","20","8046","3966","&#9854;","elianto","#FFFFF080","-1","-1","1","&#10004","[]","0","0","1","","","","","","","",""
"pit-trial","15","279498","0.0-2.0-6.1-0.1","battery-v0.2","","""event"",""trial"",""time""
""blur"",""1"",""4882""
""focus"",""1"",""94677""
""blur"",""1"",""97573""
""focus"",""1"",""102048""
""fullscreenenter"",""1"",""102158""
","""event"",""trial"",""time""
""blur"",""1"",""4882""
""blur"",""1"",""97573""
","""event"",""trial"",""time""
""focus"",""1"",""94677""
""focus"",""1"",""102048""
","""event"",""trial"",""time""
""fullscreenenter"",""1"",""102158""
","
","","","-1","","","20","8046","3966","&#9854;","elianto","#FFFFF080","-1","-1","1","&#10004","[]","0","0","1","","","","","","","",""
"pit-trial","16","284367","0.0-2.0-6.2-0.2","battery-v0.2","","""event"",""trial"",""time""
""blur"",""1"",""4882""
""focus"",""1"",""94677""
""blur"",""1"",""97573""
""focus"",""1"",""102048""
""fullscreenenter"",""1"",""102158""
","""event"",""trial"",""time""
""blur"",""1"",""4882""
""blur"",""1"",""97573""
","""event"",""trial"",""time""
""focus"",""1"",""94677""
""focus"",""1"",""102048""
","""event"",""trial"",""time""
""fullscreenenter"",""1"",""102158""
","
","","","-1","","","20","8046","3966","&#9854;","elianto","#FFFFF080","-1","-1","1","&#10004","[]","0","0","1","","","","","","","",""
"pit-trial","17","289237","0.0-2.0-6.3-0.3","battery-v0.2","","""event"",""trial"",""time""
""blur"",""1"",""4882""
""focus"",""1"",""94677""
""blur"",""1"",""97573""
""focus"",""1"",""102048""
""fullscreenenter"",""1"",""102158""
","""event"",""trial"",""time""
""blur"",""1"",""4882""
""blur"",""1"",""97573""
","""event"",""trial"",""time""
""focus"",""1"",""94677""
""focus"",""1"",""102048""
","""event"",""trial"",""time""
""fullscreenenter"",""1"",""102158""
","
","","","-1","","","20","8046","3966","&#9854;","elianto","#FFFFF080","-1","-1","1","&#10004","[]","0","0","1","","","","","","","",""
"pit-trial","18","294109","0.0-2.0-6.4-0.4","battery-v0.2","","""event"",""trial"",""time""
""blur"",""1"",""4882""
""focus"",""1"",""94677""
""blur"",""1"",""97573""
""focus"",""1"",""102048""
""fullscreenenter"",""1"",""102158""
","""event"",""trial"",""time""
""blur"",""1"",""4882""
""blur"",""1"",""97573""
","""event"",""trial"",""time""
""focus"",""1"",""94677""
""focus"",""1"",""102048""
","""event"",""trial"",""time""
""fullscreenenter"",""1"",""102158""
","
","","","-1","","","20","8046","3966","&#9854;","elianto","#FFFFF080","-1","-1","1","&#10004","[]","0","0","1","","","","","","","",""
"pit-instructions","19","429683","0.0-2.0-7.0","battery-v0.2","","""event"",""trial"",""time""
""blur"",""1"",""4882""
""focus"",""1"",""94677""
""blur"",""1"",""97573""
""focus"",""1"",""102048""
""fullscreenenter"",""1"",""102158""
","""event"",""trial"",""time""
""blur"",""1"",""4882""
""blur"",""1"",""97573""
","""event"",""trial"",""time""
""focus"",""1"",""94677""
""focus"",""1"",""102048""
","""event"",""trial"",""time""
""fullscreenenter"",""1"",""102158""
","
","","[{""page_index"":0,""viewing_time"":8419.799999982119},{""page_index"":1,""viewing_time"":8944.59999999404},{""page_index"":2,""viewing_time"":8190.200000017881},{""page_index"":3,""viewing_time"":7910.0999999940395},{""page_index"":4,""viewing_time"":6478.699999988079},{""page_index"":5,""viewing_time"":6007.9000000059605},{""page_index"":6,""viewing_time"":5883.700000017881},{""page_index"":7,""viewing_time"":9090.09999999404},{""page_index"":8,""viewing_time"":8370.199999988079},{""page_index"":9,""viewing_time"":6581.200000017881},{""page_index"":10,""viewing_time"":6570},{""page_index"":11,""viewing_time"":5501.399999976158},{""page_index"":12,""viewing_time"":8045.100000023842},{""page_index"":13,""viewing_time"":9483.199999988079},{""page_index"":14,""viewing_time"":7323.9000000059605},{""page_index"":15,""viewing_time"":7908.5999999940395},{""page_index"":16,""viewing_time"":6873.699999988079},{""page_index"":17,""viewing_time"":7987.800000011921}]","135570.5","","","","","","","","","","","","","","","","","","","","","","","",""
"pit-trial","20","433519","0.0-2.0-8.0-0.0","battery-v0.2","","""event"",""trial"",""time""
""blur"",""1"",""4882""
""focus"",""1"",""94677""
""blur"",""1"",""97573""
""focus"",""1"",""102048""
""fullscreenenter"",""1"",""102158""
","""event"",""trial"",""time""
""blur"",""1"",""4882""
""blur"",""1"",""97573""
","""event"",""trial"",""time""
""focus"",""1"",""94677""
""focus"",""1"",""102048""
","""event"",""trial"",""time""
""fullscreenenter"",""1"",""102158""
","
","","","972.5999999940395","","","20","8046","3966","&#9776;","elianto","#3366ff99"," "," ","1","+10","[1830.199999988079]","1","0","1","","","","","","","",""
"pit-trial","21","437087","0.0-2.0-8.0-1.0","battery-v0.2","","""event"",""trial"",""time""
""blur"",""1"",""4882""
""focus"",""1"",""94677""
""blur"",""1"",""97573""
""focus"",""1"",""102048""
""fullscreenenter"",""1"",""102158""
","""event"",""trial"",""time""
""blur"",""1"",""4882""
""blur"",""1"",""97573""
","""event"",""trial"",""time""
""focus"",""1"",""94677""
""focus"",""1"",""102048""
","""event"",""trial"",""time""
""fullscreenenter"",""1"",""102158""
","
","","","704.8000000119209","","","20","8046","3966","&#9776;","elianto","#3366ff99"," "," ","1","+10","[1559.7999999821186]","1","0","1","","","","","","","",""
"pit-trial","22","440479","0.0-2.0-8.0-2.0","battery-v0.2","","""event"",""trial"",""time""
""blur"",""1"",""4882""
""focus"",""1"",""94677""
""blur"",""1"",""97573""
""focus"",""1"",""102048""
""fullscreenenter"",""1"",""102158""
","""event"",""trial"",""time""
""blur"",""1"",""4882""
""blur"",""1"",""97573""
","""event"",""trial"",""time""
""focus"",""1"",""94677""
""focus"",""1"",""102048""
","""event"",""trial"",""time""
""fullscreenenter"",""1"",""102158""
","
","","","529.4000000059605","","","20","8046","3966","&#9776;","elianto","#3366ff99"," "," ","1","+10","[1385.199999988079]","1","0","1","","","","","","","",""
"pit-trial","23","444061","0.0-2.0-8.0-3.0","battery-v0.2","","""event"",""trial"",""time""
""blur"",""1"",""4882""
""focus"",""1"",""94677""
""blur"",""1"",""97573""
""focus"",""1"",""102048""
""fullscreenenter"",""1"",""102158""
","""event"",""trial"",""time""
""blur"",""1"",""4882""
""blur"",""1"",""97573""
","""event"",""trial"",""time""
""focus"",""1"",""94677""
""focus"",""1"",""102048""
","""event"",""trial"",""time""
""fullscreenenter"",""1"",""102158""
","
","","","716.2999999821186","","","20","8046","3966","&#9776;","elianto","#3366ff99"," "," ","1","0","[1572.2999999821186]","1","0","1","","","","","","","",""
"pit-trial","24","447615","0.0-2.0-8.0-4.0","battery-v0.2","","""event"",""trial"",""time""
""blur"",""1"",""4882""
""focus"",""1"",""94677""
""blur"",""1"",""97573""
""focus"",""1"",""102048""
""fullscreenenter"",""1"",""102158""
","""event"",""trial"",""time""
""blur"",""1"",""4882""
""blur"",""1"",""97573""
","""event"",""trial"",""time""
""focus"",""1"",""94677""
""focus"",""1"",""102048""
","""event"",""trial"",""time""
""fullscreenenter"",""1"",""102158""
","
","","","692.3000000119209","","","20","8046","3966","&#9776;","elianto","#3366ff99"," "," ","1","+10","[1547.800000011921]","1","0","1","","","","","","","",""
"pit-trial","25","450936","0.0-2.0-8.1-0.1","battery-v0.2","","""event"",""trial"",""time""
""blur"",""1"",""4882""
""focus"",""1"",""94677""
""blur"",""1"",""97573""
""focus"",""1"",""102048""
""fullscreenenter"",""1"",""102158""
","""event"",""trial"",""time""
""blur"",""1"",""4882""
""blur"",""1"",""97573""
","""event"",""trial"",""time""
""focus"",""1"",""94677""
""focus"",""1"",""102048""
","""event"",""trial"",""time""
""fullscreenenter"",""1"",""102158""
","
","","","458.19999998807907","","","20","8046","3966","&#9776;","elianto","#3366ff99"," "," ","1","+10","[1312.5999999940395]","1","0","1","","","","","","","",""
"pit-trial","26","454495","0.0-2.0-8.1-1.1","battery-v0.2","","""event"",""trial"",""time""
""blur"",""1"",""4882""
""focus"",""1"",""94677""
""blur"",""1"",""97573""
""focus"",""1"",""102048""
""fullscreenenter"",""1"",""102158""
","""event"",""trial"",""time""
""blur"",""1"",""4882""
""blur"",""1"",""97573""
","""event"",""trial"",""time""
""focus"",""1"",""94677""
""focus"",""1"",""102048""
","""event"",""trial"",""time""
""fullscreenenter"",""1"",""102158""
","
","","","697.0999999940395","","","20","8046","3966","&#9776;","elianto","#3366ff99"," "," ","1","+10","[1552.7000000178814]","1","0","1","","","","","","","",""
"pit-trial","27","457780","0.0-2.0-8.1-2.1","battery-v0.2","","""event"",""trial"",""time""
""blur"",""1"",""4882""
""focus"",""1"",""94677""
""blur"",""1"",""97573""
""focus"",""1"",""102048""
""fullscreenenter"",""1"",""102158""
","""event"",""trial"",""time""
""blur"",""1"",""4882""
""blur"",""1"",""97573""
","""event"",""trial"",""time""
""focus"",""1"",""94677""
""focus"",""1"",""102048""
","""event"",""trial"",""time""
""fullscreenenter"",""1"",""102158""
","
","","","424.69999998807907","","","20","8046","3966","&#9776;","elianto","#3366ff99"," "," ","1","+10","[1280]","1","0","1","","","","","","","",""
"pit-trial","28","461179","0.0-2.0-8.1-3.1","battery-v0.2","","""event"",""trial"",""time""
""blur"",""1"",""4882""
""focus"",""1"",""94677""
""blur"",""1"",""97573""
""focus"",""1"",""102048""
""fullscreenenter"",""1"",""102158""
","""event"",""trial"",""time""
""blur"",""1"",""4882""
""blur"",""1"",""97573""
","""event"",""trial"",""time""
""focus"",""1"",""94677""
""focus"",""1"",""102048""
","""event"",""trial"",""time""
""fullscreenenter"",""1"",""102158""
","
","","","546.1000000238419","","","20","8046","3966","&#9776;","elianto","#3366ff99"," "," ","1","0","[1397.2999999821186]","1","0","1","","","","","","","",""
"pit-trial","29","464683","0.0-2.0-8.1-4.1","battery-v0.2","","""event"",""trial"",""time""
""blur"",""1"",""4882""
""focus"",""1"",""94677""
""blur"",""1"",""97573""
""focus"",""1"",""102048""
""fullscreenenter"",""1"",""102158""
","""event"",""trial"",""time""
""blur"",""1"",""4882""
""blur"",""1"",""97573""
","""event"",""trial"",""time""
""focus"",""1"",""94677""
""focus"",""1"",""102048""
","""event"",""trial"",""time""
""fullscreenenter"",""1"",""102158""
","
","","","651","","","20","8046","3966","&#9776;","elianto","#3366ff99"," "," ","1","+10","[1501.199999988079]","1","0","1","","","","","","","",""
"pit-trial","30","468296","0.0-2.0-8.2-0.2","battery-v0.2","","""event"",""trial"",""time""
""blur"",""1"",""4882""
""focus"",""1"",""94677""
""blur"",""1"",""97573""
""focus"",""1"",""102048""
""fullscreenenter"",""1"",""102158""
","""event"",""trial"",""time""
""blur"",""1"",""4882""
""blur"",""1"",""97573""
","""event"",""trial"",""time""
""focus"",""1"",""94677""
""focus"",""1"",""102048""
","""event"",""trial"",""time""
""fullscreenenter"",""1"",""102158""
","
","","","746.7999999821186","","","20","8046","3966","&#9776;","elianto","#3366ff99"," "," ","1","+10","[1597.199999988079]","1","0","1","","","","","","","",""
"pit-trial","31","471790","0.0-2.0-8.2-1.2","battery-v0.2","","""event"",""trial"",""time""
""blur"",""1"",""4882""
""focus"",""1"",""94677""
""blur"",""1"",""97573""
""focus"",""1"",""102048""
""fullscreenenter"",""1"",""102158""
","""event"",""trial"",""time""
""blur"",""1"",""4882""
""blur"",""1"",""97573""
","""event"",""trial"",""time""
""focus"",""1"",""94677""
""focus"",""1"",""102048""
","""event"",""trial"",""time""
""fullscreenenter"",""1"",""102158""
","
","","","641.0999999940395","","","20","8046","3966","&#9776;","elianto","#3366ff99"," "," ","1","+10","[1492]","1","0","1","","","","","","","",""
"pit-trial","32","475511","0.0-2.0-8.2-2.2","battery-v0.2","","""event"",""trial"",""time""
""blur"",""1"",""4882""
""focus"",""1"",""94677""
""blur"",""1"",""97573""
""focus"",""1"",""102048""
""fullscreenenter"",""1"",""102158""
","""event"",""trial"",""time""
""blur"",""1"",""4882""
""blur"",""1"",""97573""
","""event"",""trial"",""time""
""focus"",""1"",""94677""
""focus"",""1"",""102048""
","""event"",""trial"",""time""
""fullscreenenter"",""1"",""102158""
","
","","","867.3000000119209","","","20","8046","3966","&#9776;","elianto","#3366ff99"," "," ","1","+10","[1717.9000000059605]","1","0","1","","","","","","","",""
"pit-trial","33","479053","0.0-2.0-8.2-3.2","battery-v0.2","","""event"",""trial"",""time""
""blur"",""1"",""4882""
""focus"",""1"",""94677""
""blur"",""1"",""97573""
""focus"",""1"",""102048""
""fullscreenenter"",""1"",""102158""
","""event"",""trial"",""time""
""blur"",""1"",""4882""
""blur"",""1"",""97573""
","""event"",""trial"",""time""
""focus"",""1"",""94677""
""focus"",""1"",""102048""
","""event"",""trial"",""time""
""fullscreenenter"",""1"",""102158""
","
","","","688.3000000119209","","","20","8046","3966","&#9776;","elianto","#3366ff99"," "," ","1","0","[1539]","1","0","1","","","","","","","",""
"pit-trial","34","482581","0.0-2.0-8.2-4.2","battery-v0.2","","""event"",""trial"",""time""
""blur"",""1"",""4882""
""focus"",""1"",""94677""
""blur"",""1"",""97573""
""focus"",""1"",""102048""
""fullscreenenter"",""1"",""102158""
","""event"",""trial"",""time""
""blur"",""1"",""4882""
""blur"",""1"",""97573""
","""event"",""trial"",""time""
""focus"",""1"",""94677""
""focus"",""1"",""102048""
","""event"",""trial"",""time""
""fullscreenenter"",""1"",""102158""
","
","","","674.2000000178814","","","20","8046","3966","&#9776;","elianto","#3366ff99"," "," ","1","+10","[1525.2000000178814]","1","0","1","","","","","","","",""
"call-function","35","482584","0.0-2.0-9.0","battery-v0.2","","""event"",""trial"",""time""
""blur"",""1"",""4882""
""focus"",""1"",""94677""
""blur"",""1"",""97573""
""focus"",""1"",""102048""
""fullscreenenter"",""1"",""102158""
","""event"",""trial"",""time""
""blur"",""1"",""4882""
""blur"",""1"",""97573""
","""event"",""trial"",""time""
""focus"",""1"",""94677""
""focus"",""1"",""102048""
","""event"",""trial"",""time""
""fullscreenenter"",""1"",""102158""
","
","","","","","","","","","","","","","","","","","","","","","","","","","","",""
"pit-instructions","36","530510","0.0-2.0-10.0","battery-v0.2","","""event"",""trial"",""time""
""blur"",""1"",""4882""
""focus"",""1"",""94677""
""blur"",""1"",""97573""
""focus"",""1"",""102048""
""fullscreenenter"",""1"",""102158""
","""event"",""trial"",""time""
""blur"",""1"",""4882""
""blur"",""1"",""97573""
","""event"",""trial"",""time""
""focus"",""1"",""94677""
""focus"",""1"",""102048""
","""event"",""trial"",""time""
""fullscreenenter"",""1"",""102158""
","
","","[{""page_index"":0,""viewing_time"":7108.9000000059605},{""page_index"":1,""viewing_time"":8043.5},{""page_index"":2,""viewing_time"":13061.799999982119},{""page_index"":3,""viewing_time"":12060.600000023842},{""page_index"":4,""viewing_time"":7649.899999976158}]","47925.09999999404","","","","","","","","","","","","","","","","","","","","","","","",""
"pit-trial","37","533991","0.0-2.0-11.0-0.0","battery-v0.2","","""event"",""trial"",""time""
""blur"",""1"",""4882""
""focus"",""1"",""94677""
""blur"",""1"",""97573""
""focus"",""1"",""102048""
""fullscreenenter"",""1"",""102158""
","""event"",""trial"",""time""
""blur"",""1"",""4882""
""blur"",""1"",""97573""
","""event"",""trial"",""time""
""focus"",""1"",""94677""
""focus"",""1"",""102048""
","""event"",""trial"",""time""
""fullscreenenter"",""1"",""102158""
","
","","","616.5999999940395","","","20","8046","3966","&#9761;","elianto","#3366ff99","-1"," ","0","0","[1478.199999988079]","1","0","2","","","","","","","",""
"pit-trial","38","538856","0.0-2.0-11.0-1.0","battery-v0.2","","""event"",""trial"",""time""
""blur"",""1"",""4882""
""focus"",""1"",""94677""
""blur"",""1"",""97573""
""focus"",""1"",""102048""
""fullscreenenter"",""1"",""102158""
","""event"",""trial"",""time""
""blur"",""1"",""4882""
""blur"",""1"",""97573""
","""event"",""trial"",""time""
""focus"",""1"",""94677""
""focus"",""1"",""102048""
","""event"",""trial"",""time""
""fullscreenenter"",""1"",""102158""
","
","","","-1","","","20","8046","3966","&#9761;","elianto","#3366ff99","-1","-1","1","+10","[]","0","0","2","","","","","","","",""
"pit-trial","39","543720","0.0-2.0-11.0-2.0","battery-v0.2","","""event"",""trial"",""time""
""blur"",""1"",""4882""
""focus"",""1"",""94677""
""blur"",""1"",""97573""
""focus"",""1"",""102048""
""fullscreenenter"",""1"",""102158""
","""event"",""trial"",""time""
""blur"",""1"",""4882""
""blur"",""1"",""97573""
","""event"",""trial"",""time""
""focus"",""1"",""94677""
""focus"",""1"",""102048""
","""event"",""trial"",""time""
""fullscreenenter"",""1"",""102158""
","
","","","-1","","","20","8046","3966","&#9761;","elianto","#3366ff99","-1","-1","1","+10","[]","0","0","2","","","","","","","",""
"pit-trial","40","548591","0.0-2.0-11.0-3.0","battery-v0.2","","""event"",""trial"",""time""
""blur"",""1"",""4882""
""focus"",""1"",""94677""
""blur"",""1"",""97573""
""focus"",""1"",""102048""
""fullscreenenter"",""1"",""102158""
","""event"",""trial"",""time""
""blur"",""1"",""4882""
""blur"",""1"",""97573""
","""event"",""trial"",""time""
""focus"",""1"",""94677""
""focus"",""1"",""102048""
","""event"",""trial"",""time""
""fullscreenenter"",""1"",""102158""
","
","","","-1","","","20","8046","3966","&#9761;","elianto","#3366ff99","-1","-1","1","0","[]","0","0","2","","","","","","","",""
"pit-trial","41","553463","0.0-2.0-11.0-4.0","battery-v0.2","","""event"",""trial"",""time""
""blur"",""1"",""4882""
""focus"",""1"",""94677""
""blur"",""1"",""97573""
""focus"",""1"",""102048""
""fullscreenenter"",""1"",""102158""
","""event"",""trial"",""time""
""blur"",""1"",""4882""
""blur"",""1"",""97573""
","""event"",""trial"",""time""
""focus"",""1"",""94677""
""focus"",""1"",""102048""
","""event"",""trial"",""time""
""fullscreenenter"",""1"",""102158""
","
","","","-1","","","20","8046","3966","&#9761;","elianto","#3366ff99","-1","-1","1","+10","[]","0","0","2","","","","","","","",""
"pit-trial","42","558334","0.0-2.0-11.1-0.1","battery-v0.2","","""event"",""trial"",""time""
""blur"",""1"",""4882""
""focus"",""1"",""94677""
""blur"",""1"",""97573""
""focus"",""1"",""102048""
""fullscreenenter"",""1"",""102158""
","""event"",""trial"",""time""
""blur"",""1"",""4882""
""blur"",""1"",""97573""
","""event"",""trial"",""time""
""focus"",""1"",""94677""
""focus"",""1"",""102048""
","""event"",""trial"",""time""
""fullscreenenter"",""1"",""102158""
","
","","","-1","","","20","8046","3966","&#9761;","elianto","#3366ff99","-1","-1","1","+10","[]","0","0","2","","","","","","","",""
"pit-trial","43","563187","0.0-2.0-11.1-1.1","battery-v0.2","","""event"",""trial"",""time""
""blur"",""1"",""4882""
""focus"",""1"",""94677""
""blur"",""1"",""97573""
""focus"",""1"",""102048""
""fullscreenenter"",""1"",""102158""
","""event"",""trial"",""time""
""blur"",""1"",""4882""
""blur"",""1"",""97573""
","""event"",""trial"",""time""
""focus"",""1"",""94677""
""focus"",""1"",""102048""
","""event"",""trial"",""time""
""fullscreenenter"",""1"",""102158""
","
","","","-1","","","20","8046","3966","&#9761;","elianto","#3366ff99","-1","-1","1","+10","[]","0","0","2","","","","","","","",""
"pit-trial","44","568042","0.0-2.0-11.1-2.1","battery-v0.2","","""event"",""trial"",""time""
""blur"",""1"",""4882""
""focus"",""1"",""94677""
""blur"",""1"",""97573""
""focus"",""1"",""102048""
""fullscreenenter"",""1"",""102158""
","""event"",""trial"",""time""
""blur"",""1"",""4882""
""blur"",""1"",""97573""
","""event"",""trial"",""time""
""focus"",""1"",""94677""
""focus"",""1"",""102048""
","""event"",""trial"",""time""
""fullscreenenter"",""1"",""102158""
","
","","","-1","","","20","8046","3966","&#9761;","elianto","#3366ff99","-1","-1","1","+10","[]","0","0","2","","","","","","","",""
"pit-trial","45","572895","0.0-2.0-11.1-3.1","battery-v0.2","","""event"",""trial"",""time""
""blur"",""1"",""4882""
""focus"",""1"",""94677""
""blur"",""1"",""97573""
""focus"",""1"",""102048""
""fullscreenenter"",""1"",""102158""
","""event"",""trial"",""time""
""blur"",""1"",""4882""
""blur"",""1"",""97573""
","""event"",""trial"",""time""
""focus"",""1"",""94677""
""focus"",""1"",""102048""
","""event"",""trial"",""time""
""fullscreenenter"",""1"",""102158""
","
","","","-1","","","20","8046","3966","&#9761;","elianto","#3366ff99","-1","-1","1","0","[]","0","0","2","","","","","","","",""
"pit-trial","46","577747","0.0-2.0-11.1-4.1","battery-v0.2","","""event"",""trial"",""time""
""blur"",""1"",""4882""
""focus"",""1"",""94677""
""blur"",""1"",""97573""
""focus"",""1"",""102048""
""fullscreenenter"",""1"",""102158""
","""event"",""trial"",""time""
""blur"",""1"",""4882""
""blur"",""1"",""97573""
","""event"",""trial"",""time""
""focus"",""1"",""94677""
""focus"",""1"",""102048""
","""event"",""trial"",""time""
""fullscreenenter"",""1"",""102158""
","
","","","-1","","","20","8046","3966","&#9761;","elianto","#3366ff99","-1","-1","1","+10","[]","0","0","2","","","","","","","",""
"pit-trial","47","582601","0.0-2.0-11.2-0.2","battery-v0.2","","""event"",""trial"",""time""
""blur"",""1"",""4882""
""focus"",""1"",""94677""
""blur"",""1"",""97573""
""focus"",""1"",""102048""
""fullscreenenter"",""1"",""102158""
","""event"",""trial"",""time""
""blur"",""1"",""4882""
""blur"",""1"",""97573""
","""event"",""trial"",""time""
""focus"",""1"",""94677""
""focus"",""1"",""102048""
","""event"",""trial"",""time""
""fullscreenenter"",""1"",""102158""
","
","","","-1","","","20","8046","3966","&#9761;","elianto","#3366ff99","-1","-1","1","+10","[]","0","0","2","","","","","","","",""
"pit-trial","48","587455","0.0-2.0-11.2-1.2","battery-v0.2","","""event"",""trial"",""time""
""blur"",""1"",""4882""
""focus"",""1"",""94677""
""blur"",""1"",""97573""
""focus"",""1"",""102048""
""fullscreenenter"",""1"",""102158""
","""event"",""trial"",""time""
""blur"",""1"",""4882""
""blur"",""1"",""97573""
","""event"",""trial"",""time""
""focus"",""1"",""94677""
""focus"",""1"",""102048""
","""event"",""trial"",""time""
""fullscreenenter"",""1"",""102158""
","
","","","-1","","","20","8046","3966","&#9761;","elianto","#3366ff99","-1","-1","1","+10","[]","0","0","2","","","","","","","",""
"pit-trial","49","592309","0.0-2.0-11.2-2.2","battery-v0.2","","""event"",""trial"",""time""
""blur"",""1"",""4882""
""focus"",""1"",""94677""
""blur"",""1"",""97573""
""focus"",""1"",""102048""
""fullscreenenter"",""1"",""102158""
","""event"",""trial"",""time""
""blur"",""1"",""4882""
""blur"",""1"",""97573""
","""event"",""trial"",""time""
""focus"",""1"",""94677""
""focus"",""1"",""102048""
","""event"",""trial"",""time""
""fullscreenenter"",""1"",""102158""
","
","","","-1","","","20","8046","3966","&#9761;","elianto","#3366ff99","-1","-1","1","+10","[]","0","0","2","","","","","","","",""
"pit-trial","50","597162","0.0-2.0-11.2-3.2","battery-v0.2","","""event"",""trial"",""time""
""blur"",""1"",""4882""
""focus"",""1"",""94677""
""blur"",""1"",""97573""
""focus"",""1"",""102048""
""fullscreenenter"",""1"",""102158""
","""event"",""trial"",""time""
""blur"",""1"",""4882""
""blur"",""1"",""97573""
","""event"",""trial"",""time""
""focus"",""1"",""94677""
""focus"",""1"",""102048""
","""event"",""trial"",""time""
""fullscreenenter"",""1"",""102158""
","
","","","-1","","","20","8046","3966","&#9761;","elianto","#3366ff99","-1","-1","1","0","[]","0","0","2","","","","","","","",""
"pit-trial","51","602015","0.0-2.0-11.2-4.2","battery-v0.2","","""event"",""trial"",""time""
""blur"",""1"",""4882""
""focus"",""1"",""94677""
""blur"",""1"",""97573""
""focus"",""1"",""102048""
""fullscreenenter"",""1"",""102158""
","""event"",""trial"",""time""
""blur"",""1"",""4882""
""blur"",""1"",""97573""
","""event"",""trial"",""time""
""focus"",""1"",""94677""
""focus"",""1"",""102048""
","""event"",""trial"",""time""
""fullscreenenter"",""1"",""102158""
","
","","","-1","","","20","8046","3966","&#9761;","elianto","#3366ff99","-1","-1","1","+10","[]","0","0","2","","","","","","","",""
"pit-trial","52","606869","0.0-2.0-11.3-0.3","battery-v0.2","","""event"",""trial"",""time""
""blur"",""1"",""4882""
""focus"",""1"",""94677""
""blur"",""1"",""97573""
""focus"",""1"",""102048""
""fullscreenenter"",""1"",""102158""
","""event"",""trial"",""time""
""blur"",""1"",""4882""
""blur"",""1"",""97573""
","""event"",""trial"",""time""
""focus"",""1"",""94677""
""focus"",""1"",""102048""
","""event"",""trial"",""time""
""fullscreenenter"",""1"",""102158""
","
","","","-1","","","20","8046","3966","&#9761;","elianto","#3366ff99","-1","-1","1","+10","[]","0","0","2","","","","","","","",""
"pit-trial","53","611726","0.0-2.0-11.3-1.3","battery-v0.2","","""event"",""trial"",""time""
""blur"",""1"",""4882""
""focus"",""1"",""94677""
""blur"",""1"",""97573""
""focus"",""1"",""102048""
""fullscreenenter"",""1"",""102158""
","""event"",""trial"",""time""
""blur"",""1"",""4882""
""blur"",""1"",""97573""
","""event"",""trial"",""time""
""focus"",""1"",""94677""
""focus"",""1"",""102048""
","""event"",""trial"",""time""
""fullscreenenter"",""1"",""102158""
","
","","","-1","","","20","8046","3966","&#9761;","elianto","#3366ff99","-1","-1","1","+10","[]","0","0","2","","","","","","","",""
"pit-trial","54","616580","0.0-2.0-11.3-2.3","battery-v0.2","","""event"",""trial"",""time""
""blur"",""1"",""4882""
""focus"",""1"",""94677""
""blur"",""1"",""97573""
""focus"",""1"",""102048""
""fullscreenenter"",""1"",""102158""
","""event"",""trial"",""time""
""blur"",""1"",""4882""
""blur"",""1"",""97573""
","""event"",""trial"",""time""
""focus"",""1"",""94677""
""focus"",""1"",""102048""
","""event"",""trial"",""time""
""fullscreenenter"",""1"",""102158""
","
","","","-1","","","20","8046","3966","&#9761;","elianto","#3366ff99","-1","-1","1","+10","[]","0","0","2","","","","","","","",""
"pit-trial","55","621434","0.0-2.0-11.3-3.3","battery-v0.2","","""event"",""trial"",""time""
""blur"",""1"",""4882""
""focus"",""1"",""94677""
""blur"",""1"",""97573""
""focus"",""1"",""102048""
""fullscreenenter"",""1"",""102158""
","""event"",""trial"",""time""
""blur"",""1"",""4882""
""blur"",""1"",""97573""
","""event"",""trial"",""time""
""focus"",""1"",""94677""
""focus"",""1"",""102048""
","""event"",""trial"",""time""
""fullscreenenter"",""1"",""102158""
","
","","","-1","","","20","8046","3966","&#9761;","elianto","#3366ff99","-1","-1","1","0","[]","0","0","2","","","","","","","",""
"pit-trial","56","626289","0.0-2.0-11.3-4.3","battery-v0.2","","""event"",""trial"",""time""
""blur"",""1"",""4882""
""focus"",""1"",""94677""
""blur"",""1"",""97573""
""focus"",""1"",""102048""
""fullscreenenter"",""1"",""102158""
","""event"",""trial"",""time""
""blur"",""1"",""4882""
""blur"",""1"",""97573""
","""event"",""trial"",""time""
""focus"",""1"",""94677""
""focus"",""1"",""102048""
","""event"",""trial"",""time""
""fullscreenenter"",""1"",""102158""
","
","","","-1","","","20","8046","3966","&#9761;","elianto","#3366ff99","-1","-1","1","+10","[]","0","0","2","","","","","","","",""
"call-function","57","626291","0.0-2.0-12.0","battery-v0.2","","""event"",""trial"",""time""
""blur"",""1"",""4882""
""focus"",""1"",""94677""
""blur"",""1"",""97573""
""focus"",""1"",""102048""
""fullscreenenter"",""1"",""102158""
","""event"",""trial"",""time""
""blur"",""1"",""4882""
""blur"",""1"",""97573""
","""event"",""trial"",""time""
""focus"",""1"",""94677""
""focus"",""1"",""102048""
","""event"",""trial"",""time""
""fullscreenenter"",""1"",""102158""
","
","","","","","","","","","","","","","","","","","","","","","","","","","","",""
"pit-instructions","58","660284","0.0-2.0-13.0","battery-v0.2","","""event"",""trial"",""time""
""blur"",""1"",""4882""
""focus"",""1"",""94677""
""blur"",""1"",""97573""
""focus"",""1"",""102048""
""fullscreenenter"",""1"",""102158""
","""event"",""trial"",""time""
""blur"",""1"",""4882""
""blur"",""1"",""97573""
","""event"",""trial"",""time""
""focus"",""1"",""94677""
""focus"",""1"",""102048""
","""event"",""trial"",""time""
""fullscreenenter"",""1"",""102158""
","
","","[{""page_index"":0,""viewing_time"":6158.9000000059605},{""page_index"":1,""viewing_time"":7470.0999999940395},{""page_index"":2,""viewing_time"":4814.5999999940395},{""page_index"":3,""viewing_time"":10149},{""page_index"":4,""viewing_time"":5399.0999999940395}]","33992","","","","","","","","","","","","","","","","","","","","","","","",""
"pit-trial","59","663836","0.0-2.0-14.0-0.0","battery-v0.2","","""event"",""trial"",""time""
""blur"",""1"",""4882""
""focus"",""1"",""94677""
""blur"",""1"",""97573""
""focus"",""1"",""102048""
""fullscreenenter"",""1"",""102158""
","""event"",""trial"",""time""
""blur"",""1"",""4882""
""blur"",""1"",""97573""
","""event"",""trial"",""time""
""focus"",""1"",""94677""
""focus"",""1"",""102048""
","""event"",""trial"",""time""
""fullscreenenter"",""1"",""102158""
","
","","","689","","","20","8046","3966","&#9826;","elianto","#f73b6a7A","-1"," ","0","-10","[1545]","1","0","3","","","","","","","",""
"pit-trial","60","668701","0.0-2.0-14.0-1.0","battery-v0.2","","""event"",""trial"",""time""
""blur"",""1"",""4882""
""focus"",""1"",""94677""
""blur"",""1"",""97573""
""focus"",""1"",""102048""
""fullscreenenter"",""1"",""102158""
","""event"",""trial"",""time""
""blur"",""1"",""4882""
""blur"",""1"",""97573""
","""event"",""trial"",""time""
""focus"",""1"",""94677""
""focus"",""1"",""102048""
","""event"",""trial"",""time""
""fullscreenenter"",""1"",""102158""
","
","","","-1","","","20","8046","3966","&#9826;","elianto","#f73b6a7A","-1","-1","1","0","[]","0","0","3","","","","","","","",""
"pit-trial","61","673566","0.0-2.0-14.0-2.0","battery-v0.2","","""event"",""trial"",""time""
""blur"",""1"",""4882""
""focus"",""1"",""94677""
""blur"",""1"",""97573""
""focus"",""1"",""102048""
""fullscreenenter"",""1"",""102158""
","""event"",""trial"",""time""
""blur"",""1"",""4882""
""blur"",""1"",""97573""
","""event"",""trial"",""time""
""focus"",""1"",""94677""
""focus"",""1"",""102048""
","""event"",""trial"",""time""
""fullscreenenter"",""1"",""102158""
","
","","","-1","","","20","8046","3966","&#9826;","elianto","#f73b6a7A","-1","-1","1","0","[]","0","0","3","","","","","","","",""
"pit-trial","62","678432","0.0-2.0-14.0-3.0","battery-v0.2","","""event"",""trial"",""time""
""blur"",""1"",""4882""
""focus"",""1"",""94677""
""blur"",""1"",""97573""
""focus"",""1"",""102048""
""fullscreenenter"",""1"",""102158""
","""event"",""trial"",""time""
""blur"",""1"",""4882""
""blur"",""1"",""97573""
","""event"",""trial"",""time""
""focus"",""1"",""94677""
""focus"",""1"",""102048""
","""event"",""trial"",""time""
""fullscreenenter"",""1"",""102158""
","
","","","-1","","","20","8046","3966","&#9826;","elianto","#f73b6a7A","-1","-1","1","-10","[]","0","0","3","","","","","","","",""
"pit-trial","63","683309","0.0-2.0-14.0-4.0","battery-v0.2","","""event"",""trial"",""time""
""blur"",""1"",""4882""
""focus"",""1"",""94677""
""blur"",""1"",""97573""
""focus"",""1"",""102048""
""fullscreenenter"",""1"",""102158""
","""event"",""trial"",""time""
""blur"",""1"",""4882""
""blur"",""1"",""97573""
","""event"",""trial"",""time""
""focus"",""1"",""94677""
""focus"",""1"",""102048""
","""event"",""trial"",""time""
""fullscreenenter"",""1"",""102158""
","
","","","-1","","","20","8046","3966","&#9826;","elianto","#f73b6a7A","-1","-1","1","0","[]","0","0","3","","","","","","","",""
"pit-trial","64","688176","0.0-2.0-14.1-0.1","battery-v0.2","","""event"",""trial"",""time""
""blur"",""1"",""4882""
""focus"",""1"",""94677""
""blur"",""1"",""97573""
""focus"",""1"",""102048""
""fullscreenenter"",""1"",""102158""
","""event"",""trial"",""time""
""blur"",""1"",""4882""
""blur"",""1"",""97573""
","""event"",""trial"",""time""
""focus"",""1"",""94677""
""focus"",""1"",""102048""
","""event"",""trial"",""time""
""fullscreenenter"",""1"",""102158""
","
","","","-1","","","20","8046","3966","&#9826;","elianto","#f73b6a7A","-1","-1","1","0","[]","0","0","3","","","","","","","",""
"pit-trial","65","693029","0.0-2.0-14.1-1.1","battery-v0.2","","""event"",""trial"",""time""
""blur"",""1"",""4882""
""focus"",""1"",""94677""
""blur"",""1"",""97573""
""focus"",""1"",""102048""
""fullscreenenter"",""1"",""102158""
","""event"",""trial"",""time""
""blur"",""1"",""4882""
""blur"",""1"",""97573""
","""event"",""trial"",""time""
""focus"",""1"",""94677""
""focus"",""1"",""102048""
","""event"",""trial"",""time""
""fullscreenenter"",""1"",""102158""
","
","","","-1","","","20","8046","3966","&#9826;","elianto","#f73b6a7A","-1","-1","1","0","[]","0","0","3","","","","","","","",""
"pit-trial","66","697882","0.0-2.0-14.1-2.1","battery-v0.2","","""event"",""trial"",""time""
""blur"",""1"",""4882""
""focus"",""1"",""94677""
""blur"",""1"",""97573""
""focus"",""1"",""102048""
""fullscreenenter"",""1"",""102158""
","""event"",""trial"",""time""
""blur"",""1"",""4882""
""blur"",""1"",""97573""
","""event"",""trial"",""time""
""focus"",""1"",""94677""
""focus"",""1"",""102048""
","""event"",""trial"",""time""
""fullscreenenter"",""1"",""102158""
","
","","","-1","","","20","8046","3966","&#9826;","elianto","#f73b6a7A","-1","-1","1","0","[]","0","0","3","","","","","","","",""
"pit-trial","67","702735","0.0-2.0-14.1-3.1","battery-v0.2","","""event"",""trial"",""time""
""blur"",""1"",""4882""
""focus"",""1"",""94677""
""blur"",""1"",""97573""
""focus"",""1"",""102048""
""fullscreenenter"",""1"",""102158""
","""event"",""trial"",""time""
""blur"",""1"",""4882""
""blur"",""1"",""97573""
","""event"",""trial"",""time""
""focus"",""1"",""94677""
""focus"",""1"",""102048""
","""event"",""trial"",""time""
""fullscreenenter"",""1"",""102158""
","
","","","-1","","","20","8046","3966","&#9826;","elianto","#f73b6a7A","-1","-1","1","-10","[]","0","0","3","","","","","","","",""
"pit-trial","68","707588","0.0-2.0-14.1-4.1","battery-v0.2","","""event"",""trial"",""time""
""blur"",""1"",""4882""
""focus"",""1"",""94677""
""blur"",""1"",""97573""
""focus"",""1"",""102048""
""fullscreenenter"",""1"",""102158""
","""event"",""trial"",""time""
""blur"",""1"",""4882""
""blur"",""1"",""97573""
","""event"",""trial"",""time""
""focus"",""1"",""94677""
""focus"",""1"",""102048""
","""event"",""trial"",""time""
""fullscreenenter"",""1"",""102158""
","
","","","-1","","","20","8046","3966","&#9826;","elianto","#f73b6a7A","-1","-1","1","0","[]","0","0","3","","","","","","","",""
"pit-trial","69","712442","0.0-2.0-14.2-0.2","battery-v0.2","","""event"",""trial"",""time""
""blur"",""1"",""4882""
""focus"",""1"",""94677""
""blur"",""1"",""97573""
""focus"",""1"",""102048""
""fullscreenenter"",""1"",""102158""
","""event"",""trial"",""time""
""blur"",""1"",""4882""
""blur"",""1"",""97573""
","""event"",""trial"",""time""
""focus"",""1"",""94677""
""focus"",""1"",""102048""
","""event"",""trial"",""time""
""fullscreenenter"",""1"",""102158""
","
","","","-1","","","20","8046","3966","&#9826;","elianto","#f73b6a7A","-1","-1","1","0","[]","0","0","3","","","","","","","",""
"pit-trial","70","717296","0.0-2.0-14.2-1.2","battery-v0.2","","""event"",""trial"",""time""
""blur"",""1"",""4882""
""focus"",""1"",""94677""
""blur"",""1"",""97573""
""focus"",""1"",""102048""
""fullscreenenter"",""1"",""102158""
","""event"",""trial"",""time""
""blur"",""1"",""4882""
""blur"",""1"",""97573""
","""event"",""trial"",""time""
""focus"",""1"",""94677""
""focus"",""1"",""102048""
","""event"",""trial"",""time""
""fullscreenenter"",""1"",""102158""
","
","","","-1","","","20","8046","3966","&#9826;","elianto","#f73b6a7A","-1","-1","1","0","[]","0","0","3","","","","","","","",""
"pit-trial","71","722154","0.0-2.0-14.2-2.2","battery-v0.2","","""event"",""trial"",""time""
""blur"",""1"",""4882""
""focus"",""1"",""94677""
""blur"",""1"",""97573""
""focus"",""1"",""102048""
""fullscreenenter"",""1"",""102158""
","""event"",""trial"",""time""
""blur"",""1"",""4882""
""blur"",""1"",""97573""
","""event"",""trial"",""time""
""focus"",""1"",""94677""
""focus"",""1"",""102048""
","""event"",""trial"",""time""
""fullscreenenter"",""1"",""102158""
","
","","","-1","","","20","8046","3966","&#9826;","elianto","#f73b6a7A","-1","-1","1","0","[]","0","0","3","","","","","","","",""
"pit-trial","72","727009","0.0-2.0-14.2-3.2","battery-v0.2","","""event"",""trial"",""time""
""blur"",""1"",""4882""
""focus"",""1"",""94677""
""blur"",""1"",""97573""
""focus"",""1"",""102048""
""fullscreenenter"",""1"",""102158""
","""event"",""trial"",""time""
""blur"",""1"",""4882""
""blur"",""1"",""97573""
","""event"",""trial"",""time""
""focus"",""1"",""94677""
""focus"",""1"",""102048""
","""event"",""trial"",""time""
""fullscreenenter"",""1"",""102158""
","
","","","-1","","","20","8046","3966","&#9826;","elianto","#f73b6a7A","-1","-1","1","-10","[]","0","0","3","","","","","","","",""
"pit-trial","73","731863","0.0-2.0-14.2-4.2","battery-v0.2","","""event"",""trial"",""time""
""blur"",""1"",""4882""
""focus"",""1"",""94677""
""blur"",""1"",""97573""
""focus"",""1"",""102048""
""fullscreenenter"",""1"",""102158""
","""event"",""trial"",""time""
""blur"",""1"",""4882""
""blur"",""1"",""97573""
","""event"",""trial"",""time""
""focus"",""1"",""94677""
""focus"",""1"",""102048""
","""event"",""trial"",""time""
""fullscreenenter"",""1"",""102158""
","
","","","-1","","","20","8046","3966","&#9826;","elianto","#f73b6a7A","-1","-1","1","0","[]","0","0","3","","","","","","","",""
"pit-trial","74","736717","0.0-2.0-14.3-0.3","battery-v0.2","","""event"",""trial"",""time""
""blur"",""1"",""4882""
""focus"",""1"",""94677""
""blur"",""1"",""97573""
""focus"",""1"",""102048""
""fullscreenenter"",""1"",""102158""
","""event"",""trial"",""time""
""blur"",""1"",""4882""
""blur"",""1"",""97573""
","""event"",""trial"",""time""
""focus"",""1"",""94677""
""focus"",""1"",""102048""
","""event"",""trial"",""time""
""fullscreenenter"",""1"",""102158""
","
","","","-1","","","20","8046","3966","&#9826;","elianto","#f73b6a7A","-1","-1","1","0","[]","0","0","3","","","","","","","",""
"pit-trial","75","741570","0.0-2.0-14.3-1.3","battery-v0.2","","""event"",""trial"",""time""
""blur"",""1"",""4882""
""focus"",""1"",""94677""
""blur"",""1"",""97573""
""focus"",""1"",""102048""
""fullscreenenter"",""1"",""102158""
","""event"",""trial"",""time""
""blur"",""1"",""4882""
""blur"",""1"",""97573""
","""event"",""trial"",""time""
""focus"",""1"",""94677""
""focus"",""1"",""102048""
","""event"",""trial"",""time""
""fullscreenenter"",""1"",""102158""
","
","","","-1","","","20","8046","3966","&#9826;","elianto","#f73b6a7A","-1","-1","1","0","[]","0","0","3","","","","","","","",""
"pit-trial","76","746424","0.0-2.0-14.3-2.3","battery-v0.2","","""event"",""trial"",""time""
""blur"",""1"",""4882""
""focus"",""1"",""94677""
""blur"",""1"",""97573""
""focus"",""1"",""102048""
""fullscreenenter"",""1"",""102158""
","""event"",""trial"",""time""
""blur"",""1"",""4882""
""blur"",""1"",""97573""
","""event"",""trial"",""time""
""focus"",""1"",""94677""
""focus"",""1"",""102048""
","""event"",""trial"",""time""
""fullscreenenter"",""1"",""102158""
","
","","","-1","","","20","8046","3966","&#9826;","elianto","#f73b6a7A","-1","-1","1","0","[]","0","0","3","","","","","","","",""
"pit-trial","77","751277","0.0-2.0-14.3-3.3","battery-v0.2","","""event"",""trial"",""time""
""blur"",""1"",""4882""
""focus"",""1"",""94677""
""blur"",""1"",""97573""
""focus"",""1"",""102048""
""fullscreenenter"",""1"",""102158""
","""event"",""trial"",""time""
""blur"",""1"",""4882""
""blur"",""1"",""97573""
","""event"",""trial"",""time""
""focus"",""1"",""94677""
""focus"",""1"",""102048""
","""event"",""trial"",""time""
""fullscreenenter"",""1"",""102158""
","
","","","-1","","","20","8046","3966","&#9826;","elianto","#f73b6a7A","-1","-1","1","-10","[]","0","0","3","","","","","","","",""
"pit-trial","78","756132","0.0-2.0-14.3-4.3","battery-v0.2","","""event"",""trial"",""time""
""blur"",""1"",""4882""
""focus"",""1"",""94677""
""blur"",""1"",""97573""
""focus"",""1"",""102048""
""fullscreenenter"",""1"",""102158""
","""event"",""trial"",""time""
""blur"",""1"",""4882""
""blur"",""1"",""97573""
","""event"",""trial"",""time""
""focus"",""1"",""94677""
""focus"",""1"",""102048""
","""event"",""trial"",""time""
""fullscreenenter"",""1"",""102158""
","
","","","-1","","","20","8046","3966","&#9826;","elianto","#f73b6a7A","-1","-1","1","0","[]","0","0","3","","","","","","","",""
"call-function","79","756134","0.0-2.0-15.0","battery-v0.2","","""event"",""trial"",""time""
""blur"",""1"",""4882""
""focus"",""1"",""94677""
""blur"",""1"",""97573""
""focus"",""1"",""102048""
""fullscreenenter"",""1"",""102158""
","""event"",""trial"",""time""
""blur"",""1"",""4882""
""blur"",""1"",""97573""
","""event"",""trial"",""time""
""focus"",""1"",""94677""
""focus"",""1"",""102048""
","""event"",""trial"",""time""
""fullscreenenter"",""1"",""102158""
","
","","","","","","","","","","","","","","","","","","","","","","","","","","",""
"pit-instructions","80","783320","0.0-2.0-16.0","battery-v0.2","","""event"",""trial"",""time""
""blur"",""1"",""4882""
""focus"",""1"",""94677""
""blur"",""1"",""97573""
""focus"",""1"",""102048""
""fullscreenenter"",""1"",""102158""
","""event"",""trial"",""time""
""blur"",""1"",""4882""
""blur"",""1"",""97573""
","""event"",""trial"",""time""
""focus"",""1"",""94677""
""focus"",""1"",""102048""
","""event"",""trial"",""time""
""fullscreenenter"",""1"",""102158""
","
","","[{""page_index"":0,""viewing_time"":7046.699999988079},{""page_index"":1,""viewing_time"":9203.100000023842},{""page_index"":2,""viewing_time"":5208.799999982119},{""page_index"":3,""viewing_time"":5726}]","27184.80000001192","","","","","","","","","","","","","","","","","","","","","","","",""
"pit-trial","81","787284","0.0-2.0-17.0-0.0","battery-v0.2","","""event"",""trial"",""time""
""blur"",""1"",""4882""
""focus"",""1"",""94677""
""blur"",""1"",""97573""
""focus"",""1"",""102048""
""fullscreenenter"",""1"",""102158""
","""event"",""trial"",""time""
""blur"",""1"",""4882""
""blur"",""1"",""97573""
","""event"",""trial"",""time""
""focus"",""1"",""94677""
""focus"",""1"",""102048""
","""event"",""trial"",""time""
""fullscreenenter"",""1"",""102158""
","
","","","1107.2000000178814","","","20","8046","3966","&#9789;","elianto","#f73b6a7A"," "," ","1","0","[1959.2000000178814]","1","0","4","","","","","","","",""
"pit-trial","82","790670","0.0-2.0-17.0-1.0","battery-v0.2","","""event"",""trial"",""time""
""blur"",""1"",""4882""
""focus"",""1"",""94677""
""blur"",""1"",""97573""
""focus"",""1"",""102048""
""fullscreenenter"",""1"",""102158""
","""event"",""trial"",""time""
""blur"",""1"",""4882""
""blur"",""1"",""97573""
","""event"",""trial"",""time""
""focus"",""1"",""94677""
""focus"",""1"",""102048""
","""event"",""trial"",""time""
""fullscreenenter"",""1"",""102158""
","
","","","522.0999999940395","","","20","8046","3966","&#9789;","elianto","#f73b6a7A"," "," ","1","0","[1377]","1","0","4","","","","","","","",""
"pit-trial","83","794056","0.0-2.0-17.0-2.0","battery-v0.2","","""event"",""trial"",""time""
""blur"",""1"",""4882""
""focus"",""1"",""94677""
""blur"",""1"",""97573""
""focus"",""1"",""102048""
""fullscreenenter"",""1"",""102158""
","""event"",""trial"",""time""
""blur"",""1"",""4882""
""blur"",""1"",""97573""
","""event"",""trial"",""time""
""focus"",""1"",""94677""
""focus"",""1"",""102048""
","""event"",""trial"",""time""
""fullscreenenter"",""1"",""102158""
","
","","","523.2000000178814","","","20","8046","3966","&#9789;","elianto","#f73b6a7A"," "," ","1","0","[1379.5999999940395]","1","0","4","","","","","","","",""
"pit-trial","84","797545","0.0-2.0-17.0-3.0","battery-v0.2","","""event"",""trial"",""time""
""blur"",""1"",""4882""
""focus"",""1"",""94677""
""blur"",""1"",""97573""
""focus"",""1"",""102048""
""fullscreenenter"",""1"",""102158""
","""event"",""trial"",""time""
""blur"",""1"",""4882""
""blur"",""1"",""97573""
","""event"",""trial"",""time""
""focus"",""1"",""94677""
""focus"",""1"",""102048""
","""event"",""trial"",""time""
""fullscreenenter"",""1"",""102158""
","
","","","623.0999999940395","","","20","8046","3966","&#9789;","elianto","#f73b6a7A"," "," ","1","-10","[1478.699999988079]","1","0","4","","","","","","","",""
"pit-trial","85","800825","0.0-2.0-17.0-4.0","battery-v0.2","","""event"",""trial"",""time""
""blur"",""1"",""4882""
""focus"",""1"",""94677""
""blur"",""1"",""97573""
""focus"",""1"",""102048""
""fullscreenenter"",""1"",""102158""
","""event"",""trial"",""time""
""blur"",""1"",""4882""
""blur"",""1"",""97573""
","""event"",""trial"",""time""
""focus"",""1"",""94677""
""focus"",""1"",""102048""
","""event"",""trial"",""time""
""fullscreenenter"",""1"",""102158""
","
","","","414.80000001192093","","","20","8046","3966","&#9789;","elianto","#f73b6a7A"," "," ","1","0","[1271.1000000238419]","1","0","4","","","","","","","",""
"pit-trial","86","804165","0.0-2.0-17.1-0.1","battery-v0.2","","""event"",""trial"",""time""
""blur"",""1"",""4882""
""focus"",""1"",""94677""
""blur"",""1"",""97573""
""focus"",""1"",""102048""
""fullscreenenter"",""1"",""102158""
","""event"",""trial"",""time""
""blur"",""1"",""4882""
""blur"",""1"",""97573""
","""event"",""trial"",""time""
""focus"",""1"",""94677""
""focus"",""1"",""102048""
","""event"",""trial"",""time""
""fullscreenenter"",""1"",""102158""
","
","","","476","","","20","8046","3966","&#9789;","elianto","#f73b6a7A"," "," ","1","0","[1330.800000011921]","1","0","4","","","","","","","",""
"pit-trial","87","807512","0.0-2.0-17.1-1.1","battery-v0.2","","""event"",""trial"",""time""
""blur"",""1"",""4882""
""focus"",""1"",""94677""
""blur"",""1"",""97573""
""focus"",""1"",""102048""
""fullscreenenter"",""1"",""102158""
","""event"",""trial"",""time""
""blur"",""1"",""4882""
""blur"",""1"",""97573""
","""event"",""trial"",""time""
""focus"",""1"",""94677""
""focus"",""1"",""102048""
","""event"",""trial"",""time""
""fullscreenenter"",""1"",""102158""
","
","","","483.5","","","20","8046","3966","&#9789;","elianto","#f73b6a7A"," "," ","1","0","[1339.300000011921]","1","0","4","","","","","","","",""
"pit-trial","88","810869","0.0-2.0-17.1-2.1","battery-v0.2","","""event"",""trial"",""time""
""blur"",""1"",""4882""
""focus"",""1"",""94677""
""blur"",""1"",""97573""
""focus"",""1"",""102048""
""fullscreenenter"",""1"",""102158""
","""event"",""trial"",""time""
""blur"",""1"",""4882""
""blur"",""1"",""97573""
","""event"",""trial"",""time""
""focus"",""1"",""94677""
""focus"",""1"",""102048""
","""event"",""trial"",""time""
""fullscreenenter"",""1"",""102158""
","
","","","495.7999999821186","","","20","8046","3966","&#9789;","elianto","#f73b6a7A"," "," ","1","0","[1351.3999999761581]","1","0","4","","","","","","","",""
"pit-trial","89","814509","0.0-2.0-17.1-3.1","battery-v0.2","","""event"",""trial"",""time""
""blur"",""1"",""4882""
""focus"",""1"",""94677""
""blur"",""1"",""97573""
""focus"",""1"",""102048""
""fullscreenenter"",""1"",""102158""
","""event"",""trial"",""time""
""blur"",""1"",""4882""
""blur"",""1"",""97573""
","""event"",""trial"",""time""
""focus"",""1"",""94677""
""focus"",""1"",""102048""
","""event"",""trial"",""time""
""fullscreenenter"",""1"",""102158""
","
","","","782.2999999821186","","","20","8046","3966","&#9789;","elianto","#f73b6a7A"," "," ","1","-10","[1637.9000000059605]","1","0","4","","","","","","","",""
"pit-trial","90","817943","0.0-2.0-17.1-4.1","battery-v0.2","","""event"",""trial"",""time""
""blur"",""1"",""4882""
""focus"",""1"",""94677""
""blur"",""1"",""97573""
""focus"",""1"",""102048""
""fullscreenenter"",""1"",""102158""
","""event"",""trial"",""time""
""blur"",""1"",""4882""
""blur"",""1"",""97573""
","""event"",""trial"",""time""
""focus"",""1"",""94677""
""focus"",""1"",""102048""
","""event"",""trial"",""time""
""fullscreenenter"",""1"",""102158""
","
","","","580.5","","","20","8046","3966","&#9789;","elianto","#f73b6a7A"," "," ","1","0","[1430.7000000178814]","1","0","4","","","","","","","",""
"pit-trial","91","821622","0.0-2.0-17.2-0.2","battery-v0.2","","""event"",""trial"",""time""
""blur"",""1"",""4882""
""focus"",""1"",""94677""
""blur"",""1"",""97573""
""focus"",""1"",""102048""
""fullscreenenter"",""1"",""102158""
","""event"",""trial"",""time""
""blur"",""1"",""4882""
""blur"",""1"",""97573""
","""event"",""trial"",""time""
""focus"",""1"",""94677""
""focus"",""1"",""102048""
","""event"",""trial"",""time""
""fullscreenenter"",""1"",""102158""
","
","","","825.5999999940395","","","20","8046","3966","&#9789;","elianto","#f73b6a7A"," "," ","1","0","[1675.9000000059605]","1","0","4","","","","","","","",""
"pit-trial","92","825032","0.0-2.0-17.2-1.2","battery-v0.2","","""event"",""trial"",""time""
""blur"",""1"",""4882""
""focus"",""1"",""94677""
""blur"",""1"",""97573""
""focus"",""1"",""102048""
""fullscreenenter"",""1"",""102158""
","""event"",""trial"",""time""
""blur"",""1"",""4882""
""blur"",""1"",""97573""
","""event"",""trial"",""time""
""focus"",""1"",""94677""
""focus"",""1"",""102048""
","""event"",""trial"",""time""
""fullscreenenter"",""1"",""102158""
","
","","","556.2999999821186","","","20","8046","3966","&#9789;","elianto","#f73b6a7A"," "," ","1","0","[1407.300000011921]","1","0","4","","","","","","","",""
"pit-trial","93","828632","0.0-2.0-17.2-2.2","battery-v0.2","","""event"",""trial"",""time""
""blur"",""1"",""4882""
""focus"",""1"",""94677""
""blur"",""1"",""97573""
""focus"",""1"",""102048""
""fullscreenenter"",""1"",""102158""
","""event"",""trial"",""time""
""blur"",""1"",""4882""
""blur"",""1"",""97573""
","""event"",""trial"",""time""
""focus"",""1"",""94677""
""focus"",""1"",""102048""
","""event"",""trial"",""time""
""fullscreenenter"",""1"",""102158""
","
","","","744.7999999821186","","","20","8046","3966","&#9789;","elianto","#f73b6a7A"," "," ","1","0","[1595.7999999821186]","1","0","4","","","","","","","",""
"pit-trial","94","832149","0.0-2.0-17.2-3.2","battery-v0.2","","""event"",""trial"",""time""
""blur"",""1"",""4882""
""focus"",""1"",""94677""
""blur"",""1"",""97573""
""focus"",""1"",""102048""
""fullscreenenter"",""1"",""102158""
","""event"",""trial"",""time""
""blur"",""1"",""4882""
""blur"",""1"",""97573""
","""event"",""trial"",""time""
""focus"",""1"",""94677""
""focus"",""1"",""102048""
","""event"",""trial"",""time""
""fullscreenenter"",""1"",""102158""
","
","","","663.9000000059605","","","20","8046","3966","&#9789;","elianto","#f73b6a7A"," "," ","1","-10","[1514.5999999940395]","1","0","4","","","","","","","",""
"pit-trial","95","835890","0.0-2.0-17.2-4.2","battery-v0.2","","""event"",""trial"",""time""
""blur"",""1"",""4882""
""focus"",""1"",""94677""
""blur"",""1"",""97573""
""focus"",""1"",""102048""
""fullscreenenter"",""1"",""102158""
","""event"",""trial"",""time""
""blur"",""1"",""4882""
""blur"",""1"",""97573""
","""event"",""trial"",""time""
""focus"",""1"",""94677""
""focus"",""1"",""102048""
","""event"",""trial"",""time""
""fullscreenenter"",""1"",""102158""
","
","","","886.9000000059605","","","20","8046","3966","&#9789;","elianto","#f73b6a7A"," "," ","1","0","[1738.300000011921]","1","0","4","","","","","","","",""
"pit-trial","96","839223","0.0-2.0-17.3-0.3","battery-v0.2","","""event"",""trial"",""time""
""blur"",""1"",""4882""
""focus"",""1"",""94677""
""blur"",""1"",""97573""
""focus"",""1"",""102048""
""fullscreenenter"",""1"",""102158""
","""event"",""trial"",""time""
""blur"",""1"",""4882""
""blur"",""1"",""97573""
","""event"",""trial"",""time""
""focus"",""1"",""94677""
""focus"",""1"",""102048""
","""event"",""trial"",""time""
""fullscreenenter"",""1"",""102158""
","
","","","479","","","20","8046","3966","&#9789;","elianto","#f73b6a7A"," "," ","1","0","[1329.300000011921]","1","0","4","","","","","","","",""
"pit-trial","97","842633","0.0-2.0-17.3-1.3","battery-v0.2","","""event"",""trial"",""time""
""blur"",""1"",""4882""
""focus"",""1"",""94677""
""blur"",""1"",""97573""
""focus"",""1"",""102048""
""fullscreenenter"",""1"",""102158""
","""event"",""trial"",""time""
""blur"",""1"",""4882""
""blur"",""1"",""97573""
","""event"",""trial"",""time""
""focus"",""1"",""94677""
""focus"",""1"",""102048""
","""event"",""trial"",""time""
""fullscreenenter"",""1"",""102158""
","
","","","557.5999999940395","","","20","8046","3966","&#9789;","elianto","#f73b6a7A"," "," ","1","0","[1408.4000000059605]","1","0","4","","","","","","","",""
"pit-trial","98","846235","0.0-2.0-17.3-2.3","battery-v0.2","","""event"",""trial"",""time""
""blur"",""1"",""4882""
""focus"",""1"",""94677""
""blur"",""1"",""97573""
""focus"",""1"",""102048""
""fullscreenenter"",""1"",""102158""
","""event"",""trial"",""time""
""blur"",""1"",""4882""
""blur"",""1"",""97573""
","""event"",""trial"",""time""
""focus"",""1"",""94677""
""focus"",""1"",""102048""
","""event"",""trial"",""time""
""fullscreenenter"",""1"",""102158""
","
","","","748.8000000119209","","","20","8046","3966","&#9789;","elianto","#f73b6a7A"," "," ","1","0","[1599.0999999940395]","1","0","4","","","","","","","",""
"pit-trial","99","850338","0.0-2.0-17.3-3.3","battery-v0.2","","""event"",""trial"",""time""
""blur"",""1"",""4882""
""focus"",""1"",""94677""
""blur"",""1"",""97573""
""focus"",""1"",""102048""
""fullscreenenter"",""1"",""102158""
","""event"",""trial"",""time""
""blur"",""1"",""4882""
""blur"",""1"",""97573""
","""event"",""trial"",""time""
""focus"",""1"",""94677""
""focus"",""1"",""102048""
","""event"",""trial"",""time""
""fullscreenenter"",""1"",""102158""
","
","","","1249","","","20","8046","3966","&#9789;","elianto","#f73b6a7A"," "," ","1","-10","[2100]","1","0","4","","","","","","","",""
"pit-trial","100","853876","0.0-2.0-17.3-4.3","battery-v0.2","","""event"",""trial"",""time""
""blur"",""1"",""4882""
""focus"",""1"",""94677""
""blur"",""1"",""97573""
""focus"",""1"",""102048""
""fullscreenenter"",""1"",""102158""
","""event"",""trial"",""time""
""blur"",""1"",""4882""
""blur"",""1"",""97573""
","""event"",""trial"",""time""
""focus"",""1"",""94677""
""focus"",""1"",""102048""
","""event"",""trial"",""time""
""fullscreenenter"",""1"",""102158""
","
","","","685.9000000059605","","","20","8046","3966","&#9789;","elianto","#f73b6a7A"," "," ","1","0","[1536.199999988079]","1","0","4","","","","","","","",""
"call-function","101","853878","0.0-2.0-18.0","battery-v0.2","","""event"",""trial"",""time""
""blur"",""1"",""4882""
""focus"",""1"",""94677""
""blur"",""1"",""97573""
""focus"",""1"",""102048""
""fullscreenenter"",""1"",""102158""
","""event"",""trial"",""time""
""blur"",""1"",""4882""
""blur"",""1"",""97573""
","""event"",""trial"",""time""
""focus"",""1"",""94677""
""focus"",""1"",""102048""
","""event"",""trial"",""time""
""fullscreenenter"",""1"",""102158""
","
","","","","","","","","","","","","","","","","","","","","","","","","","","",""
"pit-instructions","102","931083","0.0-2.0-19.0","battery-v0.2","","""event"",""trial"",""time""
""blur"",""1"",""4882""
""focus"",""1"",""94677""
""blur"",""1"",""97573""
""focus"",""1"",""102048""
""fullscreenenter"",""1"",""102158""
","""event"",""trial"",""time""
""blur"",""1"",""4882""
""blur"",""1"",""97573""
","""event"",""trial"",""time""
""focus"",""1"",""94677""
""focus"",""1"",""102048""
","""event"",""trial"",""time""
""fullscreenenter"",""1"",""102158""
","
","","[{""page_index"":0,""viewing_time"":8756.399999976158},{""page_index"":1,""viewing_time"":6469},{""page_index"":2,""viewing_time"":13725.300000011921},{""page_index"":3,""viewing_time"":9202.90000000596},{""page_index"":4,""viewing_time"":9292.199999988079},{""page_index"":5,""viewing_time"":8640.5},{""page_index"":6,""viewing_time"":9832.90000000596},{""page_index"":7,""viewing_time"":7458.699999988079},{""page_index"":8,""viewing_time"":3825}]","77203.29999998212","","","","","","","","","","","","","","","","","","","","","","","",""
"pit-comprehension","103","935909","0.0-2.0-20.0-0.0","battery-v0.2","","""event"",""trial"",""time""
""blur"",""1"",""4882""
""focus"",""1"",""94677""
""blur"",""1"",""97573""
""focus"",""1"",""102048""
""fullscreenenter"",""1"",""102158""
","""event"",""trial"",""time""
""blur"",""1"",""4882""
""blur"",""1"",""97573""
","""event"",""trial"",""time""
""focus"",""1"",""94677""
""focus"",""1"",""102048""
","""event"",""trial"",""time""
""fullscreenenter"",""1"",""102158""
","
","","","4824.0999999940395","[""SPACE""]","0","20","8046","3966","","","","","","","","","","","","","","","","","","",""
"pit-instructions","104","938541","0.0-2.0-20.0-1.0","battery-v0.2","","""event"",""trial"",""time""
""blur"",""1"",""4882""
""focus"",""1"",""94677""
""blur"",""1"",""97573""
""focus"",""1"",""102048""
""fullscreenenter"",""1"",""102158""
","""event"",""trial"",""time""
""blur"",""1"",""4882""
""blur"",""1"",""97573""
","""event"",""trial"",""time""
""focus"",""1"",""94677""
""focus"",""1"",""102048""
","""event"",""trial"",""time""
""fullscreenenter"",""1"",""102158""
","
","","[{""page_index"":0,""viewing_time"":2597.7000000178814}]","2597.9000000059605","","","","","","","","","","","","","","","","","","","","","","","",""
"pit-comprehension","105","944290","0.0-2.0-21.0-0.0","battery-v0.2","","""event"",""trial"",""time""
""blur"",""1"",""4882""
""focus"",""1"",""94677""
""blur"",""1"",""97573""
""focus"",""1"",""102048""
""fullscreenenter"",""1"",""102158""
","""event"",""trial"",""time""
""blur"",""1"",""4882""
""blur"",""1"",""97573""
","""event"",""trial"",""time""
""focus"",""1"",""94677""
""focus"",""1"",""102048""
","""event"",""trial"",""time""
""fullscreenenter"",""1"",""102158""
","
","","","5747","[""10""]","0","20","8046","3966","","","","","","","","","","","","","","","","","","",""
"pit-instructions","106","948947","0.0-2.0-21.0-1.0","battery-v0.2","","""event"",""trial"",""time""
""blur"",""1"",""4882""
""focus"",""1"",""94677""
""blur"",""1"",""97573""
""focus"",""1"",""102048""
""fullscreenenter"",""1"",""102158""
","""event"",""trial"",""time""
""blur"",""1"",""4882""
""blur"",""1"",""97573""
","""event"",""trial"",""time""
""focus"",""1"",""94677""
""focus"",""1"",""102048""
","""event"",""trial"",""time""
""fullscreenenter"",""1"",""102158""
","
","","[{""page_index"":0,""viewing_time"":4628.0999999940395}]","4628.399999976158","","","","","","","","","","","","","","","","","","","","","","","",""
"pit-comprehension","107","955979","0.0-2.0-22.0-0.0","battery-v0.2","","""event"",""trial"",""time""
""blur"",""1"",""4882""
""focus"",""1"",""94677""
""blur"",""1"",""97573""
""focus"",""1"",""102048""
""fullscreenenter"",""1"",""102158""
","""event"",""trial"",""time""
""blur"",""1"",""4882""
""blur"",""1"",""97573""
","""event"",""trial"",""time""
""focus"",""1"",""94677""
""focus"",""1"",""102048""
","""event"",""trial"",""time""
""fullscreenenter"",""1"",""102158""
","
","","","7029.700000017881","[""0""]","0","20","8046","3966","","","","","","","","","","","","","","","","","","",""
"pit-instructions","108","959173","0.0-2.0-22.0-1.0","battery-v0.2","","""event"",""trial"",""time""
""blur"",""1"",""4882""
""focus"",""1"",""94677""
""blur"",""1"",""97573""
""focus"",""1"",""102048""
""fullscreenenter"",""1"",""102158""
","""event"",""trial"",""time""
""blur"",""1"",""4882""
""blur"",""1"",""97573""
","""event"",""trial"",""time""
""focus"",""1"",""94677""
""focus"",""1"",""102048""
","""event"",""trial"",""time""
""fullscreenenter"",""1"",""102158""
","
","","[{""page_index"":0,""viewing_time"":3164}]","3164.199999988079","","","","","","","","","","","","","","","","","","","","","","","",""
"pit-comprehension","109","970053","0.0-2.0-23.0-0.0","battery-v0.2","","""event"",""trial"",""time""
""blur"",""1"",""4882""
""focus"",""1"",""94677""
""blur"",""1"",""97573""
""focus"",""1"",""102048""
""fullscreenenter"",""1"",""102158""
","""event"",""trial"",""time""
""blur"",""1"",""4882""
""blur"",""1"",""97573""
","""event"",""trial"",""time""
""focus"",""1"",""94677""
""focus"",""1"",""102048""
","""event"",""trial"",""time""
""fullscreenenter"",""1"",""102158""
","
","","","10878.09999999404","[""True""]","0","20","8046","3966","","","","","","","","","","","","","","","","","","",""
"pit-instructions","110","972246","0.0-2.0-23.0-1.0","battery-v0.2","","""event"",""trial"",""time""
""blur"",""1"",""4882""
""focus"",""1"",""94677""
""blur"",""1"",""97573""
""focus"",""1"",""102048""
""fullscreenenter"",""1"",""102158""
","""event"",""trial"",""time""
""blur"",""1"",""4882""
""blur"",""1"",""97573""
","""event"",""trial"",""time""
""focus"",""1"",""94677""
""focus"",""1"",""102048""
","""event"",""trial"",""time""
""fullscreenenter"",""1"",""102158""
","
","","[{""page_index"":0,""viewing_time"":2162.4000000059605}]","2162.7000000178814","","","","","","","","","","","","","","","","","","","","","","","",""
"pit-comprehension","111","979740","0.0-2.0-24.0-0.0","battery-v0.2","","""event"",""trial"",""time""
""blur"",""1"",""4882""
""focus"",""1"",""94677""
""blur"",""1"",""97573""
""focus"",""1"",""102048""
""fullscreenenter"",""1"",""102158""
","""event"",""trial"",""time""
""blur"",""1"",""4882""
""blur"",""1"",""97573""
","""event"",""trial"",""time""
""focus"",""1"",""94677""
""focus"",""1"",""102048""
","""event"",""trial"",""time""
""fullscreenenter"",""1"",""102158""
","
","","","7492.199999988079","[""True""]","0","20","8046","3966","","","","","","","","","","","","","","","","","","",""
"pit-instructions","112","984329","0.0-2.0-24.0-1.0","battery-v0.2","","""event"",""trial"",""time""
""blur"",""1"",""4882""
""focus"",""1"",""94677""
""blur"",""1"",""97573""
""focus"",""1"",""102048""
""fullscreenenter"",""1"",""102158""
","""event"",""trial"",""time""
""blur"",""1"",""4882""
""blur"",""1"",""97573""
","""event"",""trial"",""time""
""focus"",""1"",""94677""
""focus"",""1"",""102048""
","""event"",""trial"",""time""
""fullscreenenter"",""1"",""102158""
","
","","[{""page_index"":0,""viewing_time"":4559.600000023842}]","4559.800000011921","","","","","","","","","","","","","","","","","","","","","","","",""
"pit-comprehension","113","991731","0.0-2.0-25.0-0.0","battery-v0.2","","""event"",""trial"",""time""
""blur"",""1"",""4882""
""focus"",""1"",""94677""
""blur"",""1"",""97573""
""focus"",""1"",""102048""
""fullscreenenter"",""1"",""102158""
","""event"",""trial"",""time""
""blur"",""1"",""4882""
""blur"",""1"",""97573""
","""event"",""trial"",""time""
""focus"",""1"",""94677""
""focus"",""1"",""102048""
","""event"",""trial"",""time""
""fullscreenenter"",""1"",""102158""
","
","","","7400.199999988079","[""True""]","0","20","8046","3966","","","","","","","","","","","","","","","","","","",""
"pit-instructions","114","993677","0.0-2.0-25.0-1.0","battery-v0.2","","""event"",""trial"",""time""
""blur"",""1"",""4882""
""focus"",""1"",""94677""
""blur"",""1"",""97573""
""focus"",""1"",""102048""
""fullscreenenter"",""1"",""102158""
","""event"",""trial"",""time""
""blur"",""1"",""4882""
""blur"",""1"",""97573""
","""event"",""trial"",""time""
""focus"",""1"",""94677""
""focus"",""1"",""102048""
","""event"",""trial"",""time""
""fullscreenenter"",""1"",""102158""
","
","","[{""page_index"":0,""viewing_time"":1915}]","1915.2999999821186","","","","","","","","","","","","","","","","","","","","","","","",""
"pit-comprehension","115","1000282","0.0-2.0-26.0-0.0","battery-v0.2","","""event"",""trial"",""time""
""blur"",""1"",""4882""
""focus"",""1"",""94677""
""blur"",""1"",""97573""
""focus"",""1"",""102048""
""fullscreenenter"",""1"",""102158""
","""event"",""trial"",""time""
""blur"",""1"",""4882""
""blur"",""1"",""97573""
","""event"",""trial"",""time""
""focus"",""1"",""94677""
""focus"",""1"",""102048""
","""event"",""trial"",""time""
""fullscreenenter"",""1"",""102158""
","
","","","6603.4000000059605","[""False""]","0","20","8046","3966","","","","","","","","","","","","","","","","","","",""
"pit-instructions","116","1001744","0.0-2.0-26.0-1.0","battery-v0.2","","""event"",""trial"",""time""
""blur"",""1"",""4882""
""focus"",""1"",""94677""
""blur"",""1"",""97573""
""focus"",""1"",""102048""
""fullscreenenter"",""1"",""102158""
","""event"",""trial"",""time""
""blur"",""1"",""4882""
""blur"",""1"",""97573""
","""event"",""trial"",""time""
""focus"",""1"",""94677""
""focus"",""1"",""102048""
","""event"",""trial"",""time""
""fullscreenenter"",""1"",""102158""
","
","","[{""page_index"":0,""viewing_time"":1428.0999999940395}]","1428.4000000059605","","","","","","","","","","","","","","","","","","","","","","","",""
"pit-instructions","117","1021780","0.0-3.0","battery-v0.2","","""event"",""trial"",""time""
""blur"",""1"",""4882""
""focus"",""1"",""94677""
""blur"",""1"",""97573""
""focus"",""1"",""102048""
""fullscreenenter"",""1"",""102158""
","""event"",""trial"",""time""
""blur"",""1"",""4882""
""blur"",""1"",""97573""
","""event"",""trial"",""time""
""focus"",""1"",""94677""
""focus"",""1"",""102048""
","""event"",""trial"",""time""
""fullscreenenter"",""1"",""102158""
","
","","[{""page_index"":0,""viewing_time"":4915.699999988079},{""page_index"":1,""viewing_time"":7469.0999999940395},{""page_index"":2,""viewing_time"":7650.0999999940395}]","20035.19999998808","","","","","","","","","","","","","","","","","","","","","","","",""
"pit-trial","118","1025533","0.0-4.0","battery-v0.2","","""event"",""trial"",""time""
""blur"",""1"",""4882""
""focus"",""1"",""94677""
""blur"",""1"",""97573""
""focus"",""1"",""102048""
""fullscreenenter"",""1"",""102158""
","""event"",""trial"",""time""
""blur"",""1"",""4882""
""blur"",""1"",""97573""
","""event"",""trial"",""time""
""focus"",""1"",""94677""
""focus"",""1"",""102048""
","""event"",""trial"",""time""
""fullscreenenter"",""1"",""102158""
","
","","","889.4000000059605","","","20","8046","3966","&#9728;","elianto","#f73b6a7A","-1"," ","0","-10","[1743.300000011921]","1","1","","","8046","1","0","4","lose","no-go","0"
"pit-trial","119","1029197","0.0-5.0","battery-v0.2","","""event"",""trial"",""time""
""blur"",""1"",""4882""
""focus"",""1"",""94677""
""blur"",""1"",""97573""
""focus"",""1"",""102048""
""fullscreenenter"",""1"",""102158""
","""event"",""trial"",""time""
""blur"",""1"",""4882""
""blur"",""1"",""97573""
","""event"",""trial"",""time""
""focus"",""1"",""94677""
""focus"",""1"",""102048""
","""event"",""trial"",""time""
""fullscreenenter"",""1"",""102158""
","
","","","799","","","20","8046","3966","&#9752;","elianto","#f73b6a7A"," "," ","1","0","[1654.800000011921]","1","1","","","8046","2","3","3","lose","go","0"
"pit-trial","120","1032889","0.0-6.0","battery-v0.2","","""event"",""trial"",""time""
""blur"",""1"",""4882""
""focus"",""1"",""94677""
""blur"",""1"",""97573""
""focus"",""1"",""102048""
""fullscreenenter"",""1"",""102158""
","""event"",""trial"",""time""
""blur"",""1"",""4882""
""blur"",""1"",""97573""
","""event"",""trial"",""time""
""focus"",""1"",""94677""
""focus"",""1"",""102048""
","""event"",""trial"",""time""
""fullscreenenter"",""1"",""102158""
","
","","","826.3000000119209","","","20","8046","3966","&#9730;","elianto","#3366ff99"," "," ","1","+10","[1681.5]","1","1","","","8046","3","1","1","win","go","0"
"pit-trial","121","1036629","0.0-7.0","battery-v0.2","","""event"",""trial"",""time""
""blur"",""1"",""4882""
""focus"",""1"",""94677""
""blur"",""1"",""97573""
""focus"",""1"",""102048""
""fullscreenenter"",""1"",""102158""
","""event"",""trial"",""time""
""blur"",""1"",""4882""
""blur"",""1"",""97573""
","""event"",""trial"",""time""
""focus"",""1"",""94677""
""focus"",""1"",""102048""
","""event"",""trial"",""time""
""fullscreenenter"",""1"",""102158""
","
","","","876.7999999821186","","","20","8046","3966","&#9733;","elianto","#3366ff99","-1"," ","0","0","[1732.199999988079]","1","1","","","8046","4","2","2","win","no-go","0"
"pit-trial","122","1040486","0.0-8.0","battery-v0.2","","""event"",""trial"",""time""
""blur"",""1"",""4882""
""focus"",""1"",""94677""
""blur"",""1"",""97573""
""focus"",""1"",""102048""
""fullscreenenter"",""1"",""102158""
","""event"",""trial"",""time""
""blur"",""1"",""4882""
""blur"",""1"",""97573""
","""event"",""trial"",""time""
""focus"",""1"",""94677""
""focus"",""1"",""102048""
","""event"",""trial"",""time""
""fullscreenenter"",""1"",""102158""
","
","","","998.8000000119209","","","20","8046","3966","&#9752;","elianto","#f73b6a7A"," "," ","1","0","[1854]","1","1","","","8046","5","3","3","lose","go","0"
"pit-trial","123","1045355","0.0-9.0","battery-v0.2","","""event"",""trial"",""time""
""blur"",""1"",""4882""
""focus"",""1"",""94677""
""blur"",""1"",""97573""
""focus"",""1"",""102048""
""fullscreenenter"",""1"",""102158""
","""event"",""trial"",""time""
""blur"",""1"",""4882""
""blur"",""1"",""97573""
","""event"",""trial"",""time""
""focus"",""1"",""94677""
""focus"",""1"",""102048""
","""event"",""trial"",""time""
""fullscreenenter"",""1"",""102158""
","
","","","-1","","","20","8046","3966","&#9728;","elianto","#f73b6a7A","-1","-1","1","0","[]","0","1","","","8046","6","0","4","lose","no-go","0"
"pit-trial","124","1050222","0.0-10.0","battery-v0.2","","""event"",""trial"",""time""
""blur"",""1"",""4882""
""focus"",""1"",""94677""
""blur"",""1"",""97573""
""focus"",""1"",""102048""
""fullscreenenter"",""1"",""102158""
","""event"",""trial"",""time""
""blur"",""1"",""4882""
""blur"",""1"",""97573""
","""event"",""trial"",""time""
""focus"",""1"",""94677""
""focus"",""1"",""102048""
","""event"",""trial"",""time""
""fullscreenenter"",""1"",""102158""
","
","","","-1","","","20","8046","3966","&#9733;","elianto","#3366ff99","-1","-1","1","+10","[]","0","1","","","8046","7","2","2","win","no-go","0"
"pit-trial","125","1053915","0.0-11.0","battery-v0.2","","""event"",""trial"",""time""
""blur"",""1"",""4882""
""focus"",""1"",""94677""
""blur"",""1"",""97573""
""focus"",""1"",""102048""
""fullscreenenter"",""1"",""102158""
","""event"",""trial"",""time""
""blur"",""1"",""4882""
""blur"",""1"",""97573""
","""event"",""trial"",""time""
""focus"",""1"",""94677""
""focus"",""1"",""102048""
","""event"",""trial"",""time""
""fullscreenenter"",""1"",""102158""
","
","","","833.6999999880791","","","20","8046","3966","&#9730;","elianto","#3366ff99"," "," ","1","+10","[1689.4000000059605]","1","1","","","8046","8","1","1","win","go","0"
"pit-trial","126","1057572","0.0-12.0","battery-v0.2","","""event"",""trial"",""time""
""blur"",""1"",""4882""
""focus"",""1"",""94677""
""blur"",""1"",""97573""
""focus"",""1"",""102048""
""fullscreenenter"",""1"",""102158""
","""event"",""trial"",""time""
""blur"",""1"",""4882""
""blur"",""1"",""97573""
","""event"",""trial"",""time""
""focus"",""1"",""94677""
""focus"",""1"",""102048""
","""event"",""trial"",""time""
""fullscreenenter"",""1"",""102158""
","
","","","803.4000000059605","","","20","8046","3966","&#9730;","elianto","#3366ff99"," "," ","1","+10","[1653.9000000059605]","1","1","","","8046","9","1","1","win","go","0"
"pit-trial","127","1062425","0.0-13.0","battery-v0.2","","""event"",""trial"",""time""
""blur"",""1"",""4882""
""focus"",""1"",""94677""
""blur"",""1"",""97573""
""focus"",""1"",""102048""
""fullscreenenter"",""1"",""102158""
","""event"",""trial"",""time""
""blur"",""1"",""4882""
""blur"",""1"",""97573""
","""event"",""trial"",""time""
""focus"",""1"",""94677""
""focus"",""1"",""102048""
","""event"",""trial"",""time""
""fullscreenenter"",""1"",""102158""
","
","","","-1","","","20","8046","3966","&#9728;","elianto","#f73b6a7A","-1","-1","1","-10","[]","0","1","","","8046","10","0","4","lose","no-go","1"
"pit-trial","128","1067280","0.0-14.0","battery-v0.2","","""event"",""trial"",""time""
""blur"",""1"",""4882""
""focus"",""1"",""94677""
""blur"",""1"",""97573""
""focus"",""1"",""102048""
""fullscreenenter"",""1"",""102158""
","""event"",""trial"",""time""
""blur"",""1"",""4882""
""blur"",""1"",""97573""
","""event"",""trial"",""time""
""focus"",""1"",""94677""
""focus"",""1"",""102048""
","""event"",""trial"",""time""
""fullscreenenter"",""1"",""102158""
","
","","","-1","","","20","8046","3966","&#9733;","elianto","#3366ff99","-1","-1","1","+10","[]","0","1","","","8046","11","2","2","win","no-go","0"
"pit-trial","129","1070858","0.0-15.0","battery-v0.2","","""event"",""trial"",""time""
""blur"",""1"",""4882""
""focus"",""1"",""94677""
""blur"",""1"",""97573""
""focus"",""1"",""102048""
""fullscreenenter"",""1"",""102158""
","""event"",""trial"",""time""
""blur"",""1"",""4882""
""blur"",""1"",""97573""
","""event"",""trial"",""time""
""focus"",""1"",""94677""
""focus"",""1"",""102048""
","""event"",""trial"",""time""
""fullscreenenter"",""1"",""102158""
","
","","","724.5","","","20","8046","3966","&#9752;","elianto","#f73b6a7A"," "," ","1","0","[1575.4000000059605]","1","1","","","8046","12","3","3","lose","go","0"
"pit-trial","130","1075721","0.0-16.0","battery-v0.2","","""event"",""trial"",""time""
""blur"",""1"",""4882""
""focus"",""1"",""94677""
""blur"",""1"",""97573""
""focus"",""1"",""102048""
""fullscreenenter"",""1"",""102158""
","""event"",""trial"",""time""
""blur"",""1"",""4882""
""blur"",""1"",""97573""
","""event"",""trial"",""time""
""focus"",""1"",""94677""
""focus"",""1"",""102048""
","""event"",""trial"",""time""
""fullscreenenter"",""1"",""102158""
","
","","","-1","","","20","8046","3966","&#9733;","elianto","#3366ff99","-1","-1","1","0","[]","0","1","","","8046","13","2","2","win","no-go","1"
"pit-trial","131","1079570","0.0-17.0","battery-v0.2","","""event"",""trial"",""time""
""blur"",""1"",""4882""
""focus"",""1"",""94677""
""blur"",""1"",""97573""
""focus"",""1"",""102048""
""fullscreenenter"",""1"",""102158""
","""event"",""trial"",""time""
""blur"",""1"",""4882""
""blur"",""1"",""97573""
","""event"",""trial"",""time""
""focus"",""1"",""94677""
""focus"",""1"",""102048""
","""event"",""trial"",""time""
""fullscreenenter"",""1"",""102158""
","
","","","995.0999999940395","","","20","8046","3966","&#9730;","elianto","#3366ff99"," "," ","1","+10","[1846]","1","1","","","8046","14","1","1","win","go","0"
"pit-trial","132","1083228","0.0-18.0","battery-v0.2","","""event"",""trial"",""time""
""blur"",""1"",""4882""
""focus"",""1"",""94677""
""blur"",""1"",""97573""
""focus"",""1"",""102048""
""fullscreenenter"",""1"",""102158""
","""event"",""trial"",""time""
""blur"",""1"",""4882""
""blur"",""1"",""97573""
","""event"",""trial"",""time""
""focus"",""1"",""94677""
""focus"",""1"",""102048""
","""event"",""trial"",""time""
""fullscreenenter"",""1"",""102158""
","
","","","804.4000000059605","","","20","8046","3966","&#9728;","elianto","#f73b6a7A","-1"," ","0","-10","[1655.199999988079]","1","1","","","8046","15","0","4","lose","no-go","0"
"pit-trial","133","1086680","0.0-19.0","battery-v0.2","","""event"",""trial"",""time""
""blur"",""1"",""4882""
""focus"",""1"",""94677""
""blur"",""1"",""97573""
""focus"",""1"",""102048""
""fullscreenenter"",""1"",""102158""
","""event"",""trial"",""time""
""blur"",""1"",""4882""
""blur"",""1"",""97573""
","""event"",""trial"",""time""
""focus"",""1"",""94677""
""focus"",""1"",""102048""
","""event"",""trial"",""time""
""fullscreenenter"",""1"",""102158""
","
","","","597.7000000178814","","","20","8046","3966","&#9752;","elianto","#f73b6a7A"," "," ","1","0","[1448.7000000178814]","1","1","","","8046","16","3","3","lose","go","0"
"pit-trial","134","1091533","0.0-20.0","battery-v0.2","","""event"",""trial"",""time""
""blur"",""1"",""4882""
""focus"",""1"",""94677""
""blur"",""1"",""97573""
""focus"",""1"",""102048""
""fullscreenenter"",""1"",""102158""
","""event"",""trial"",""time""
""blur"",""1"",""4882""
""blur"",""1"",""97573""
","""event"",""trial"",""time""
""focus"",""1"",""94677""
""focus"",""1"",""102048""
","""event"",""trial"",""time""
""fullscreenenter"",""1"",""102158""
","
","","","-1","","","20","8046","3966","&#9728;","elianto","#f73b6a7A","-1","-1","1","0","[]","0","1","","","8046","17","0","4","lose","no-go","0"
"pit-trial","135","1095161","0.0-21.0","battery-v0.2","","""event"",""trial"",""time""
""blur"",""1"",""4882""
""focus"",""1"",""94677""
""blur"",""1"",""97573""
""focus"",""1"",""102048""
""fullscreenenter"",""1"",""102158""
","""event"",""trial"",""time""
""blur"",""1"",""4882""
""blur"",""1"",""97573""
","""event"",""trial"",""time""
""focus"",""1"",""94677""
""focus"",""1"",""102048""
","""event"",""trial"",""time""
""fullscreenenter"",""1"",""102158""
","
","","","774","","","20","8046","3966","&#9730;","elianto","#3366ff99"," "," ","1","+10","[1624.9000000059605]","1","1","","","8046","18","1","1","win","go","0"
"pit-trial","136","1098723","0.0-22.0","battery-v0.2","","""event"",""trial"",""time""
""blur"",""1"",""4882""
""focus"",""1"",""94677""
""blur"",""1"",""97573""
""focus"",""1"",""102048""
""fullscreenenter"",""1"",""102158""
","""event"",""trial"",""time""
""blur"",""1"",""4882""
""blur"",""1"",""97573""
","""event"",""trial"",""time""
""focus"",""1"",""94677""
""focus"",""1"",""102048""
","""event"",""trial"",""time""
""fullscreenenter"",""1"",""102158""
","
","","","704.5999999940395","","","20","8046","3966","&#9752;","elianto","#f73b6a7A"," "," ","1","0","[1555.4000000059605]","1","1","","","8046","19","3","3","lose","go","0"
"pit-trial","137","1103578","0.0-23.0","battery-v0.2","","""event"",""trial"",""time""
""blur"",""1"",""4882""
""focus"",""1"",""94677""
""blur"",""1"",""97573""
""focus"",""1"",""102048""
""fullscreenenter"",""1"",""102158""
","""event"",""trial"",""time""
""blur"",""1"",""4882""
""blur"",""1"",""97573""
","""event"",""trial"",""time""
""focus"",""1"",""94677""
""focus"",""1"",""102048""
","""event"",""trial"",""time""
""fullscreenenter"",""1"",""102158""
","
","","","-1","","","20","8046","3966","&#9733;","elianto","#3366ff99","-1","-1","1","+10","[]","0","1","","","8046","20","2","2","win","no-go","0"
"pit-instructions","138","1116104","0.0-24.0","battery-v0.2","","""event"",""trial"",""time""
""blur"",""1"",""4882""
""focus"",""1"",""94677""
""blur"",""1"",""97573""
""focus"",""1"",""102048""
""fullscreenenter"",""1"",""102158""
","""event"",""trial"",""time""
""blur"",""1"",""4882""
""blur"",""1"",""97573""
","""event"",""trial"",""time""
""focus"",""1"",""94677""
""focus"",""1"",""102048""
","""event"",""trial"",""time""
""fullscreenenter"",""1"",""102158""
","
","","[{""page_index"":0,""viewing_time"":5651},{""page_index"":1,""viewing_time"":6873.800000011921}]","12525.09999999404","","","","","","","","","","","","","","","","","","","","","","","",""
"pit-trial","139","1119806","0.0-25.0","battery-v0.2","","""event"",""trial"",""time""
""blur"",""1"",""4882""
""focus"",""1"",""94677""
""blur"",""1"",""97573""
""focus"",""1"",""102048""
""fullscreenenter"",""1"",""102158""
","""event"",""trial"",""time""
""blur"",""1"",""4882""
""blur"",""1"",""97573""
","""event"",""trial"",""time""
""focus"",""1"",""94677""
""focus"",""1"",""102048""
","""event"",""trial"",""time""
""fullscreenenter"",""1"",""102158""
","
","","","836.5999999940395","","","20","8046","3966","w","elianto","#f73b6a7A"," "," ","1","0","[1692.199999988079]","1","2","","","8046","21","3","3","lose","go","0"
"pit-trial","140","1124676","0.0-26.0","battery-v0.2","","""event"",""trial"",""time""
""blur"",""1"",""4882""
""focus"",""1"",""94677""
""blur"",""1"",""97573""
""focus"",""1"",""102048""
""fullscreenenter"",""1"",""102158""
","""event"",""trial"",""time""
""blur"",""1"",""4882""
""blur"",""1"",""97573""
","""event"",""trial"",""time""
""focus"",""1"",""94677""
""focus"",""1"",""102048""
","""event"",""trial"",""time""
""fullscreenenter"",""1"",""102158""
","
","","","-1","","","20","8046","3966","j","elianto","#f73b6a7A","-1","-1","1","0","[]","0","2","","","8046","22","0","4","lose","no-go","0"
"pit-trial","141","1128611","0.0-27.0","battery-v0.2","","""event"",""trial"",""time""
""blur"",""1"",""4882""
""focus"",""1"",""94677""
""blur"",""1"",""97573""
""focus"",""1"",""102048""
""fullscreenenter"",""1"",""102158""
","""event"",""trial"",""time""
""blur"",""1"",""4882""
""blur"",""1"",""97573""
","""event"",""trial"",""time""
""focus"",""1"",""94677""
""focus"",""1"",""102048""
","""event"",""trial"",""time""
""fullscreenenter"",""1"",""102158""
","
","","","1071.7999999821186","","","20","8046","3966","d","elianto","#3366ff99"," "," ","1","+10","[1927.2999999821186]","1","2","","","8046","23","1","1","win","go","0"
"pit-trial","142","1132552","0.0-28.0","battery-v0.2","","""event"",""trial"",""time""
""blur"",""1"",""4882""
""focus"",""1"",""94677""
""blur"",""1"",""97573""
""focus"",""1"",""102048""
""fullscreenenter"",""1"",""102158""
","""event"",""trial"",""time""
""blur"",""1"",""4882""
""blur"",""1"",""97573""
","""event"",""trial"",""time""
""focus"",""1"",""94677""
""focus"",""1"",""102048""
","""event"",""trial"",""time""
""fullscreenenter"",""1"",""102158""
","
","","","1078.6000000238419","","","20","8046","3966","e","elianto","#f73b6a7A","-1"," ","0","-10","[1934.0999999940395]","1","2","","","8046","24","2","4","lose","no-go","0"
"pit-trial","143","1137425","0.0-29.0","battery-v0.2","","""event"",""trial"",""time""
""blur"",""1"",""4882""
""focus"",""1"",""94677""
""blur"",""1"",""97573""
""focus"",""1"",""102048""
""fullscreenenter"",""1"",""102158""
","""event"",""trial"",""time""
""blur"",""1"",""4882""
""blur"",""1"",""97573""
","""event"",""trial"",""time""
""focus"",""1"",""94677""
""focus"",""1"",""102048""
","""event"",""trial"",""time""
""fullscreenenter"",""1"",""102158""
","
","","","-1","","","20","8046","3966","j","elianto","#f73b6a7A","-1","-1","1","0","[]","0","2","","","8046","25","0","4","lose","no-go","0"
"pit-trial","144","1141165","0.0-30.0","battery-v0.2","","""event"",""trial"",""time""
""blur"",""1"",""4882""
""focus"",""1"",""94677""
""blur"",""1"",""97573""
""focus"",""1"",""102048""
""fullscreenenter"",""1"",""102158""
","""event"",""trial"",""time""
""blur"",""1"",""4882""
""blur"",""1"",""97573""
","""event"",""trial"",""time""
""focus"",""1"",""94677""
""focus"",""1"",""102048""
","""event"",""trial"",""time""
""fullscreenenter"",""1"",""102158""
","
","","","876.0999999940395","","","20","8046","3966","d","elianto","#3366ff99"," "," ","1","+10","[1731.199999988079]","1","2","","","8046","26","1","1","win","go","0"
"pit-trial","145","1144966","0.0-31.0","battery-v0.2","","""event"",""trial"",""time""
""blur"",""1"",""4882""
""focus"",""1"",""94677""
""blur"",""1"",""97573""
""focus"",""1"",""102048""
""fullscreenenter"",""1"",""102158""
","""event"",""trial"",""time""
""blur"",""1"",""4882""
""blur"",""1"",""97573""
","""event"",""trial"",""time""
""focus"",""1"",""94677""
""focus"",""1"",""102048""
","""event"",""trial"",""time""
""fullscreenenter"",""1"",""102158""
","
","","","938.0999999940395","","","20","8046","3966","w","elianto","#f73b6a7A"," "," ","1","0","[1793.4000000059605]","1","2","","","8046","27","3","3","lose","go","0"
"pit-trial","146","1149820","0.0-32.0","battery-v0.2","","""event"",""trial"",""time""
""blur"",""1"",""4882""
""focus"",""1"",""94677""
""blur"",""1"",""97573""
""focus"",""1"",""102048""
""fullscreenenter"",""1"",""102158""
","""event"",""trial"",""time""
""blur"",""1"",""4882""
""blur"",""1"",""97573""
","""event"",""trial"",""time""
""focus"",""1"",""94677""
""focus"",""1"",""102048""
","""event"",""trial"",""time""
""fullscreenenter"",""1"",""102158""
","
","","","-1","","","20","8046","3966","e","elianto","#f73b6a7A","-1","-1","1","-10","[]","0","2","","","8046","28","2","4","lose","no-go","1"
"pit-trial","147","1154043","0.0-33.0","battery-v0.2","","""event"",""trial"",""time""
""blur"",""1"",""4882""
""focus"",""1"",""94677""
""blur"",""1"",""97573""
""focus"",""1"",""102048""
""fullscreenenter"",""1"",""102158""
","""event"",""trial"",""time""
""blur"",""1"",""4882""
""blur"",""1"",""97573""
","""event"",""trial"",""time""
""focus"",""1"",""94677""
""focus"",""1"",""102048""
","""event"",""trial"",""time""
""fullscreenenter"",""1"",""102158""
","
","","","1370.7000000178814","","","20","8046","3966","d","elianto","#3366ff99"," "," ","1","+10","[2220.699999988079]","1","2","","","8046","29","1","1","win","go","0"
"pit-trial","148","1158897","0.0-34.0","battery-v0.2","","""event"",""trial"",""time""
""blur"",""1"",""4882""
""focus"",""1"",""94677""
""blur"",""1"",""97573""
""focus"",""1"",""102048""
""fullscreenenter"",""1"",""102158""
","""event"",""trial"",""time""
""blur"",""1"",""4882""
""blur"",""1"",""97573""
","""event"",""trial"",""time""
""focus"",""1"",""94677""
""focus"",""1"",""102048""
","""event"",""trial"",""time""
""fullscreenenter"",""1"",""102158""
","
","","","-1","","","20","8046","3966","e","elianto","#f73b6a7A","-1","-1","1","0","[]","0","2","","","8046","30","2","4","lose","no-go","0"
"pit-trial","149","1163751","0.0-35.0","battery-v0.2","","""event"",""trial"",""time""
""blur"",""1"",""4882""
""focus"",""1"",""94677""
""blur"",""1"",""97573""
""focus"",""1"",""102048""
""fullscreenenter"",""1"",""102158""
","""event"",""trial"",""time""
""blur"",""1"",""4882""
""blur"",""1"",""97573""
","""event"",""trial"",""time""
""focus"",""1"",""94677""
""focus"",""1"",""102048""
","""event"",""trial"",""time""
""fullscreenenter"",""1"",""102158""
","
","","","-1","","","20","8046","3966","j","elianto","#f73b6a7A","-1","-1","1","0","[]","0","2","","","8046","31","0","4","lose","no-go","0"
"pit-trial","150","1167286","0.0-36.0","battery-v0.2","","""event"",""trial"",""time""
""blur"",""1"",""4882""
""focus"",""1"",""94677""
""blur"",""1"",""97573""
""focus"",""1"",""102048""
""fullscreenenter"",""1"",""102158""
","""event"",""trial"",""time""
""blur"",""1"",""4882""
""blur"",""1"",""97573""
","""event"",""trial"",""time""
""focus"",""1"",""94677""
""focus"",""1"",""102048""
","""event"",""trial"",""time""
""fullscreenenter"",""1"",""102158""
","
","","","682.0999999940395","","","20","8046","3966","w","elianto","#f73b6a7A"," "," ","1","0","[1532.4000000059605]","1","2","","","8046","32","3","3","lose","go","0"
"pit-trial","151","1170856","0.0-37.0","battery-v0.2","","""event"",""trial"",""time""
""blur"",""1"",""4882""
""focus"",""1"",""94677""
""blur"",""1"",""97573""
""focus"",""1"",""102048""
""fullscreenenter"",""1"",""102158""
","""event"",""trial"",""time""
""blur"",""1"",""4882""
""blur"",""1"",""97573""
","""event"",""trial"",""time""
""focus"",""1"",""94677""
""focus"",""1"",""102048""
","""event"",""trial"",""time""
""fullscreenenter"",""1"",""102158""
","
","","","717.0999999940395","","","20","8046","3966","w","elianto","#f73b6a7A"," "," ","1","0","[1568.0999999940395]","1","2","","","8046","33","3","3","lose","go","0"
"pit-trial","152","1175710","0.0-38.0","battery-v0.2","","""event"",""trial"",""time""
""blur"",""1"",""4882""
""focus"",""1"",""94677""
""blur"",""1"",""97573""
""focus"",""1"",""102048""
""fullscreenenter"",""1"",""102158""
","""event"",""trial"",""time""
""blur"",""1"",""4882""
""blur"",""1"",""97573""
","""event"",""trial"",""time""
""focus"",""1"",""94677""
""focus"",""1"",""102048""
","""event"",""trial"",""time""
""fullscreenenter"",""1"",""102158""
","
","","","-1","","","20","8046","3966","e","elianto","#f73b6a7A","-1","-1","1","0","[]","0","2","","","8046","34","2","4","lose","no-go","0"
"pit-trial","153","1179297","0.0-39.0","battery-v0.2","","""event"",""trial"",""time""
""blur"",""1"",""4882""
""focus"",""1"",""94677""
""blur"",""1"",""97573""
""focus"",""1"",""102048""
""fullscreenenter"",""1"",""102158""
","""event"",""trial"",""time""
""blur"",""1"",""4882""
