"trial_type","trial_index","time_elapsed","internal_node_id","task_version","subject_id","interactions","blur_events","focus_events","fullscreenenter_events","fullscreenexit_events","success","view_history","rt","responses","num_errors","age","subject","participantId","rune","rune_set","hex","correct","choice","accuracy","outcome","keys","total_keys","block","practice","value","sub","trial","stimulus","robot","valence","action","sham"
"pavlovia","0","25","0.0-0.0","battery-v0.2","","""event"",""trial"",""time""
""fullscreenenter"",""1"",""1578""
","
","
","""event"",""trial"",""time""
""fullscreenenter"",""1"",""1578""
","
","","","","","","","","","","","","","","","","","","","","","","","","","","",""
"fullscreen","1","2517","0.0-1.0","battery-v0.2","","""event"",""trial"",""time""
""fullscreenenter"",""1"",""1578""
","
","
","""event"",""trial"",""time""
""fullscreenenter"",""1"",""1578""
","
","true","","","","","","","","","","","","","","","","","","","","","","","","","",""
"pit-instructions","2","16010","0.0-2.0-0.0","battery-v0.2","","""event"",""trial"",""time""
""fullscreenenter"",""1"",""1578""
","
","
","""event"",""trial"",""time""
""fullscreenenter"",""1"",""1578""
","
","","[{""page_index"":0,""viewing_time"":13486}]","13486.699999988079","","","","","","","","","","","","","","","","","","","","","","","",""
"pit-comprehension","3","22920","0.0-2.0-1.0-0.0","battery-v0.2","","""event"",""trial"",""time""
""fullscreenenter"",""1"",""1578""
","
","
","""event"",""trial"",""time""
""fullscreenenter"",""1"",""1578""
","
","","","6900.300000011921","[""shark""]","0","12","18604","6773","","","","","","","","","","","","","","","","","","",""
"pit-instructions","4","27659","0.0-2.0-1.0-1.0","battery-v0.2","","""event"",""trial"",""time""
""fullscreenenter"",""1"",""1578""
","
","
","""event"",""trial"",""time""
""fullscreenenter"",""1"",""1578""
","
","","[{""page_index"":0,""viewing_time"":4690.0999999940395}]","4690.699999988079","","","","","","","","","","","","","","","","","","","","","","","",""
"pit-comprehension","5","31701","0.0-2.0-2.0-0.0","battery-v0.2","","""event"",""trial"",""time""
""fullscreenenter"",""1"",""1578""
","
","
","""event"",""trial"",""time""
""fullscreenenter"",""1"",""1578""
","
","","","4034.7999999821186","[""tiger""]","0","12","18604","6773","","","","","","","","","","","","","","","","","","",""
"pit-instructions","6","37248","0.0-2.0-2.0-1.0","battery-v0.2","","""event"",""trial"",""time""
""fullscreenenter"",""1"",""1578""
","
","
","""event"",""trial"",""time""
""fullscreenenter"",""1"",""1578""
","
","","[{""page_index"":0,""viewing_time"":5538.799999982119}]","5539.4000000059605","","","","","","","","","","","","","","","","","","","","","","","",""
"pit-instructions","7","138387","0.0-2.0-3.0","battery-v0.2","","""event"",""trial"",""time""
""fullscreenenter"",""1"",""1578""
","
","
","""event"",""trial"",""time""
""fullscreenenter"",""1"",""1578""
","
","","[{""page_index"":0,""viewing_time"":7751.0999999940395},{""page_index"":1,""viewing_time"":7570.699999988079},{""page_index"":2,""viewing_time"":6749.300000011921},{""page_index"":3,""viewing_time"":8039.9000000059605},{""page_index"":4,""viewing_time"":5480.699999988079},{""page_index"":5,""viewing_time"":6510},{""page_index"":6,""viewing_time"":6860.199999988079},{""page_index"":7,""viewing_time"":6455.9000000059605},{""page_index"":8,""viewing_time"":7994.5},{""page_index"":9,""viewing_time"":8006.4000000059605},{""page_index"":10,""viewing_time"":8060.4000000059605},{""page_index"":11,""viewing_time"":9182.799999982119},{""page_index"":12,""viewing_time"":7270.100000023842},{""page_index"":13,""viewing_time"":5194.899999976158}]","101127.5","","","","","","","","","","","","","","","","","","","","","","","",""
"pit-trial","8","141877","0.0-2.0-4.0-0.0","battery-v0.2","","""event"",""trial"",""time""
""fullscreenenter"",""1"",""1578""
","
","
","""event"",""trial"",""time""
""fullscreenenter"",""1"",""1578""
","
","","","620.5999999940395","","","12","18604","6773","&#9784;","elianto","#FFFFF080"," "," ","1","&#10004","[1473]","1","0","0","","","","","","","",""
"pit-trial","9","145227","0.0-2.0-4.1-0.1","battery-v0.2","","""event"",""trial"",""time""
""fullscreenenter"",""1"",""1578""
","
","
","""event"",""trial"",""time""
""fullscreenenter"",""1"",""1578""
","
","","","481.60000002384186","","","12","18604","6773","&#9784;","elianto","#FFFFF080"," "," ","1","&#10004","[1333]","1","0","0","","","","","","","",""
"pit-trial","10","148457","0.0-2.0-4.2-0.2","battery-v0.2","","""event"",""trial"",""time""
""fullscreenenter"",""1"",""1578""
","
","
","""event"",""trial"",""time""
""fullscreenenter"",""1"",""1578""
","
","","","359.5","","","12","18604","6773","&#9784;","elianto","#FFFFF080"," "," ","1","&#10004","[1218.4000000059605]","1","0","0","","","","","","","",""
"pit-trial","11","152042","0.0-2.0-4.3-0.3","battery-v0.2","","""event"",""trial"",""time""
""fullscreenenter"",""1"",""1578""
","
","
","""event"",""trial"",""time""
""fullscreenenter"",""1"",""1578""
","
","","","716.7000000178814","","","12","18604","6773","&#9784;","elianto","#FFFFF080"," "," ","1","&#10004","[1569]","1","0","0","","","","","","","",""
"pit-trial","12","155433","0.0-2.0-4.4-0.4","battery-v0.2","","""event"",""trial"",""time""
""fullscreenenter"",""1"",""1578""
","
","
","""event"",""trial"",""time""
""fullscreenenter"",""1"",""1578""
","
","","","525.4000000059605","","","12","18604","6773","&#9784;","elianto","#FFFFF080"," "," ","1","&#10004","[1379.4000000059605]","1","0","0","","","","","","","",""
"pit-instructions","13","178769","0.0-2.0-5.0","battery-v0.2","","""event"",""trial"",""time""
""fullscreenenter"",""1"",""1578""
","
","
","""event"",""trial"",""time""
""fullscreenenter"",""1"",""1578""
","
","","[{""page_index"":0,""viewing_time"":6982.0999999940395},{""page_index"":1,""viewing_time"":6333.700000017881},{""page_index"":2,""viewing_time"":4957.299999982119},{""page_index"":3,""viewing_time"":5057.200000017881}]","23331","","","","","","","","","","","","","","","","","","","","","","","",""
"pit-trial","14","183653","0.0-2.0-6.0-0.0","battery-v0.2","","""event"",""trial"",""time""
""fullscreenenter"",""1"",""1578""
","
","
","""event"",""trial"",""time""
""fullscreenenter"",""1"",""1578""
","
","","","-1","","","12","18604","6773","&#9854;","elianto","#FFFFF080","-1","-1","1","&#10004","[]","0","0","1","","","","","","","",""
"pit-trial","15","188533","0.0-2.0-6.1-0.1","battery-v0.2","","""event"",""trial"",""time""
""fullscreenenter"",""1"",""1578""
","
","
","""event"",""trial"",""time""
""fullscreenenter"",""1"",""1578""
","
","","","-1","","","12","18604","6773","&#9854;","elianto","#FFFFF080","-1","-1","1","&#10004","[]","0","0","1","","","","","","","",""
"pit-trial","16","193397","0.0-2.0-6.2-0.2","battery-v0.2","","""event"",""trial"",""time""
""fullscreenenter"",""1"",""1578""
","
","
","""event"",""trial"",""time""
""fullscreenenter"",""1"",""1578""
","
","","","-1","","","12","18604","6773","&#9854;","elianto","#FFFFF080","-1","-1","1","&#10004","[]","0","0","1","","","","","","","",""
"pit-trial","17","198261","0.0-2.0-6.3-0.3","battery-v0.2","","""event"",""trial"",""time""
""fullscreenenter"",""1"",""1578""
","
","
","""event"",""trial"",""time""
""fullscreenenter"",""1"",""1578""
","
","","","-1","","","12","18604","6773","&#9854;","elianto","#FFFFF080","-1","-1","1","&#10004","[]","0","0","1","","","","","","","",""
"pit-trial","18","203132","0.0-2.0-6.4-0.4","battery-v0.2","","""event"",""trial"",""time""
""fullscreenenter"",""1"",""1578""
","
","
","""event"",""trial"",""time""
""fullscreenenter"",""1"",""1578""
","
","","","-1","","","12","18604","6773","&#9854;","elianto","#FFFFF080","-1","-1","1","&#10004","[]","0","0","1","","","","","","","",""
"pit-instructions","19","330664","0.0-2.0-7.0","battery-v0.2","","""event"",""trial"",""time""
""fullscreenenter"",""1"",""1578""
","
","
","""event"",""trial"",""time""
""fullscreenenter"",""1"",""1578""
","
","","[{""page_index"":0,""viewing_time"":5906.299999982119},{""page_index"":1,""viewing_time"":7229.9000000059605},{""page_index"":2,""viewing_time"":6839.199999988079},{""page_index"":3,""viewing_time"":6341.300000011921},{""page_index"":4,""viewing_time"":5043.9000000059605},{""page_index"":5,""viewing_time"":5810.0999999940395},{""page_index"":6,""viewing_time"":6437.300000011921},{""page_index"":7,""viewing_time"":7161.5999999940395},{""page_index"":8,""viewing_time"":8015.799999982119},{""page_index"":9,""viewing_time"":7112.9000000059605},{""page_index"":10,""viewing_time"":7086.200000017881},{""page_index"":11,""viewing_time"":5017.399999976158},{""page_index"":12,""viewing_time"":10847.300000011921},{""page_index"":13,""viewing_time"":6553.9000000059605},{""page_index"":14,""viewing_time"":9695.199999988079},{""page_index"":15,""viewing_time"":8151.700000017881},{""page_index"":16,""viewing_time"":7564.0999999940395},{""page_index"":17,""viewing_time"":6711.799999982119}]","127526.39999997616","","","","","","","","","","","","","","","","","","","","","","","",""
"pit-trial","20","334302","0.0-2.0-8.0-0.0","battery-v0.2","","""event"",""trial"",""time""
""fullscreenenter"",""1"",""1578""
","
","
","""event"",""trial"",""time""
""fullscreenenter"",""1"",""1578""
","
","","","770.1000000238419","","","12","18604","6773","&#9776;","elianto","#3366ff99"," "," ","1","+10","[1624.5999999940395]","1","0","1","","","","","","","",""
"pit-trial","21","337831","0.0-2.0-8.0-1.0","battery-v0.2","","""event"",""trial"",""time""
""fullscreenenter"",""1"",""1578""
","
","
","""event"",""trial"",""time""
""fullscreenenter"",""1"",""1578""
","
","","","662.6999999880791","","","12","18604","6773","&#9776;","elianto","#3366ff99"," "," ","1","+10","[1519]","1","0","1","","","","","","","",""
"pit-trial","22","341287","0.0-2.0-8.0-2.0","battery-v0.2","","""event"",""trial"",""time""
""fullscreenenter"",""1"",""1578""
","
","
","""event"",""trial"",""time""
""fullscreenenter"",""1"",""1578""
","
","","","595.1999999880791","","","12","18604","6773","&#9776;","elianto","#3366ff99"," "," ","1","+10","[1446.2999999821186,1736.3999999761581]","2","0","1","","","","","","","",""
"pit-trial","23","344722","0.0-2.0-8.0-3.0","battery-v0.2","","""event"",""trial"",""time""
""fullscreenenter"",""1"",""1578""
","
","
","""event"",""trial"",""time""
""fullscreenenter"",""1"",""1578""
","
","","","562.2999999821186","","","12","18604","6773","&#9776;","elianto","#3366ff99"," "," ","1","0","[1418.5999999940395]","1","0","1","","","","","","","",""
"pit-trial","24","348181","0.0-2.0-8.0-4.0","battery-v0.2","","""event"",""trial"",""time""
""fullscreenenter"",""1"",""1578""
","
","
","""event"",""trial"",""time""
""fullscreenenter"",""1"",""1578""
","
","","","591.5999999940395","","","12","18604","6773","&#9776;","elianto","#3366ff99"," "," ","1","+10","[496.59999999403954,1443.5]","2","0","1","","","","","","","",""
"pit-trial","25","351774","0.0-2.0-8.1-0.1","battery-v0.2","","""event"",""trial"",""time""
""fullscreenenter"",""1"",""1578""
","
","
","""event"",""trial"",""time""
""fullscreenenter"",""1"",""1578""
","
","","","724.1000000238419","","","12","18604","6773","&#9776;","elianto","#3366ff99"," "," ","1","+10","[1579.300000011921]","1","0","1","","","","","","","",""
"pit-trial","26","354738","0.0-2.0-8.1-1.1","battery-v0.2","","""event"",""trial"",""time""
""fullscreenenter"",""1"",""1578""
","
","
","""event"",""trial"",""time""
""fullscreenenter"",""1"",""1578""
","
","","","96.7999999821186","","","12","18604","6773","&#9776;","elianto","#3366ff99"," "," ","1","+10","[947.2999999821186]","1","0","1","","","","","","","",""
"pit-trial","27","358102","0.0-2.0-8.1-2.1","battery-v0.2","","""event"",""trial"",""time""
""fullscreenenter"",""1"",""1578""
","
","
","""event"",""trial"",""time""
""fullscreenenter"",""1"",""1578""
","
","","","504.39999997615814","","","12","18604","6773","&#9776;","elianto","#3366ff99"," "," ","1","+10","[1355]","1","0","1","","","","","","","",""
"pit-trial","28","362469","0.0-2.0-8.1-3.1","battery-v0.2","","""event"",""trial"",""time""
""fullscreenenter"",""1"",""1578""
","
","
","""event"",""trial"",""time""
""fullscreenenter"",""1"",""1578""
","
","","","1510.0999999940395","","","12","18604","6773","&#9776;","elianto","#3366ff99"," "," ","1","0","[2361.199999988079]","1","0","1","","","","","","","",""
"pit-trial","29","365358","0.0-2.0-8.1-4.1","battery-v0.2","","""event"",""trial"",""time""
""fullscreenenter"",""1"",""1578""
","
","
","""event"",""trial"",""time""
""fullscreenenter"",""1"",""1578""
","
","","","25.099999994039536","","","12","18604","6773","&#9776;","elianto","#3366ff99"," "," ","1","+10","[882.5999999940395,1244.7999999821186,1567.4000000059605]","3","0","1","","","","","","","",""
"pit-trial","30","370040","0.0-2.0-8.2-0.2","battery-v0.2","","""event"",""trial"",""time""
""fullscreenenter"",""1"",""1578""
","
","
","""event"",""trial"",""time""
""fullscreenenter"",""1"",""1578""
","
","","","1822.2999999821186","","","12","18604","6773","&#9776;","elianto","#3366ff99"," "," ","1","+10","[2672.699999988079,2924.699999988079,3127.199999988079,3360.5999999940395,3556.9000000059605]","5","0","1","","","","","","","",""
"pit-trial","31","373297","0.0-2.0-8.2-1.2","battery-v0.2","","""event"",""trial"",""time""
""fullscreenenter"",""1"",""1578""
","
","
","""event"",""trial"",""time""
""fullscreenenter"",""1"",""1578""
","
","","","401.5","","","12","18604","6773","&#9776;","elianto","#3366ff99"," "," ","1","+10","[1252.2000000178814]","1","0","1","","","","","","","",""
"pit-trial","32","377077","0.0-2.0-8.2-2.2","battery-v0.2","","""event"",""trial"",""time""
""fullscreenenter"",""1"",""1578""
","
","
","""event"",""trial"",""time""
""fullscreenenter"",""1"",""1578""
","
","","","907.9000000059605","","","12","18604","6773","&#9776;","elianto","#3366ff99"," "," ","1","+10","[1760]","1","0","1","","","","","","","",""
"pit-trial","33","380843","0.0-2.0-8.2-3.2","battery-v0.2","","""event"",""trial"",""time""
""fullscreenenter"",""1"",""1578""
","
","
","""event"",""trial"",""time""
""fullscreenenter"",""1"",""1578""
","
","","","905.3000000119209","","","12","18604","6773","&#9776;","elianto","#3366ff99"," "," ","1","0","[609.2999999821186,1757.5]","2","0","1","","","","","","","",""
"pit-trial","34","384136","0.0-2.0-8.2-4.2","battery-v0.2","","""event"",""trial"",""time""
""fullscreenenter"",""1"",""1578""
","
","
","""event"",""trial"",""time""
""fullscreenenter"",""1"",""1578""
","
","","","434.89999997615814","","","12","18604","6773","&#9776;","elianto","#3366ff99"," "," ","1","+10","[1285.2999999821186]","1","0","1","","","","","","","",""
"call-function","35","384140","0.0-2.0-9.0","battery-v0.2","","""event"",""trial"",""time""
""fullscreenenter"",""1"",""1578""
","
","
","""event"",""trial"",""time""
""fullscreenenter"",""1"",""1578""
","
","","","","","","","","","","","","","","","","","","","","","","","","","","",""
"pit-instructions","36","434090","0.0-2.0-10.0","battery-v0.2","","""event"",""trial"",""time""
""fullscreenenter"",""1"",""1578""
","
","
","""event"",""trial"",""time""
""fullscreenenter"",""1"",""1578""
","
","","[{""page_index"":0,""viewing_time"":9380.40000000596},{""page_index"":1,""viewing_time"":12397},{""page_index"":2,""viewing_time"":11766.799999982119},{""page_index"":3,""viewing_time"":9230.5},{""page_index"":4,""viewing_time"":7173.9000000059605}]","49948.90000000596","","","","","","","","","","","","","","","","","","","","","","","",""
"pit-trial","37","438119","0.0-2.0-11.0-0.0","battery-v0.2","","""event"",""trial"",""time""
""fullscreenenter"",""1"",""1578""
","
","
","""event"",""trial"",""time""
""fullscreenenter"",""1"",""1578""
","
","","","1166.2000000178814","","","12","18604","6773","&#9761;","elianto","#3366ff99","-1"," ","0","0","[2026.0999999940395]","1","0","2","","","","","","","",""
"pit-trial","38","441288","0.0-2.0-11.0-1.0","battery-v0.2","","""event"",""trial"",""time""
""fullscreenenter"",""1"",""1578""
","
","
","""event"",""trial"",""time""
""fullscreenenter"",""1"",""1578""
","
","","","301.5","","","12","18604","6773","&#9761;","elianto","#3366ff99","-1"," ","0","0","[1153.4000000059605]","1","0","2","","","","","","","",""
"pit-trial","39","446154","0.0-2.0-11.0-2.0","battery-v0.2","","""event"",""trial"",""time""
""fullscreenenter"",""1"",""1578""
","
","
","""event"",""trial"",""time""
""fullscreenenter"",""1"",""1578""
","
","","","-1","","","12","18604","6773","&#9761;","elianto","#3366ff99","-1","-1","1","+10","[]","0","0","2","","","","","","","",""
"pit-trial","40","451024","0.0-2.0-11.0-3.0","battery-v0.2","","""event"",""trial"",""time""
""fullscreenenter"",""1"",""1578""
","
","
","""event"",""trial"",""time""
""fullscreenenter"",""1"",""1578""
","
","","","-1","","","12","18604","6773","&#9761;","elianto","#3366ff99","-1","-1","1","0","[]","0","0","2","","","","","","","",""
"pit-trial","41","455893","0.0-2.0-11.0-4.0","battery-v0.2","","""event"",""trial"",""time""
""fullscreenenter"",""1"",""1578""
","
","
","""event"",""trial"",""time""
""fullscreenenter"",""1"",""1578""
","
","","","-1","","","12","18604","6773","&#9761;","elianto","#3366ff99","-1","-1","1","+10","[]","0","0","2","","","","","","","",""
"pit-trial","42","460770","0.0-2.0-11.1-0.1","battery-v0.2","","""event"",""trial"",""time""
""fullscreenenter"",""1"",""1578""
","
","
","""event"",""trial"",""time""
""fullscreenenter"",""1"",""1578""
","
","","","-1","","","12","18604","6773","&#9761;","elianto","#3366ff99","-1","-1","1","+10","[]","0","0","2","","","","","","","",""
"pit-trial","43","465639","0.0-2.0-11.1-1.1","battery-v0.2","","""event"",""trial"",""time""
""fullscreenenter"",""1"",""1578""
","
","
","""event"",""trial"",""time""
""fullscreenenter"",""1"",""1578""
","
","","","-1","","","12","18604","6773","&#9761;","elianto","#3366ff99","-1","-1","1","+10","[]","0","0","2","","","","","","","",""
"pit-trial","44","470500","0.0-2.0-11.1-2.1","battery-v0.2","","""event"",""trial"",""time""
""fullscreenenter"",""1"",""1578""
","
","
","""event"",""trial"",""time""
""fullscreenenter"",""1"",""1578""
","
","","","-1","","","12","18604","6773","&#9761;","elianto","#3366ff99","-1","-1","1","+10","[]","0","0","2","","","","","","","",""
"pit-trial","45","475357","0.0-2.0-11.1-3.1","battery-v0.2","","""event"",""trial"",""time""
""fullscreenenter"",""1"",""1578""
","
","
","""event"",""trial"",""time""
""fullscreenenter"",""1"",""1578""
","
","","","-1","","","12","18604","6773","&#9761;","elianto","#3366ff99","-1","-1","1","0","[]","0","0","2","","","","","","","",""
"pit-trial","46","480230","0.0-2.0-11.1-4.1","battery-v0.2","","""event"",""trial"",""time""
""fullscreenenter"",""1"",""1578""
","
","
","""event"",""trial"",""time""
""fullscreenenter"",""1"",""1578""
","
","","","-1","","","12","18604","6773","&#9761;","elianto","#3366ff99","-1","-1","1","+10","[]","0","0","2","","","","","","","",""
"pit-trial","47","485087","0.0-2.0-11.2-0.2","battery-v0.2","","""event"",""trial"",""time""
""fullscreenenter"",""1"",""1578""
","
","
","""event"",""trial"",""time""
""fullscreenenter"",""1"",""1578""
","
","","","-1","","","12","18604","6773","&#9761;","elianto","#3366ff99","-1","-1","1","+10","[]","0","0","2","","","","","","","",""
"pit-trial","48","489946","0.0-2.0-11.2-1.2","battery-v0.2","","""event"",""trial"",""time""
""fullscreenenter"",""1"",""1578""
","
","
","""event"",""trial"",""time""
""fullscreenenter"",""1"",""1578""
","
","","","-1","","","12","18604","6773","&#9761;","elianto","#3366ff99","-1","-1","1","+10","[]","0","0","2","","","","","","","",""
"pit-trial","49","494806","0.0-2.0-11.2-2.2","battery-v0.2","","""event"",""trial"",""time""
""fullscreenenter"",""1"",""1578""
","
","
","""event"",""trial"",""time""
""fullscreenenter"",""1"",""1578""
","
","","","-1","","","12","18604","6773","&#9761;","elianto","#3366ff99","-1","-1","1","+10","[]","0","0","2","","","","","","","",""
"pit-trial","50","499674","0.0-2.0-11.2-3.2","battery-v0.2","","""event"",""trial"",""time""
""fullscreenenter"",""1"",""1578""
","
","
","""event"",""trial"",""time""
""fullscreenenter"",""1"",""1578""
","
","","","-1","","","12","18604","6773","&#9761;","elianto","#3366ff99","-1","-1","1","0","[]","0","0","2","","","","","","","",""
"pit-trial","51","504540","0.0-2.0-11.2-4.2","battery-v0.2","","""event"",""trial"",""time""
""fullscreenenter"",""1"",""1578""
","
","
","""event"",""trial"",""time""
""fullscreenenter"",""1"",""1578""
","
","","","-1","","","12","18604","6773","&#9761;","elianto","#3366ff99","-1","-1","1","+10","[]","0","0","2","","","","","","","",""
"pit-trial","52","509414","0.0-2.0-11.3-0.3","battery-v0.2","","""event"",""trial"",""time""
""fullscreenenter"",""1"",""1578""
","
","
","""event"",""trial"",""time""
""fullscreenenter"",""1"",""1578""
","
","","","-1","","","12","18604","6773","&#9761;","elianto","#3366ff99","-1","-1","1","+10","[]","0","0","2","","","","","","","",""
"pit-trial","53","514284","0.0-2.0-11.3-1.3","battery-v0.2","","""event"",""trial"",""time""
""fullscreenenter"",""1"",""1578""
","
","
","""event"",""trial"",""time""
""fullscreenenter"",""1"",""1578""
","
","","","-1","","","12","18604","6773","&#9761;","elianto","#3366ff99","-1","-1","1","+10","[]","0","0","2","","","","","","","",""
"pit-trial","54","519145","0.0-2.0-11.3-2.3","battery-v0.2","","""event"",""trial"",""time""
""fullscreenenter"",""1"",""1578""
","
","
","""event"",""trial"",""time""
""fullscreenenter"",""1"",""1578""
","
","","","-1","","","12","18604","6773","&#9761;","elianto","#3366ff99","-1","-1","1","+10","[]","0","0","2","","","","","","","",""
"pit-trial","55","524014","0.0-2.0-11.3-3.3","battery-v0.2","","""event"",""trial"",""time""
""fullscreenenter"",""1"",""1578""
","
","
","""event"",""trial"",""time""
""fullscreenenter"",""1"",""1578""
","
","","","-1","","","12","18604","6773","&#9761;","elianto","#3366ff99","-1","-1","1","0","[]","0","0","2","","","","","","","",""
"pit-trial","56","528881","0.0-2.0-11.3-4.3","battery-v0.2","","""event"",""trial"",""time""
""fullscreenenter"",""1"",""1578""
","
","
","""event"",""trial"",""time""
""fullscreenenter"",""1"",""1578""
","
","","","-1","","","12","18604","6773","&#9761;","elianto","#3366ff99","-1","-1","1","+10","[]","0","0","2","","","","","","","",""
"call-function","57","528884","0.0-2.0-12.0","battery-v0.2","","""event"",""trial"",""time""
""fullscreenenter"",""1"",""1578""
","
","
","""event"",""trial"",""time""
""fullscreenenter"",""1"",""1578""
","
","","","","","","","","","","","","","","","","","","","","","","","","","","",""
"pit-instructions","58","583330","0.0-2.0-13.0","battery-v0.2","","""event"",""trial"",""time""
""fullscreenenter"",""1"",""1578""
","
","
","""event"",""trial"",""time""
""fullscreenenter"",""1"",""1578""
","
","","[{""page_index"":0,""viewing_time"":5425.5999999940395},{""page_index"":1,""viewing_time"":10656.699999988079},{""page_index"":2,""viewing_time"":14187.09999999404},{""page_index"":3,""viewing_time"":17313},{""page_index"":4,""viewing_time"":6861.600000023842}]","54444.69999998808","","","","","","","","","","","","","","","","","","","","","","","",""
"pit-trial","59","588199","0.0-2.0-14.0-0.0","battery-v0.2","","""event"",""trial"",""time""
""fullscreenenter"",""1"",""1578""
","
","
","""event"",""trial"",""time""
""fullscreenenter"",""1"",""1578""
","
","","","-1","","","12","18604","6773","&#9826;","elianto","#f73b6a7A","-1","-1","1","0","[]","0","0","3","","","","","","","",""
"pit-trial","60","593076","0.0-2.0-14.0-1.0","battery-v0.2","","""event"",""trial"",""time""
""fullscreenenter"",""1"",""1578""
","
","
","""event"",""trial"",""time""
""fullscreenenter"",""1"",""1578""
","
","","","-1","","","12","18604","6773","&#9826;","elianto","#f73b6a7A","-1","-1","1","0","[]","0","0","3","","","","","","","",""
"pit-trial","61","597942","0.0-2.0-14.0-2.0","battery-v0.2","","""event"",""trial"",""time""
""fullscreenenter"",""1"",""1578""
","
","
","""event"",""trial"",""time""
""fullscreenenter"",""1"",""1578""
","
","","","-1","","","12","18604","6773","&#9826;","elianto","#f73b6a7A","-1","-1","1","0","[]","0","0","3","","","","","","","",""
"pit-trial","62","601482","0.0-2.0-14.0-3.0","battery-v0.2","","""event"",""trial"",""time""
""fullscreenenter"",""1"",""1578""
","
","
","""event"",""trial"",""time""
""fullscreenenter"",""1"",""1578""
","
","","","669.4000000059605","","","12","18604","6773","&#9826;","elianto","#f73b6a7A","-1"," ","0","0","[1524.0999999940395]","1","0","3","","","","","","","",""
"pit-trial","63","604794","0.0-2.0-14.0-4.0","battery-v0.2","","""event"",""trial"",""time""
""fullscreenenter"",""1"",""1578""
","
","
","""event"",""trial"",""time""
""fullscreenenter"",""1"",""1578""
","
","","","453.80000001192093","","","12","18604","6773","&#9826;","elianto","#f73b6a7A","-1"," ","0","-10","[836.4000000059605,1305.300000011921]","2","0","3","","","","","","","",""
"pit-trial","64","609675","0.0-2.0-14.1-0.1","battery-v0.2","","""event"",""trial"",""time""
""fullscreenenter"",""1"",""1578""
","
","
","""event"",""trial"",""time""
""fullscreenenter"",""1"",""1578""
","
","","","-1","","","12","18604","6773","&#9826;","elianto","#f73b6a7A","-1","-1","1","0","[]","0","0","3","","","","","","","",""
"pit-trial","65","614533","0.0-2.0-14.1-1.1","battery-v0.2","","""event"",""trial"",""time""
""fullscreenenter"",""1"",""1578""
","
","
","""event"",""trial"",""time""
""fullscreenenter"",""1"",""1578""
","
","","","-1","","","12","18604","6773","&#9826;","elianto","#f73b6a7A","-1","-1","1","0","[]","0","0","3","","","","","","","",""
"pit-trial","66","619397","0.0-2.0-14.1-2.1","battery-v0.2","","""event"",""trial"",""time""
""fullscreenenter"",""1"",""1578""
","
","
","""event"",""trial"",""time""
""fullscreenenter"",""1"",""1578""
","
","","","-1","","","12","18604","6773","&#9826;","elianto","#f73b6a7A","-1","-1","1","0","[]","0","0","3","","","","","","","",""
"pit-trial","67","624262","0.0-2.0-14.1-3.1","battery-v0.2","","""event"",""trial"",""time""
""fullscreenenter"",""1"",""1578""
","
","
","""event"",""trial"",""time""
""fullscreenenter"",""1"",""1578""
","
","","","-1","","","12","18604","6773","&#9826;","elianto","#f73b6a7A","-1","-1","1","-10","[]","0","0","3","","","","","","","",""
"pit-trial","68","629124","0.0-2.0-14.1-4.1","battery-v0.2","","""event"",""trial"",""time""
""fullscreenenter"",""1"",""1578""
","
","
","""event"",""trial"",""time""
""fullscreenenter"",""1"",""1578""
","
","","","-1","","","12","18604","6773","&#9826;","elianto","#f73b6a7A","-1","-1","1","0","[]","0","0","3","","","","","","","",""
"pit-trial","69","633990","0.0-2.0-14.2-0.2","battery-v0.2","","""event"",""trial"",""time""
""fullscreenenter"",""1"",""1578""
","
","
","""event"",""trial"",""time""
""fullscreenenter"",""1"",""1578""
","
","","","-1","","","12","18604","6773","&#9826;","elianto","#f73b6a7A","-1","-1","1","0","[]","0","0","3","","","","","","","",""
"pit-trial","70","638860","0.0-2.0-14.2-1.2","battery-v0.2","","""event"",""trial"",""time""
""fullscreenenter"",""1"",""1578""
","
","
","""event"",""trial"",""time""
""fullscreenenter"",""1"",""1578""
","
","","","-1","","","12","18604","6773","&#9826;","elianto","#f73b6a7A","-1","-1","1","0","[]","0","0","3","","","","","","","",""
"pit-trial","71","643730","0.0-2.0-14.2-2.2","battery-v0.2","","""event"",""trial"",""time""
""fullscreenenter"",""1"",""1578""
","
","
","""event"",""trial"",""time""
""fullscreenenter"",""1"",""1578""
","
","","","-1","","","12","18604","6773","&#9826;","elianto","#f73b6a7A","-1","-1","1","0","[]","0","0","3","","","","","","","",""
"pit-trial","72","648592","0.0-2.0-14.2-3.2","battery-v0.2","","""event"",""trial"",""time""
""fullscreenenter"",""1"",""1578""
","
","
","""event"",""trial"",""time""
""fullscreenenter"",""1"",""1578""
","
","","","-1","","","12","18604","6773","&#9826;","elianto","#f73b6a7A","-1","-1","1","-10","[]","0","0","3","","","","","","","",""
"pit-trial","73","653464","0.0-2.0-14.2-4.2","battery-v0.2","","""event"",""trial"",""time""
""fullscreenenter"",""1"",""1578""
","
","
","""event"",""trial"",""time""
""fullscreenenter"",""1"",""1578""
","
","","","-1","","","12","18604","6773","&#9826;","elianto","#f73b6a7A","-1","-1","1","0","[]","0","0","3","","","","","","","",""
"pit-trial","74","658329","0.0-2.0-14.3-0.3","battery-v0.2","","""event"",""trial"",""time""
""fullscreenenter"",""1"",""1578""
","
","
","""event"",""trial"",""time""
""fullscreenenter"",""1"",""1578""
","
","","","-1","","","12","18604","6773","&#9826;","elianto","#f73b6a7A","-1","-1","1","0","[]","0","0","3","","","","","","","",""
"pit-trial","75","663188","0.0-2.0-14.3-1.3","battery-v0.2","","""event"",""trial"",""time""
""fullscreenenter"",""1"",""1578""
","
","
","""event"",""trial"",""time""
""fullscreenenter"",""1"",""1578""
","
","","","-1","","","12","18604","6773","&#9826;","elianto","#f73b6a7A","-1","-1","1","0","[]","0","0","3","","","","","","","",""
"pit-trial","76","668047","0.0-2.0-14.3-2.3","battery-v0.2","","""event"",""trial"",""time""
""fullscreenenter"",""1"",""1578""
","
","
","""event"",""trial"",""time""
""fullscreenenter"",""1"",""1578""
","
","","","-1","","","12","18604","6773","&#9826;","elianto","#f73b6a7A","-1","-1","1","0","[]","0","0","3","","","","","","","",""
"pit-trial","77","672906","0.0-2.0-14.3-3.3","battery-v0.2","","""event"",""trial"",""time""
""fullscreenenter"",""1"",""1578""
","
","
","""event"",""trial"",""time""
""fullscreenenter"",""1"",""1578""
","
","","","-1","","","12","18604","6773","&#9826;","elianto","#f73b6a7A","-1","-1","1","-10","[]","0","0","3","","","","","","","",""
"pit-trial","78","677776","0.0-2.0-14.3-4.3","battery-v0.2","","""event"",""trial"",""time""
""fullscreenenter"",""1"",""1578""
","
","
","""event"",""trial"",""time""
""fullscreenenter"",""1"",""1578""
","
","","","-1","","","12","18604","6773","&#9826;","elianto","#f73b6a7A","-1","-1","1","0","[]","0","0","3","","","","","","","",""
"call-function","79","677779","0.0-2.0-15.0","battery-v0.2","","""event"",""trial"",""time""
""fullscreenenter"",""1"",""1578""
","
","
","""event"",""trial"",""time""
""fullscreenenter"",""1"",""1578""
","
","","","","","","","","","","","","","","","","","","","","","","","","","","",""
"pit-instructions","80","711234","0.0-2.0-16.0","battery-v0.2","","""event"",""trial"",""time""
""fullscreenenter"",""1"",""1578""
","
","
","""event"",""trial"",""time""
""fullscreenenter"",""1"",""1578""
","
","","[{""page_index"":0,""viewing_time"":11635.199999988079},{""page_index"":1,""viewing_time"":10131.200000017881},{""page_index"":2,""viewing_time"":5885.699999988079},{""page_index"":3,""viewing_time"":5801.300000011921}]","33453.69999998808","","","","","","","","","","","","","","","","","","","","","","","",""
"pit-trial","81","714506","0.0-2.0-17.0-0.0","battery-v0.2","","""event"",""trial"",""time""
""fullscreenenter"",""1"",""1578""
","
","
","""event"",""trial"",""time""
""fullscreenenter"",""1"",""1578""
","
","","","412.89999997615814","","","12","18604","6773","&#9789;","elianto","#f73b6a7A"," "," ","1","0","[1264.5999999940395,3208.800000011921]","2","0","4","","","","","","","",""
"pit-trial","82","717582","0.0-2.0-17.0-1.0","battery-v0.2","","""event"",""trial"",""time""
""fullscreenenter"",""1"",""1578""
","
","
","""event"",""trial"",""time""
""fullscreenenter"",""1"",""1578""
","
","","","206.90000000596046","","","12","18604","6773","&#9789;","elianto","#f73b6a7A"," "," ","1","0","[220.2999999821186,389,611.0999999940395,803.5999999940395,1060.5999999940395,1216.0999999940395,1484.7999999821186,1665.199999988079,1825.9000000059605,1983.4000000059605,2183.699999988079,2372,2593.9000000059605,2822.0999999940395]","14","0","4","","","","","","","",""
"pit-trial","83","720585","0.0-2.0-17.0-2.0","battery-v0.2","","""event"",""trial"",""time""
""fullscreenenter"",""1"",""1578""
","
","
","""event"",""trial"",""time""
""fullscreenenter"",""1"",""1578""
","
","","","136.40000000596046","","","12","18604","6773","&#9789;","elianto","#f73b6a7A"," "," ","1","0","[33.20000001788139,233.40000000596046,414.40000000596046,600.6000000238419,787.9000000059605,986.9000000059605,1210.6000000238419,1560.6000000238419,2072.800000011921,2256.300000011921]","10","0","4","","","","","","","",""
"pit-trial","84","723800","0.0-2.0-17.0-3.0","battery-v0.2","","""event"",""trial"",""time""
""fullscreenenter"",""1"",""1578""
","
","
","""event"",""trial"",""time""
""fullscreenenter"",""1"",""1578""
","
","","","348.60000002384186","","","12","18604","6773","&#9789;","elianto","#f73b6a7A"," "," ","1","-10","[697.9000000059605,1207.300000011921,1515.9000000059605]","3","0","4","","","","","","","",""
"pit-trial","85","726716","0.0-2.0-17.0-4.0","battery-v0.2","","""event"",""trial"",""time""
""fullscreenenter"",""1"",""1578""
","
","
","""event"",""trial"",""time""
""fullscreenenter"",""1"",""1578""
","
","","","38.400000005960464","","","12","18604","6773","&#9789;","elianto","#f73b6a7A"," "," ","1","0","[280.5,898.7000000178814,1118,2387.2000000178814]","4","0","4","","","","","","","",""
"pit-trial","86","730468","0.0-2.0-17.1-0.1","battery-v0.2","","""event"",""trial"",""time""
""fullscreenenter"",""1"",""1578""
","
","
","""event"",""trial"",""time""
""fullscreenenter"",""1"",""1578""
","
","","","884.8000000119209","","","12","18604","6773","&#9789;","elianto","#f73b6a7A"," "," ","1","0","[1740.800000011921,1922.9000000059605,2102.9000000059605,2266.9000000059605,2940.0999999940395,3421.5999999940395,3747.5]","7","0","4","","","","","","","",""
"pit-trial","87","733596","0.0-2.0-17.1-1.1","battery-v0.2","","""event"",""trial"",""time""
""fullscreenenter"",""1"",""1578""
","
","
","""event"",""trial"",""time""
""fullscreenenter"",""1"",""1578""
","
","","","264.69999998807907","","","12","18604","6773","&#9789;","elianto","#f73b6a7A"," "," ","1","0","[718.1000000238419,1118.5,1408.6000000238419,1683.6000000238419,1957.6000000238419,2232,2441.800000011921]","7","0","4","","","","","","","",""
"pit-trial","88","736593","0.0-2.0-17.1-2.1","battery-v0.2","","""event"",""trial"",""time""
""fullscreenenter"",""1"",""1578""
","
","
","""event"",""trial"",""time""
""fullscreenenter"",""1"",""1578""
","
","","","131","","","12","18604","6773","&#9789;","elianto","#f73b6a7A"," "," ","1","0","[731.4000000059605,986.9000000059605,2951.4000000059605]","3","0","4","","","","","","","",""
"pit-trial","89","739924","0.0-2.0-17.1-3.1","battery-v0.2","","""event"",""trial"",""time""
""fullscreenenter"",""1"",""1578""
","
","
","""event"",""trial"",""time""
""fullscreenenter"",""1"",""1578""
","
","","","467.09999999403954","","","12","18604","6773","&#9789;","elianto","#f73b6a7A"," "," ","1","-10","[1323]","1","0","4","","","","","","","",""
"pit-trial","90","744149","0.0-2.0-17.1-4.1","battery-v0.2","","""event"",""trial"",""time""
""fullscreenenter"",""1"",""1578""
","
","
","""event"",""trial"",""time""
""fullscreenenter"",""1"",""1578""
","
","","","1361.199999988079","","","12","18604","6773","&#9789;","elianto","#f73b6a7A"," "," ","1","0","[2216.699999988079]","1","0","4","","","","","","","",""
"pit-trial","91","748828","0.0-2.0-17.2-0.2","battery-v0.2","","""event"",""trial"",""time""
""fullscreenenter"",""1"",""1578""
","
","
","""event"",""trial"",""time""
""fullscreenenter"",""1"",""1578""
","
","","","1821.800000011921","","","12","18604","6773","&#9789;","elianto","#f73b6a7A"," "," ","1","0","[2675.199999988079]","1","0","4","","","","","","","",""
"pit-trial","92","753700","0.0-2.0-17.2-1.2","battery-v0.2","","""event"",""trial"",""time""
""fullscreenenter"",""1"",""1578""
","
","
","""event"",""trial"",""time""
""fullscreenenter"",""1"",""1578""
","
","","","-1","","","12","18604","6773","&#9789;","elianto","#f73b6a7A"," ","-1","0","-10","[4456.0999999940395]","1","0","4","","","","","","","",""
"pit-trial","93","757485","0.0-2.0-17.2-2.2","battery-v0.2","","""event"",""trial"",""time""
""fullscreenenter"",""1"",""1578""
","
","
","""event"",""trial"",""time""
""fullscreenenter"",""1"",""1578""
","
","","","922.4000000059605","","","12","18604","6773","&#9789;","elianto","#f73b6a7A"," "," ","1","0","[1774.0999999940395]","1","0","4","","","","","","","",""
"pit-trial","94","761266","0.0-2.0-17.2-3.2","battery-v0.2","","""event"",""trial"",""time""
""fullscreenenter"",""1"",""1578""
","
","
","""event"",""trial"",""time""
""fullscreenenter"",""1"",""1578""
","
","","","921.5","","","12","18604","6773","&#9789;","elianto","#f73b6a7A"," "," ","1","-10","[1772]","1","0","4","","","","","","","",""
"pit-trial","95","764486","0.0-2.0-17.2-4.2","battery-v0.2","","""event"",""trial"",""time""
""fullscreenenter"",""1"",""1578""
","
","
","""event"",""trial"",""time""
""fullscreenenter"",""1"",""1578""
","
","","","361.09999999403954","","","12","18604","6773","&#9789;","elianto","#f73b6a7A"," "," ","1","0","[19.600000023841858,1211.2000000178814,1415.6000000238419]","3","0","4","","","","","","","",""
"pit-trial","96","767464","0.0-2.0-17.3-0.3","battery-v0.2","","""event"",""trial"",""time""
""fullscreenenter"",""1"",""1578""
","
","
","""event"",""trial"",""time""
""fullscreenenter"",""1"",""1578""
","
","","","114","","","12","18604","6773","&#9789;","elianto","#f73b6a7A"," "," ","1","0","[526.9000000059605,970.3000000119209,1218.5,1461.300000011921,2523.7000000178814,2975.800000011921]","6","0","4","","","","","","","",""
"pit-trial","97","770403","0.0-2.0-17.3-1.3","battery-v0.2","","""event"",""trial"",""time""
""fullscreenenter"",""1"",""1578""
","
","
","""event"",""trial"",""time""
""fullscreenenter"",""1"",""1578""
","
","","","82.2000000178814","","","12","18604","6773","&#9789;","elianto","#f73b6a7A"," "," ","1","0","[214.09999999403954,466.09999999403954,664.0999999940395,933,1633.199999988079,1875.5,2109.5,2339.0999999940395,2533.4000000059605,2754.199999988079,2937.2999999821186]","11","0","4","","","","","","","",""
"pit-trial","98","773348","0.0-2.0-17.3-2.3","battery-v0.2","","""event"",""trial"",""time""
""fullscreenenter"",""1"",""1578""
","
","
","""event"",""trial"",""time""
""fullscreenenter"",""1"",""1578""
","
","","","87","","","12","18604","6773","&#9789;","elianto","#f73b6a7A"," "," ","1","0","[259.7999999821186,609.1999999880791,938.6999999880791]","3","0","4","","","","","","","",""
"pit-trial","99","777525","0.0-2.0-17.3-3.3","battery-v0.2","","""event"",""trial"",""time""
""fullscreenenter"",""1"",""1578""
","
","
","""event"",""trial"",""time""
""fullscreenenter"",""1"",""1578""
","
","","","1316.7000000178814","","","12","18604","6773","&#9789;","elianto","#f73b6a7A"," "," ","1","-10","[93.80000001192093,674.2000000178814,2169.300000011921,2450.5999999940395,2710,2971.5]","6","0","4","","","","","","","",""
"pit-trial","100","780823","0.0-2.0-17.3-4.3","battery-v0.2","","""event"",""trial"",""time""
""fullscreenenter"",""1"",""1578""
","
","
","""event"",""trial"",""time""
""fullscreenenter"",""1"",""1578""
","
","","","431.59999999403954","","","12","18604","6773","&#9789;","elianto","#f73b6a7A"," "," ","1","0","[198.2000000178814,420.80000001192093,630.3000000119209,1287.5,1665.4000000059605,2090.600000023842,2283.300000011921,2513.5,2743.7000000178814,3130.800000011921]","10","0","4","","","","","","","",""
"call-function","101","780825","0.0-2.0-18.0","battery-v0.2","","""event"",""trial"",""time""
""fullscreenenter"",""1"",""1578""
","
","
","""event"",""trial"",""time""
""fullscreenenter"",""1"",""1578""
","
","","","","","","","","","","","","","","","","","","","","","","","","","","",""
"pit-instructions","102","856241","0.0-2.0-19.0","battery-v0.2","","""event"",""trial"",""time""
""fullscreenenter"",""1"",""1578""
","
","
","""event"",""trial"",""time""
""fullscreenenter"",""1"",""1578""
","
","","[{""page_index"":0,""viewing_time"":8686.5},{""page_index"":1,""viewing_time"":6337.299999982119},{""page_index"":2,""viewing_time"":9888.5},{""page_index"":3,""viewing_time"":6288.9000000059605},{""page_index"":4,""viewing_time"":6029.5999999940395},{""page_index"":5,""viewing_time"":8247.5},{""page_index"":6,""viewing_time"":9275.200000017881},{""page_index"":7,""viewing_time"":16364.90000000596},{""page_index"":8,""viewing_time"":4295.399999976158}]","75414.29999998212","","","","","","","","","","","","","","","","","","","","","","","",""
"pit-comprehension","103","863993","0.0-2.0-20.0-0.0","battery-v0.2","","""event"",""trial"",""time""
""fullscreenenter"",""1"",""1578""
","
","
","""event"",""trial"",""time""
""fullscreenenter"",""1"",""1578""
","
","","","7744.800000011921","[""SPACE""]","0","12","18604","6773","","","","","","","","","","","","","","","","","","",""
"pit-instructions","104","868061","0.0-2.0-20.0-1.0","battery-v0.2","","""event"",""trial"",""time""
""fullscreenenter"",""1"",""1578""
","
","
","""event"",""trial"",""time""
""fullscreenenter"",""1"",""1578""
","
","","[{""page_index"":0,""viewing_time"":3965.2000000178814}]","3965.800000011921","","","","","","","","","","","","","","","","","","","","","","","",""
"pit-comprehension","105","875851","0.0-2.0-21.0-0.0","battery-v0.2","","""event"",""trial"",""time""
""fullscreenenter"",""1"",""1578""
","
","
","""event"",""trial"",""time""
""fullscreenenter"",""1"",""1578""
","
","","","7783.5","[""10""]","0","12","18604","6773","","","","","","","","","","","","","","","","","","",""
"pit-instructions","106","880945","0.0-2.0-21.0-1.0","battery-v0.2","","""event"",""trial"",""time""
""fullscreenenter"",""1"",""1578""
","
","
","""event"",""trial"",""time""
""fullscreenenter"",""1"",""1578""
","
","","[{""page_index"":0,""viewing_time"":4997.0999999940395}]","4997.5999999940395","","","","","","","","","","","","","","","","","","","","","","","",""
"pit-comprehension","107","887187","0.0-2.0-22.0-0.0","battery-v0.2","","""event"",""trial"",""time""
""fullscreenenter"",""1"",""1578""
","
","
","""event"",""trial"",""time""
""fullscreenenter"",""1"",""1578""
","
","","","6235.100000023842","[""0""]","0","12","18604","6773","","","","","","","","","","","","","","","","","","",""
"pit-instructions","108","891269","0.0-2.0-22.0-1.0","battery-v0.2","","""event"",""trial"",""time""
""fullscreenenter"",""1"",""1578""
","
","
","""event"",""trial"",""time""
""fullscreenenter"",""1"",""1578""
","
","","[{""page_index"":0,""viewing_time"":3966.800000011921}]","3967.4000000059605","","","","","","","","","","","","","","","","","","","","","","","",""
"pit-comprehension","109","900381","0.0-2.0-23.0-0.0","battery-v0.2","","""event"",""trial"",""time""
""fullscreenenter"",""1"",""1578""
","
","
","""event"",""trial"",""time""
""fullscreenenter"",""1"",""1578""
","
","","","9105","[""True""]","0","12","18604","6773","","","","","","","","","","","","","","","","","","",""
"pit-instructions","110","902339","0.0-2.0-23.0-1.0","battery-v0.2","","""event"",""trial"",""time""
""fullscreenenter"",""1"",""1578""
","
","
","""event"",""trial"",""time""
""fullscreenenter"",""1"",""1578""
","
","","[{""page_index"":0,""viewing_time"":1852}]","1852.7000000178814","","","","","","","","","","","","","","","","","","","","","","","",""
"pit-comprehension","111","912640","0.0-2.0-24.0-0.0","battery-v0.2","","""event"",""trial"",""time""
""fullscreenenter"",""1"",""1578""
","
","
","""event"",""trial"",""time""
""fullscreenenter"",""1"",""1578""
","
","","","10295.09999999404","[""True""]","0","12","18604","6773","","","","","","","","","","","","","","","","","","",""
"pit-instructions","112","916729","0.0-2.0-24.0-1.0","battery-v0.2","","""event"",""trial"",""time""
""fullscreenenter"",""1"",""1578""
","
","
","""event"",""trial"",""time""
""fullscreenenter"",""1"",""1578""
","
","","[{""page_index"":0,""viewing_time"":3997}]","3997.600000023842","","","","","","","","","","","","","","","","","","","","","","","",""
"pit-comprehension","113","923479","0.0-2.0-25.0-0.0","battery-v0.2","","""event"",""trial"",""time""
""fullscreenenter"",""1"",""1578""
","
","
","""event"",""trial"",""time""
""fullscreenenter"",""1"",""1578""
","
","","","6743.5","[""True""]","0","12","18604","6773","","","","","","","","","","","","","","","","","","",""
"pit-instructions","114","926011","0.0-2.0-25.0-1.0","battery-v0.2","","""event"",""trial"",""time""
""fullscreenenter"",""1"",""1578""
","
","
","""event"",""trial"",""time""
""fullscreenenter"",""1"",""1578""
","
","","[{""page_index"":0,""viewing_time"":2433}]","2433.5","","","","","","","","","","","","","","","","","","","","","","","",""
"pit-comprehension","115","935929","0.0-2.0-26.0-0.0","battery-v0.2","","""event"",""trial"",""time""
""fullscreenenter"",""1"",""1578""
","
","
","""event"",""trial"",""time""
""fullscreenenter"",""1"",""1578""
","
","","","9912","[""False""]","0","12","18604","6773","","","","","","","","","","","","","","","","","","",""
"pit-instructions","116","939500","0.0-2.0-26.0-1.0","battery-v0.2","","""event"",""trial"",""time""
""fullscreenenter"",""1"",""1578""
","
","
","""event"",""trial"",""time""
""fullscreenenter"",""1"",""1578""
","
","","[{""page_index"":0,""viewing_time"":3472.300000011921}]","3472.699999988079","","","","","","","","","","","","","","","","","","","","","","","",""
"pit-instructions","117","955712","0.0-3.0","battery-v0.2","","""event"",""trial"",""time""
""fullscreenenter"",""1"",""1578""
","
","
","""event"",""trial"",""time""
""fullscreenenter"",""1"",""1578""
","
","","[{""page_index"":0,""viewing_time"":3636.2000000178814},{""page_index"":1,""viewing_time"":5926.799999982119},{""page_index"":2,""viewing_time"":6644.5999999940395}]","16208.09999999404","","","","","","","","","","","","","","","","","","","","","","","",""
"pit-trial","118","959335","0.0-4.0","battery-v0.2","","""event"",""trial"",""time""
""fullscreenenter"",""1"",""1578""
","
","
","""event"",""trial"",""time""
""fullscreenenter"",""1"",""1578""
","
","","","760","","","12","18604","6773","&#9730;","elianto","#3366ff99"," "," ","1","+10","[1612.5999999940395]","1","1","","","18604","1","1","1","win","go","0"
"pit-trial","119","964201","0.0-5.0","battery-v0.2","","""event"",""trial"",""time""
""fullscreenenter"",""1"",""1578""
","
","
","""event"",""trial"",""time""
""fullscreenenter"",""1"",""1578""
","
","","","-1","","","12","18604","6773","&#9728;","elianto","#f73b6a7A","-1","-1","1","-10","[]","0","1","","","18604","2","0","4","lose","no-go","1"
"pit-trial","120","967920","0.0-6.0","battery-v0.2","","""event"",""trial"",""time""
""fullscreenenter"",""1"",""1578""
","
","
","""event"",""trial"",""time""
""fullscreenenter"",""1"",""1578""
","
","","","849.4000000059605","","","12","18604","6773","&#9733;","elianto","#3366ff99","-1"," ","0","0","[1708.699999988079]","1","1","","","18604","3","2","2","win","no-go","0"
"pit-trial","121","971865","0.0-7.0","battery-v0.2","","""event"",""trial"",""time""
""fullscreenenter"",""1"",""1578""
","
","
","""event"",""trial"",""time""
""fullscreenenter"",""1"",""1578""
","
","","","1080.300000011921","","","12","18604","6773","&#9752;","elianto","#f73b6a7A"," "," ","1","0","[1931.300000011921]","1","1","","","18604","4","3","3","lose","go","0"
"pit-trial","122","975565","0.0-8.0","battery-v0.2","","""event"",""trial"",""time""
""fullscreenenter"",""1"",""1578""
","
","
","""event"",""trial"",""time""
""fullscreenenter"",""1"",""1578""
","
","","","831.1000000238419","","","12","18604","6773","&#9733;","elianto","#3366ff99","-1"," ","0","0","[1683.3999999761581]","1","1","","","18604","5","2","2","win","no-go","0"
"pit-trial","123","979174","0.0-9.0","battery-v0.2","","""event"",""trial"",""time""
""fullscreenenter"",""1"",""1578""
","
","
","""event"",""trial"",""time""
""fullscreenenter"",""1"",""1578""
","
","","","736.5","","","12","18604","6773","&#9730;","elianto","#3366ff99"," "," ","1","+10","[1590.0999999940395,1813]","2","1","","","18604","6","1","1","win","go","0"
"pit-trial","124","984039","0.0-10.0","battery-v0.2","","""event"",""trial"",""time""
""fullscreenenter"",""1"",""1578""
","
","
","""event"",""trial"",""time""
""fullscreenenter"",""1"",""1578""
","
","","","-1","","","12","18604","6773","&#9728;","elianto","#f73b6a7A","-1","-1","1","0","[4056.399999976158]","1","1","","","18604","7","0","4","lose","no-go","0"
"pit-trial","125","988035","0.0-11.0","battery-v0.2","","""event"",""trial"",""time""
""fullscreenenter"",""1"",""1578""
","
","
","""event"",""trial"",""time""
""fullscreenenter"",""1"",""1578""
","
","","","1133.0999999940395","","","12","18604","6773","&#9752;","elianto","#f73b6a7A"," "," ","1","0","[1987.9000000059605]","1","1","","","18604","8","3","3","lose","go","0"
"pit-trial","126","991998","0.0-12.0","battery-v0.2","","""event"",""trial"",""time""
""fullscreenenter"",""1"",""1578""
","
","
","""event"",""trial"",""time""
""fullscreenenter"",""1"",""1578""
","
","","","1104.699999988079","","","12","18604","6773","&#9730;","elianto","#3366ff99"," "," ","1","0","[1960.0999999940395]","1","1","","","18604","9","1","1","win","go","1"
"pit-trial","127","995754","0.0-13.0","battery-v0.2","","""event"",""trial"",""time""
""fullscreenenter"",""1"",""1578""
","
","
","""event"",""trial"",""time""
""fullscreenenter"",""1"",""1578""
","
","","","892","","","12","18604","6773","&#9733;","elianto","#3366ff99","-1"," ","0","0","[1747.699999988079]","1","1","","","18604","10","2","2","win","no-go","0"
"pit-trial","128","999650","0.0-14.0","battery-v0.2","","""event"",""trial"",""time""
""fullscreenenter"",""1"",""1578""
","
","
","""event"",""trial"",""time""
""fullscreenenter"",""1"",""1578""
","
","","","1036.2000000178814","","","12","18604","6773","&#9752;","elianto","#f73b6a7A"," "," ","1","-10","[1886.5]","1","1","","","18604","11","3","3","lose","go","1"
"pit-trial","129","1004499","0.0-15.0","battery-v0.2","","""event"",""trial"",""time""
""fullscreenenter"",""1"",""1578""
","
","
","""event"",""trial"",""time""
""fullscreenenter"",""1"",""1578""
","
","","","1994.5","","","12","18604","6773","&#9728;","elianto","#f73b6a7A","-1"," ","0","-10","[2845.300000011921]","1","1","","","18604","12","0","4","lose","no-go","0"
"pit-trial","130","1007719","0.0-16.0","battery-v0.2","","""event"",""trial"",""time""
""fullscreenenter"",""1"",""1578""
","
","
","""event"",""trial"",""time""
""fullscreenenter"",""1"",""1578""
","
","","","366.30000001192093","","","12","18604","6773","&#9733;","elianto","#3366ff99","-1"," ","0","0","[1216.5]","1","1","","","18604","13","2","2","win","no-go","0"
"pit-trial","131","1011115","0.0-17.0","battery-v0.2","","""event"",""trial"",""time""
""fullscreenenter"",""1"",""1578""
","
","
","""event"",""trial"",""time""
""fullscreenenter"",""1"",""1578""
","
","","","533.8000000119209","","","12","18604","6773","&#9730;","elianto","#3366ff99"," "," ","1","+10","[1388.5999999940395]","1","1","","","18604","14","1","1","win","go","0"
"pit-trial","132","1014832","0.0-18.0","battery-v0.2","","""event"",""trial"",""time""
""fullscreenenter"",""1"",""1578""
","
","
","""event"",""trial"",""time""
""fullscreenenter"",""1"",""1578""
","
","","","849.1999999880791","","","12","18604","6773","&#9752;","elianto","#f73b6a7A"," "," ","1","0","[1705.300000011921]","1","1","","","18604","15","3","3","lose","go","0"
"pit-trial","133","1019693","0.0-19.0","battery-v0.2","","""event"",""trial"",""time""
""fullscreenenter"",""1"",""1578""
","
","
","""event"",""trial"",""time""
""fullscreenenter"",""1"",""1578""
","
","","","-1","","","12","18604","6773","&#9728;","elianto","#f73b6a7A","-1","-1","1","0","[]","0","1","","","18604","16","0","4","lose","no-go","0"
"pit-trial","134","1024553","0.0-20.0","battery-v0.2","","""event"",""trial"",""time""
""fullscreenenter"",""1"",""1578""
","
","
","""event"",""trial"",""time""
""fullscreenenter"",""1"",""1578""
","
","","","-1","","","12","18604","6773","&#9728;","elianto","#f73b6a7A","-1","-1","1","-10","[]","0","1","","","18604","17","0","4","lose","no-go","1"
"pit-trial","135","1029418","0.0-21.0","battery-v0.2","","""event"",""trial"",""time""
""fullscreenenter"",""1"",""1578""
","
","
","""event"",""trial"",""time""
""fullscreenenter"",""1"",""1578""
","
","","","-1","","","12","18604","6773","&#9752;","elianto","#f73b6a7A"," ","-1","0","0","[]","0","1","","","18604","18","3","3","lose","go","1"
"pit-trial","136","1034281","0.0-22.0","battery-v0.2","","""event"",""trial"",""time""
""fullscreenenter"",""1"",""1578""
","
","
","""event"",""trial"",""time""
""fullscreenenter"",""1"",""1578""
","
","","","-1","","","12","18604","6773","&#9730;","elianto","#3366ff99"," ","-1","0","0","[]","0","1","","","18604","19","1","1","win","go","0"
"pit-trial","137","1037840","0.0-23.0","battery-v0.2","","""event"",""trial"",""time""
""fullscreenenter"",""1"",""1578""
","
","
","""event"",""trial"",""time""
""fullscreenenter"",""1"",""1578""
","
","","","689.6000000238419","","","12","18604","6773","&#9733;","elianto","#3366ff99","-1"," ","0","0","[1544.1000000238419,2921.7000000178814]","2","1","","","18604","20","2","2","win","no-go","0"
"pit-instructions","138","1061422","0.0-24.0","battery-v0.2","","""event"",""trial"",""time""
""fullscreenenter"",""1"",""1578""
","
","
","""event"",""trial"",""time""
""fullscreenenter"",""1"",""1578""
","
","","[{""page_index"":0,""viewing_time"":5539.5999999940395},{""page_index"":1,""viewing_time"":18039.90000000596}]","23580","","","","","","","","","","","","","","","","","","","","","","","",""
"pit-trial","139","1065670","0.0-25.0","battery-v0.2","","""event"",""trial"",""time""
""fullscreenenter"",""1"",""1578""
","
","
","""event"",""trial"",""time""
""fullscreenenter"",""1"",""1578""
","
","","","1383.199999988079","","","12","18604","6773","u","elianto","#f73b6a7A","-1"," ","0","-10","[2238.4000000059605]","1","2","","","18604","21","0","4","lose","no-go","0"
"pit-trial","140","1069482","0.0-26.0","battery-v0.2","","""event"",""trial"",""time""
""fullscreenenter"",""1"",""1578""
","
","
","""event"",""trial"",""time""
""fullscreenenter"",""1"",""1578""
","
","","","952.3000000119209","","","12","18604","6773","g","elianto","#f73b6a7A"," "," ","1","0","[1808.7000000178814]","1","2","","","18604","22","3","3","lose","go","0"
"pit-trial","141","1073469","0.0-27.0","battery-v0.2","","""event"",""trial"",""time""
""fullscreenenter"",""1"",""1578""
","
","
","""event"",""trial"",""time""
""fullscreenenter"",""1"",""1578""
","
","","","1125.3999999761581","","","12","18604","6773","l","elianto","#3366ff99"," "," ","1","0","[1982.5999999940395]","1","2","","","18604","23","1","1","win","go","1"
"pit-trial","142","1077084","0.0-28.0","battery-v0.2","","""event"",""trial"",""time""
""fullscreenenter"",""1"",""1578""
","
","
","""event"",""trial"",""time""
""fullscreenenter"",""1"",""1578""
","
","","","747.5","","","12","18604","6773","a","elianto","#f73b6a7A","-1"," ","0","-10","[1598.2000000178814]","1","2","","","18604","24","2","4","lose","no-go","0"
"pit-trial","143","1080844","0.0-29.0","battery-v0.2","","""event"",""trial"",""time""
""fullscreenenter"",""1"",""1578""
","
","
","""event"",""trial"",""time""
""fullscreenenter"",""1"",""1578""
","
","","","896.0999999940395","","","12","18604","6773","a","elianto","#f73b6a7A","-1"," ","0","0","[1748.7999999821186]","1","2","","","18604","25","2","4","lose","no-go","1"
"pit-trial","144","1084464","0.0-30.0","battery-v0.2","","""event"",""trial"",""time""
""fullscreenenter"",""1"",""1578""
","
","
","""event"",""trial"",""time""
""fullscreenenter"",""1"",""1578""
","
","","","753.6999999880791","","","12","18604","6773","u","elianto","#f73b6a7A","-1"," ","0","-10","[1606.699999988079]","1","2","","","18604","26","0","4","lose","no-go","0"
"pit-trial","145","1089322","0.0-31.0","battery-v0.2","","""event"",""trial"",""time""
""fullscreenenter"",""1"",""1578""
","
","
","""event"",""trial"",""time""
""fullscreenenter"",""1"",""1578""
","
","","","-1","","","12","18604","6773","g","elianto","#f73b6a7A"," ","-1","0","-10","[]","0","2","","","18604","27","3","3","lose","go","0"
"pit-trial","146","1093299","0.0-32.0","battery-v0.2","","""event"",""trial"",""time""
""fullscreenenter"",""1"",""1578""
","
","
","""event"",""trial"",""time""
""fullscreenenter"",""1"",""1578""
","
","","","1121.9000000059605","","","12","18604","6773","l","elianto","#3366ff99"," "," ","1","+10","[1972.7999999821186]","1","2","","","18604","28","1","1","win","go","0"
"pit-trial","147","1097008","0.0-33.0","battery-v0.2","","""event"",""trial"",""time""
""fullscreenenter"",""1"",""1578""
","
","
","""event"",""trial"",""time""
""fullscreenenter"",""1"",""1578""
","
","","","847.1999999880791","","","12","18604","6773","a","elianto","#f73b6a7A","-1"," ","0","-10","[1700.800000011921]","1","2","","","18604","29","2","4","lose","no-go","0"
"pit-trial","148","1100784","0.0-34.0","battery-v0.2","","""event"",""trial"",""time""
""fullscreenenter"",""1"",""1578""
","
","
","""event"",""trial"",""time""
""fullscreenenter"",""1"",""1578""
","
","","","914.7000000178814","","","12","18604","6773","g","elianto","#f73b6a7A"," "," ","1","0","[1765]","1","2","","","18604","30","3","3","lose","go","0"
"pit-trial","149","1104235","0.0-35.0","battery-v0.2","","""event"",""trial"",""time""
""fullscreenenter"",""1"",""1578""
","
","
","""event"",""trial"",""time""
""fullscreenenter"",""1"",""1578""
","
","","","593.5","","","12","18604","6773","l","elianto","#3366ff99"," "," ","1","+10","[1445.2000000178814]","1","2","","","18604","31","1","1","win","go","0"
"pit-trial","150","1107226","0.0-36.0","battery-v0.2","","""event"",""trial"",""time""
""fullscreenenter"",""1"",""1578""
","
","
","""event"",""trial"",""time""
""fullscreenenter"",""1"",""1578""
","
","","","133.19999998807907","","","12","18604","6773","u","elianto","#f73b6a7A","-1"," ","0","-10","[983.7999999821186]","1","2","","","18604","32","0","4","lose","no-go","0"
"pit-trial","151","1110936","0.0-37.0","battery-v0.2","","""event"",""trial"",""time""
""fullscreenenter"",""1"",""1578""
","
","
","""event"",""trial"",""time""
""fullscreenenter"",""1"",""1578""
","
","","","848.3000000119209","","","12","18604","6773","g","elianto","#f73b6a7A"," "," ","1","0","[1700.800000011921]","1","2","","","18604","33","3","3","lose","go","0"
"pit-trial","152","1114560","0.0-38.0","battery-v0.2","","""event"",""trial"",""time""
""fullscreenenter"",""1"",""1578""
","
","
","""event"",""trial"",""time""
""fullscreenenter"",""1"",""1578""
","
","","","759.4000000059605","","","12","18604","6773","l","elianto","#3366ff99"," "," ","1","+10","[1612.0999999940395]","1","2","","","18604","34","1","1","win","go","0"
"pit-trial","153","1119428","0.0-39.0","battery-v0.2","","""event"",""trial"",""time""
""fullscreenenter"",""1"",""1578""
","
","
","""event"",""trial"",""time""
""fullscreenenter"",""1"",""1578""
","
","","","-1","","","12","18604","6773","u","elianto","#f73b6a7A","-1","-1","1","0","[]","0","2","","","18604","35","0","4","lose","no-go","0"
"pit-trial","154","1123432","0.0-40.0","battery-v0.2","","""event"",""trial"",""time""
""fullscreenenter"",""1"",""1578""
","
","
","""event"",""trial"",""time""
""fullscreenenter"",""1"",""1578""
","
","","","1138.9000000059605","","","12","18604","6773","a","elianto","#f73b6a7A","-1"," ","0","-10","[1992.699999988079]","1","2","","","18604","36","2","4","lose","no-go","0"
"pit-trial","155","1128301","0.0-41.0","battery-v0.2","","""event"",""trial"",""time""
""fullscreenenter"",""1"",""1578""
","
","
","""event"",""trial"",""time""
""fullscreenenter"",""1"",""1578""
","
","","","-1","","","12","18604","6773","u","elianto","#f73b6a7A","-1","-1","1","0","[]","0","2","","","18604","37","0","4","lose","no-go","0"
"pit-trial","156","1133163","0.0-42.0","battery-v0.2","","""event"",""trial"",""time""
""fullscreenenter"",""1"",""1578""
","
","
","""event"",""trial"",""time""
""fullscreenenter"",""1"",""1578""
","
","","","-1","","","12","18604","6773","a","elianto","#f73b6a7A","-1","-1","1","0","[]","0","2","","","18604","38","2","4","lose","no-go","0"
"pit-trial","157","1136584","0.0-43.0","battery-v0.2","","""event"",""trial"",""time""
""fullscreenenter"",""1"",""1578""
","
","
","""event"",""trial"",""time""
""fullscreenenter"",""1"",""1578""
","
","","","550.4000000059605","","","12","18604","6773","l","elianto","#3366ff99"," "," ","1","0","[1407.5]","1","2","","","18604","39","1","1","win","go","1"
"pit-trial","158","1140134","0.0-44.0","battery-v0.2","","""event"",""trial"",""time""
""fullscreenenter"",""1"",""1578""
","
","
","""event"",""trial"",""time""
""fullscreenenter"",""1"",""1578""
","
","","","691.5","","","12","18604","6773","g","elianto","#f73b6a7A"," "," ","1","0","[1541.9000000059605]","1","2","","","18604","40","3","3","lose","go","0"
"pit-trial","159","1144997","0.0-45.0","battery-v0.2","","""event"",""trial"",""time""
""fullscreenenter"",""1"",""1578""
","
","
","""event"",""trial"",""time""
""fullscreenenter"",""1"",""1578""
","
","","","-1","","","12","18604","6773","a","elianto","#f73b6a7A","-1","-1","1","0","[]","0","2","","","18604","41","2","4","lose","no-go","0"
"pit-trial","160","1148840","0.0-46.0","battery-v0.2","","""event"",""trial"",""time""
""fullscreenenter"",""1"",""1578""
","
","
","""event"",""trial"",""time""
""fullscreenenter"",""1"",""1578""
","
","","","983.0999999940395","","","12","18604","6773","l","elianto","#3366ff99"," "," ","1","+10","[1833.2999999821186]","1","2","","","18604","42","1","1","win","go","0"
"pit-trial","161","1153698","0.0-47.0","battery-v0.2","","""event"",""trial"",""time""
""fullscreenenter"",""1"",""1578""
","
","
","""event"",""trial"",""time""
""fullscreenenter"",""1"",""1578""
","
","","","-1","","","12","18604","6773","u","elianto","#f73b6a7A","-1","-1","1","0","[]","0","2","","","18604","43","0","4","lose","no-go","0"
"pit-trial","162","1158530","0.0-48.0","battery-v0.2","","""event"",""trial"",""time""
""fullscreenenter"",""1"",""1578""
","
","
","""event"",""trial"",""time""
""fullscreenenter"",""1"",""1578""
","
","","","1965.8999999761581","","","12","18604","6773","g","elianto","#f73b6a7A"," "," ","1","-10","[2821.4000000059605,3128]","2","2","","","18604","44","3","3","lose","go","1"
"pit-trial","163","1163398","0.0-49.0","battery-v0.2","","""event"",""trial"",""time""
""fullscreenenter"",""1"",""1578""
","
","
","""event"",""trial"",""time""
""fullscreenenter"",""1"",""1578""
","
","","","-1","","","12","18604","6773","a","elianto","#f73b6a7A","-1","-1","1","0","[]","0","2","","","18604","45","2","4","lose","no-go","0"
"pit-trial","164","1166688","0.0-50.0","battery-v0.2","","""event"",""trial"",""time""
""fullscreenenter"",""1"",""1578""
","
","
","""event"",""trial"",""time""
""fullscreenenter"",""1"",""1578""
","
","","","425.59999999403954","","","12","18604","6773","g","elianto","#f73b6a7A"," "," ","1","0","[1275.699999988079]","1","2","","","18604","46","3","3","lose","go","0"
"pit-trial","165","1171553","0.0-51.0","battery-v0.2","","""event"",""trial"",""time""
""fullscreenenter"",""1"",""1578""
","
","
","""event"",""trial"",""time""
""fullscreenenter"",""1"",""1578""
","
","","","-1","","","12","18604","6773","u","elianto","#f73b6a7A","-1","-1","1","0","[]","0","2","","","18604","47","0","4","lose","no-go","0"
"pit-trial","166","1175398","0.0-52.0","battery-v0.2","","""event"",""trial"",""time""
""fullscreenenter"",""1"",""1578""
","
","
","""event"",""trial"",""time""
""fullscreenenter"",""1"",""1578""
","
","","","983.5999999940395","","","12","18604","6773","p","elianto","#3366ff99","-1"," ","0","0","[1834.7999999821186]","1","2","","","18604","48","4","2","win","no-go","0"
"pit-trial","167","1180263","0.0-53.0","battery-v0.2","","""event"",""trial"",""time""
""fullscreenenter"",""1"",""1578""
","
","
","""event"",""trial"",""time""
""fullscreenenter"",""1"",""1578""
","
","","","-1","","","12","18604","6773","p","elianto","#3366ff99","-1","-1","1","+10","[]","0","2","","","18604","49","4","2","win","no-go","0"
"pit-trial","168","1183791","0.0-54.0","battery-v0.2","","""event"",""trial"",""time""
""fullscreenenter"",""1"",""1578""
","
","
","""event"",""trial"",""time""
""fullscreenenter"",""1"",""1578""
","
","","","665.5999999940395","","","12","18604","6773","g","elianto","#f73b6a7A"," "," ","1","0","[1516.2000000178814]","1","2","","","18604","50","3","3","lose","go","0"
"pit-trial","169","1187477","0.0-55.0","battery-v0.2","","""event"",""trial"",""time""
""fullscreenenter"",""1"",""1578""
","
","
","""event"",""trial"",""time""
""fullscreenenter"",""1"",""1578""
","
","","","829.7999999821186","","","12","18604","6773","l","elianto","#3366ff99"," "," ","1","+10","[1682]","1","2","","","18604","51","1","1","win","go","0"
"pit-trial","170","1192348","0.0-56.0","battery-v0.2","","""event"",""trial"",""time""
""fullscreenenter"",""1"",""1578""
","
","
","""event"",""trial"",""time""
""fullscreenenter"",""1"",""1578""
","
","","","-1","","","12","18604","6773","u","elianto","#f73b6a7A","-1","-1","1","0","[]","0","2","","","18604","52","0","4","lose","no-go","0"
"pit-trial","171","1197221","0.0-57.0","battery-v0.2","","""event"",""trial"",""time""
""fullscreenenter"",""1"",""1578""
","
","
","""event"",""trial"",""time""
""fullscreenenter"",""1"",""1578""
","
","","","-1","","","12","18604","6773","a","elianto","#f73b6a7A","-1","-1","1","0","[]","0","2","","","18604","53","2","4","lose","no-go","0"
"pit-trial","172","1200808","0.0-58.0","battery-v0.2","","""event"",""trial"",""time""
""fullscreenenter"",""1"",""1578""
","
","
","""event"",""trial"",""time""
""fullscreenenter"",""1"",""1578""
","
","","","721.4000000059605","","","12","18604","6773","l","elianto","#3366ff99"," "," ","1","+10","[1578]","1","2","","","18604","54","1","1","win","go","0"
"pit-trial","173","1205666","0.0-59.0","battery-v0.2","","""event"",""trial"",""time""
""fullscreenenter"",""1"",""1578""
","
","
","""event"",""trial"",""time""
""fullscreenenter"",""1"",""1578""
","
","","","-1","","","12","18604","6773","p","elianto","#3366ff99","-1","-1","1","+10","[]","0","2","","","18604","55","4","2","win","no-go","0"
"pit-trial","174","1210533","0.0-60.0","battery-v0.2","","""event"",""trial"",""time""
""fullscreenenter"",""1"",""1578""
","
","
","""event"",""trial"",""time""
""fullscreenenter"",""1"",""1578""
","
","","","-1","","","12","18604","6773","u","elianto","#f73b6a7A","-1","-1","1","-10","[]","0","2","","","18604","56","0","4","lose","no-go","1"
"pit-trial","175","1214429","0.0-61.0","battery-v0.2","","""event"",""trial"",""time""
""fullscreenenter"",""1"",""1578""
","
","
","""event"",""trial"",""time""
""fullscreenenter"",""1"",""1578""
","
","","","1029.3999999761581","","","12","18604","6773","g","elianto","#f73b6a7A"," "," ","1","0","[779.7999999821186,1885.2999999821186,2272.0999999940395]","3","2","","","18604","57","3","3","lose","go","0"
"pit-trial","176","1217884","0.0-62.0","battery-v0.2","","""event"",""trial"",""time""
""fullscreenenter"",""1"",""1578""
","
","
","""event"",""trial"",""time""
""fullscreenenter"",""1"",""1578""
","
","","","597.4000000059605","","","12","18604","6773","l","elianto","#3366ff99"," "," ","1","+10","[1452.1000000238419]","1","2","","","18604","58","1","1","win","go","0"
"pit-trial","177","1222745","0.0-63.0","battery-v0.2","","""event"",""trial"",""time""
""fullscreenenter"",""1"",""1578""
","
","
","""event"",""trial"",""time""
""fullscreenenter"",""1"",""1578""
","
","","","-1","","","12","18604","6773","u","elianto","#f73b6a7A","-1","-1","1","0","[]","0","2","","","18604","59","0","4","lose","no-go","0"
"pit-trial","178","1227605","0.0-64.0","battery-v0.2","","""event"",""trial"",""time""
""fullscreenenter"",""1"",""1578""
","
","
","""event"",""trial"",""time""
""fullscreenenter"",""1"",""1578""
","
","","","-1","","","12","18604","6773","p","elianto","#3366ff99","-1","-1","1","+10","[]","0","2","","","18604","60","4","2","win","no-go","0"
"pit-trial","179","1232465","0.0-65.0","battery-v0.2","","""event"",""trial"",""time""
""fullscreenenter"",""1"",""1578""
","
","
","""event"",""trial"",""time""
""fullscreenenter"",""1"",""1578""
","
","","","-1","","","12","18604","6773","a","elianto","#f73b6a7A","-1","-1","1","0","[]","0","2","","","18604","61","2","4","lose","no-go","0"
"pit-trial","180","1237034","0.0-66.0","battery-v0.2","","""event"",""trial"",""time""
""fullscreenenter"",""1"",""1578""
","
","
","""event"",""trial"",""time""
""fullscreenenter"",""1"",""1578""
","
","","","1709","","","12","18604","6773","g","elianto","#f73b6a7A"," "," ","1","0","[2564.600000023842]","1","2","","","18604","62","3","3","lose","go","0"
"pit-trial","181","1240556","0.0-67.0","battery-v0.2","","""event"",""trial"",""time""
""fullscreenenter"",""1"",""1578""
","
","
","""event"",""trial"",""time""
""fullscreenenter"",""1"",""1578""
","
","","","665.5","","","12","18604","6773","l","elianto","#3366ff99"," "," ","1","+10","[1516.300000011921]","1","2","","","18604","63","1","1","win","go","0"
"pit-trial","182","1245413","0.0-68.0","battery-v0.2","","""event"",""trial"",""time""
""fullscreenenter"",""1"",""1578""
","
","
","""event"",""trial"",""time""
""fullscreenenter"",""1"",""1578""
","
","","","-1","","","12","18604","6773","p","elianto","#3366ff99","-1","-1","1","+10","[]","0","2","","","18604","64","4","2","win","no-go","0"
"pit-trial","183","1250277","0.0-69.0","battery-v0.2","","""event"",""trial"",""time""
""fullscreenenter"",""1"",""1578""
","
","
","""event"",""trial"",""time""
""fullscreenenter"",""1"",""1578""
","
","","","-1","","","12","18604","6773","a","elianto","#f73b6a7A","-1","-1","1","-10","[]","0","2","","","18604","65","2","4","lose","no-go","1"
"pit-trial","184","1253972","0.0-70.0","battery-v0.2","","""event"",""trial"",""time""
""fullscreenenter"",""1"",""1578""
","
","
","""event"",""trial"",""time""
""fullscreenenter"",""1"",""1578""
","
","","","832.1000000238419","","","12","18604","6773","g","elianto","#f73b6a7A"," "," ","1","0","[1683.3999999761581]","1","2","","","18604","66","3","3","lose","go","0"
"pit-trial","185","1258235","0.0-71.0","battery-v0.2","","""event"",""trial"",""time""
""fullscreenenter"",""1"",""1578""
","
","
","""event"",""trial"",""time""
""fullscreenenter"",""1"",""1578""
","
","","","1406.199999988079","","","12","18604","6773","p","elianto","#3366ff99","-1"," ","0","+10","[2258.199999988079]","1","2","","","18604","67","4","2","win","no-go","1"
"pit-trial","186","1262017","0.0-72.0","battery-v0.2","","""event"",""trial"",""time""
""fullscreenenter"",""1"",""1578""
","
","
","""event"",""trial"",""time""
""fullscreenenter"",""1"",""1578""
","
","","","920.3000000119209","","","12","18604","6773","l","elianto","#3366ff99"," "," ","1","+10","[1772.5]","1","2","","","18604","68","1","1","win","go","0"
"pit-trial","187","1265760","0.0-73.0","battery-v0.2","","""event"",""trial"",""time""
""fullscreenenter"",""1"",""1578""
","
","
","""event"",""trial"",""time""
""fullscreenenter"",""1"",""1578""
","
","","","884.4000000059605","","","12","18604","6773","l","elianto","#3366ff99"," "," ","1","+10","[1738.5]","1","2","","","18604","69","1","1","win","go","0"
"pit-trial","188","1269363","0.0-74.0","battery-v0.2","","""event"",""trial"",""time""
""fullscreenenter"",""1"",""1578""
","
","
","""event"",""trial"",""time""
""fullscreenenter"",""1"",""1578""
","
","","","745.5","","","12","18604","6773","s","elianto","#3366ff99"," "," ","1","+10","[1595.9000000059605,1993.1000000238419]","2","2","","","18604","70","5","1","win","go","0"
"pit-trial","189","1273937","0.0-75.0","battery-v0.2","","""event"",""trial"",""time""
""fullscreenenter"",""1"",""1578""
","
","
","""event"",""trial"",""time""
""fullscreenenter"",""1"",""1578""
","
","","","1712.0999999940395","","","12","18604","6773","g","elianto","#f73b6a7A"," "," ","1","0","[214.2000000178814,2570]","2","2","","","18604","71","3","3","lose","go","0"
"pit-trial","190","1278797","0.0-76.0","battery-v0.2","","""event"",""trial"",""time""
""fullscreenenter"",""1"",""1578""
","
","
","""event"",""trial"",""time""
""fullscreenenter"",""1"",""1578""
","
","","","-1","","","12","18604","6773","p","elianto","#3366ff99","-1","-1","1","+10","[]","0","2","","","18604","72","4","2","win","no-go","0"
"pit-trial","191","1282727","0.0-77.0","battery-v0.2","","""event"",""trial"",""time""
""fullscreenenter"",""1"",""1578""
","
","
","""event"",""trial"",""time""
""fullscreenenter"",""1"",""1578""
","
","","","1064.2000000178814","","","12","18604","6773","g","elianto","#f73b6a7A"," "," ","1","0","[1916.7000000178814]","1","2","","","18604","73","3","3","lose","go","0"
"pit-trial","192","1286188","0.0-78.0","battery-v0.2","","""event"",""trial"",""time""
""fullscreenenter"",""1"",""1578""
","
","
","""event"",""trial"",""time""
""fullscreenenter"",""1"",""1578""
","
","","","602.0999999940395","","","12","18604","6773","s","elianto","#3366ff99"," "," ","1","+10","[1453]","1","2","","","18604","74","5","1","win","go","0"
"pit-trial","193","1289775","0.0-79.0","battery-v0.2","","""event"",""trial"",""time""
""fullscreenenter"",""1"",""1578""
","
","
","""event"",""trial"",""time""
""fullscreenenter"",""1"",""1578""
","
","","","727.3999999761581","","","12","18604","6773","l","elianto","#3366ff99"," "," ","1","+10","[1582.4000000059605]","1","2","","","18604","75","1","1","win","go","0"
"pit-trial","194","1293606","0.0-80.0","battery-v0.2","","""event"",""trial"",""time""
""fullscreenenter"",""1"",""1578""
","
","
","""event"",""trial"",""time""
""fullscreenenter"",""1"",""1578""
","
","","","971","","","12","18604","6773","p","elianto","#3366ff99","-1"," ","0","+10","[1823.8999999761581]","1","2","","","18604","76","4","2","win","no-go","1"
"pit-trial","195","1297299","0.0-81.0","battery-v0.2","","""event"",""trial"",""time""
""fullscreenenter"",""1"",""1578""
","
","
","""event"",""trial"",""time""
""fullscreenenter"",""1"",""1578""
","
","","","825.5999999940395","","","12","18604","6773","s","elianto","#3366ff99"," "," ","1","+10","[1677.300000011921]","1","2","","","18604","77","5","1","win","go","0"
"pit-trial","196","1302157","0.0-82.0","battery-v0.2","","""event"",""trial"",""time""
""fullscreenenter"",""1"",""1578""
","
","
","""event"",""trial"",""time""
""fullscreenenter"",""1"",""1578""
","
","","","-1","","","12","18604","6773","w","elianto","#f73b6a7A","-1","-1","1","-10","[]","0","2","","","18604","78","6","4","lose","no-go","1"
"pit-trial","197","1306237","0.0-83.0","battery-v0.2","","""event"",""trial"",""time""
""fullscreenenter"",""1"",""1578""
","
","
","""event"",""trial"",""time""
""fullscreenenter"",""1"",""1578""
","
","","","1218.7000000178814","","","12","18604","6773","g","elianto","#f73b6a7A"," "," ","1","0","[2074.600000023842]","1","2","","","18604","79","3","3","lose","go","0"
"pit-trial","198","1311097","0.0-84.0","battery-v0.2","","""event"",""trial"",""time""
""fullscreenenter"",""1"",""1578""
","
","
","""event"",""trial"",""time""
""fullscreenenter"",""1"",""1578""
","
","","","-1","","","12","18604","6773","p","elianto","#3366ff99","-1","-1","1","+10","[]","0","2","","","18604","80","4","2","win","no-go","0"
"pit-trial","199","1314583","0.0-85.0","battery-v0.2","","""event"",""trial"",""time""
""fullscreenenter"",""1"",""1578""
","
","
","""event"",""trial"",""time""
""fullscreenenter"",""1"",""1578""
","
","","","622.7999999821186","","","12","18604","6773","w","elianto","#f73b6a7A","-1"," ","0","-10","[1479.5999999940395]","1","2","","","18604","81","6","4","lose","no-go","0"
"pit-trial","200","1318613","0.0-86.0","battery-v0.2","","""event"",""trial"",""time""
""fullscreenenter"",""1"",""1578""
","
","
","""event"",""trial"",""time""
""fullscreenenter"",""1"",""1578""
","
","","","1169.2000000178814","","","12","18604","6773","s","elianto","#3366ff99"," "," ","1","0","[2022.5]","1","2","","","18604","82","5","1","win","go","1"
"pit-trial","201","1323481","0.0-87.0","battery-v0.2","","""event"",""trial"",""time""
""fullscreenenter"",""1"",""1578""
","
","
","""event"",""trial"",""time""
""fullscreenenter"",""1"",""1578""
","
","","","-1","","","12","18604","6773","p","elianto","#3366ff99","-1","-1","1","+10","[]","0","2","","","18604","83","4","2","win","no-go","0"
"pit-trial","202","1327983","0.0-88.0","battery-v0.2","","""event"",""trial"",""time""
""fullscreenenter"",""1"",""1578""
","
","
","""event"",""trial"",""time""
""fullscreenenter"",""1"",""1578""
","
","","","1641.0999999940395","","","12","18604","6773","e","elianto","#f73b6a7A"," "," ","1","0","[2492.4000000059605]","1","2","","","18604","84","7","3","lose","go","0"
"pit-trial","203","1331999","0.0-89.0","battery-v0.2","","""event"",""trial"",""time""
""fullscreenenter"",""1"",""1578""
","
","
","""event"",""trial"",""time""
""fullscreenenter"",""1"",""1578""
","
","","","1147.2000000178814","","","12","18604","6773","w","elianto","#f73b6a7A","-1"," ","0","-10","[2005]","1","2","","","18604","85","6","4","lose","no-go","0"
"pit-trial","204","1336862","0.0-90.0","battery-v0.2","","""event"",""trial"",""time""
""fullscreenenter"",""1"",""1578""
","
","
","""event"",""trial"",""time""
""fullscreenenter"",""1"",""1578""
","
","","","-1","","","12","18604","6773","p","elianto","#3366ff99","-1","-1","1","+10","[]","0","2","","","18604","86","4","2","win","no-go","0"
"pit-trial","205","1341061","0.0-91.0","battery-v0.2","","""event"",""trial"",""time""
""fullscreenenter"",""1"",""1578""
","
","
","""event"",""trial"",""time""
""fullscreenenter"",""1"",""1578""
","
","","","1339.699999988079","","","12","18604","6773","e","elianto","#f73b6a7A"," "," ","1","0","[2194.5999999940395]","1","2","","","18604","87","7","3","lose","go","0"
"pit-trial","206","1344726","0.0-92.0","battery-v0.2","","""event"",""trial"",""time""
""fullscreenenter"",""1"",""1578""
","
","
","""event"",""trial"",""time""
""fullscreenenter"",""1"",""1578""
","
","","","807.5","","","12","18604","6773","s","elianto","#3366ff99"," "," ","1","+10","[1660.6000000238419]","1","2","","","18604","88","5","1","win","go","0"
"pit-trial","207","1348303","0.0-93.0","battery-v0.2","","""event"",""trial"",""time""
""fullscreenenter"",""1"",""1578""
","
","
","""event"",""trial"",""time""
""fullscreenenter"",""1"",""1578""
","
","","","720.4000000059605","","","12","18604","6773","s","elianto","#3366ff99"," "," ","1","+10","[1572.1000000238419]","1","2","","","18604","89","5","1","win","go","0"
"pit-trial","208","1352726","0.0-94.0","battery-v0.2","","""event"",""trial"",""time""
""fullscreenenter"",""1"",""1578""
","
","
","""event"",""trial"",""time""
""fullscreenenter"",""1"",""1578""
","
","","","1561","","","12","18604","6773","w","elianto","#f73b6a7A","-1"," ","0","-10","[2416.9000000059605]","1","2","","","18604","90","6","4","lose","no-go","0"
"pit-trial","209","1356501","0.0-95.0","battery-v0.2","","""event"",""trial"",""time""
""fullscreenenter"",""1"",""1578""
","
","
","""event"",""trial"",""time""
""fullscreenenter"",""1"",""1578""
","
","","","911.5","","","12","18604","6773","p","elianto","#3366ff99","-1"," ","0","0","[1764.4000000059605]","1","2","","","18604","91","4","2","win","no-go","0"
"pit-trial","210","1360579","0.0-96.0","battery-v0.2","","""event"",""trial"",""time""
""fullscreenenter"",""1"",""1578""
","
","
","""event"",""trial"",""time""
""fullscreenenter"",""1"",""1578""
","
","","","1218.300000011921","","","12","18604","6773","e","elianto","#f73b6a7A"," "," ","1","0","[2068.800000011921]","1","2","","","18604","92","7","3","lose","go","0"
"pit-trial","211","1364969","0.0-97.0","battery-v0.2","","""event"",""trial"",""time""
""fullscreenenter"",""1"",""1578""
","
","
","""event"",""trial"",""time""
""fullscreenenter"",""1"",""1578""
","
","","","1527.9000000059605","","","12","18604","6773","d","elianto","#3366ff99","-1"," ","0","0","[2381.0999999940395]","1","2","","","18604","93","8","2","win","no-go","0"
"pit-trial","212","1369394","0.0-98.0","battery-v0.2","","""event"",""trial"",""time""
""fullscreenenter"",""1"",""1578""
","
","
","""event"",""trial"",""time""
""fullscreenenter"",""1"",""1578""
","
","","","1560.199999988079","","","12","18604","6773","e","elianto","#f73b6a7A"," "," ","1","0","[2413.399999976158]","1","2","","","18604","94","7","3","lose","go","0"
"pit-trial","213","1374252","0.0-99.0","battery-v0.2","","""event"",""trial"",""time""
""fullscreenenter"",""1"",""1578""
","
","
","""event"",""trial"",""time""
""fullscreenenter"",""1"",""1578""
","
","","","-1","","","12","18604","6773","w","elianto","#f73b6a7A","-1","-1","1","0","[4494.200000017881]","1","2","","","18604","95","6","4","lose","no-go","0"
"pit-trial","214","1377859","0.0-100.0","battery-v0.2","","""event"",""trial"",""time""
""fullscreenenter"",""1"",""1578""
","
","
","""event"",""trial"",""time""
""fullscreenenter"",""1"",""1578""
","
","","","751.8999999761581","","","12","18604","6773","s","elianto","#3366ff99"," "," ","1","+10","[1603.9000000059605]","1","2","","","18604","96","5","1","win","go","0"
"pit-trial","215","1382713","0.0-101.0","battery-v0.2","","""event"",""trial"",""time""
""fullscreenenter"",""1"",""1578""
","
","
","""event"",""trial"",""time""
""fullscreenenter"",""1"",""1578""
","
","","","-1","","","12","18604","6773","w","elianto","#f73b6a7A","-1","-1","1","-10","[]","0","2","","","18604","97","6","4","lose","no-go","1"
"pit-trial","216","1386638","0.0-102.0","battery-v0.2","","""event"",""trial"",""time""
""fullscreenenter"",""1"",""1578""
","
","
","""event"",""trial"",""time""
""fullscreenenter"",""1"",""1578""
","
","","","1065.300000011921","","","12","18604","6773","s","elianto","#3366ff99"," "," ","1","+10","[1915.5]","1","2","","","18604","98","5","1","win","go","0"
"pit-trial","217","1390813","0.0-103.0","battery-v0.2","","""event"",""trial"",""time""
""fullscreenenter"",""1"",""1578""
","
","
","""event"",""trial"",""time""
""fullscreenenter"",""1"",""1578""
","
","","","1312.9000000059605","","","12","18604","6773","e","elianto","#f73b6a7A"," "," ","1","0","[2168]","1","2","","","18604","99","7","3","lose","go","0"
"pit-trial","218","1395092","0.0-104.0","battery-v0.2","","""event"",""trial"",""time""
""fullscreenenter"",""1"",""1578""
","
","
","""event"",""trial"",""time""
""fullscreenenter"",""1"",""1578""
","
","","","1424.7000000178814","","","12","18604","6773","d","elianto","#3366ff99","-1"," ","0","0","[2274.800000011921]","1","2","","","18604","100","8","2","win","no-go","0"
"pit-trial","219","1398888","0.0-105.0","battery-v0.2","","""event"",""trial"",""time""
""fullscreenenter"",""1"",""1578""
","
","
","""event"",""trial"",""time""
""fullscreenenter"",""1"",""1578""
","
","","","942.5","","","12","18604","6773","j","elianto","#3366ff99","-1"," ","0","0","[1793]","1","2","","","18604","101","9","2","win","no-go","0"
"pit-trial","220","1402720","0.0-106.0","battery-v0.2","","""event"",""trial"",""time""
""fullscreenenter"",""1"",""1578""
","
","
","""event"",""trial"",""time""
""fullscreenenter"",""1"",""1578""
","
","","","967","","","12","18604","6773","d","elianto","#3366ff99","-1"," ","0","+10","[1818.199999988079]","1","2","","","18604","102","8","2","win","no-go","1"
"pit-trial","221","1407568","0.0-107.0","battery-v0.2","","""event"",""trial"",""time""
""fullscreenenter"",""1"",""1578""
","
","
","""event"",""trial"",""time""
""fullscreenenter"",""1"",""1578""
","
","","","1991","","","12","18604","6773","s","elianto","#3366ff99"," "," ","1","+10","[2844.9000000059605]","1","2","","","18604","103","5","1","win","go","0"
"pit-trial","222","1411257","0.0-108.0","battery-v0.2","","""event"",""trial"",""time""
""fullscreenenter"",""1"",""1578""
","
","
","""event"",""trial"",""time""
""fullscreenenter"",""1"",""1578""
","
","","","827.1999999880791","","","12","18604","6773","w","elianto","#f73b6a7A","-1"," ","0","-10","[1684.199999988079]","1","2","","","18604","104","6","4","lose","no-go","0"
"pit-trial","223","1414626","0.0-109.0","battery-v0.2","","""event"",""trial"",""time""
""fullscreenenter"",""1"",""1578""
","
","
","""event"",""trial"",""time""
""fullscreenenter"",""1"",""1578""
","
","","","512.8999999761581","","","12","18604","6773","d","elianto","#3366ff99","-1"," ","0","+10","[1364.7999999821186]","1","2","","","18604","105","8","2","win","no-go","1"
"pit-trial","224","1419488","0.0-110.0","battery-v0.2","","""event"",""trial"",""time""
""fullscreenenter"",""1"",""1578""
","
","
","""event"",""trial"",""time""
""fullscreenenter"",""1"",""1578""
","
","","","-1","","","12","18604","6773","w","elianto","#f73b6a7A","-1","-1","1","0","[]","0","2","","","18604","106","6","4","lose","no-go","0"
"pit-trial","225","1423978","0.0-111.0","battery-v0.2","","""event"",""trial"",""time""
""fullscreenenter"",""1"",""1578""
","
","
","""event"",""trial"",""time""
""fullscreenenter"",""1"",""1578""
","
","","","1627.7999999821186","","","12","18604","6773","j","elianto","#3366ff99","-1"," ","0","0","[2480]","1","2","","","18604","107","9","2","win","no-go","0"
"pit-trial","226","1428268","0.0-112.0","battery-v0.2","","""event"",""trial"",""time""
""fullscreenenter"",""1"",""1578""
","
","
","""event"",""trial"",""time""
""fullscreenenter"",""1"",""1578""
","
","","","1435.6000000238419","","","12","18604","6773","s","elianto","#3366ff99"," "," ","1","+10","[2286.4000000059605]","1","2","","","18604","108","5","1","win","go","0"
"pit-trial","227","1432083","0.0-113.0","battery-v0.2","","""event"",""trial"",""time""
""fullscreenenter"",""1"",""1578""
","
","
","""event"",""trial"",""time""
""fullscreenenter"",""1"",""1578""
","
","","","944.8999999761581","","","12","18604","6773","d","elianto","#3366ff99","-1"," ","0","0","[1801.0999999940395]","1","2","","","18604","109","8","2","win","no-go","0"
"pit-trial","228","1435878","0.0-114.0","battery-v0.2","","""event"",""trial"",""time""
""fullscreenenter"",""1"",""1578""
","
","
","""event"",""trial"",""time""
""fullscreenenter"",""1"",""1578""
","
","","","929.8000000119209","","","12","18604","6773","s","elianto","#3366ff99"," "," ","1","+10","[1786.2000000178814]","1","2","","","18604","110","5","1","win","go","0"
"pit-trial","229","1440740","0.0-115.0","battery-v0.2","","""event"",""trial"",""time""
""fullscreenenter"",""1"",""1578""
","
","
","""event"",""trial"",""time""
""fullscreenenter"",""1"",""1578""
","
","","","-1","","","12","18604","6773","j","elianto","#3366ff99","-1","-1","1","+10","[]","0","2","","","18604","111","9","2","win","no-go","0"
"pit-trial","230","1445601","0.0-116.0","battery-v0.2","","""event"",""trial"",""time""
""fullscreenenter"",""1"",""1578""
","
","
","""event"",""trial"",""time""
""fullscreenenter"",""1"",""1578""
","
","","","-1","","","12","18604","6773","w","elianto","#f73b6a7A","-1","-1","1","0","[]","0","2","","","18604","112","6","4","lose","no-go","0"
"pit-trial","231","1449344","0.0-117.0","battery-v0.2","","""event"",""trial"",""time""
""fullscreenenter"",""1"",""1578""
","
","
","""event"",""trial"",""time""
""fullscreenenter"",""1"",""1578""
","
","","","888.6999999880791","","","12","18604","6773","e","elianto","#f73b6a7A"," "," ","1","0","[1739.199999988079]","1","2","","","18604","113","7","3","lose","go","0"
"pit-trial","232","1453184","0.0-118.0","battery-v0.2","","""event"",""trial"",""time""
""fullscreenenter"",""1"",""1578""
","
","
","""event"",""trial"",""time""
""fullscreenenter"",""1"",""1578""
","
","","","985","","","12","18604","6773","d","elianto","#3366ff99","-1"," ","0","0","[1835.5]","1","2","","","18604","114","8","2","win","no-go","0"
"pit-trial","233","1456959","0.0-119.0","battery-v0.2","","""event"",""trial"",""time""
""fullscreenenter"",""1"",""1578""
","
","
","""event"",""trial"",""time""
""fullscreenenter"",""1"",""1578""
","
","","","914.6999999880791","","","12","18604","6773","j","elianto","#3366ff99","-1"," ","0","0","[1769.0999999940395]","1","2","","","18604","115","9","2","win","no-go","0"
"pit-trial","234","1460515","0.0-120.0","battery-v0.2","","""event"",""trial"",""time""
""fullscreenenter"",""1"",""1578""
","
","
","""event"",""trial"",""time""
""fullscreenenter"",""1"",""1578""
","
","","","692","","","12","18604","6773","s","elianto","#3366ff99"," "," ","1","+10","[1550.800000011921]","1","2","","","18604","116","5","1","win","go","0"
"pit-trial","235","1464248","0.0-121.0","battery-v0.2","","""event"",""trial"",""time""
""fullscreenenter"",""1"",""1578""
","
","
","""event"",""trial"",""time""
""fullscreenenter"",""1"",""1578""
","
","","","863.8000000119209","","","12","18604","6773","d","elianto","#3366ff99","-1"," ","0","0","[1714]","1","2","","","18604","117","8","2","win","no-go","0"
"pit-trial","236","1469108","0.0-122.0","battery-v0.2","","""event"",""trial"",""time""
""fullscreenenter"",""1"",""1578""
","
","
","""event"",""trial"",""time""
""fullscreenenter"",""1"",""1578""
","
","","","-1","","","12","18604","6773","j","elianto","#3366ff99","-1","-1","1","0","[]","0","2","","","18604","118","9","2","win","no-go","1"
"pit-trial","237","1473384","0.0-123.0","battery-v0.2","","""event"",""trial"",""time""
""fullscreenenter"",""1"",""1578""
","
","
","""event"",""trial"",""time""
""fullscreenenter"",""1"",""1578""
","
","","","1420.7999999821186","","","12","18604","6773","s","elianto","#3366ff99"," "," ","1","+10","[2272.2999999821186]","1","2","","","18604","119","5","1","win","go","0"
"pit-trial","238","1476687","0.0-124.0","battery-v0.2","","""event"",""trial"",""time""
""fullscreenenter"",""1"",""1578""
","
","
","""event"",""trial"",""time""
""fullscreenenter"",""1"",""1578""
","
","","","441.2000000178814","","","12","18604","6773","w","elianto","#f73b6a7A","-1"," ","0","-10","[1292.6000000238419,2501.300000011921]","2","2","","","18604","120","6","4","lose","no-go","0"
"pit-trial","239","1480126","0.0-125.0","battery-v0.2","","""event"",""trial"",""time""
""fullscreenenter"",""1"",""1578""
","
","
","""event"",""trial"",""time""
""fullscreenenter"",""1"",""1578""
","
","","","586.2999999821186","","","12","18604","6773","j","elianto","#3366ff99","-1"," ","0","+10","[1436.4000000059605]","1","2","","","18604","121","9","2","win","no-go","1"
"pit-trial","240","1484066","0.0-126.0","battery-v0.2","","""event"",""trial"",""time""
""fullscreenenter"",""1"",""1578""
","
","
","""event"",""trial"",""time""
""fullscreenenter"",""1"",""1578""
","
","","","1082.5999999940395","","","12","18604","6773","s","elianto","#3366ff99"," "," ","1","+10","[1936.5,2468.699999988079]","2","2","","","18604","122","5","1","win","go","0"
"pit-trial","241","1487624","0.0-127.0","battery-v0.2","","""event"",""trial"",""time""
""fullscreenenter"",""1"",""1578""
","
","
","""event"",""trial"",""time""
""fullscreenenter"",""1"",""1578""
","
","","","698.1999999880791","","","12","18604","6773","e","elianto","#f73b6a7A"," "," ","1","0","[1549]","1","2","","","18604","123","7","3","lose","go","0"
"pit-trial","242","1491363","0.0-128.0","battery-v0.2","","""event"",""trial"",""time""
""fullscreenenter"",""1"",""1578""
","
","
","""event"",""trial"",""time""
""fullscreenenter"",""1"",""1578""
","
","","","884.4000000059605","","","12","18604","6773","d","elianto","#3366ff99","-1"," ","0","0","[1734.7000000178814]","1","2","","","18604","124","8","2","win","no-go","0"
"pit-trial","243","1496225","0.0-129.0","battery-v0.2","","""event"",""trial"",""time""
""fullscreenenter"",""1"",""1578""
","
","
","""event"",""trial"",""time""
""fullscreenenter"",""1"",""1578""
","
","","","-1","","","12","18604","6773","w","elianto","#f73b6a7A","-1","-1","1","-10","[]","0","2","","","18604","125","6","4","lose","no-go","1"
"pit-trial","244","1499829","0.0-130.0","battery-v0.2","","""event"",""trial"",""time""
""fullscreenenter"",""1"",""1578""
","
","
","""event"",""trial"",""time""
""fullscreenenter"",""1"",""1578""
","
","","","733.8999999761581","","","12","18604","6773","d","elianto","#3366ff99","-1"," ","0","0","[1592.0999999940395]","1","2","","","18604","126","8","2","win","no-go","0"
"pit-trial","245","1504695","0.0-131.0","battery-v0.2","","""event"",""trial"",""time""
""fullscreenenter"",""1"",""1578""
","
","
","""event"",""trial"",""time""
""fullscreenenter"",""1"",""1578""
","
","","","-1","","","12","18604","6773","j","elianto","#3366ff99","-1","-1","1","0","[]","0","2","","","18604","127","9","2","win","no-go","1"
"pit-trial","246","1507947","0.0-132.0","battery-v0.2","","""event"",""trial"",""time""
""fullscreenenter"",""1"",""1578""
","
","
","""event"",""trial"",""time""
""fullscreenenter"",""1"",""1578""
","
","","","396.7999999821186","","","12","18604","6773","e","elianto","#f73b6a7A"," "," ","1","0","[1248.0999999940395]","1","2","","","18604","128","7","3","lose","go","0"
"pit-trial","247","1512815","0.0-133.0","battery-v0.2","","""event"",""trial"",""time""
""fullscreenenter"",""1"",""1578""
","
","
","""event"",""trial"",""time""
""fullscreenenter"",""1"",""1578""
","
","","","-1","","","12","18604","6773","w","elianto","#f73b6a7A","-1","-1","1","-10","[]","0","2","","","18604","129","6","4","lose","no-go","1"
"pit-trial","248","1517681","0.0-134.0","battery-v0.2","","""event"",""trial"",""time""
""fullscreenenter"",""1"",""1578""
","
","
","""event"",""trial"",""time""
""fullscreenenter"",""1"",""1578""
","
","","","-1","","","12","18604","6773","e","elianto","#f73b6a7A"," ","-1","0","-10","[3139.5]","1","2","","","18604","130","7","3","lose","go","0"
"pit-trial","249","1522086","0.0-135.0","battery-v0.2","","""event"",""trial"",""time""
""fullscreenenter"",""1"",""1578""
","
","
","""event"",""trial"",""time""
""fullscreenenter"",""1"",""1578""
","
","","","1544.199999988079","","","12","18604","6773","d","elianto","#3366ff99","-1"," ","0","0","[2394.7999999821186]","1","2","","","18604","131","8","2","win","no-go","0"
"pit-trial","250","1525801","0.0-136.0","battery-v0.2","","""event"",""trial"",""time""
""fullscreenenter"",""1"",""1578""
","
","
","""event"",""trial"",""time""
""fullscreenenter"",""1"",""1578""
","
","","","855","","","12","18604","6773","j","elianto","#3366ff99","-1"," ","0","0","[1705.5]","1","2","","","18604","132","9","2","win","no-go","0"
"pit-trial","251","1530244","0.0-137.0","battery-v0.2","","""event"",""trial"",""time""
""fullscreenenter"",""1"",""1578""
","
","
","""event"",""trial"",""time""
""fullscreenenter"",""1"",""1578""
","
","","","1577","","","12","18604","6773","j","elianto","#3366ff99","-1"," ","0","0","[2434.0999999940395]","1","2","","","18604","133","9","2","win","no-go","0"
"pit-trial","252","1535111","0.0-138.0","battery-v0.2","","""event"",""trial"",""time""
""fullscreenenter"",""1"",""1578""
","
","
","""event"",""trial"",""time""
""fullscreenenter"",""1"",""1578""
","
","","","-1","","","12","18604","6773","w","elianto","#f73b6a7A","-1","-1","1","0","[]","0","2","","","18604","134","6","4","lose","no-go","0"
"pit-trial","253","1539982","0.0-139.0","battery-v0.2","","""event"",""trial"",""time""
""fullscreenenter"",""1"",""1578""
","
","
","""event"",""trial"",""time""
""fullscreenenter"",""1"",""1578""
","
","","","-1","","","12","18604","6773","e","elianto","#f73b6a7A"," ","-1","0","-10","[]","0","2","","","18604","135","7","3","lose","go","0"
"pit-trial","254","1544268","0.0-140.0","battery-v0.2","","""event"",""trial"",""time""
""fullscreenenter"",""1"",""1578""
","
","
","""event"",""trial"",""time""
""fullscreenenter"",""1"",""1578""
","
","","","1428.300000011921","","","12","18604","6773","d","elianto","#3366ff99","-1"," ","0","0","[2279.9000000059605]","1","2","","","18604","136","8","2","win","no-go","0"
"pit-trial","255","1549145","0.0-141.0","battery-v0.2","","""event"",""trial"",""time""
""fullscreenenter"",""1"",""1578""
","
","
","""event"",""trial"",""time""
""fullscreenenter"",""1"",""1578""
","
","","","-1","","","12","18604","6773","d","elianto","#3366ff99","-1","-1","1","+10","[]","0","2","","","18604","137","8","2","win","no-go","0"
"pit-trial","256","1552655","0.0-142.0","battery-v0.2","","""event"",""trial"",""time""
""fullscreenenter"",""1"",""1578""
","
","
","""event"",""trial"",""time""
""fullscreenenter"",""1"",""1578""
","
","","","649","","","12","18604","6773","j","elianto","#3366ff99","-1"," ","0","0","[1500.2999999821186]","1","2","","","18604","138","9","2","win","no-go","0"
"pit-trial","257","1557519","0.0-143.0","battery-v0.2","","""event"",""trial"",""time""
""fullscreenenter"",""1"",""1578""
","
","
","""event"",""trial"",""time""
""fullscreenenter"",""1"",""1578""
","
","","","-1","","","12","18604","6773","e","elianto","#f73b6a7A"," ","-1","0","-10","[3098.300000011921]","1","2","","","18604","139","7","3","lose","go","0"
"pit-trial","258","1561110","0.0-144.0","battery-v0.2","","""event"",""trial"",""time""
""fullscreenenter"",""1"",""1578""
","
","
","""event"",""trial"",""time""
""fullscreenenter"",""1"",""1578""
","
","","","733.8000000119209","","","12","18604","6773","w","elianto","#f73b6a7A","-1"," ","0","-10","[1584.3999999761581]","1","2","","","18604","140","6","4","lose","no-go","0"
"pit-instructions","259","1878575","0.0-145.0","battery-v0.2","","""event"",""trial"",""time""
""fullscreenenter"",""1"",""1578""
","
","
","""event"",""trial"",""time""
""fullscreenenter"",""1"",""1578""
","
","","[{""page_index"":0,""viewing_time"":309405.1999999881},{""page_index"":1,""viewing_time"":8052.800000011921}]","317458.59999999404","","","","","","","","","","","","","","","","","","","","","","","",""
"pit-trial","260","1882821","0.0-146.0","battery-v0.2","","""event"",""trial"",""time""
""fullscreenenter"",""1"",""1578""
","
","
","""event"",""trial"",""time""
""fullscreenenter"",""1"",""1578""
","
","","","1386.5","","","12","18604","6773","y","elianto","#f73b6a7A"," "," ","1","0","[2236.7999999821186]","1","3","","","18604","141","2","3","lose","go","0"
"pit-trial","261","1887667","0.0-147.0","battery-v0.2","","""event"",""trial"",""time""
""fullscreenenter"",""1"",""1578""
","
","
","""event"",""trial"",""time""
