"trial_type","trial_index","time_elapsed","internal_node_id","task_version","subject_id","interactions","blur_events","focus_events","fullscreenenter_events","fullscreenexit_events","success","view_history","rt","responses","num_errors","age","subject","participantId","rune","rune_set","hex","correct","choice","accuracy","outcome","keys","total_keys","block","practice","value","sub","trial","stimulus","robot","valence","action","sham"
"pavlovia","0","14","0.0-0.0","battery-v0.2","","""event"",""trial"",""time""
""fullscreenenter"",""1"",""1303""
","
","
","""event"",""trial"",""time""
""fullscreenenter"",""1"",""1303""
","
","","","","","","","","","","","","","","","","","","","","","","","","","","",""
"fullscreen","1","2283","0.0-1.0","battery-v0.2","","""event"",""trial"",""time""
""fullscreenenter"",""1"",""1303""
","
","
","""event"",""trial"",""time""
""fullscreenenter"",""1"",""1303""
","
","true","","","","","","","","","","","","","","","","","","","","","","","","","",""
"pit-instructions","2","7275","0.0-2.0-0.0","battery-v0.2","","""event"",""trial"",""time""
""fullscreenenter"",""1"",""1303""
","
","
","""event"",""trial"",""time""
""fullscreenenter"",""1"",""1303""
","
","","[{""page_index"":0,""viewing_time"":4987.5}]","4987.700000047684","","","","","","","","","","","","","","","","","","","","","","","",""
"pit-comprehension","3","9759","0.0-2.0-1.0-0.0","battery-v0.2","","""event"",""trial"",""time""
""fullscreenenter"",""1"",""1303""
","
","
","""event"",""trial"",""time""
""fullscreenenter"",""1"",""1303""
","
","","","2482.2000000476837","[""shark""]","0","18","10831","5141","","","","","","","","","","","","","","","","","","",""
"pit-instructions","4","12243","0.0-2.0-1.0-1.0","battery-v0.2","","""event"",""trial"",""time""
""fullscreenenter"",""1"",""1303""
","
","
","""event"",""trial"",""time""
""fullscreenenter"",""1"",""1303""
","
","","[{""page_index"":0,""viewing_time"":2479.399999976158}]","2479.5","","","","","","","","","","","","","","","","","","","","","","","",""
"pit-comprehension","5","14242","0.0-2.0-2.0-0.0","battery-v0.2","","""event"",""trial"",""time""
""fullscreenenter"",""1"",""1303""
","
","
","""event"",""trial"",""time""
""fullscreenenter"",""1"",""1303""
","
","","","1996.4000000953674","[""tiger""]","0","18","10831","5141","","","","","","","","","","","","","","","","","","",""
"pit-instructions","6","15392","0.0-2.0-2.0-1.0","battery-v0.2","","""event"",""trial"",""time""
""fullscreenenter"",""1"",""1303""
","
","
","""event"",""trial"",""time""
""fullscreenenter"",""1"",""1303""
","
","","[{""page_index"":0,""viewing_time"":1147.5}]","1147.7000000476837","","","","","","","","","","","","","","","","","","","","","","","",""
"pit-instructions","7","124459","0.0-2.0-3.0","battery-v0.2","","""event"",""trial"",""time""
""fullscreenenter"",""1"",""1303""
","
","
","""event"",""trial"",""time""
""fullscreenenter"",""1"",""1303""
","
","","[{""page_index"":0,""viewing_time"":9768.100000023842},{""page_index"":1,""viewing_time"":6646.899999976158},{""page_index"":2,""viewing_time"":11067.399999976158},{""page_index"":3,""viewing_time"":9267},{""page_index"":4,""viewing_time"":5350},{""page_index"":5,""viewing_time"":5333.900000095367},{""page_index"":6,""viewing_time"":8337.299999952316},{""page_index"":7,""viewing_time"":9695.899999976158},{""page_index"":8,""viewing_time"":6601.800000071526},{""page_index"":9,""viewing_time"":8702.199999928474},{""page_index"":10,""viewing_time"":7680.800000071526},{""page_index"":11,""viewing_time"":7383.399999976158},{""page_index"":12,""viewing_time"":6552.699999928474},{""page_index"":13,""viewing_time"":6681.100000023842}]","109069.20000004768","","","","","","","","","","","","","","","","","","","","","","","",""
"pit-trial","8","127997","0.0-2.0-4.0-0.0","battery-v0.2","","""event"",""trial"",""time""
""fullscreenenter"",""1"",""1303""
","
","
","""event"",""trial"",""time""
""fullscreenenter"",""1"",""1303""
","
","","","665.3000000715256","","","18","10831","5141","&#9784;","elianto","#FFFFF080"," "," ","1","&#10004","[1523.5999999046326]","1","0","0","","","","","","","",""
"pit-trial","9","131385","0.0-2.0-4.1-0.1","battery-v0.2","","""event"",""trial"",""time""
""fullscreenenter"",""1"",""1303""
","
","
","""event"",""trial"",""time""
""fullscreenenter"",""1"",""1303""
","
","","","525.6000000238419","","","18","10831","5141","&#9784;","elianto","#FFFFF080"," "," ","1","&#10004","[1376.6999999284744]","1","0","0","","","","","","","",""
"pit-trial","10","134748","0.0-2.0-4.2-0.2","battery-v0.2","","""event"",""trial"",""time""
""fullscreenenter"",""1"",""1303""
","
","
","""event"",""trial"",""time""
""fullscreenenter"",""1"",""1303""
","
","","","501.60000002384186","","","18","10831","5141","&#9784;","elianto","#FFFFF080"," "," ","1","&#10004","[1353.3000000715256]","1","0","0","","","","","","","",""
"pit-trial","11","138153","0.0-2.0-4.3-0.3","battery-v0.2","","""event"",""trial"",""time""
""fullscreenenter"",""1"",""1303""
","
","
","""event"",""trial"",""time""
""fullscreenenter"",""1"",""1303""
","
","","","545.9000000953674","","","18","10831","5141","&#9784;","elianto","#FFFFF080"," "," ","1","&#10004","[1398.3999999761581]","1","0","0","","","","","","","",""
"pit-trial","12","141572","0.0-2.0-4.4-0.4","battery-v0.2","","""event"",""trial"",""time""
""fullscreenenter"",""1"",""1303""
","
","
","""event"",""trial"",""time""
""fullscreenenter"",""1"",""1303""
","
","","","558.4000000953674","","","18","10831","5141","&#9784;","elianto","#FFFFF080"," "," ","1","&#10004","[1408.8999999761581]","1","0","0","","","","","","","",""
"pit-instructions","13","172925","0.0-2.0-5.0","battery-v0.2","","""event"",""trial"",""time""
""fullscreenenter"",""1"",""1303""
","
","
","""event"",""trial"",""time""
""fullscreenenter"",""1"",""1303""
","
","","[{""page_index"":0,""viewing_time"":15546.799999952316},{""page_index"":1,""viewing_time"":5612.200000047684},{""page_index"":2,""viewing_time"":4948.799999952316},{""page_index"":3,""viewing_time"":5242.300000071526}]","31350.299999952316","","","","","","","","","","","","","","","","","","","","","","","",""
"pit-trial","14","177795","0.0-2.0-6.0-0.0","battery-v0.2","","""event"",""trial"",""time""
""fullscreenenter"",""1"",""1303""
","
","
","""event"",""trial"",""time""
""fullscreenenter"",""1"",""1303""
","
","","","-1","","","18","10831","5141","&#9854;","elianto","#FFFFF080","-1","-1","1","&#10004","[]","0","0","1","","","","","","","",""
"pit-trial","15","182662","0.0-2.0-6.1-0.1","battery-v0.2","","""event"",""trial"",""time""
""fullscreenenter"",""1"",""1303""
","
","
","""event"",""trial"",""time""
""fullscreenenter"",""1"",""1303""
","
","","","-1","","","18","10831","5141","&#9854;","elianto","#FFFFF080","-1","-1","1","&#10004","[]","0","0","1","","","","","","","",""
"pit-trial","16","187526","0.0-2.0-6.2-0.2","battery-v0.2","","""event"",""trial"",""time""
""fullscreenenter"",""1"",""1303""
","
","
","""event"",""trial"",""time""
""fullscreenenter"",""1"",""1303""
","
","","","-1","","","18","10831","5141","&#9854;","elianto","#FFFFF080","-1","-1","1","&#10004","[]","0","0","1","","","","","","","",""
"pit-trial","17","192391","0.0-2.0-6.3-0.3","battery-v0.2","","""event"",""trial"",""time""
""fullscreenenter"",""1"",""1303""
","
","
","""event"",""trial"",""time""
""fullscreenenter"",""1"",""1303""
","
","","","-1","","","18","10831","5141","&#9854;","elianto","#FFFFF080","-1","-1","1","&#10004","[]","0","0","1","","","","","","","",""
"pit-trial","18","197258","0.0-2.0-6.4-0.4","battery-v0.2","","""event"",""trial"",""time""
""fullscreenenter"",""1"",""1303""
","
","
","""event"",""trial"",""time""
""fullscreenenter"",""1"",""1303""
","
","","","-1","","","18","10831","5141","&#9854;","elianto","#FFFFF080","-1","-1","1","&#10004","[]","0","0","1","","","","","","","",""
"pit-instructions","19","324889","0.0-2.0-7.0","battery-v0.2","","""event"",""trial"",""time""
""fullscreenenter"",""1"",""1303""
","
","
","""event"",""trial"",""time""
""fullscreenenter"",""1"",""1303""
","
","","[{""page_index"":0,""viewing_time"":5595.299999952316},{""page_index"":1,""viewing_time"":8152.100000023842},{""page_index"":2,""viewing_time"":6632.899999976158},{""page_index"":3,""viewing_time"":5565.700000047684},{""page_index"":4,""viewing_time"":6133.599999904633},{""page_index"":5,""viewing_time"":5750.600000023842},{""page_index"":6,""viewing_time"":5033.5},{""page_index"":7,""viewing_time"":7400.600000023842},{""page_index"":8,""viewing_time"":8417.799999952316},{""page_index"":9,""viewing_time"":7465.800000071526},{""page_index"":10,""viewing_time"":7983.799999952316},{""page_index"":11,""viewing_time"":6965.800000071526},{""page_index"":12,""viewing_time"":7351},{""page_index"":13,""viewing_time"":7099.599999904633},{""page_index"":14,""viewing_time"":7601.100000023842},{""page_index"":15,""viewing_time"":10386.100000023842},{""page_index"":16,""viewing_time"":6631.100000023842},{""page_index"":17,""viewing_time"":7465.399999976158}]","127632","","","","","","","","","","","","","","","","","","","","","","","",""
"pit-trial","20","329017","0.0-2.0-8.0-0.0","battery-v0.2","","""event"",""trial"",""time""
""fullscreenenter"",""1"",""1303""
","
","
","""event"",""trial"",""time""
""fullscreenenter"",""1"",""1303""
","
","","","1264","","","18","10831","5141","&#9776;","elianto","#3366ff99"," "," ","1","+10","[2118.7000000476837]","1","0","1","","","","","","","",""
"pit-trial","21","332472","0.0-2.0-8.0-1.0","battery-v0.2","","""event"",""trial"",""time""
""fullscreenenter"",""1"",""1303""
","
","
","""event"",""trial"",""time""
""fullscreenenter"",""1"",""1303""
","
","","","596.3999999761581","","","18","10831","5141","&#9776;","elianto","#3366ff99"," "," ","1","+10","[1446.6000000238419]","1","0","1","","","","","","","",""
"pit-trial","22","336296","0.0-2.0-8.0-2.0","battery-v0.2","","""event"",""trial"",""time""
""fullscreenenter"",""1"",""1303""
","
","
","""event"",""trial"",""time""
""fullscreenenter"",""1"",""1303""
","
","","","963.8999999761581","","","18","10831","5141","&#9776;","elianto","#3366ff99"," "," ","1","+10","[1818]","1","0","1","","","","","","","",""
"pit-trial","23","339755","0.0-2.0-8.0-3.0","battery-v0.2","","""event"",""trial"",""time""
""fullscreenenter"",""1"",""1303""
","
","
","""event"",""trial"",""time""
""fullscreenenter"",""1"",""1303""
","
","","","595","","","18","10831","5141","&#9776;","elianto","#3366ff99"," "," ","1","0","[1447.7999999523163]","1","0","1","","","","","","","",""
"pit-trial","24","343292","0.0-2.0-8.0-4.0","battery-v0.2","","""event"",""trial"",""time""
""fullscreenenter"",""1"",""1303""
","
","
","""event"",""trial"",""time""
""fullscreenenter"",""1"",""1303""
","
","","","667.0999999046326","","","18","10831","5141","&#9776;","elianto","#3366ff99"," "," ","1","+10","[1525.3999999761581]","1","0","1","","","","","","","",""
"pit-trial","25","346791","0.0-2.0-8.1-0.1","battery-v0.2","","""event"",""trial"",""time""
""fullscreenenter"",""1"",""1303""
","
","
","""event"",""trial"",""time""
""fullscreenenter"",""1"",""1303""
","
","","","634.8999999761581","","","18","10831","5141","&#9776;","elianto","#3366ff99"," "," ","1","+10","[1489.5]","1","0","1","","","","","","","",""
"pit-trial","26","350131","0.0-2.0-8.1-1.1","battery-v0.2","","""event"",""trial"",""time""
""fullscreenenter"",""1"",""1303""
","
","
","""event"",""trial"",""time""
""fullscreenenter"",""1"",""1303""
","
","","","476.09999990463257","","","18","10831","5141","&#9776;","elianto","#3366ff99"," "," ","1","+10","[1329.3000000715256]","1","0","1","","","","","","","",""
"pit-trial","27","353531","0.0-2.0-8.1-2.1","battery-v0.2","","""event"",""trial"",""time""
""fullscreenenter"",""1"",""1303""
","
","
","""event"",""trial"",""time""
""fullscreenenter"",""1"",""1303""
","
","","","536.8999999761581","","","18","10831","5141","&#9776;","elianto","#3366ff99"," "," ","1","+10","[1389.0999999046326]","1","0","1","","","","","","","",""
"pit-trial","28","357011","0.0-2.0-8.1-3.1","battery-v0.2","","""event"",""trial"",""time""
""fullscreenenter"",""1"",""1303""
","
","
","""event"",""trial"",""time""
""fullscreenenter"",""1"",""1303""
","
","","","616.2999999523163","","","18","10831","5141","&#9776;","elianto","#3366ff99"," "," ","1","0","[1468.6000000238419]","1","0","1","","","","","","","",""
"pit-trial","29","360939","0.0-2.0-8.1-4.1","battery-v0.2","","""event"",""trial"",""time""
""fullscreenenter"",""1"",""1303""
","
","
","""event"",""trial"",""time""
""fullscreenenter"",""1"",""1303""
","
","","","1056.4000000953674","","","18","10831","5141","&#9776;","elianto","#3366ff99"," "," ","1","+10","[1913.1000000238419]","1","0","1","","","","","","","",""
"pit-trial","30","364570","0.0-2.0-8.2-0.2","battery-v0.2","","""event"",""trial"",""time""
""fullscreenenter"",""1"",""1303""
","
","
","""event"",""trial"",""time""
""fullscreenenter"",""1"",""1303""
","
","","","760.2000000476837","","","18","10831","5141","&#9776;","elianto","#3366ff99"," "," ","1","+10","[1619.3000000715256]","1","0","1","","","","","","","",""
"pit-trial","31","368027","0.0-2.0-8.2-1.2","battery-v0.2","","""event"",""trial"",""time""
""fullscreenenter"",""1"",""1303""
","
","
","""event"",""trial"",""time""
""fullscreenenter"",""1"",""1303""
","
","","","585.5","","","18","10831","5141","&#9776;","elianto","#3366ff99"," "," ","1","+10","[1443.6000000238419]","1","0","1","","","","","","","",""
"pit-trial","32","371450","0.0-2.0-8.2-2.2","battery-v0.2","","""event"",""trial"",""time""
""fullscreenenter"",""1"",""1303""
","
","
","""event"",""trial"",""time""
""fullscreenenter"",""1"",""1303""
","
","","","556.5","","","18","10831","5141","&#9776;","elianto","#3366ff99"," "," ","1","+10","[1412.7000000476837]","1","0","1","","","","","","","",""
"pit-trial","33","374866","0.0-2.0-8.2-3.2","battery-v0.2","","""event"",""trial"",""time""
""fullscreenenter"",""1"",""1303""
","
","
","""event"",""trial"",""time""
""fullscreenenter"",""1"",""1303""
","
","","","552.8999999761581","","","18","10831","5141","&#9776;","elianto","#3366ff99"," "," ","1","0","[1404.1000000238419]","1","0","1","","","","","","","",""
"pit-trial","34","378298","0.0-2.0-8.2-4.2","battery-v0.2","","""event"",""trial"",""time""
""fullscreenenter"",""1"",""1303""
","
","
","""event"",""trial"",""time""
""fullscreenenter"",""1"",""1303""
","
","","","570.5","","","18","10831","5141","&#9776;","elianto","#3366ff99"," "," ","1","+10","[1421.1999999284744]","1","0","1","","","","","","","",""
"call-function","35","378301","0.0-2.0-9.0","battery-v0.2","","""event"",""trial"",""time""
""fullscreenenter"",""1"",""1303""
","
","
","""event"",""trial"",""time""
""fullscreenenter"",""1"",""1303""
","
","","","","","","","","","","","","","","","","","","","","","","","","","","",""
"pit-instructions","36","439188","0.0-2.0-10.0","battery-v0.2","","""event"",""trial"",""time""
""fullscreenenter"",""1"",""1303""
","
","
","""event"",""trial"",""time""
""fullscreenenter"",""1"",""1303""
","
","","[{""page_index"":0,""viewing_time"":6121.899999976158},{""page_index"":1,""viewing_time"":8633.299999952316},{""page_index"":2,""viewing_time"":14867.300000071526},{""page_index"":3,""viewing_time"":11665.399999976158},{""page_index"":4,""viewing_time"":19600.799999952316}]","60888.89999997616","","","","","","","","","","","","","","","","","","","","","","","",""
"pit-trial","37","444055","0.0-2.0-11.0-0.0","battery-v0.2","","""event"",""trial"",""time""
""fullscreenenter"",""1"",""1303""
","
","
","""event"",""trial"",""time""
""fullscreenenter"",""1"",""1303""
","
","","","-1","","","18","10831","5141","&#9761;","elianto","#3366ff99","-1","-1","1","+10","[]","0","0","2","","","","","","","",""
"pit-trial","38","448927","0.0-2.0-11.0-1.0","battery-v0.2","","""event"",""trial"",""time""
""fullscreenenter"",""1"",""1303""
","
","
","""event"",""trial"",""time""
""fullscreenenter"",""1"",""1303""
","
","","","-1","","","18","10831","5141","&#9761;","elianto","#3366ff99","-1","-1","1","+10","[]","0","0","2","","","","","","","",""
"pit-trial","39","453795","0.0-2.0-11.0-2.0","battery-v0.2","","""event"",""trial"",""time""
""fullscreenenter"",""1"",""1303""
","
","
","""event"",""trial"",""time""
""fullscreenenter"",""1"",""1303""
","
","","","-1","","","18","10831","5141","&#9761;","elianto","#3366ff99","-1","-1","1","+10","[]","0","0","2","","","","","","","",""
"pit-trial","40","458663","0.0-2.0-11.0-3.0","battery-v0.2","","""event"",""trial"",""time""
""fullscreenenter"",""1"",""1303""
","
","
","""event"",""trial"",""time""
""fullscreenenter"",""1"",""1303""
","
","","","-1","","","18","10831","5141","&#9761;","elianto","#3366ff99","-1","-1","1","0","[]","0","0","2","","","","","","","",""
"pit-trial","41","463535","0.0-2.0-11.0-4.0","battery-v0.2","","""event"",""trial"",""time""
""fullscreenenter"",""1"",""1303""
","
","
","""event"",""trial"",""time""
""fullscreenenter"",""1"",""1303""
","
","","","-1","","","18","10831","5141","&#9761;","elianto","#3366ff99","-1","-1","1","+10","[]","0","0","2","","","","","","","",""
"pit-trial","42","468407","0.0-2.0-11.1-0.1","battery-v0.2","","""event"",""trial"",""time""
""fullscreenenter"",""1"",""1303""
","
","
","""event"",""trial"",""time""
""fullscreenenter"",""1"",""1303""
","
","","","-1","","","18","10831","5141","&#9761;","elianto","#3366ff99","-1","-1","1","+10","[]","0","0","2","","","","","","","",""
"pit-trial","43","473277","0.0-2.0-11.1-1.1","battery-v0.2","","""event"",""trial"",""time""
""fullscreenenter"",""1"",""1303""
","
","
","""event"",""trial"",""time""
""fullscreenenter"",""1"",""1303""
","
","","","-1","","","18","10831","5141","&#9761;","elianto","#3366ff99","-1","-1","1","+10","[]","0","0","2","","","","","","","",""
"pit-trial","44","478150","0.0-2.0-11.1-2.1","battery-v0.2","","""event"",""trial"",""time""
""fullscreenenter"",""1"",""1303""
","
","
","""event"",""trial"",""time""
""fullscreenenter"",""1"",""1303""
","
","","","-1","","","18","10831","5141","&#9761;","elianto","#3366ff99","-1","-1","1","+10","[]","0","0","2","","","","","","","",""
"pit-trial","45","483021","0.0-2.0-11.1-3.1","battery-v0.2","","""event"",""trial"",""time""
""fullscreenenter"",""1"",""1303""
","
","
","""event"",""trial"",""time""
""fullscreenenter"",""1"",""1303""
","
","","","-1","","","18","10831","5141","&#9761;","elianto","#3366ff99","-1","-1","1","0","[]","0","0","2","","","","","","","",""
"pit-trial","46","487893","0.0-2.0-11.1-4.1","battery-v0.2","","""event"",""trial"",""time""
""fullscreenenter"",""1"",""1303""
","
","
","""event"",""trial"",""time""
""fullscreenenter"",""1"",""1303""
","
","","","-1","","","18","10831","5141","&#9761;","elianto","#3366ff99","-1","-1","1","+10","[]","0","0","2","","","","","","","",""
"pit-trial","47","492763","0.0-2.0-11.2-0.2","battery-v0.2","","""event"",""trial"",""time""
""fullscreenenter"",""1"",""1303""
","
","
","""event"",""trial"",""time""
""fullscreenenter"",""1"",""1303""
","
","","","-1","","","18","10831","5141","&#9761;","elianto","#3366ff99","-1","-1","1","+10","[]","0","0","2","","","","","","","",""
"pit-trial","48","497632","0.0-2.0-11.2-1.2","battery-v0.2","","""event"",""trial"",""time""
""fullscreenenter"",""1"",""1303""
","
","
","""event"",""trial"",""time""
""fullscreenenter"",""1"",""1303""
","
","","","-1","","","18","10831","5141","&#9761;","elianto","#3366ff99","-1","-1","1","+10","[]","0","0","2","","","","","","","",""
"pit-trial","49","502501","0.0-2.0-11.2-2.2","battery-v0.2","","""event"",""trial"",""time""
""fullscreenenter"",""1"",""1303""
","
","
","""event"",""trial"",""time""
""fullscreenenter"",""1"",""1303""
","
","","","-1","","","18","10831","5141","&#9761;","elianto","#3366ff99","-1","-1","1","+10","[]","0","0","2","","","","","","","",""
"pit-trial","50","507373","0.0-2.0-11.2-3.2","battery-v0.2","","""event"",""trial"",""time""
""fullscreenenter"",""1"",""1303""
","
","
","""event"",""trial"",""time""
""fullscreenenter"",""1"",""1303""
","
","","","-1","","","18","10831","5141","&#9761;","elianto","#3366ff99","-1","-1","1","0","[]","0","0","2","","","","","","","",""
"pit-trial","51","512245","0.0-2.0-11.2-4.2","battery-v0.2","","""event"",""trial"",""time""
""fullscreenenter"",""1"",""1303""
","
","
","""event"",""trial"",""time""
""fullscreenenter"",""1"",""1303""
","
","","","-1","","","18","10831","5141","&#9761;","elianto","#3366ff99","-1","-1","1","+10","[]","0","0","2","","","","","","","",""
"pit-trial","52","517116","0.0-2.0-11.3-0.3","battery-v0.2","","""event"",""trial"",""time""
""fullscreenenter"",""1"",""1303""
","
","
","""event"",""trial"",""time""
""fullscreenenter"",""1"",""1303""
","
","","","-1","","","18","10831","5141","&#9761;","elianto","#3366ff99","-1","-1","1","+10","[]","0","0","2","","","","","","","",""
"pit-trial","53","521988","0.0-2.0-11.3-1.3","battery-v0.2","","""event"",""trial"",""time""
""fullscreenenter"",""1"",""1303""
","
","
","""event"",""trial"",""time""
""fullscreenenter"",""1"",""1303""
","
","","","-1","","","18","10831","5141","&#9761;","elianto","#3366ff99","-1","-1","1","+10","[]","0","0","2","","","","","","","",""
"pit-trial","54","526857","0.0-2.0-11.3-2.3","battery-v0.2","","""event"",""trial"",""time""
""fullscreenenter"",""1"",""1303""
","
","
","""event"",""trial"",""time""
""fullscreenenter"",""1"",""1303""
","
","","","-1","","","18","10831","5141","&#9761;","elianto","#3366ff99","-1","-1","1","+10","[]","0","0","2","","","","","","","",""
"pit-trial","55","531731","0.0-2.0-11.3-3.3","battery-v0.2","","""event"",""trial"",""time""
""fullscreenenter"",""1"",""1303""
","
","
","""event"",""trial"",""time""
""fullscreenenter"",""1"",""1303""
","
","","","-1","","","18","10831","5141","&#9761;","elianto","#3366ff99","-1","-1","1","0","[]","0","0","2","","","","","","","",""
"pit-trial","56","536603","0.0-2.0-11.3-4.3","battery-v0.2","","""event"",""trial"",""time""
""fullscreenenter"",""1"",""1303""
","
","
","""event"",""trial"",""time""
""fullscreenenter"",""1"",""1303""
","
","","","-1","","","18","10831","5141","&#9761;","elianto","#3366ff99","-1","-1","1","+10","[]","0","0","2","","","","","","","",""
"call-function","57","536606","0.0-2.0-12.0","battery-v0.2","","""event"",""trial"",""time""
""fullscreenenter"",""1"",""1303""
","
","
","""event"",""trial"",""time""
""fullscreenenter"",""1"",""1303""
","
","","","","","","","","","","","","","","","","","","","","","","","","","","",""
"pit-instructions","58","586389","0.0-2.0-13.0","battery-v0.2","","""event"",""trial"",""time""
""fullscreenenter"",""1"",""1303""
","
","
","""event"",""trial"",""time""
""fullscreenenter"",""1"",""1303""
","
","","[{""page_index"":0,""viewing_time"":5616.799999952316},{""page_index"":1,""viewing_time"":9115.5},{""page_index"":2,""viewing_time"":5149.300000071526},{""page_index"":3,""viewing_time"":25486.199999928474},{""page_index"":4,""viewing_time"":4416.300000071526}]","49784.5","","","","","","","","","","","","","","","","","","","","","","","",""
"pit-trial","59","591257","0.0-2.0-14.0-0.0","battery-v0.2","","""event"",""trial"",""time""
""fullscreenenter"",""1"",""1303""
","
","
","""event"",""trial"",""time""
""fullscreenenter"",""1"",""1303""
","
","","","-1","","","18","10831","5141","&#9826;","elianto","#f73b6a7A","-1","-1","1","0","[]","0","0","3","","","","","","","",""
"pit-trial","60","596125","0.0-2.0-14.0-1.0","battery-v0.2","","""event"",""trial"",""time""
""fullscreenenter"",""1"",""1303""
","
","
","""event"",""trial"",""time""
""fullscreenenter"",""1"",""1303""
","
","","","-1","","","18","10831","5141","&#9826;","elianto","#f73b6a7A","-1","-1","1","0","[]","0","0","3","","","","","","","",""
"pit-trial","61","600992","0.0-2.0-14.0-2.0","battery-v0.2","","""event"",""trial"",""time""
""fullscreenenter"",""1"",""1303""
","
","
","""event"",""trial"",""time""
""fullscreenenter"",""1"",""1303""
","
","","","-1","","","18","10831","5141","&#9826;","elianto","#f73b6a7A","-1","-1","1","0","[]","0","0","3","","","","","","","",""
"pit-trial","62","605860","0.0-2.0-14.0-3.0","battery-v0.2","","""event"",""trial"",""time""
""fullscreenenter"",""1"",""1303""
","
","
","""event"",""trial"",""time""
""fullscreenenter"",""1"",""1303""
","
","","","-1","","","18","10831","5141","&#9826;","elianto","#f73b6a7A","-1","-1","1","-10","[]","0","0","3","","","","","","","",""
"pit-trial","63","610728","0.0-2.0-14.0-4.0","battery-v0.2","","""event"",""trial"",""time""
""fullscreenenter"",""1"",""1303""
","
","
","""event"",""trial"",""time""
""fullscreenenter"",""1"",""1303""
","
","","","-1","","","18","10831","5141","&#9826;","elianto","#f73b6a7A","-1","-1","1","0","[]","0","0","3","","","","","","","",""
"pit-trial","64","615596","0.0-2.0-14.1-0.1","battery-v0.2","","""event"",""trial"",""time""
""fullscreenenter"",""1"",""1303""
","
","
","""event"",""trial"",""time""
""fullscreenenter"",""1"",""1303""
","
","","","-1","","","18","10831","5141","&#9826;","elianto","#f73b6a7A","-1","-1","1","0","[]","0","0","3","","","","","","","",""
"pit-trial","65","620464","0.0-2.0-14.1-1.1","battery-v0.2","","""event"",""trial"",""time""
""fullscreenenter"",""1"",""1303""
","
","
","""event"",""trial"",""time""
""fullscreenenter"",""1"",""1303""
","
","","","-1","","","18","10831","5141","&#9826;","elianto","#f73b6a7A","-1","-1","1","0","[]","0","0","3","","","","","","","",""
"pit-trial","66","625334","0.0-2.0-14.1-2.1","battery-v0.2","","""event"",""trial"",""time""
""fullscreenenter"",""1"",""1303""
","
","
","""event"",""trial"",""time""
""fullscreenenter"",""1"",""1303""
","
","","","-1","","","18","10831","5141","&#9826;","elianto","#f73b6a7A","-1","-1","1","0","[]","0","0","3","","","","","","","",""
"pit-trial","67","630207","0.0-2.0-14.1-3.1","battery-v0.2","","""event"",""trial"",""time""
""fullscreenenter"",""1"",""1303""
","
","
","""event"",""trial"",""time""
""fullscreenenter"",""1"",""1303""
","
","","","-1","","","18","10831","5141","&#9826;","elianto","#f73b6a7A","-1","-1","1","-10","[]","0","0","3","","","","","","","",""
"pit-trial","68","635077","0.0-2.0-14.1-4.1","battery-v0.2","","""event"",""trial"",""time""
""fullscreenenter"",""1"",""1303""
","
","
","""event"",""trial"",""time""
""fullscreenenter"",""1"",""1303""
","
","","","-1","","","18","10831","5141","&#9826;","elianto","#f73b6a7A","-1","-1","1","0","[]","0","0","3","","","","","","","",""
"pit-trial","69","639951","0.0-2.0-14.2-0.2","battery-v0.2","","""event"",""trial"",""time""
""fullscreenenter"",""1"",""1303""
","
","
","""event"",""trial"",""time""
""fullscreenenter"",""1"",""1303""
","
","","","-1","","","18","10831","5141","&#9826;","elianto","#f73b6a7A","-1","-1","1","0","[]","0","0","3","","","","","","","",""
"pit-trial","70","644823","0.0-2.0-14.2-1.2","battery-v0.2","","""event"",""trial"",""time""
""fullscreenenter"",""1"",""1303""
","
","
","""event"",""trial"",""time""
""fullscreenenter"",""1"",""1303""
","
","","","-1","","","18","10831","5141","&#9826;","elianto","#f73b6a7A","-1","-1","1","0","[]","0","0","3","","","","","","","",""
"pit-trial","71","649694","0.0-2.0-14.2-2.2","battery-v0.2","","""event"",""trial"",""time""
""fullscreenenter"",""1"",""1303""
","
","
","""event"",""trial"",""time""
""fullscreenenter"",""1"",""1303""
","
","","","-1","","","18","10831","5141","&#9826;","elianto","#f73b6a7A","-1","-1","1","0","[]","0","0","3","","","","","","","",""
"pit-trial","72","654574","0.0-2.0-14.2-3.2","battery-v0.2","","""event"",""trial"",""time""
""fullscreenenter"",""1"",""1303""
","
","
","""event"",""trial"",""time""
""fullscreenenter"",""1"",""1303""
","
","","","-1","","","18","10831","5141","&#9826;","elianto","#f73b6a7A","-1","-1","1","-10","[]","0","0","3","","","","","","","",""
"pit-trial","73","659446","0.0-2.0-14.2-4.2","battery-v0.2","","""event"",""trial"",""time""
""fullscreenenter"",""1"",""1303""
","
","
","""event"",""trial"",""time""
""fullscreenenter"",""1"",""1303""
","
","","","-1","","","18","10831","5141","&#9826;","elianto","#f73b6a7A","-1","-1","1","0","[]","0","0","3","","","","","","","",""
"pit-trial","74","664318","0.0-2.0-14.3-0.3","battery-v0.2","","""event"",""trial"",""time""
""fullscreenenter"",""1"",""1303""
","
","
","""event"",""trial"",""time""
""fullscreenenter"",""1"",""1303""
","
","","","-1","","","18","10831","5141","&#9826;","elianto","#f73b6a7A","-1","-1","1","0","[]","0","0","3","","","","","","","",""
"pit-trial","75","669190","0.0-2.0-14.3-1.3","battery-v0.2","","""event"",""trial"",""time""
""fullscreenenter"",""1"",""1303""
","
","
","""event"",""trial"",""time""
""fullscreenenter"",""1"",""1303""
","
","","","-1","","","18","10831","5141","&#9826;","elianto","#f73b6a7A","-1","-1","1","0","[]","0","0","3","","","","","","","",""
"pit-trial","76","674061","0.0-2.0-14.3-2.3","battery-v0.2","","""event"",""trial"",""time""
""fullscreenenter"",""1"",""1303""
","
","
","""event"",""trial"",""time""
""fullscreenenter"",""1"",""1303""
","
","","","-1","","","18","10831","5141","&#9826;","elianto","#f73b6a7A","-1","-1","1","0","[]","0","0","3","","","","","","","",""
"pit-trial","77","678932","0.0-2.0-14.3-3.3","battery-v0.2","","""event"",""trial"",""time""
""fullscreenenter"",""1"",""1303""
","
","
","""event"",""trial"",""time""
""fullscreenenter"",""1"",""1303""
","
","","","-1","","","18","10831","5141","&#9826;","elianto","#f73b6a7A","-1","-1","1","-10","[]","0","0","3","","","","","","","",""
"pit-trial","78","683805","0.0-2.0-14.3-4.3","battery-v0.2","","""event"",""trial"",""time""
""fullscreenenter"",""1"",""1303""
","
","
","""event"",""trial"",""time""
""fullscreenenter"",""1"",""1303""
","
","","","-1","","","18","10831","5141","&#9826;","elianto","#f73b6a7A","-1","-1","1","0","[]","0","0","3","","","","","","","",""
"call-function","79","683808","0.0-2.0-15.0","battery-v0.2","","""event"",""trial"",""time""
""fullscreenenter"",""1"",""1303""
","
","
","""event"",""trial"",""time""
""fullscreenenter"",""1"",""1303""
","
","","","","","","","","","","","","","","","","","","","","","","","","","","",""
"pit-instructions","80","715988","0.0-2.0-16.0","battery-v0.2","","""event"",""trial"",""time""
""fullscreenenter"",""1"",""1303""
","
","
","""event"",""trial"",""time""
""fullscreenenter"",""1"",""1303""
","
","","[{""page_index"":0,""viewing_time"":10046.399999976158},{""page_index"":1,""viewing_time"":11966.799999952316},{""page_index"":2,""viewing_time"":5334.300000071526},{""page_index"":3,""viewing_time"":4832.399999976158}]","32180.299999952316","","","","","","","","","","","","","","","","","","","","","","","",""
"pit-trial","81","719202","0.0-2.0-17.0-0.0","battery-v0.2","","""event"",""trial"",""time""
""fullscreenenter"",""1"",""1303""
","
","
","""event"",""trial"",""time""
""fullscreenenter"",""1"",""1303""
","
","","","346.8000000715256","","","18","10831","5141","&#9789;","elianto","#f73b6a7A"," "," ","1","0","[1206.6000000238419]","1","0","4","","","","","","","",""
"pit-trial","82","722146","0.0-2.0-17.0-1.0","battery-v0.2","","""event"",""trial"",""time""
""fullscreenenter"",""1"",""1303""
","
","
","""event"",""trial"",""time""
""fullscreenenter"",""1"",""1303""
","
","","","73.69999992847443","","","18","10831","5141","&#9789;","elianto","#f73b6a7A"," "," ","1","0","[933.6999999284744]","1","0","4","","","","","","","",""
"pit-trial","83","725436","0.0-2.0-17.0-2.0","battery-v0.2","","""event"",""trial"",""time""
""fullscreenenter"",""1"",""1303""
","
","
","""event"",""trial"",""time""
""fullscreenenter"",""1"",""1303""
","
","","","428.3000000715256","","","18","10831","5141","&#9789;","elianto","#f73b6a7A"," "," ","1","0","[1278.7000000476837]","1","0","4","","","","","","","",""
"pit-trial","84","728435","0.0-2.0-17.0-3.0","battery-v0.2","","""event"",""trial"",""time""
""fullscreenenter"",""1"",""1303""
","
","
","""event"",""trial"",""time""
""fullscreenenter"",""1"",""1303""
","
","","","126.79999995231628","","","18","10831","5141","&#9789;","elianto","#f73b6a7A"," "," ","1","-10","[982.8999999761581]","1","0","4","","","","","","","",""
"pit-trial","85","731931","0.0-2.0-17.0-4.0","battery-v0.2","","""event"",""trial"",""time""
""fullscreenenter"",""1"",""1303""
","
","
","""event"",""trial"",""time""
""fullscreenenter"",""1"",""1303""
","
","","","622.1000000238419","","","18","10831","5141","&#9789;","elianto","#f73b6a7A"," "," ","1","0","[1481.2000000476837]","1","0","4","","","","","","","",""
"pit-trial","86","735642","0.0-2.0-17.1-0.1","battery-v0.2","","""event"",""trial"",""time""
""fullscreenenter"",""1"",""1303""
","
","
","""event"",""trial"",""time""
""fullscreenenter"",""1"",""1303""
","
","","","842.8000000715256","","","18","10831","5141","&#9789;","elianto","#f73b6a7A"," "," ","1","0","[1698.2000000476837]","1","0","4","","","","","","","",""
"pit-trial","87","739094","0.0-2.0-17.1-1.1","battery-v0.2","","""event"",""trial"",""time""
""fullscreenenter"",""1"",""1303""
","
","
","""event"",""trial"",""time""
""fullscreenenter"",""1"",""1303""
","
","","","586.7999999523163","","","18","10831","5141","&#9789;","elianto","#f73b6a7A"," "," ","1","0","[1441.5]","1","0","4","","","","","","","",""
"pit-trial","88","742262","0.0-2.0-17.1-2.1","battery-v0.2","","""event"",""trial"",""time""
""fullscreenenter"",""1"",""1303""
","
","
","""event"",""trial"",""time""
""fullscreenenter"",""1"",""1303""
","
","","","308","","","18","10831","5141","&#9789;","elianto","#f73b6a7A"," "," ","1","0","[1159]","1","0","4","","","","","","","",""
"pit-trial","89","746002","0.0-2.0-17.1-3.1","battery-v0.2","","""event"",""trial"",""time""
""fullscreenenter"",""1"",""1303""
","
","
","""event"",""trial"",""time""
""fullscreenenter"",""1"",""1303""
","
","","","873.1000000238419","","","18","10831","5141","&#9789;","elianto","#f73b6a7A"," "," ","1","-10","[1724.2999999523163]","1","0","4","","","","","","","",""
"pit-trial","90","749690","0.0-2.0-17.1-4.1","battery-v0.2","","""event"",""trial"",""time""
""fullscreenenter"",""1"",""1303""
","
","
","""event"",""trial"",""time""
""fullscreenenter"",""1"",""1303""
","
","","","819.8000000715256","","","18","10831","5141","&#9789;","elianto","#f73b6a7A"," "," ","1","0","[1677.9000000953674]","1","0","4","","","","","","","",""
"pit-trial","91","753191","0.0-2.0-17.2-0.2","battery-v0.2","","""event"",""trial"",""time""
""fullscreenenter"",""1"",""1303""
","
","
","""event"",""trial"",""time""
""fullscreenenter"",""1"",""1303""
","
","","","632.3000000715256","","","18","10831","5141","&#9789;","elianto","#f73b6a7A"," "," ","1","0","[1488.9000000953674]","1","0","4","","","","","","","",""
"pit-trial","92","757194","0.0-2.0-17.2-1.2","battery-v0.2","","""event"",""trial"",""time""
""fullscreenenter"",""1"",""1303""
","
","
","""event"",""trial"",""time""
""fullscreenenter"",""1"",""1303""
","
","","","1134.5999999046326","","","18","10831","5141","&#9789;","elianto","#f73b6a7A"," "," ","1","0","[1990.2000000476837]","1","0","4","","","","","","","",""
"pit-trial","93","760626","0.0-2.0-17.2-2.2","battery-v0.2","","""event"",""trial"",""time""
""fullscreenenter"",""1"",""1303""
","
","
","""event"",""trial"",""time""
""fullscreenenter"",""1"",""1303""
","
","","","567.6000000238419","","","18","10831","5141","&#9789;","elianto","#f73b6a7A"," "," ","1","0","[1420.6000000238419]","1","0","4","","","","","","","",""
"pit-trial","94","764210","0.0-2.0-17.2-3.2","battery-v0.2","","""event"",""trial"",""time""
""fullscreenenter"",""1"",""1303""
","
","
","""event"",""trial"",""time""
""fullscreenenter"",""1"",""1303""
","
","","","719.1000000238419","","","18","10831","5141","&#9789;","elianto","#f73b6a7A"," "," ","1","-10","[1572]","1","0","4","","","","","","","",""
"pit-trial","95","767642","0.0-2.0-17.2-4.2","battery-v0.2","","""event"",""trial"",""time""
""fullscreenenter"",""1"",""1303""
","
","
","""event"",""trial"",""time""
""fullscreenenter"",""1"",""1303""
","
","","","565.1000000238419","","","18","10831","5141","&#9789;","elianto","#f73b6a7A"," "," ","1","0","[395.7000000476837,1417.7000000476837]","2","0","4","","","","","","","",""
"pit-trial","96","772513","0.0-2.0-17.3-0.3","battery-v0.2","","""event"",""trial"",""time""
""fullscreenenter"",""1"",""1303""
","
","
","""event"",""trial"",""time""
""fullscreenenter"",""1"",""1303""
","
","","","-1","","","18","10831","5141","&#9789;","elianto","#f73b6a7A"," ","-1","0","-10","[2930]","1","0","4","","","","","","","",""
"pit-trial","97","775945","0.0-2.0-17.3-1.3","battery-v0.2","","""event"",""trial"",""time""
""fullscreenenter"",""1"",""1303""
","
","
","""event"",""trial"",""time""
""fullscreenenter"",""1"",""1303""
","
","","","569.6000000238419","","","18","10831","5141","&#9789;","elianto","#f73b6a7A"," "," ","1","0","[1419.7999999523163]","1","0","4","","","","","","","",""
"pit-trial","98","780081","0.0-2.0-17.3-2.3","battery-v0.2","","""event"",""trial"",""time""
""fullscreenenter"",""1"",""1303""
","
","
","""event"",""trial"",""time""
""fullscreenenter"",""1"",""1303""
","
","","","1269.6999999284744","","","18","10831","5141","&#9789;","elianto","#f73b6a7A"," "," ","1","0","[2121.600000023842,3272.5]","2","0","4","","","","","","","",""
"pit-trial","99","783359","0.0-2.0-17.3-3.3","battery-v0.2","","""event"",""trial"",""time""
""fullscreenenter"",""1"",""1303""
","
","
","""event"",""trial"",""time""
""fullscreenenter"",""1"",""1303""
","
","","","420","","","18","10831","5141","&#9789;","elianto","#f73b6a7A"," "," ","1","-10","[170.39999997615814,1271,2295.5999999046326]","3","0","4","","","","","","","",""
"pit-trial","100","786428","0.0-2.0-17.3-4.3","battery-v0.2","","""event"",""trial"",""time""
""fullscreenenter"",""1"",""1303""
","
","
","""event"",""trial"",""time""
""fullscreenenter"",""1"",""1303""
","
","","","209.79999995231628","","","18","10831","5141","&#9789;","elianto","#f73b6a7A"," "," ","1","0","[24.199999928474426,1063.0999999046326,2138.2999999523163]","3","0","4","","","","","","","",""
"call-function","101","786431","0.0-2.0-18.0","battery-v0.2","","""event"",""trial"",""time""
""fullscreenenter"",""1"",""1303""
","
","
","""event"",""trial"",""time""
""fullscreenenter"",""1"",""1303""
","
","","","","","","","","","","","","","","","","","","","","","","","","","","",""
"pit-instructions","102","849454","0.0-2.0-19.0","battery-v0.2","","""event"",""trial"",""time""
""fullscreenenter"",""1"",""1303""
","
","
","""event"",""trial"",""time""
""fullscreenenter"",""1"",""1303""
","
","","[{""page_index"":0,""viewing_time"":6987.5},{""page_index"":1,""viewing_time"":10735.300000071526},{""page_index"":2,""viewing_time"":10301.199999928474},{""page_index"":3,""viewing_time"":5082.5},{""page_index"":4,""viewing_time"":6218.100000023842},{""page_index"":5,""viewing_time"":8791.5},{""page_index"":6,""viewing_time"":4116.600000023842},{""page_index"":7,""viewing_time"":4945.299999952316},{""page_index"":8,""viewing_time"":5846.700000047684}]","63025","","","","","","","","","","","","","","","","","","","","","","","",""
"pit-comprehension","103","854422","0.0-2.0-20.0-0.0","battery-v0.2","","""event"",""trial"",""time""
""fullscreenenter"",""1"",""1303""
","
","
","""event"",""trial"",""time""
""fullscreenenter"",""1"",""1303""
","
","","","4965.400000095367","[""SPACE""]","0","18","10831","5141","","","","","","","","","","","","","","","","","","",""
"pit-instructions","104","858054","0.0-2.0-20.0-1.0","battery-v0.2","","""event"",""trial"",""time""
""fullscreenenter"",""1"",""1303""
","
","
","""event"",""trial"",""time""
""fullscreenenter"",""1"",""1303""
","
","","[{""page_index"":0,""viewing_time"":3608.899999976158}]","3609.399999976158","","","","","","","","","","","","","","","","","","","","","","","",""
"pit-comprehension","105","862887","0.0-2.0-21.0-0.0","battery-v0.2","","""event"",""trial"",""time""
""fullscreenenter"",""1"",""1303""
","
","
","""event"",""trial"",""time""
""fullscreenenter"",""1"",""1303""
","
","","","4830.900000095367","[""10""]","0","18","10831","5141","","","","","","","","","","","","","","","","","","",""
"pit-instructions","106","871420","0.0-2.0-21.0-1.0","battery-v0.2","","""event"",""trial"",""time""
""fullscreenenter"",""1"",""1303""
","
","
","""event"",""trial"",""time""
""fullscreenenter"",""1"",""1303""
","
","","[{""page_index"":0,""viewing_time"":8512.100000023842}]","8512.300000071526","","","","","","","","","","","","","","","","","","","","","","","",""
"pit-comprehension","107","877638","0.0-2.0-22.0-0.0","battery-v0.2","","""event"",""trial"",""time""
""fullscreenenter"",""1"",""1303""
","
","
","""event"",""trial"",""time""
""fullscreenenter"",""1"",""1303""
","
","","","6216.600000023842","[""0""]","0","18","10831","5141","","","","","","","","","","","","","","","","","","",""
"pit-instructions","108","881570","0.0-2.0-22.0-1.0","battery-v0.2","","""event"",""trial"",""time""
""fullscreenenter"",""1"",""1303""
","
","
","""event"",""trial"",""time""
""fullscreenenter"",""1"",""1303""
","
","","[{""page_index"":0,""viewing_time"":3908.5}]","3909","","","","","","","","","","","","","","","","","","","","","","","",""
"pit-comprehension","109","895187","0.0-2.0-23.0-0.0","battery-v0.2","","""event"",""trial"",""time""
""fullscreenenter"",""1"",""1303""
","
","
","""event"",""trial"",""time""
""fullscreenenter"",""1"",""1303""
","
","","","13615","[""True""]","0","18","10831","5141","","","","","","","","","","","","","","","","","","",""
"pit-instructions","110","899236","0.0-2.0-23.0-1.0","battery-v0.2","","""event"",""trial"",""time""
""fullscreenenter"",""1"",""1303""
","
","
","""event"",""trial"",""time""
""fullscreenenter"",""1"",""1303""
","
","","[{""page_index"":0,""viewing_time"":4026.5}]","4026.7000000476837","","","","","","","","","","","","","","","","","","","","","","","",""
"pit-comprehension","111","910721","0.0-2.0-24.0-0.0","battery-v0.2","","""event"",""trial"",""time""
""fullscreenenter"",""1"",""1303""
","
","
","""event"",""trial"",""time""
""fullscreenenter"",""1"",""1303""
","
","","","11483.400000095367","[""True""]","0","18","10831","5141","","","","","","","","","","","","","","","","","","",""
"pit-instructions","112","917188","0.0-2.0-24.0-1.0","battery-v0.2","","""event"",""trial"",""time""
""fullscreenenter"",""1"",""1303""
","
","
","""event"",""trial"",""time""
""fullscreenenter"",""1"",""1303""
","
","","[{""page_index"":0,""viewing_time"":6444.100000023842}]","6444.600000023842","","","","","","","","","","","","","","","","","","","","","","","",""
"pit-comprehension","113","923905","0.0-2.0-25.0-0.0","battery-v0.2","","""event"",""trial"",""time""
""fullscreenenter"",""1"",""1303""
","
","
","""event"",""trial"",""time""
""fullscreenenter"",""1"",""1303""
","
","","","6713","[""True""]","0","18","10831","5141","","","","","","","","","","","","","","","","","","",""
"pit-instructions","114","931536","0.0-2.0-25.0-1.0","battery-v0.2","","""event"",""trial"",""time""
""fullscreenenter"",""1"",""1303""
","
","
","""event"",""trial"",""time""
""fullscreenenter"",""1"",""1303""
","
","","[{""page_index"":0,""viewing_time"":7607.600000023842}]","7607.799999952316","","","","","","","","","","","","","","","","","","","","","","","",""
"pit-comprehension","115","936538","0.0-2.0-26.0-0.0","battery-v0.2","","""event"",""trial"",""time""
""fullscreenenter"",""1"",""1303""
","
","
","""event"",""trial"",""time""
""fullscreenenter"",""1"",""1303""
","
","","","4999.799999952316","[""False""]","0","18","10831","5141","","","","","","","","","","","","","","","","","","",""
"pit-instructions","116","938070","0.0-2.0-26.0-1.0","battery-v0.2","","""event"",""trial"",""time""
""fullscreenenter"",""1"",""1303""
","
","
","""event"",""trial"",""time""
""fullscreenenter"",""1"",""1303""
","
","","[{""page_index"":0,""viewing_time"":1506.6000000238419}]","1507.1000000238419","","","","","","","","","","","","","","","","","","","","","","","",""
"pit-instructions","117","956020","0.0-3.0","battery-v0.2","","""event"",""trial"",""time""
""fullscreenenter"",""1"",""1303""
","
","
","""event"",""trial"",""time""
""fullscreenenter"",""1"",""1303""
","
","","[{""page_index"":0,""viewing_time"":6164.200000047684},{""page_index"":1,""viewing_time"":5683.099999904633},{""page_index"":2,""viewing_time"":6100.700000047684}]","17948.5","","","","","","","","","","","","","","","","","","","","","","","",""
"pit-trial","118","960186","0.0-4.0","battery-v0.2","","""event"",""trial"",""time""
""fullscreenenter"",""1"",""1303""
","
","
","""event"",""trial"",""time""
""fullscreenenter"",""1"",""1303""
","
","","","1296.4000000953674","","","18","10831","5141","&#9733;","elianto","#3366ff99","-1"," ","0","+10","[2148.3000000715256]","1","1","","","10831","1","2","2","win","no-go","1"
"pit-trial","119","965057","0.0-5.0","battery-v0.2","","""event"",""trial"",""time""
""fullscreenenter"",""1"",""1303""
","
","
","""event"",""trial"",""time""
""fullscreenenter"",""1"",""1303""
","
","","","-1","","","18","10831","5141","&#9728;","elianto","#f73b6a7A","-1","-1","1","0","[]","0","1","","","10831","2","0","4","lose","no-go","0"
"pit-trial","120","969149","0.0-6.0","battery-v0.2","","""event"",""trial"",""time""
""fullscreenenter"",""1"",""1303""
","
","
","""event"",""trial"",""time""
""fullscreenenter"",""1"",""1303""
","
","","","1223.3999999761581","","","18","10831","5141","&#9730;","elianto","#3366ff99"," "," ","1","+10","[2079.7000000476837]","1","1","","","10831","3","1","1","win","go","0"
"pit-trial","121","974012","0.0-7.0","battery-v0.2","","""event"",""trial"",""time""
""fullscreenenter"",""1"",""1303""
","
","
","""event"",""trial"",""time""
""fullscreenenter"",""1"",""1303""
","
","","","-1","","","18","10831","5141","&#9752;","elianto","#f73b6a7A"," ","-1","0","-10","[]","0","1","","","10831","4","3","3","lose","go","0"
"pit-trial","122","978880","0.0-8.0","battery-v0.2","","""event"",""trial"",""time""
""fullscreenenter"",""1"",""1303""
","
","
","""event"",""trial"",""time""
""fullscreenenter"",""1"",""1303""
","
","","","-1","","","18","10831","5141","&#9728;","elianto","#f73b6a7A","-1","-1","1","0","[]","0","1","","","10831","5","0","4","lose","no-go","0"
"pit-trial","123","982636","0.0-9.0","battery-v0.2","","""event"",""trial"",""time""
""fullscreenenter"",""1"",""1303""
","
","
","""event"",""trial"",""time""
""fullscreenenter"",""1"",""1303""
","
","","","898.8999999761581","","","18","10831","5141","&#9733;","elianto","#3366ff99","-1"," ","0","0","[1750]","1","1","","","10831","6","2","2","win","no-go","0"
"pit-trial","124","986520","0.0-10.0","battery-v0.2","","""event"",""trial"",""time""
""fullscreenenter"",""1"",""1303""
","
","
","""event"",""trial"",""time""
""fullscreenenter"",""1"",""1303""
","
","","","1017.3999999761581","","","18","10831","5141","&#9730;","elianto","#3366ff99"," "," ","1","+10","[1870.3999999761581]","1","1","","","10831","7","1","1","win","go","0"
"pit-trial","125","991391","0.0-11.0","battery-v0.2","","""event"",""trial"",""time""
""fullscreenenter"",""1"",""1303""
","
","
","""event"",""trial"",""time""
""fullscreenenter"",""1"",""1303""
","
","","","-1","","","18","10831","5141","&#9752;","elianto","#f73b6a7A"," ","-1","0","-10","[2876.7999999523163]","1","1","","","10831","8","3","3","lose","go","0"
"pit-trial","126","996264","0.0-12.0","battery-v0.2","","""event"",""trial"",""time""
""fullscreenenter"",""1"",""1303""
","
","
","""event"",""trial"",""time""
""fullscreenenter"",""1"",""1303""
","
","","","-1","","","18","10831","5141","&#9733;","elianto","#3366ff99","-1","-1","1","+10","[]","0","1","","","10831","9","2","2","win","no-go","0"
"pit-trial","127","999991","0.0-13.0","battery-v0.2","","""event"",""trial"",""time""
""fullscreenenter"",""1"",""1303""
","
","
","""event"",""trial"",""time""
""fullscreenenter"",""1"",""1303""
","
","","","859.6000000238419","","","18","10831","5141","&#9730;","elianto","#3366ff99"," "," ","1","+10","[1716.1999999284744]","1","1","","","10831","10","1","1","win","go","0"
"pit-trial","128","1004279","0.0-14.0","battery-v0.2","","""event"",""trial"",""time""
""fullscreenenter"",""1"",""1303""
","
","
","""event"",""trial"",""time""
""fullscreenenter"",""1"",""1303""
","
","","","1422.8999999761581","","","18","10831","5141","&#9728;","elianto","#f73b6a7A","-1"," ","0","-10","[2278.2000000476837]","1","1","","","10831","11","0","4","lose","no-go","0"
"pit-trial","129","1009147","0.0-15.0","battery-v0.2","","""event"",""trial"",""time""
""fullscreenenter"",""1"",""1303""
","
","
","""event"",""trial"",""time""
""fullscreenenter"",""1"",""1303""
","
","","","-1","","","18","10831","5141","&#9752;","elianto","#f73b6a7A"," ","-1","0","-10","[]","0","1","","","10831","12","3","3","lose","go","0"
"pit-trial","130","1014015","0.0-16.0","battery-v0.2","","""event"",""trial"",""time""
""fullscreenenter"",""1"",""1303""
","
","
","""event"",""trial"",""time""
""fullscreenenter"",""1"",""1303""
","
","","","-1","","","18","10831","5141","&#9728;","elianto","#f73b6a7A","-1","-1","1","-10","[]","0","1","","","10831","13","0","4","lose","no-go","1"
"pit-trial","131","1017658","0.0-17.0","battery-v0.2","","""event"",""trial"",""time""
""fullscreenenter"",""1"",""1303""
","
","
","""event"",""trial"",""time""
""fullscreenenter"",""1"",""1303""
","
","","","780.7000000476837","","","18","10831","5141","&#9730;","elianto","#3366ff99"," "," ","1","0","[1637.7999999523163,3410]","2","1","","","10831","14","1","1","win","go","1"
"pit-trial","132","1021254","0.0-18.0","battery-v0.2","","""event"",""trial"",""time""
""fullscreenenter"",""1"",""1303""
","
","
","""event"",""trial"",""time""
""fullscreenenter"",""1"",""1303""
","
","","","728.8000000715256","","","18","10831","5141","&#9733;","elianto","#3366ff99","-1"," ","0","0","[1582.8999999761581,2464.0999999046326,3332.5]","3","1","","","10831","15","2","2","win","no-go","0"
"pit-trial","133","1025253","0.0-19.0","battery-v0.2","","""event"",""trial"",""time""
""fullscreenenter"",""1"",""1303""
","
","
","""event"",""trial"",""time""
""fullscreenenter"",""1"",""1303""
","
","","","1127.5","","","18","10831","5141","&#9752;","elianto","#f73b6a7A"," "," ","1","-10","[129.59999990463257,613.1999999284744,1984.5999999046326,3317.6999999284744]","4","1","","","10831","16","3","3","lose","go","1"
"pit-trial","134","1028879","0.0-20.0","battery-v0.2","","""event"",""trial"",""time""
""fullscreenenter"",""1"",""1303""
","
","
","""event"",""trial"",""time""
""fullscreenenter"",""1"",""1303""
","
","","","761.6000000238419","","","18","10831","5141","&#9728;","elianto","#f73b6a7A","-1"," ","0","-10","[281.5,1613.1000000238419]","2","1","","","10831","17","0","4","lose","no-go","0"
"pit-trial","135","1032277","0.0-21.0","battery-v0.2","","""event"",""trial"",""time""
""fullscreenenter"",""1"",""1303""
","
","
","""event"",""trial"",""time""
""fullscreenenter"",""1"",""1303""
","
","","","533.2999999523163","","","18","10831","5141","&#9730;","elianto","#3366ff99"," "," ","1","0","[1383.7999999523163]","1","1","","","10831","18","1","1","win","go","1"
"pit-trial","136","1035933","0.0-22.0","battery-v0.2","","""event"",""trial"",""time""
""fullscreenenter"",""1"",""1303""
","
","
","""event"",""trial"",""time""
""fullscreenenter"",""1"",""1303""
","
","","","795.1000000238419","","","18","10831","5141","&#9733;","elianto","#3366ff99","-1"," ","0","0","[1648.1000000238419]","1","1","","","10831","19","2","2","win","no-go","0"
"pit-trial","137","1039093","0.0-23.0","battery-v0.2","","""event"",""trial"",""time""
""fullscreenenter"",""1"",""1303""
","
","
","""event"",""trial"",""time""
""fullscreenenter"",""1"",""1303""
","
","","","292.7000000476837","","","18","10831","5141","&#9752;","elianto","#f73b6a7A"," "," ","1","0","[1151.2999999523163]","1","1","","","10831","20","3","3","lose","go","0"
"pit-instructions","138","1066018","0.0-24.0","battery-v0.2","","""event"",""trial"",""time""
""fullscreenenter"",""1"",""1303""
","
","
","""event"",""trial"",""time""
""fullscreenenter"",""1"",""1303""
","
","","[{""page_index"":0,""viewing_time"":18007.5},{""page_index"":1,""viewing_time"":8915.899999976158}]","26923.5","","","","","","","","","","","","","","","","","","","","","","","",""
"pit-trial","139","1070884","0.0-25.0","battery-v0.2","","""event"",""trial"",""time""
""fullscreenenter"",""1"",""1303""
","
","
","""event"",""trial"",""time""
""fullscreenenter"",""1"",""1303""
","
","","","-1","","","18","10831","5141","h","elianto","#f73b6a7A","-1","-1","1","0","[]","0","2","","","10831","21","3","4","lose","no-go","0"
"pit-trial","140","1075754","0.0-26.0","battery-v0.2","","""event"",""trial"",""time""
""fullscreenenter"",""1"",""1303""
","
","
","""event"",""trial"",""time""
""fullscreenenter"",""1"",""1303""
","
","","","-1","","","18","10831","5141","r","elianto","#3366ff99","-1","-1","1","+10","[]","0","2","","","10831","22","1","2","win","no-go","0"
"pit-trial","141","1079618","0.0-27.0","battery-v0.2","","""event"",""trial"",""time""
""fullscreenenter"",""1"",""1303""
","
","
","""event"",""trial"",""time""
""fullscreenenter"",""1"",""1303""
","
","","","996.2999999523163","","","18","10831","5141","m","elianto","#f73b6a7A"," "," ","1","0","[1854.1000000238419]","1","2","","","10831","23","0","3","lose","go","0"
"pit-trial","142","1084492","0.0-28.0","battery-v0.2","","""event"",""trial"",""time""
""fullscreenenter"",""1"",""1303""
","
","
","""event"",""trial"",""time""
""fullscreenenter"",""1"",""1303""
","
","","","-1","","","18","10831","5141","y","elianto","#f73b6a7A"," ","-1","0","-10","[]","0","2","","","10831","24","2","3","lose","go","0"
"pit-trial","143","1089312","0.0-29.0","battery-v0.2","","""event"",""trial"",""time""
""fullscreenenter"",""1"",""1303""
","
","
","""event"",""trial"",""time""
""fullscreenenter"",""1"",""1303""
","
","","","1954.7999999523163","","","18","10831","5141","m","elianto","#f73b6a7A"," "," ","1","0","[2808.899999976158]","1","2","","","10831","25","0","3","lose","go","0"
"pit-trial","144","1094180","0.0-30.0","battery-v0.2","","""event"",""trial"",""time""
""fullscreenenter"",""1"",""1303""
","
","
","""event"",""trial"",""time""
""fullscreenenter"",""1"",""1303""
","
","","","-1","","","18","10831","5141","h","elianto","#f73b6a7A","-1","-1","1","0","[2914.8000000715256]","1","2","","","10831","26","3","4","lose","no-go","0"
"pit-trial","145","1097827","0.0-31.0","battery-v0.2","","""event"",""trial"",""time""
""fullscreenenter"",""1"",""1303""
","
","
","""event"",""trial"",""time""
""fullscreenenter"",""1"",""1303""
","
","","","783.7000000476837","","","18","10831","5141","r","elianto","#3366ff99","-1"," ","0","0","[1635.1000000238419]","1","2","","","10831","27","1","2","win","no-go","0"
"pit-trial","146","1101803","0.0-32.0","battery-v0.2","","""event"",""trial"",""time""
""fullscreenenter"",""1"",""1303""
","
","
","""event"",""trial"",""time""
""fullscreenenter"",""1"",""1303""
","
","","","1110.6999999284744","","","18","10831","5141","y","elianto","#f73b6a7A"," "," ","1","0","[1965]","1","2","","","10831","28","2","3","lose","go","0"
"pit-trial","147","1105715","0.0-33.0","battery-v0.2","","""event"",""trial"",""time""
""fullscreenenter"",""1"",""1303""
","
","
","""event"",""trial"",""time""
""fullscreenenter"",""1"",""1303""
","
","","","1041.6000000238419","","","18","10831","5141","r","elianto","#3366ff99","-1"," ","0","0","[1900]","1","2","","","10831","29","1","2","win","no-go","0"
"pit-trial","148","1109283","0.0-34.0","battery-v0.2","","""event"",""trial"",""time""
""fullscreenenter"",""1"",""1303""
","
","
","""event"",""trial"",""time""
""fullscreenenter"",""1"",""1303""
","
","","","692.8000000715256","","","18","10831","5141","y","elianto","#f73b6a7A"," "," ","1","0","[1551.5]","1","2","","","10831","30","2","3","lose","go","0"
"pit-trial","149","1114155","0.0-35.0","battery-v0.2","","""event"",""trial"",""time""
""fullscreenenter"",""1"",""1303""
","
","
","""event"",""trial"",""time""
""fullscreenenter"",""1"",""1303""
","
","","","-1","","","18","10831","5141","h","elianto","#f73b6a7A","-1","-1","1","0","[]","0","2","","","10831","31","3","4","lose","no-go","0"
"pit-trial","150","1118626","0.0-36.0","battery-v0.2","","""event"",""trial"",""time""
""fullscreenenter"",""1"",""1303""
","
","
","""event"",""trial"",""time""
""fullscreenenter"",""1"",""1303""
","
","","","1599.7000000476837","","","18","10831","5141","m","elianto","#f73b6a7A"," "," ","1","-10","[2457.3000000715256]","1","2","","","10831","32","0","3","lose","go","1"
"pit-trial","151","1122230","0.0-37.0","battery-v0.2","","""event"",""trial"",""time""
""fullscreenenter"",""1"",""1303""
","
","
","""event"",""trial"",""time""
""fullscreenenter"",""1"",""1303""
","
","","","738.2000000476837","","","18","10831","5141","r","elianto","#3366ff99","-1"," ","0","0","[1591.6000000238419,2972]","2","2","","","10831","33","1","2","win","no-go","0"
"pit-trial","152","1126294","0.0-38.0","battery-v0.2","","""event"",""trial"",""time""
""fullscreenenter"",""1"",""1303""
","
","
","""event"",""trial"",""time""
""fullscreenenter"",""1"",""1303""
","
","","","1200.6999999284744","","","18","10831","5141","y","elianto","#f73b6a7A"," "," ","1","-10","[236.5,2053.899999976158,2886,3763.600000023842]","4","2","","","10831","34","2","3","lose","go","1"
"pit-trial","153","1129793","0.0-39.0","battery-v0.2","","""event"",""trial"",""time""
""fullscreenenter"",""1"",""1303""
","
","
","""event"",""trial"",""time""
""fullscreenenter"",""1"",""1303""
","
","","","638.5","","","18","10831","5141","h","elianto","#f73b6a7A","-1"," ","0","-10","[1490.6000000238419,3125.7000000476837]","2","2","","","10831","35","3","4","lose","no-go","0"
"pit-trial","154","1133553","0.0-40.0","battery-v0.2","","""event"",""trial"",""time""
""fullscreenenter"",""1"",""1303""
","
","
","""event"",""trial"",""time""
""fullscreenenter"",""1"",""1303""
","
","","","896.3000000715256","","","18","10831","5141","m","elianto","#f73b6a7A"," "," ","1","0","[389,830,1747.3000000715256,3358.9000000953674]","4","2","","","10831","36","0","3","lose","go","0"
"pit-trial","155","1137312","0.0-41.0","battery-v0.2","","""event"",""trial"",""time""
""fullscreenenter"",""1"",""1303""
","
","
","""event"",""trial"",""time""
""fullscreenenter"",""1"",""1303""
","
","","","894.2000000476837","","","18","10831","5141","h","elianto","#f73b6a7A","-1"," ","0","-10","[105.79999995231628,306.2999999523163,797.2999999523163,1749.7999999523163,2895.7999999523163]","5","2","","","10831","37","3","4","lose","no-go","0"
"pit-trial","156","1140657","0.0-42.0","battery-v0.2","","""event"",""trial"",""time""
""fullscreenenter"",""1"",""1303""
","
","
","""event"",""trial"",""time""
""fullscreenenter"",""1"",""1303""
","
","","","477.5","","","18","10831","5141","r","elianto","#3366ff99","-1"," ","0","0","[1336]","1","2","","","10831","38","1","2","win","no-go","0"
"pit-trial","157","1145525","0.0-43.0","battery-v0.2","","""event"",""trial"",""time""
""fullscreenenter"",""1"",""1303""
","
","
","""event"",""trial"",""time""
""fullscreenenter"",""1"",""1303""
","
","","","-1","","","18","10831","5141","y","elianto","#f73b6a7A"," ","-1","0","-10","[]","0","2","","","10831","39","2","3","lose","go","0"
"pit-trial","158","1149153","0.0-44.0","battery-v0.2","","""event"",""trial"",""time""
""fullscreenenter"",""1"",""1303""
","
","
","""event"",""trial"",""time""
""fullscreenenter"",""1"",""1303""
","
","","","764.3999999761581","","","18","10831","5141","m","elianto","#f73b6a7A"," "," ","1","0","[1615.6000000238419]","1","2","","","10831","40","0","3","lose","go","0"
"pit-trial","159","1154020","0.0-45.0","battery-v0.2","","""event"",""trial"",""time""
""fullscreenenter"",""1"",""1303""
","
","
","""event"",""trial"",""time""
""fullscreenenter"",""1"",""1303""
","
","","","-1","","","18","10831","5141","r","elianto","#3366ff99","-1","-1","1","0","[]","0","2","","","10831","41","1","2","win","no-go","1"
"pit-trial","160","1158537","0.0-46.0","battery-v0.2","","""event"",""trial"",""time""
""fullscreenenter"",""1"",""1303""
","
","
","""event"",""trial"",""time""
""fullscreenenter"",""1"",""1303""
","
","","","1652.2000000476837","","","18","10831","5141","m","elianto","#f73b6a7A"," "," ","1","0","[2506.2000000476837]","1","2","","","10831","42","0","3","lose","go","0"
"pit-trial","161","1162880","0.0-47.0","battery-v0.2","","""event"",""trial"",""time""
""fullscreenenter"",""1"",""1303""
","
","
","""event"",""trial"",""time""
""fullscreenenter"",""1"",""1303""
","
","","","1474.5999999046326","","","18","10831","5141","y","elianto","#f73b6a7A"," "," ","1","0","[2332.7000000476837]","1","2","","","10831","43","2","3","lose","go","0"
"pit-trial","162","1166520","0.0-48.0","battery-v0.2","","""event"",""trial"",""time""
""fullscreenenter"",""1"",""1303""
","
","
","""event"",""trial"",""time""
""fullscreenenter"",""1"",""1303""
","
","","","774.2999999523163","","","18","10831","5141","h","elianto","#f73b6a7A","-1"," ","0","-10","[1624.7000000476837]","1","2","","","10831","44","3","4","lose","no-go","0"
"pit-trial","163","1170040","0.0-49.0","battery-v0.2","","""event"",""trial"",""time""
""fullscreenenter"",""1"",""1303""
","
","
","""event"",""trial"",""time""
""fullscreenenter"",""1"",""1303""
","
","","","647.5","","","18","10831","5141","r","elianto","#3366ff99","-1"," ","0","0","[1506]","1","2","","","10831","45","1","2","win","no-go","0"
"pit-trial","164","1174272","0.0-50.0","battery-v0.2","","""event"",""trial"",""time""
""fullscreenenter"",""1"",""1303""
","
","
","""event"",""trial"",""time""
""fullscreenenter"",""1"",""1303""
","
","","","1364.1000000238419","","","18","10831","5141","y","elianto","#f73b6a7A"," "," ","1","0","[2218.5]","1","2","","","10831","46","2","3","lose","go","0"
"pit-trial","165","1179139","0.0-51.0","battery-v0.2","","""event"",""trial"",""time""
""fullscreenenter"",""1"",""1303""
","
","
","""event"",""trial"",""time""
""fullscreenenter"",""1"",""1303""
","
","","","-1","","","18","10831","5141","m","elianto","#f73b6a7A"," ","-1","0","-10","[]","0","2","","","10831","47","0","3","lose","go","0"
"pit-trial","166","1182958","0.0-52.0","battery-v0.2","","""event"",""trial"",""time""
""fullscreenenter"",""1"",""1303""
","
","
","""event"",""trial"",""time""
""fullscreenenter"",""1"",""1303""
","
","","","954.1000000238419","","","18","10831","5141","h","elianto","#f73b6a7A","-1"," ","0","0","[1806.2000000476837]","1","2","","","10831","48","3","4","lose","no-go","1"
"pit-trial","167","1187832","0.0-53.0","battery-v0.2","","""event"",""trial"",""time""
""fullscreenenter"",""1"",""1303""
","
","
","""event"",""trial"",""time""
""fullscreenenter"",""1"",""1303""
","
","","","-1","","","18","10831","5141","r","elianto","#3366ff99","-1","-1","1","+10","[]","0","2","","","10831","49","1","2","win","no-go","0"
"pit-trial","168","1191728","0.0-54.0","battery-v0.2","","""event"",""trial"",""time""
""fullscreenenter"",""1"",""1303""
","
","
","""event"",""trial"",""time""
""fullscreenenter"",""1"",""1303""
","
","","","1025.1999999284744","","","18","10831","5141","h","elianto","#f73b6a7A","-1"," ","0","-10","[1881.1999999284744]","1","2","","","10831","50","3","4","lose","no-go","0"
"pit-trial","169","1195567","0.0-55.0","battery-v0.2","","""event"",""trial"",""time""
""fullscreenenter"",""1"",""1303""
","
","
","""event"",""trial"",""time""
""fullscreenenter"",""1"",""1303""
","
","","","966.3000000715256","","","18","10831","5141","y","elianto","#f73b6a7A"," "," ","1","-10","[1823.3000000715256]","1","2","","","10831","51","2","3","lose","go","1"
"pit-trial","170","1200439","0.0-56.0","battery-v0.2","","""event"",""trial"",""time""
""fullscreenenter"",""1"",""1303""
","
","
","""event"",""trial"",""time""
""fullscreenenter"",""1"",""1303""
","
","","","-1","","","18","10831","5141","m","elianto","#f73b6a7A"," ","-1","0","-10","[]","0","2","","","10831","52","0","3","lose","go","0"
"pit-trial","171","1204403","0.0-57.0","battery-v0.2","","""event"",""trial"",""time""
""fullscreenenter"",""1"",""1303""
","
","
","""event"",""trial"",""time""
""fullscreenenter"",""1"",""1303""
","
","","","1097.1999999284744","","","18","10831","5141","y","elianto","#f73b6a7A"," "," ","1","0","[1954.1999999284744]","1","2","","","10831","53","2","3","lose","go","0"
"pit-trial","172","1209271","0.0-58.0","battery-v0.2","","""event"",""trial"",""time""
""fullscreenenter"",""1"",""1303""
","
","
","""event"",""trial"",""time""
""fullscreenenter"",""1"",""1303""
","
","","","-1","","","18","10831","5141","r","elianto","#3366ff99","-1","-1","1","+10","[]","0","2","","","10831","54","1","2","win","no-go","0"
"pit-trial","173","1213042","0.0-59.0","battery-v0.2","","""event"",""trial"",""time""
""fullscreenenter"",""1"",""1303""
","
","
","""event"",""trial"",""time""
""fullscreenenter"",""1"",""1303""
","
","","","907.6999999284744","","","18","10831","5141","m","elianto","#f73b6a7A"," "," ","1","-10","[1763.7999999523163]","1","2","","","10831","55","0","3","lose","go","1"
"pit-trial","174","1217426","0.0-60.0","battery-v0.2","","""event"",""trial"",""time""
""fullscreenenter"",""1"",""1303""
","
","
","""event"",""trial"",""time""
""fullscreenenter"",""1"",""1303""
","
","","","1524.5","","","18","10831","5141","h","elianto","#f73b6a7A","-1"," ","0","0","[2377]","1","2","","","10831","56","3","4","lose","no-go","1"
"pit-trial","175","1221342","0.0-61.0","battery-v0.2","","""event"",""trial"",""time""
""fullscreenenter"",""1"",""1303""
","
","
","""event"",""trial"",""time""
""fullscreenenter"",""1"",""1303""
","
","","","1054.3000000715256","","","18","10831","5141","y","elianto","#f73b6a7A"," "," ","1","0","[1905.1000000238419]","1","2","","","10831","57","2","3","lose","go","0"
"pit-trial","176","1226207","0.0-62.0","battery-v0.2","","""event"",""trial"",""time""
""fullscreenenter"",""1"",""1303""
","
","
","""event"",""trial"",""time""
""fullscreenenter"",""1"",""1303""
","
","","","-1","","","18","10831","5141","m","elianto","#f73b6a7A"," ","-1","0","-10","[]","0","2","","","10831","58","0","3","lose","go","0"
"pit-trial","177","1229692","0.0-63.0","battery-v0.2","","""event"",""trial"",""time""
""fullscreenenter"",""1"",""1303""
","
","
","""event"",""trial"",""time""
""fullscreenenter"",""1"",""1303""
","
","","","623.1999999284744","","","18","10831","5141","z","elianto","#3366ff99"," "," ","1","+10","[1477.6000000238419]","1","2","","","10831","59","4","1","win","go","0"
"pit-trial","178","1233761","0.0-64.0","battery-v0.2","","""event"",""trial"",""time""
""fullscreenenter"",""1"",""1303""
","
","
","""event"",""trial"",""time""
""fullscreenenter"",""1"",""1303""
","
","","","1209.1000000238419","","","18","10831","5141","h","elianto","#f73b6a7A","-1"," ","0","-10","[2060.7999999523163]","1","2","","","10831","60","3","4","lose","no-go","0"
"pit-trial","179","1237585","0.0-65.0","battery-v0.2","","""event"",""trial"",""time""
""fullscreenenter"",""1"",""1303""
","
","
","""event"",""trial"",""time""
""fullscreenenter"",""1"",""1303""
","
","","","959.6999999284744","","","18","10831","5141","h","elianto","#f73b6a7A","-1"," ","0","0","[1811.3000000715256]","1","2","","","10831","61","3","4","lose","no-go","1"
"pit-trial","180","1242453","0.0-66.0","battery-v0.2","","""event"",""trial"",""time""
""fullscreenenter"",""1"",""1303""
","
","
","""event"",""trial"",""time""
""fullscreenenter"",""1"",""1303""
","
","","","-1","","","18","10831","5141","r","elianto","#3366ff99","-1","-1","1","+10","[]","0","2","","","10831","62","1","2","win","no-go","0"
"pit-trial","181","1246171","0.0-67.0","battery-v0.2","","""event"",""trial"",""time""
""fullscreenenter"",""1"",""1303""
","
","
","""event"",""trial"",""time""
""fullscreenenter"",""1"",""1303""
","
","","","850.2999999523163","","","18","10831","5141","z","elianto","#3366ff99"," "," ","1","+10","[1707.2999999523163]","1","2","","","10831","63","4","1","win","go","0"
"pit-trial","182","1251045","0.0-68.0","battery-v0.2","","""event"",""trial"",""time""
""fullscreenenter"",""1"",""1303""
","
","
","""event"",""trial"",""time""
""fullscreenenter"",""1"",""1303""
","
","","","-1","","","18","10831","5141","y","elianto","#f73b6a7A"," ","-1","0","-10","[]","0","2","","","10831","64","2","3","lose","go","0"
"pit-trial","183","1255917","0.0-69.0","battery-v0.2","","""event"",""trial"",""time""
""fullscreenenter"",""1"",""1303""
","
","
","""event"",""trial"",""time""
""fullscreenenter"",""1"",""1303""
","
","","","-1","","","18","10831","5141","r","elianto","#3366ff99","-1","-1","1","+10","[4505]","1","2","","","10831","65","1","2","win","no-go","0"
"pit-trial","184","1259988","0.0-70.0","battery-v0.2","","""event"",""trial"",""time""
""fullscreenenter"",""1"",""1303""
","
","
","""event"",""trial"",""time""
""fullscreenenter"",""1"",""1303""
","
","","","1196.6000000238419","","","18","10831","5141","c","elianto","#3366ff99","-1"," ","0","0","[2054.899999976158]","1","2","","","10831","66","5","2","win","no-go","0"
"pit-trial","185","1264628","0.0-71.0","battery-v0.2","","""event"",""trial"",""time""
""fullscreenenter"",""1"",""1303""
","
","
","""event"",""trial"",""time""
""fullscreenenter"",""1"",""1303""
","
","","","1770.2000000476837","","","18","10831","5141","z","elianto","#3366ff99"," "," ","1","+10","[2623.7000000476837]","1","2","","","10831","67","4","1","win","go","0"
"pit-trial","186","1269500","0.0-72.0","battery-v0.2","","""event"",""trial"",""time""
""fullscreenenter"",""1"",""1303""
","
","
","""event"",""trial"",""time""
""fullscreenenter"",""1"",""1303""
","
","","","-1","","","18","10831","5141","h","elianto","#f73b6a7A","-1","-1","1","0","[3510.600000023842]","1","2","","","10831","68","3","4","lose","no-go","0"
"pit-trial","187","1272937","0.0-73.0","battery-v0.2","","""event"",""trial"",""time""
""fullscreenenter"",""1"",""1303""
","
","
","""event"",""trial"",""time""
""fullscreenenter"",""1"",""1303""
","
","","","570.8999999761581","","","18","10831","5141","z","elianto","#3366ff99"," "," ","1","+10","[1428.5999999046326]","1","2","","","10831","69","4","1","win","go","0"
"pit-trial","188","1276795","0.0-74.0","battery-v0.2","","""event"",""trial"",""time""
""fullscreenenter"",""1"",""1303""
","
","
","""event"",""trial"",""time""
""fullscreenenter"",""1"",""1303""
","
","","","992.2000000476837","","","18","10831","5141","y","elianto","#f73b6a7A"," "," ","1","0","[1848.7999999523163]","1","2","","","10831","70","2","3","lose","go","0"
"pit-trial","189","1281662","0.0-75.0","battery-v0.2","","""event"",""trial"",""time""
""fullscreenenter"",""1"",""1303""
","
","
","""event"",""trial"",""time""
""fullscreenenter"",""1"",""1303""
","
","","","-1","","","18","10831","5141","r","elianto","#3366ff99","-1","-1","1","+10","[]","0","2","","","10831","71","1","2","win","no-go","0"
"pit-trial","190","1285530","0.0-76.0","battery-v0.2","","""event"",""trial"",""time""
""fullscreenenter"",""1"",""1303""
","
","
","""event"",""trial"",""time""
""fullscreenenter"",""1"",""1303""
","
","","","999.0999999046326","","","18","10831","5141","c","elianto","#3366ff99","-1"," ","0","+10","[1854.1999999284744]","1","2","","","10831","72","5","2","win","no-go","1"
"pit-trial","191","1290403","0.0-77.0","battery-v0.2","","""event"",""trial"",""time""
""fullscreenenter"",""1"",""1303""
","
","
","""event"",""trial"",""time""
""fullscreenenter"",""1"",""1303""
","
","","","-1","","","18","10831","5141","h","elianto","#f73b6a7A","-1","-1","1","-10","[]","0","2","","","10831","73","3","4","lose","no-go","1"
"pit-trial","192","1295275","0.0-78.0","battery-v0.2","","""event"",""trial"",""time""
""fullscreenenter"",""1"",""1303""
","
","
","""event"",""trial"",""time""
""fullscreenenter"",""1"",""1303""
","
","","","-1","","","18","10831","5141","r","elianto","#3366ff99","-1","-1","1","+10","[]","0","2","","","10831","74","1","2","win","no-go","0"
"pit-trial","193","1299003","0.0-79.0","battery-v0.2","","""event"",""trial"",""time""
""fullscreenenter"",""1"",""1303""
","
","
","""event"",""trial"",""time""
""fullscreenenter"",""1"",""1303""
","
","","","868.2000000476837","","","18","10831","5141","c","elianto","#3366ff99","-1"," ","0","+10","[1718.5]","1","2","","","10831","75","5","2","win","no-go","1"
"pit-trial","194","1303562","0.0-80.0","battery-v0.2","","""event"",""trial"",""time""
""fullscreenenter"",""1"",""1303""
","
","
","""event"",""trial"",""time""
""fullscreenenter"",""1"",""1303""
","
","","","1688","","","18","10831","5141","z","elianto","#3366ff99"," "," ","1","0","[2546.600000023842]","1","2","","","10831","76","4","1","win","go","1"
"pit-trial","195","1307187","0.0-81.0","battery-v0.2","","""event"",""trial"",""time""
""fullscreenenter"",""1"",""1303""
","
","
","""event"",""trial"",""time""
""fullscreenenter"",""1"",""1303""
","
","","","762.6000000238419","","","18","10831","5141","z","elianto","#3366ff99"," "," ","1","+10","[1613.5]","1","2","","","10831","77","4","1","win","go","0"
"pit-trial","196","1310882","0.0-82.0","battery-v0.2","","""event"",""trial"",""time""
""fullscreenenter"",""1"",""1303""
","
","
","""event"",""trial"",""time""
""fullscreenenter"",""1"",""1303""
","
","","","826.1000000238419","","","18","10831","5141","z","elianto","#3366ff99"," "," ","1","+10","[1681.6000000238419]","1","2","","","10831","78","4","1","win","go","0"
"pit-trial","197","1314718","0.0-83.0","battery-v0.2","","""event"",""trial"",""time""
""fullscreenenter"",""1"",""1303""
","
","
","""event"",""trial"",""time""
""fullscreenenter"",""1"",""1303""
","
","","","971.7000000476837","","","18","10831","5141","h","elianto","#f73b6a7A","-1"," ","0","-10","[1829.8999999761581]","1","2","","","10831","79","3","4","lose","no-go","0"
"pit-trial","198","1318226","0.0-84.0","battery-v0.2","","""event"",""trial"",""time""
""fullscreenenter"",""1"",""1303""
","
","
","""event"",""trial"",""time""
""fullscreenenter"",""1"",""1303""
","
","","","642.5999999046326","","","18","10831","5141","c","elianto","#3366ff99","-1"," ","0","0","[1495.8999999761581]","1","2","","","10831","80","5","2","win","no-go","0"
"pit-trial","199","1321789","0.0-85.0","battery-v0.2","","""event"",""trial"",""time""
""fullscreenenter"",""1"",""1303""
","
","
","""event"",""trial"",""time""
""fullscreenenter"",""1"",""1303""
","
","","","701.7999999523163","","","18","10831","5141","c","elianto","#3366ff99","-1"," ","0","0","[1552.7000000476837]","1","2","","","10831","81","5","2","win","no-go","0"
"pit-trial","200","1325393","0.0-86.0","battery-v0.2","","""event"",""trial"",""time""
""fullscreenenter"",""1"",""1303""
","
","
","""event"",""trial"",""time""
""fullscreenenter"",""1"",""1303""
","
","","","736.1999999284744","","","18","10831","5141","z","elianto","#3366ff99"," "," ","1","0","[1588.5]","1","2","","","10831","82","4","1","win","go","1"
"pit-trial","201","1330086","0.0-87.0","battery-v0.2","","""event"",""trial"",""time""
""fullscreenenter"",""1"",""1303""
","
","
","""event"",""trial"",""time""
""fullscreenenter"",""1"",""1303""
","
","","","1827","","","18","10831","5141","t","elianto","#f73b6a7A","-1"," ","0","-10","[2678.7999999523163]","1","2","","","10831","83","7","4","lose","no-go","0"
"pit-trial","202","1334951","0.0-88.0","battery-v0.2","","""event"",""trial"",""time""
""fullscreenenter"",""1"",""1303""
","
","
","""event"",""trial"",""time""
""fullscreenenter"",""1"",""1303""
","
","","","-1","","","18","10831","5141","h","elianto","#f73b6a7A","-1","-1","1","0","[]","0","2","","","10831","84","3","4","lose","no-go","0"
"pit-trial","203","1339469","0.0-89.0","battery-v0.2","","""event"",""trial"",""time""
""fullscreenenter"",""1"",""1303""
","
","
","""event"",""trial"",""time""
""fullscreenenter"",""1"",""1303""
","
","","","1649.5","","","18","10831","5141","b","elianto","#f73b6a7A"," "," ","1","0","[2507.100000023842]","1","2","","","10831","85","6","3","lose","go","0"
"pit-trial","204","1344336","0.0-90.0","battery-v0.2","","""event"",""trial"",""time""
""fullscreenenter"",""1"",""1303""
","
","
","""event"",""trial"",""time""
""fullscreenenter"",""1"",""1303""
","
","","","-1","","","18","10831","5141","t","elianto","#f73b6a7A","-1","-1","1","0","[]","0","2","","","10831","86","7","4","lose","no-go","0"
"pit-trial","205","1349191","0.0-91.0","battery-v0.2","","""event"",""trial"",""time""
""fullscreenenter"",""1"",""1303""
","
","
","""event"",""trial"",""time""
""fullscreenenter"",""1"",""1303""
","
","","","1989.1000000238419","","","18","10831","5141","z","elianto","#3366ff99"," "," ","1","+10","[2843.7999999523163]","1","2","","","10831","87","4","1","win","go","0"
"pit-trial","206","1352669","0.0-92.0","battery-v0.2","","""event"",""trial"",""time""
""fullscreenenter"",""1"",""1303""
","
","
","""event"",""trial"",""time""
""fullscreenenter"",""1"",""1303""
","
","","","618.2999999523163","","","18","10831","5141","c","elianto","#3366ff99","-1"," ","0","0","[1471.1999999284744]","1","2","","","10831","88","5","2","win","no-go","0"
"pit-trial","207","1356480","0.0-93.0","battery-v0.2","","""event"",""trial"",""time""
""fullscreenenter"",""1"",""1303""
","
","
","""event"",""trial"",""time""
""fullscreenenter"",""1"",""1303""
","
","","","948.6999999284744","","","18","10831","5141","c","elianto","#3366ff99","-1"," ","0","0","[1804]","1","2","","","10831","89","5","2","win","no-go","0"
"pit-trial","208","1361344","0.0-94.0","battery-v0.2","","""event"",""trial"",""time""
""fullscreenenter"",""1"",""1303""
","
","
","""event"",""trial"",""time""
""fullscreenenter"",""1"",""1303""
","
","","","-1","","","18","10831","5141","t","elianto","#f73b6a7A","-1","-1","1","0","[]","0","2","","","10831","90","7","4","lose","no-go","0"
"pit-trial","209","1366216","0.0-95.0","battery-v0.2","","""event"",""trial"",""time""
""fullscreenenter"",""1"",""1303""
","
","
","""event"",""trial"",""time""
""fullscreenenter"",""1"",""1303""
","
","","","-1","","","18","10831","5141","b","elianto","#f73b6a7A"," ","-1","0","-10","[]","0","2","","","10831","91","6","3","lose","go","0"
"pit-trial","210","1369836","0.0-96.0","battery-v0.2","","""event"",""trial"",""time""
""fullscreenenter"",""1"",""1303""
","
","
","""event"",""trial"",""time""
""fullscreenenter"",""1"",""1303""
","
","","","752.7000000476837","","","18","10831","5141","z","elianto","#3366ff99"," "," ","1","0","[1611.5]","1","2","","","10831","92","4","1","win","go","1"
"pit-trial","211","1374704","0.0-97.0","battery-v0.2","","""event"",""trial"",""time""
""fullscreenenter"",""1"",""1303""
","
","
","""event"",""trial"",""time""
""fullscreenenter"",""1"",""1303""
","
","","","-1","","","18","10831","5141","t","elianto","#f73b6a7A","-1","-1","1","0","[]","0","2","","","10831","93","7","4","lose","no-go","0"
"pit-trial","212","1378587","0.0-98.0","battery-v0.2","","""event"",""trial"",""time""
""fullscreenenter"",""1"",""1303""
","
","
","""event"",""trial"",""time""
""fullscreenenter"",""1"",""1303""
","
","","","1022.3999999761581","","","18","10831","5141","b","elianto","#f73b6a7A"," "," ","1","0","[1878.2999999523163]","1","2","","","10831","94","6","3","lose","go","0"
"pit-trial","213","1382341","0.0-99.0","battery-v0.2","","""event"",""trial"",""time""
""fullscreenenter"",""1"",""1303""
","
","
","""event"",""trial"",""time""
""fullscreenenter"",""1"",""1303""
","
","","","885.3999999761581","","","18","10831","5141","c","elianto","#3366ff99","-1"," ","0","0","[1739.6000000238419]","1","2","","","10831","95","5","2","win","no-go","0"
"pit-trial","214","1386028","0.0-100.0","battery-v0.2","","""event"",""trial"",""time""
""fullscreenenter"",""1"",""1303""
","
","
","""event"",""trial"",""time""
""fullscreenenter"",""1"",""1303""
","
","","","826.8999999761581","","","18","10831","5141","f","elianto","#3366ff99"," "," ","1","+10","[1678.3999999761581,3242.600000023842,3465.399999976158]","3","2","","","10831","96","8","1","win","go","0"
"pit-trial","215","1389638","0.0-101.0","battery-v0.2","","""event"",""trial"",""time""
""fullscreenenter"",""1"",""1303""
","
","
","""event"",""trial"",""time""
""fullscreenenter"",""1"",""1303""
","
","","","746.6999999284744","","","18","10831","5141","f","elianto","#3366ff99"," "," ","1","+10","[453.2999999523163,1597.1999999284744,2880.5]","3","2","","","10831","97","8","1","win","go","0"
"pit-trial","216","1392762","0.0-102.0","battery-v0.2","","""event"",""trial"",""time""
""fullscreenenter"",""1"",""1303""
","
","
","""event"",""trial"",""time""
""fullscreenenter"",""1"",""1303""
","
","","","259.2000000476837","","","18","10831","5141","t","elianto","#f73b6a7A","-1"," ","0","-10","[243.5,1114,1688,2885]","4","2","","","10831","98","7","4","lose","no-go","0"
"pit-trial","217","1395791","0.0-103.0","battery-v0.2","","""event"",""trial"",""time""
""fullscreenenter"",""1"",""1303""
","
","
","""event"",""trial"",""time""
""fullscreenenter"",""1"",""1303""
","
","","","164.89999997615814","","","18","10831","5141","b","elianto","#f73b6a7A"," "," ","1","0","[1018.1000000238419,2784.7000000476837]","2","2","","","10831","99","6","3","lose","go","0"
"pit-trial","218","1399116","0.0-104.0","battery-v0.2","","""event"",""trial"",""time""
""fullscreenenter"",""1"",""1303""
","
","
","""event"",""trial"",""time""
""fullscreenenter"",""1"",""1303""
","
","","","462.60000002384186","","","18","10831","5141","c","elianto","#3366ff99","-1"," ","0","0","[290.89999997615814,1313.2000000476837,2186.2000000476837,2764.899999976158,3322.2000000476837]","5","2","","","10831","100","5","2","win","no-go","0"
"pit-trial","219","1403404","0.0-105.0","battery-v0.2","","""event"",""trial"",""time""
""fullscreenenter"",""1"",""1303""
","
","
","""event"",""trial"",""time""
""fullscreenenter"",""1"",""1303""
","
","","","1425.5","","","18","10831","5141","f","elianto","#3366ff99"," "," ","1","+10","[626.3000000715256,2277.7000000476837,3548.7000000476837,4030.8000000715256]","4","2","","","10831","101","8","1","win","go","0"
"pit-trial","220","1407162","0.0-106.0","battery-v0.2","","""event"",""trial"",""time""
""fullscreenenter"",""1"",""1303""
","
","
","""event"",""trial"",""time""
""fullscreenenter"",""1"",""1303""
","
","","","895","","","18","10831","5141","n","elianto","#3366ff99"," "," ","1","0","[1751.1000000238419]","1","2","","","10831","102","9","1","win","go","1"
"pit-trial","221","1412027","0.0-107.0","battery-v0.2","","""event"",""trial"",""time""
""fullscreenenter"",""1"",""1303""
","
","
","""event"",""trial"",""time""
""fullscreenenter"",""1"",""1303""
","
","","","-1","","","18","10831","5141","t","elianto","#f73b6a7A","-1","-1","1","0","[]","0","2","","","10831","103","7","4","lose","no-go","0"
"pit-trial","222","1415469","0.0-108.0","battery-v0.2","","""event"",""trial"",""time""
""fullscreenenter"",""1"",""1303""
","
","
","""event"",""trial"",""time""
""fullscreenenter"",""1"",""1303""
","
","","","579.1999999284744","","","18","10831","5141","c","elianto","#3366ff99","-1"," ","0","0","[1429.9000000953674]","1","2","","","10831","104","5","2","win","no-go","0"
"pit-trial","223","1420340","0.0-109.0","battery-v0.2","","""event"",""trial"",""time""
""fullscreenenter"",""1"",""1303""
","
","
","""event"",""trial"",""time""
""fullscreenenter"",""1"",""1303""
","
","","","-1","","","18","10831","5141","b","elianto","#f73b6a7A"," ","-1","0","-10","[]","0","2","","","10831","105","6","3","lose","go","0"
"pit-trial","224","1425061","0.0-110.0","battery-v0.2","","""event"",""trial"",""time""
""fullscreenenter"",""1"",""1303""
","
","
","""event"",""trial"",""time""
""fullscreenenter"",""1"",""1303""
","
","","","1855.3000000715256","","","18","10831","5141","z","elianto","#3366ff99"," "," ","1","+10","[2709.7000000476837]","1","2","","","10831","106","4","1","win","go","0"
"pit-trial","225","1429021","0.0-111.0","battery-v0.2","","""event"",""trial"",""time""
""fullscreenenter"",""1"",""1303""
","
","
","""event"",""trial"",""time""
""fullscreenenter"",""1"",""1303""
","
","","","1091.1999999284744","","","18","10831","5141","n","elianto","#3366ff99"," "," ","1","+10","[1948.3999999761581]","1","2","","","10831","107","9","1","win","go","0"
"pit-trial","226","1433893","0.0-112.0","battery-v0.2","","""event"",""trial"",""time""
""fullscreenenter"",""1"",""1303""
","
","
","""event"",""trial"",""time""
""fullscreenenter"",""1"",""1303""
","
","","","-1","","","18","10831","5141","f","elianto","#3366ff99"," ","-1","0","0","[]","0","2","","","10831","108","8","1","win","go","0"
"pit-trial","227","1437571","0.0-113.0","battery-v0.2","","""event"",""trial"",""time""
""fullscreenenter"",""1"",""1303""
","
","
","""event"",""trial"",""time""
""fullscreenenter"",""1"",""1303""
","
","","","817.7999999523163","","","18","10831","5141","b","elianto","#f73b6a7A"," "," ","1","-10","[1668.7999999523163]","1","2","","","10831","109","6","3","lose","go","1"
"pit-trial","228","1441250","0.0-114.0","battery-v0.2","","""event"",""trial"",""time""
""fullscreenenter"",""1"",""1303""
","
","
","""event"",""trial"",""time""
""fullscreenenter"",""1"",""1303""
","
","","","812.1000000238419","","","18","10831","5141","c","elianto","#3366ff99","-1"," ","0","0","[1665.0999999046326]","1","2","","","10831","110","5","2","win","no-go","0"
"pit-trial","229","1444981","0.0-115.0","battery-v0.2","","""event"",""trial"",""time""
""fullscreenenter"",""1"",""1303""
","
","
","""event"",""trial"",""time""
""fullscreenenter"",""1"",""1303""
","
","","","868.7999999523163","","","18","10831","5141","f","elianto","#3366ff99"," "," ","1","+10","[1720]","1","2","","","10831","111","8","1","win","go","0"
"pit-trial","230","1448765","0.0-116.0","battery-v0.2","","""event"",""trial"",""time""
""fullscreenenter"",""1"",""1303""
","
","
","""event"",""trial"",""time""
""fullscreenenter"",""1"",""1303""
","
","","","909.7999999523163","","","18","10831","5141","n","elianto","#3366ff99"," "," ","1","+10","[1767.7999999523163]","1","2","","","10831","112","9","1","win","go","0"
"pit-trial","231","1453636","0.0-117.0","battery-v0.2","","""event"",""trial"",""time""
""fullscreenenter"",""1"",""1303""
","
","
","""event"",""trial"",""time""
""fullscreenenter"",""1"",""1303""
","
","","","-1","","","18","10831","5141","b","elianto","#f73b6a7A"," ","-1","0","-10","[]","0","2","","","10831","113","6","3","lose","go","0"
"pit-trial","232","1457092","0.0-118.0","battery-v0.2","","""event"",""trial"",""time""
""fullscreenenter"",""1"",""1303""
","
","
","""event"",""trial"",""time""
""fullscreenenter"",""1"",""1303""
","
","","","592.2000000476837","","","18","10831","5141","f","elianto","#3366ff99"," "," ","1","+10","[1442.5]","1","2","","","10831","114","8","1","win","go","0"
"pit-trial","233","1460707","0.0-119.0","battery-v0.2","","""event"",""trial"",""time""
""fullscreenenter"",""1"",""1303""
","
","
","""event"",""trial"",""time""
""fullscreenenter"",""1"",""1303""
","
","","","756.7000000476837","","","18","10831","5141","n","elianto","#3366ff99"," "," ","1","+10","[1608.6000000238419]","1","2","","","10831","115","9","1","win","go","0"
"pit-trial","234","1464289","0.0-120.0","battery-v0.2","","""event"",""trial"",""time""
""fullscreenenter"",""1"",""1303""
","
","
","""event"",""trial"",""time""
""fullscreenenter"",""1"",""1303""
","
","","","716.6000000238419","","","18","10831","5141","c","elianto","#3366ff99","-1"," ","0","0","[1567.8999999761581]","1","2","","","10831","116","5","2","win","no-go","0"
"pit-trial","235","1469161","0.0-121.0","battery-v0.2","","""event"",""trial"",""time""
""fullscreenenter"",""1"",""1303""
","
","
","""event"",""trial"",""time""
""fullscreenenter"",""1"",""1303""
","
","","","-1","","","18","10831","5141","f","elianto","#3366ff99"," ","-1","0","0","[]","0","2","","","10831","117","8","1","win","go","0"
"pit-trial","236","1473911","0.0-122.0","battery-v0.2","","""event"",""trial"",""time""
""fullscreenenter"",""1"",""1303""
","
","
","""event"",""trial"",""time""
""fullscreenenter"",""1"",""1303""
","
","","","1892.6000000238419","","","18","10831","5141","n","elianto","#3366ff99"," "," ","1","+10","[2742.7000000476837]","1","2","","","10831","118","9","1","win","go","0"
"pit-trial","237","1477521","0.0-123.0","battery-v0.2","","""event"",""trial"",""time""
""fullscreenenter"",""1"",""1303""
","
","
","""event"",""trial"",""time""
""fullscreenenter"",""1"",""1303""
","
","","","749.6999999284744","","","18","10831","5141","c","elianto","#3366ff99","-1"," ","0","0","[1600.7000000476837]","1","2","","","10831","119","5","2","win","no-go","0"
"pit-trial","238","1482391","0.0-124.0","battery-v0.2","","""event"",""trial"",""time""
""fullscreenenter"",""1"",""1303""
","
","
","""event"",""trial"",""time""
""fullscreenenter"",""1"",""1303""
","
","","","-1","","","18","10831","5141","b","elianto","#f73b6a7A"," ","-1","0","-10","[2923.5]","1","2","","","10831","120","6","3","lose","go","0"
"pit-trial","239","1487254","0.0-125.0","battery-v0.2","","""event"",""trial"",""time""
""fullscreenenter"",""1"",""1303""
","
","
","""event"",""trial"",""time""
""fullscreenenter"",""1"",""1303""
","
","","","-1","","","18","10831","5141","t","elianto","#f73b6a7A","-1","-1","1","-10","[]","0","2","","","10831","121","7","4","lose","no-go","1"
"pit-trial","240","1492118","0.0-126.0","battery-v0.2","","""event"",""trial"",""time""
""fullscreenenter"",""1"",""1303""
","
","
","""event"",""trial"",""time""
""fullscreenenter"",""1"",""1303""
","
","","","-1","","","18","10831","5141","n","elianto","#3366ff99"," ","-1","0","0","[3090,3315]","2","2","","","10831","122","9","1","win","go","0"
"pit-trial","241","1496986","0.0-127.0","battery-v0.2","","""event"",""trial"",""time""
""fullscreenenter"",""1"",""1303""
","
","
","""event"",""trial"",""time""
""fullscreenenter"",""1"",""1303""
","
","","","-1","","","18","10831","5141","f","elianto","#3366ff99"," ","-1","0","0","[]","0","2","","","10831","123","8","1","win","go","0"
"pit-trial","242","1500567","0.0-128.0","battery-v0.2","","""event"",""trial"",""time""
""fullscreenenter"",""1"",""1303""
","
","
","""event"",""trial"",""time""
""fullscreenenter"",""1"",""1303""
","
","","","705","","","18","10831","5141","b","elianto","#f73b6a7A"," "," ","1","-10","[1561.6000000238419]","1","2","","","10831","124","6","3","lose","go","1"
"pit-trial","243","1505434","0.0-129.0","battery-v0.2","","""event"",""trial"",""time""
""fullscreenenter"",""1"",""1303""
","
","
","""event"",""trial"",""time""
""fullscreenenter"",""1"",""1303""
","
","","","-1","","","18","10831","5141","f","elianto","#3366ff99"," ","-1","0","0","[3877.7999999523163]","1","2","","","10831","125","8","1","win","go","0"
"pit-trial","244","1510304","0.0-130.0","battery-v0.2","","""event"",""trial"",""time""
""fullscreenenter"",""1"",""1303""
","
","
","""event"",""trial"",""time""
""fullscreenenter"",""1"",""1303""
","
","","","-1","","","18","10831","5141","n","elianto","#3366ff99"," ","-1","0","0","[3318.7999999523163]","1","2","","","10831","126","9","1","win","go","0"
"pit-trial","245","1514512","0.0-131.0","battery-v0.2","","""event"",""trial"",""time""
""fullscreenenter"",""1"",""1303""
","
","
","""event"",""trial"",""time""
""fullscreenenter"",""1"",""1303""
","
","","","1337","","","18","10831","5141","t","elianto","#f73b6a7A","-1"," ","0","-10","[2192.600000023842,3337.9000000953674]","2","2","","","10831","127","7","4","lose","no-go","0"
"pit-trial","246","1517885","0.0-132.0","battery-v0.2","","""event"",""trial"",""time""
""fullscreenenter"",""1"",""1303""
","
","
","""event"",""trial"",""time""
""fullscreenenter"",""1"",""1303""
","
","","","501.7000000476837","","","18","10831","5141","b","elianto","#f73b6a7A"," "," ","1","0","[290.10000002384186,1360.7000000476837]","2","2","","","10831","128","6","3","lose","go","0"
"pit-trial","247","1522752","0.0-133.0","battery-v0.2","","""event"",""trial"",""time""
""fullscreenenter"",""1"",""1303""
","
","
","""event"",""trial"",""time""
""fullscreenenter"",""1"",""1303""
","
","","","-1","","","18","10831","5141","b","elianto","#f73b6a7A"," ","-1","0","-10","[256.10000002384186]","1","2","","","10831","129","6","3","lose","go","0"
"pit-trial","248","1526495","0.0-134.0","battery-v0.2","","""event"",""trial"",""time""
""fullscreenenter"",""1"",""1303""
","
","
","""event"",""trial"",""time""
""fullscreenenter"",""1"",""1303""
","
","","","878.5","","","18","10831","5141","f","elianto","#3366ff99"," "," ","1","+10","[1735.7999999523163]","1","2","","","10831","130","8","1","win","go","0"
"pit-trial","249","1531364","0.0-135.0","battery-v0.2","","""event"",""trial"",""time""
""fullscreenenter"",""1"",""1303""
","
","
","""event"",""trial"",""time""
""fullscreenenter"",""1"",""1303""
","
","","","-1","","","18","10831","5141","t","elianto","#f73b6a7A","-1","-1","1","0","[]","0","2","","","10831","131","7","4","lose","no-go","0"
"pit-trial","250","1534712","0.0-136.0","battery-v0.2","","""event"",""trial"",""time""
""fullscreenenter"",""1"",""1303""
","
","
","""event"",""trial"",""time""
""fullscreenenter"",""1"",""1303""
","
","","","479.5","","","18","10831","5141","n","elianto","#3366ff99"," "," ","1","+10","[1333.2000000476837]","1","2","","","10831","132","9","1","win","go","0"
"pit-trial","251","1538920","0.0-137.0","battery-v0.2","","""event"",""trial"",""time""
""fullscreenenter"",""1"",""1303""
","
","
","""event"",""trial"",""time""
""fullscreenenter"",""1"",""1303""
","
","","","1340","","","18","10831","5141","b","elianto","#f73b6a7A"," "," ","1","0","[2196.1999999284744]","1","2","","","10831","133","6","3","lose","go","0"
"pit-trial","252","1542608","0.0-138.0","battery-v0.2","","""event"",""trial"",""time""
""fullscreenenter"",""1"",""1303""
","
","
","""event"",""trial"",""time""
""fullscreenenter"",""1"",""1303""
","
","","","821","","","18","10831","5141","n","elianto","#3366ff99"," "," ","1","0","[1675.1000000238419]","1","2","","","10831","134","9","1","win","go","1"
"pit-trial","253","1547475","0.0-139.0","battery-v0.2","","""event"",""trial"",""time""
""fullscreenenter"",""1"",""1303""
","
","
","""event"",""trial"",""time""
""fullscreenenter"",""1"",""1303""
","
","","","-1","","","18","10831","5141","f","elianto","#3366ff99"," ","-1","0","+10","[]","0","2","","","10831","135","8","1","win","go","1"
"pit-trial","254","1552344","0.0-140.0","battery-v0.2","","""event"",""trial"",""time""
""fullscreenenter"",""1"",""1303""
","
","
","""event"",""trial"",""time""
""fullscreenenter"",""1"",""1303""
","
","","","-1","","","18","10831","5141","t","elianto","#f73b6a7A","-1","-1","1","0","[]","0","2","","","10831","136","7","4","lose","no-go","0"
"pit-trial","255","1557214","0.0-141.0","battery-v0.2","","""event"",""trial"",""time""
""fullscreenenter"",""1"",""1303""
","
","
","""event"",""trial"",""time""
""fullscreenenter"",""1"",""1303""
","
","","","-1","","","18","10831","5141","n","elianto","#3366ff99"," ","-1","0","0","[]","0","2","","","10831","137","9","1","win","go","0"
"pit-trial","256","1562087","0.0-142.0","battery-v0.2","","""event"",""trial"",""time""
""fullscreenenter"",""1"",""1303""
","
","
","""event"",""trial"",""time""
""fullscreenenter"",""1"",""1303""
","
","","","-1","","","18","10831","5141","t","elianto","#f73b6a7A","-1","-1","1","0","[]","0","2","","","10831","138","7","4","lose","no-go","0"
"pit-trial","257","1566923","0.0-143.0","battery-v0.2","","""event"",""trial"",""time""
""fullscreenenter"",""1"",""1303""
","
","
","""event"",""trial"",""time""
""fullscreenenter"",""1"",""1303""
","
","","","1974.7000000476837","","","18","10831","5141","b","elianto","#f73b6a7A"," "," ","1","0","[2830.2000000476837]","1","2","","","10831","139","6","3","lose","go","0"
"pit-trial","258","1571791","0.0-144.0","battery-v0.2","","""event"",""trial"",""time""
""fullscreenenter"",""1"",""1303""
","
","
","""event"",""trial"",""time""
""fullscreenenter"",""1"",""1303""
","
","","","-1","","","18","10831","5141","f","elianto","#3366ff99"," ","-1","0","+10","[]","0","2","","","10831","140","8","1","win","go","1"
"pit-instructions","259","1586050","0.0-145.0","battery-v0.2","","""event"",""trial"",""time""
""fullscreenenter"",""1"",""1303""
","
","
","""event"",""trial"",""time""
""fullscreenenter"",""1"",""1303""
","
","","[{""page_index"":0,""viewing_time"":5804.899999976158},{""page_index"":1,""viewing_time"":8451.300000071526}]","14256.600000023842","","","","","","","","","","","","","","","","","","","","","","","",""
"pit-trial","260","1589922","0.0-146.0","battery-v0.2","","""event"",""trial"",""time""
""fullscreenenter"",""1"",""1303""
","
","
","""event"",""trial"",""time""
""fullscreenenter"",""1"",""1303""
","
","","","1010","","","18","10831","5141","a","elianto","#f73b6a7A","-1"," ","0","0","[1863.1000000238419]","1","3","","","10831","141","2","4","lose","no-go","1"
"pit-trial","261","1594790","0.0-147.0","battery-v0.2","","""event"",""trial"",""time""
""fullscreenenter"",""1"",""1303""
","
","
","""event"",""trial"",""time""
""fullscreenenter"",""1"",""1303""
","
","","","-1","","","18","10831","5141","u","elianto","#f73b6a7A","-1","-1","1","0","[]","0","3","","","10831","142","0","4","lose","no-go","0"
"pit-trial","262","1598444","0.0-148.0","battery-v0.2","","""event"",""trial"",""time""
""fullscreenenter"",""1"",""1303""
","
","
","""event"",""trial"",""time""
""fullscreenenter"",""1"",""1303""
","
","","","795.2999999523163","","","18","10831","5141","l","elianto","#3366ff99"," "," ","1","+10","[1645.8000000715256]","1","3","","","10831","143","1","1","win","go","0"
"pit-trial","263","1603313","0.0-149.0","battery-v0.2","","""event"",""trial"",""time""
""fullscreenenter"",""1"",""1303""
","
","
","""event"",""trial"",""time""
""fullscreenenter"",""1"",""1303""
","
","","","-1","","","18","10831","5141","g","elianto","#f73b6a7A"," ","-1","0","-10","[]","0","3","","","10831","144","3","3","lose","go","0"
"pit-trial","264","1607033","0.0-150.0","battery-v0.2","","""event"",""trial"",""time""
