"trial_type","trial_index","time_elapsed","internal_node_id","task_version","subject_id","interactions","blur_events","focus_events","fullscreenenter_events","fullscreenexit_events","success","view_history","rt","responses","num_errors","age","subject","participantId","rune","rune_set","hex","correct","choice","accuracy","outcome","keys","total_keys","block","practice","value","sub","trial","stimulus","robot","valence","action","sham"
"pavlovia","0","7","0.0-0.0","battery-v0.2","","""event"",""trial"",""time""
""fullscreenenter"",""1"",""2463""
","
","
","""event"",""trial"",""time""
""fullscreenenter"",""1"",""2463""
","
","","","","","","","","","","","","","","","","","","","","","","","","","","",""
"fullscreen","1","3452","0.0-1.0","battery-v0.2","","""event"",""trial"",""time""
""fullscreenenter"",""1"",""2463""
","
","
","""event"",""trial"",""time""
""fullscreenenter"",""1"",""2463""
","
","true","","","","","","","","","","","","","","","","","","","","","","","","","",""
"pit-instructions","2","9617","0.0-2.0-0.0","battery-v0.2","","""event"",""trial"",""time""
""fullscreenenter"",""1"",""2463""
","
","
","""event"",""trial"",""time""
""fullscreenenter"",""1"",""2463""
","
","","[{""page_index"":0,""viewing_time"":6161.200000047684}]","6161.600000023842","","","","","","","","","","","","","","","","","","","","","","","",""
"pit-comprehension","3","13767","0.0-2.0-1.0-0.0","battery-v0.2","","""event"",""trial"",""time""
""fullscreenenter"",""1"",""2463""
","
","
","""event"",""trial"",""time""
""fullscreenenter"",""1"",""2463""
","
","","","4148.099999904633","[""shark""]","0","13","6357","1847","","","","","","","","","","","","","","","","","","",""
"pit-instructions","4","15536","0.0-2.0-1.0-1.0","battery-v0.2","","""event"",""trial"",""time""
""fullscreenenter"",""1"",""2463""
","
","
","""event"",""trial"",""time""
""fullscreenenter"",""1"",""2463""
","
","","[{""page_index"":0,""viewing_time"":1762.6000000238419}]","1762.8999999761581","","","","","","","","","","","","","","","","","","","","","","","",""
"pit-comprehension","5","18171","0.0-2.0-2.0-0.0","battery-v0.2","","""event"",""trial"",""time""
""fullscreenenter"",""1"",""2463""
","
","
","""event"",""trial"",""time""
""fullscreenenter"",""1"",""2463""
","
","","","2632.3000000715256","[""tiger""]","0","13","6357","1847","","","","","","","","","","","","","","","","","","",""
"pit-instructions","6","23013","0.0-2.0-2.0-1.0","battery-v0.2","","""event"",""trial"",""time""
""fullscreenenter"",""1"",""2463""
","
","
","""event"",""trial"",""time""
""fullscreenenter"",""1"",""2463""
","
","","[{""page_index"":0,""viewing_time"":4839.399999976158}]","4839.700000047684","","","","","","","","","","","","","","","","","","","","","","","",""
"pit-instructions","7","116534","0.0-2.0-3.0","battery-v0.2","","""event"",""trial"",""time""
""fullscreenenter"",""1"",""2463""
","
","
","""event"",""trial"",""time""
""fullscreenenter"",""1"",""2463""
","
","","[{""page_index"":0,""viewing_time"":7471.799999952316},{""page_index"":1,""viewing_time"":6792.100000023842},{""page_index"":2,""viewing_time"":6005.800000071526},{""page_index"":3,""viewing_time"":5354.199999928474},{""page_index"":4,""viewing_time"":5951.899999976158},{""page_index"":5,""viewing_time"":5471.5},{""page_index"":6,""viewing_time"":5998.200000047684},{""page_index"":7,""viewing_time"":7320.100000023842},{""page_index"":8,""viewing_time"":6022.199999928474},{""page_index"":9,""viewing_time"":10668.200000047684},{""page_index"":10,""viewing_time"":7793.799999952316},{""page_index"":11,""viewing_time"":7629.900000095367},{""page_index"":12,""viewing_time"":6254.099999904633},{""page_index"":13,""viewing_time"":4785.900000095367}]","93520.20000004768","","","","","","","","","","","","","","","","","","","","","","","",""
"pit-trial","8","120447","0.0-2.0-4.0-0.0","battery-v0.2","","""event"",""trial"",""time""
""fullscreenenter"",""1"",""2463""
","
","
","""event"",""trial"",""time""
""fullscreenenter"",""1"",""2463""
","
","","","1052.5","","","13","6357","1847","&#9784;","elianto","#FFFFF080"," "," ","1","&#10004","[1903.8000000715256]","1","0","0","","","","","","","",""
"pit-trial","9","123880","0.0-2.0-4.1-0.1","battery-v0.2","","""event"",""trial"",""time""
""fullscreenenter"",""1"",""2463""
","
","
","""event"",""trial"",""time""
""fullscreenenter"",""1"",""2463""
","
","","","569.7999999523163","","","13","6357","1847","&#9784;","elianto","#FFFFF080"," "," ","1","&#10004","[1430.2999999523163]","1","0","0","","","","","","","",""
"pit-trial","10","127141","0.0-2.0-4.2-0.2","battery-v0.2","","""event"",""trial"",""time""
""fullscreenenter"",""1"",""2463""
","
","
","""event"",""trial"",""time""
""fullscreenenter"",""1"",""2463""
","
","","","402.39999997615814","","","13","6357","1847","&#9784;","elianto","#FFFFF080"," "," ","1","&#10004","[1252.7999999523163]","1","0","0","","","","","","","",""
"pit-trial","11","130558","0.0-2.0-4.3-0.3","battery-v0.2","","""event"",""trial"",""time""
""fullscreenenter"",""1"",""2463""
","
","
","""event"",""trial"",""time""
""fullscreenenter"",""1"",""2463""
","
","","","549.7000000476837","","","13","6357","1847","&#9784;","elianto","#FFFFF080"," "," ","1","&#10004","[1408.3000000715256]","1","0","0","","","","","","","",""
"pit-trial","12","133903","0.0-2.0-4.4-0.4","battery-v0.2","","""event"",""trial"",""time""
""fullscreenenter"",""1"",""2463""
","
","
","""event"",""trial"",""time""
""fullscreenenter"",""1"",""2463""
","
","","","492.89999997615814","","","13","6357","1847","&#9784;","elianto","#FFFFF080"," "," ","1","&#10004","[1343.3999999761581]","1","0","0","","","","","","","",""
"pit-instructions","13","155372","0.0-2.0-5.0","battery-v0.2","","""event"",""trial"",""time""
""fullscreenenter"",""1"",""2463""
","
","
","""event"",""trial"",""time""
""fullscreenenter"",""1"",""2463""
","
","","[{""page_index"":0,""viewing_time"":5202.299999952316},{""page_index"":1,""viewing_time"":5455.700000047684},{""page_index"":2,""viewing_time"":4979.799999952316},{""page_index"":3,""viewing_time"":5828.399999976158}]","21466.5","","","","","","","","","","","","","","","","","","","","","","","",""
"pit-trial","14","160241","0.0-2.0-6.0-0.0","battery-v0.2","","""event"",""trial"",""time""
""fullscreenenter"",""1"",""2463""
","
","
","""event"",""trial"",""time""
""fullscreenenter"",""1"",""2463""
","
","","","-1","","","13","6357","1847","&#9854;","elianto","#FFFFF080","-1","-1","1","&#10004","[]","0","0","1","","","","","","","",""
"pit-trial","15","165120","0.0-2.0-6.1-0.1","battery-v0.2","","""event"",""trial"",""time""
""fullscreenenter"",""1"",""2463""
","
","
","""event"",""trial"",""time""
""fullscreenenter"",""1"",""2463""
","
","","","-1","","","13","6357","1847","&#9854;","elianto","#FFFFF080","-1","-1","1","&#10004","[]","0","0","1","","","","","","","",""
"pit-trial","16","169987","0.0-2.0-6.2-0.2","battery-v0.2","","""event"",""trial"",""time""
""fullscreenenter"",""1"",""2463""
","
","
","""event"",""trial"",""time""
""fullscreenenter"",""1"",""2463""
","
","","","-1","","","13","6357","1847","&#9854;","elianto","#FFFFF080","-1","-1","1","&#10004","[]","0","0","1","","","","","","","",""
"pit-trial","17","174853","0.0-2.0-6.3-0.3","battery-v0.2","","""event"",""trial"",""time""
""fullscreenenter"",""1"",""2463""
","
","
","""event"",""trial"",""time""
""fullscreenenter"",""1"",""2463""
","
","","","-1","","","13","6357","1847","&#9854;","elianto","#FFFFF080","-1","-1","1","&#10004","[]","0","0","1","","","","","","","",""
"pit-trial","18","179715","0.0-2.0-6.4-0.4","battery-v0.2","","""event"",""trial"",""time""
""fullscreenenter"",""1"",""2463""
","
","
","""event"",""trial"",""time""
""fullscreenenter"",""1"",""2463""
","
","","","-1","","","13","6357","1847","&#9854;","elianto","#FFFFF080","-1","-1","1","&#10004","[]","0","0","1","","","","","","","",""
"pit-instructions","19","281789","0.0-2.0-7.0","battery-v0.2","","""event"",""trial"",""time""
""fullscreenenter"",""1"",""2463""
","
","
","""event"",""trial"",""time""
""fullscreenenter"",""1"",""2463""
","
","","[{""page_index"":0,""viewing_time"":5358.399999976158},{""page_index"":1,""viewing_time"":6192.399999976158},{""page_index"":2,""viewing_time"":5213.900000095367},{""page_index"":3,""viewing_time"":5151.899999976158},{""page_index"":4,""viewing_time"":5011.399999976158},{""page_index"":5,""viewing_time"":5066.299999952316},{""page_index"":6,""viewing_time"":4187.800000071526},{""page_index"":7,""viewing_time"":7110.600000023842},{""page_index"":8,""viewing_time"":6067.899999976158},{""page_index"":9,""viewing_time"":5213.899999976158},{""page_index"":10,""viewing_time"":6232.299999952316},{""page_index"":11,""viewing_time"":4101.300000071526},{""page_index"":12,""viewing_time"":6232.600000023842},{""page_index"":13,""viewing_time"":6200},{""page_index"":14,""viewing_time"":6191.899999976158},{""page_index"":15,""viewing_time"":6248},{""page_index"":16,""viewing_time"":6129.799999952316},{""page_index"":17,""viewing_time"":6161.800000071526}]","102072.5","","","","","","","","","","","","","","","","","","","","","","","",""
"pit-trial","20","285610","0.0-2.0-8.0-0.0","battery-v0.2","","""event"",""trial"",""time""
""fullscreenenter"",""1"",""2463""
","
","
","""event"",""trial"",""time""
""fullscreenenter"",""1"",""2463""
","
","","","966.5","","","13","6357","1847","&#9776;","elianto","#3366ff99"," "," ","1","+10","[1816.8999999761581]","1","0","1","","","","","","","",""
"pit-trial","21","288999","0.0-2.0-8.0-1.0","battery-v0.2","","""event"",""trial"",""time""
""fullscreenenter"",""1"",""2463""
","
","
","""event"",""trial"",""time""
""fullscreenenter"",""1"",""2463""
","
","","","522.1000000238419","","","13","6357","1847","&#9776;","elianto","#3366ff99"," "," ","1","+10","[1372.2999999523163]","1","0","1","","","","","","","",""
"pit-trial","22","292354","0.0-2.0-8.0-2.0","battery-v0.2","","""event"",""trial"",""time""
""fullscreenenter"",""1"",""2463""
","
","
","""event"",""trial"",""time""
""fullscreenenter"",""1"",""2463""
","
","","","489.59999990463257","","","13","6357","1847","&#9776;","elianto","#3366ff99"," "," ","1","+10","[1351.1999999284744]","1","0","1","","","","","","","",""
"pit-trial","23","295799","0.0-2.0-8.0-3.0","battery-v0.2","","""event"",""trial"",""time""
""fullscreenenter"",""1"",""2463""
","
","
","""event"",""trial"",""time""
""fullscreenenter"",""1"",""2463""
","
","","","572.3999999761581","","","13","6357","1847","&#9776;","elianto","#3366ff99"," "," ","1","0","[1428.3999999761581]","1","0","1","","","","","","","",""
"pit-trial","24","299344","0.0-2.0-8.0-4.0","battery-v0.2","","""event"",""trial"",""time""
""fullscreenenter"",""1"",""2463""
","
","
","""event"",""trial"",""time""
""fullscreenenter"",""1"",""2463""
","
","","","680.9000000953674","","","13","6357","1847","&#9776;","elianto","#3366ff99"," "," ","1","+10","[1534.7000000476837]","1","0","1","","","","","","","",""
"pit-trial","25","302641","0.0-2.0-8.1-0.1","battery-v0.2","","""event"",""trial"",""time""
""fullscreenenter"",""1"",""2463""
","
","
","""event"",""trial"",""time""
""fullscreenenter"",""1"",""2463""
","
","","","434.7999999523163","","","13","6357","1847","&#9776;","elianto","#3366ff99"," "," ","1","+10","[1294]","1","0","1","","","","","","","",""
"pit-trial","26","305914","0.0-2.0-8.1-1.1","battery-v0.2","","""event"",""trial"",""time""
""fullscreenenter"",""1"",""2463""
","
","
","""event"",""trial"",""time""
""fullscreenenter"",""1"",""2463""
","
","","","409.2999999523163","","","13","6357","1847","&#9776;","elianto","#3366ff99"," "," ","1","+10","[1261]","1","0","1","","","","","","","",""
"pit-trial","27","309168","0.0-2.0-8.1-2.1","battery-v0.2","","""event"",""trial"",""time""
""fullscreenenter"",""1"",""2463""
","
","
","""event"",""trial"",""time""
""fullscreenenter"",""1"",""2463""
","
","","","394","","","13","6357","1847","&#9776;","elianto","#3366ff99"," "," ","1","+10","[1244.2999999523163]","1","0","1","","","","","","","",""
"pit-trial","28","312385","0.0-2.0-8.1-3.1","battery-v0.2","","""event"",""trial"",""time""
""fullscreenenter"",""1"",""2463""
","
","
","""event"",""trial"",""time""
""fullscreenenter"",""1"",""2463""
","
","","","356.10000002384186","","","13","6357","1847","&#9776;","elianto","#3366ff99"," "," ","1","0","[1206.4000000953674]","1","0","1","","","","","","","",""
"pit-trial","29","315713","0.0-2.0-8.1-4.1","battery-v0.2","","""event"",""trial"",""time""
""fullscreenenter"",""1"",""2463""
","
","
","""event"",""trial"",""time""
""fullscreenenter"",""1"",""2463""
","
","","","476.1999999284744","","","13","6357","1847","&#9776;","elianto","#3366ff99"," "," ","1","+10","[1326.3999999761581]","1","0","1","","","","","","","",""
"pit-trial","30","319005","0.0-2.0-8.2-0.2","battery-v0.2","","""event"",""trial"",""time""
""fullscreenenter"",""1"",""2463""
","
","
","""event"",""trial"",""time""
""fullscreenenter"",""1"",""2463""
","
","","","434.60000002384186","","","13","6357","1847","&#9776;","elianto","#3366ff99"," "," ","1","+10","[1285.1000000238419]","1","0","1","","","","","","","",""
"pit-trial","31","322376","0.0-2.0-8.2-1.2","battery-v0.2","","""event"",""trial"",""time""
""fullscreenenter"",""1"",""2463""
","
","
","""event"",""trial"",""time""
""fullscreenenter"",""1"",""2463""
","
","","","518.2000000476837","","","13","6357","1847","&#9776;","elianto","#3366ff99"," "," ","1","+10","[1368.8000000715256]","1","0","1","","","","","","","",""
"pit-trial","32","325312","0.0-2.0-8.2-2.2","battery-v0.2","","""event"",""trial"",""time""
""fullscreenenter"",""1"",""2463""
","
","
","""event"",""trial"",""time""
""fullscreenenter"",""1"",""2463""
","
","","","84.19999992847443","","","13","6357","1847","&#9776;","elianto","#3366ff99"," "," ","1","+10","[934.5]","1","0","1","","","","","","","",""
"pit-trial","33","328208","0.0-2.0-8.2-3.2","battery-v0.2","","""event"",""trial"",""time""
""fullscreenenter"",""1"",""2463""
","
","
","""event"",""trial"",""time""
""fullscreenenter"",""1"",""2463""
","
","","","42.799999952316284","","","13","6357","1847","&#9776;","elianto","#3366ff99"," "," ","1","0","[893.5,1925.7000000476837,2125.7000000476837,2317.7000000476837,2518.2000000476837,2726.2000000476837]","6","0","1","","","","","","","",""
"pit-trial","34","331072","0.0-2.0-8.2-4.2","battery-v0.2","","""event"",""trial"",""time""
""fullscreenenter"",""1"",""2463""
","
","
","""event"",""trial"",""time""
""fullscreenenter"",""1"",""2463""
","
","","","10.700000047683716","","","13","6357","1847","&#9776;","elianto","#3366ff99"," "," ","1","+10","[45.800000071525574,285.10000002384186,461.8000000715256,661.7000000476837,861.7000000476837,1590.3000000715256,1798.2000000476837,2005.4000000953674,2190.2000000476837,2373.9000000953674,2582.5,2782.100000023842]","12","0","1","","","","","","","",""
"call-function","35","331073","0.0-2.0-9.0","battery-v0.2","","""event"",""trial"",""time""
""fullscreenenter"",""1"",""2463""
","
","
","""event"",""trial"",""time""
""fullscreenenter"",""1"",""2463""
","
","","","","","","","","","","","","","","","","","","","","","","","","","","",""
"pit-instructions","36","367332","0.0-2.0-10.0","battery-v0.2","","""event"",""trial"",""time""
""fullscreenenter"",""1"",""2463""
","
","
","""event"",""trial"",""time""
""fullscreenenter"",""1"",""2463""
","
","","[{""page_index"":0,""viewing_time"":5674.099999904633},{""page_index"":1,""viewing_time"":6132.100000023842},{""page_index"":2,""viewing_time"":9175.100000023842},{""page_index"":3,""viewing_time"":8198.399999976158},{""page_index"":4,""viewing_time"":7078.100000023842}]","36258.199999928474","","","","","","","","","","","","","","","","","","","","","","","",""
"pit-trial","37","370772","0.0-2.0-11.0-0.0","battery-v0.2","","""event"",""trial"",""time""
""fullscreenenter"",""1"",""2463""
","
","
","""event"",""trial"",""time""
""fullscreenenter"",""1"",""2463""
","
","","","575.2999999523163","","","13","6357","1847","&#9761;","elianto","#3366ff99","-1"," ","0","0","[1426.3999999761581]","1","0","2","","","","","","","",""
"pit-trial","38","373902","0.0-2.0-11.0-1.0","battery-v0.2","","""event"",""trial"",""time""
""fullscreenenter"",""1"",""2463""
","
","
","""event"",""trial"",""time""
""fullscreenenter"",""1"",""2463""
","
","","","250.79999995231628","","","13","6357","1847","&#9761;","elianto","#3366ff99","-1"," ","0","0","[1114.1999999284744]","1","0","2","","","","","","","",""
"pit-trial","39","377192","0.0-2.0-11.0-2.0","battery-v0.2","","""event"",""trial"",""time""
""fullscreenenter"",""1"",""2463""
","
","
","""event"",""trial"",""time""
""fullscreenenter"",""1"",""2463""
","
","","","426.60000002384186","","","13","6357","1847","&#9761;","elianto","#3366ff99","-1"," ","0","0","[1280]","1","0","2","","","","","","","",""
"pit-trial","40","382054","0.0-2.0-11.0-3.0","battery-v0.2","","""event"",""trial"",""time""
""fullscreenenter"",""1"",""2463""
","
","
","""event"",""trial"",""time""
""fullscreenenter"",""1"",""2463""
","
","","","-1","","","13","6357","1847","&#9761;","elianto","#3366ff99","-1","-1","1","0","[]","0","0","2","","","","","","","",""
"pit-trial","41","386914","0.0-2.0-11.0-4.0","battery-v0.2","","""event"",""trial"",""time""
""fullscreenenter"",""1"",""2463""
","
","
","""event"",""trial"",""time""
""fullscreenenter"",""1"",""2463""
","
","","","-1","","","13","6357","1847","&#9761;","elianto","#3366ff99","-1","-1","1","+10","[]","0","0","2","","","","","","","",""
"pit-trial","42","391775","0.0-2.0-11.1-0.1","battery-v0.2","","""event"",""trial"",""time""
""fullscreenenter"",""1"",""2463""
","
","
","""event"",""trial"",""time""
""fullscreenenter"",""1"",""2463""
","
","","","-1","","","13","6357","1847","&#9761;","elianto","#3366ff99","-1","-1","1","+10","[]","0","0","2","","","","","","","",""
"pit-trial","43","395068","0.0-2.0-11.1-1.1","battery-v0.2","","""event"",""trial"",""time""
""fullscreenenter"",""1"",""2463""
","
","
","""event"",""trial"",""time""
""fullscreenenter"",""1"",""2463""
","
","","","428.7999999523163","","","13","6357","1847","&#9761;","elianto","#3366ff99","-1"," ","0","0","[1279.1000000238419]","1","0","2","","","","","","","",""
"pit-trial","44","399922","0.0-2.0-11.1-2.1","battery-v0.2","","""event"",""trial"",""time""
""fullscreenenter"",""1"",""2463""
","
","
","""event"",""trial"",""time""
""fullscreenenter"",""1"",""2463""
","
","","","-1","","","13","6357","1847","&#9761;","elianto","#3366ff99","-1","-1","1","+10","[]","0","0","2","","","","","","","",""
"pit-trial","45","404775","0.0-2.0-11.1-3.1","battery-v0.2","","""event"",""trial"",""time""
""fullscreenenter"",""1"",""2463""
","
","
","""event"",""trial"",""time""
""fullscreenenter"",""1"",""2463""
","
","","","-1","","","13","6357","1847","&#9761;","elianto","#3366ff99","-1","-1","1","0","[]","0","0","2","","","","","","","",""
"pit-trial","46","409628","0.0-2.0-11.1-4.1","battery-v0.2","","""event"",""trial"",""time""
""fullscreenenter"",""1"",""2463""
","
","
","""event"",""trial"",""time""
""fullscreenenter"",""1"",""2463""
","
","","","-1","","","13","6357","1847","&#9761;","elianto","#3366ff99","-1","-1","1","+10","[]","0","0","2","","","","","","","",""
"pit-trial","47","413569","0.0-2.0-11.2-0.2","battery-v0.2","","""event"",""trial"",""time""
""fullscreenenter"",""1"",""2463""
","
","
","""event"",""trial"",""time""
""fullscreenenter"",""1"",""2463""
","
","","","1086.1999999284744","","","13","6357","1847","&#9761;","elianto","#3366ff99","-1"," ","0","0","[1937.3999999761581]","1","0","2","","","","","","","",""
"pit-trial","48","416704","0.0-2.0-11.2-1.2","battery-v0.2","","""event"",""trial"",""time""
""fullscreenenter"",""1"",""2463""
","
","
","""event"",""trial"",""time""
""fullscreenenter"",""1"",""2463""
","
","","","282.7999999523163","","","13","6357","1847","&#9761;","elianto","#3366ff99","-1"," ","0","0","[1133.0999999046326]","1","0","2","","","","","","","",""
"pit-trial","49","419680","0.0-2.0-11.2-2.2","battery-v0.2","","""event"",""trial"",""time""
""fullscreenenter"",""1"",""2463""
","
","
","""event"",""trial"",""time""
""fullscreenenter"",""1"",""2463""
","
","","","123.5","","","13","6357","1847","&#9761;","elianto","#3366ff99","-1"," ","0","0","[973.6000000238419]","1","0","2","","","","","","","",""
"pit-trial","50","424533","0.0-2.0-11.2-3.2","battery-v0.2","","""event"",""trial"",""time""
""fullscreenenter"",""1"",""2463""
","
","
","""event"",""trial"",""time""
""fullscreenenter"",""1"",""2463""
","
","","","-1","","","13","6357","1847","&#9761;","elianto","#3366ff99","-1","-1","1","0","[]","0","0","2","","","","","","","",""
"pit-trial","51","429387","0.0-2.0-11.2-4.2","battery-v0.2","","""event"",""trial"",""time""
""fullscreenenter"",""1"",""2463""
","
","
","""event"",""trial"",""time""
""fullscreenenter"",""1"",""2463""
","
","","","-1","","","13","6357","1847","&#9761;","elianto","#3366ff99","-1","-1","1","+10","[]","0","0","2","","","","","","","",""
"pit-trial","52","434241","0.0-2.0-11.3-0.3","battery-v0.2","","""event"",""trial"",""time""
""fullscreenenter"",""1"",""2463""
","
","
","""event"",""trial"",""time""
""fullscreenenter"",""1"",""2463""
","
","","","-1","","","13","6357","1847","&#9761;","elianto","#3366ff99","-1","-1","1","+10","[]","0","0","2","","","","","","","",""
"pit-trial","53","437304","0.0-2.0-11.3-1.3","battery-v0.2","","""event"",""trial"",""time""
""fullscreenenter"",""1"",""2463""
","
","
","""event"",""trial"",""time""
""fullscreenenter"",""1"",""2463""
","
","","","209.5","","","13","6357","1847","&#9761;","elianto","#3366ff99","-1"," ","0","0","[460.8000000715256,740.5,1060.3999999761581,1372.3000000715256]","4","0","2","","","","","","","",""
"pit-trial","54","440207","0.0-2.0-11.3-2.3","battery-v0.2","","""event"",""trial"",""time""
""fullscreenenter"",""1"",""2463""
","
","
","""event"",""trial"",""time""
""fullscreenenter"",""1"",""2463""
","
","","","51.800000071525574","","","13","6357","1847","&#9761;","elianto","#3366ff99","-1"," ","0","0","[182.29999995231628,902.1000000238419,1647,2445.899999976158]","4","0","2","","","","","","","",""
"pit-trial","55","443409","0.0-2.0-11.3-3.3","battery-v0.2","","""event"",""trial"",""time""
""fullscreenenter"",""1"",""2463""
","
","
","""event"",""trial"",""time""
""fullscreenenter"",""1"",""2463""
","
","","","348.2000000476837","","","13","6357","1847","&#9761;","elianto","#3366ff99","-1"," ","0","+10","[246,439.1999999284744,1199,1436.3999999761581,1727.3999999761581,2007.0999999046326,2281.899999976158,2524.7999999523163,2834.0999999046326,3131.5999999046326]","10","0","2","","","","","","","",""
"pit-trial","56","448261","0.0-2.0-11.3-4.3","battery-v0.2","","""event"",""trial"",""time""
""fullscreenenter"",""1"",""2463""
","
","
","""event"",""trial"",""time""
""fullscreenenter"",""1"",""2463""
","
","","","-1","","","13","6357","1847","&#9761;","elianto","#3366ff99","-1","-1","1","+10","[69.59999990463257,462.6999999284744,3825.5999999046326,4002.0999999046326,4196.599999904633,4386.5,4573.899999976158,4776.199999928474]","8","0","2","","","","","","","",""
"call-function","57","448262","0.0-2.0-12.0","battery-v0.2","","""event"",""trial"",""time""
""fullscreenenter"",""1"",""2463""
","
","
","""event"",""trial"",""time""
""fullscreenenter"",""1"",""2463""
","
","","","","","","","","","","","","","","","","","","","","","","","","","","",""
"pit-instructions","58","477701","0.0-2.0-13.0","battery-v0.2","","""event"",""trial"",""time""
""fullscreenenter"",""1"",""2463""
","
","
","""event"",""trial"",""time""
""fullscreenenter"",""1"",""2463""
","
","","[{""page_index"":0,""viewing_time"":5795},{""page_index"":1,""viewing_time"":6122.299999952316},{""page_index"":2,""viewing_time"":3302.2999999523163},{""page_index"":3,""viewing_time"":10147.700000047684},{""page_index"":4,""viewing_time"":4071.7999999523163}]","29439.399999976158","","","","","","","","","","","","","","","","","","","","","","","",""
"pit-trial","59","481223","0.0-2.0-14.0-0.0","battery-v0.2","","""event"",""trial"",""time""
""fullscreenenter"",""1"",""2463""
","
","
","""event"",""trial"",""time""
""fullscreenenter"",""1"",""2463""
","
","","","660.8999999761581","","","13","6357","1847","&#9826;","elianto","#f73b6a7A","-1"," ","0","-10","[1512.3999999761581]","1","0","3","","","","","","","",""
"pit-trial","60","486089","0.0-2.0-14.0-1.0","battery-v0.2","","""event"",""trial"",""time""
""fullscreenenter"",""1"",""2463""
","
","
","""event"",""trial"",""time""
""fullscreenenter"",""1"",""2463""
","
","","","-1","","","13","6357","1847","&#9826;","elianto","#f73b6a7A","-1","-1","1","0","[]","0","0","3","","","","","","","",""
"pit-trial","61","490960","0.0-2.0-14.0-2.0","battery-v0.2","","""event"",""trial"",""time""
""fullscreenenter"",""1"",""2463""
","
","
","""event"",""trial"",""time""
""fullscreenenter"",""1"",""2463""
","
","","","-1","","","13","6357","1847","&#9826;","elianto","#f73b6a7A","-1","-1","1","0","[]","0","0","3","","","","","","","",""
"pit-trial","62","495818","0.0-2.0-14.0-3.0","battery-v0.2","","""event"",""trial"",""time""
""fullscreenenter"",""1"",""2463""
","
","
","""event"",""trial"",""time""
""fullscreenenter"",""1"",""2463""
","
","","","-1","","","13","6357","1847","&#9826;","elianto","#f73b6a7A","-1","-1","1","-10","[]","0","0","3","","","","","","","",""
"pit-trial","63","500690","0.0-2.0-14.0-4.0","battery-v0.2","","""event"",""trial"",""time""
""fullscreenenter"",""1"",""2463""
","
","
","""event"",""trial"",""time""
""fullscreenenter"",""1"",""2463""
","
","","","-1","","","13","6357","1847","&#9826;","elianto","#f73b6a7A","-1","-1","1","0","[]","0","0","3","","","","","","","",""
"pit-trial","64","505567","0.0-2.0-14.1-0.1","battery-v0.2","","""event"",""trial"",""time""
""fullscreenenter"",""1"",""2463""
","
","
","""event"",""trial"",""time""
""fullscreenenter"",""1"",""2463""
","
","","","-1","","","13","6357","1847","&#9826;","elianto","#f73b6a7A","-1","-1","1","0","[]","0","0","3","","","","","","","",""
"pit-trial","65","510433","0.0-2.0-14.1-1.1","battery-v0.2","","""event"",""trial"",""time""
""fullscreenenter"",""1"",""2463""
","
","
","""event"",""trial"",""time""
""fullscreenenter"",""1"",""2463""
","
","","","-1","","","13","6357","1847","&#9826;","elianto","#f73b6a7A","-1","-1","1","0","[]","0","0","3","","","","","","","",""
"pit-trial","66","515286","0.0-2.0-14.1-2.1","battery-v0.2","","""event"",""trial"",""time""
""fullscreenenter"",""1"",""2463""
","
","
","""event"",""trial"",""time""
""fullscreenenter"",""1"",""2463""
","
","","","-1","","","13","6357","1847","&#9826;","elianto","#f73b6a7A","-1","-1","1","0","[]","0","0","3","","","","","","","",""
"pit-trial","67","520140","0.0-2.0-14.1-3.1","battery-v0.2","","""event"",""trial"",""time""
""fullscreenenter"",""1"",""2463""
","
","
","""event"",""trial"",""time""
""fullscreenenter"",""1"",""2463""
","
","","","-1","","","13","6357","1847","&#9826;","elianto","#f73b6a7A","-1","-1","1","-10","[]","0","0","3","","","","","","","",""
"pit-trial","68","524992","0.0-2.0-14.1-4.1","battery-v0.2","","""event"",""trial"",""time""
""fullscreenenter"",""1"",""2463""
","
","
","""event"",""trial"",""time""
""fullscreenenter"",""1"",""2463""
","
","","","-1","","","13","6357","1847","&#9826;","elianto","#f73b6a7A","-1","-1","1","0","[]","0","0","3","","","","","","","",""
"pit-trial","69","529845","0.0-2.0-14.2-0.2","battery-v0.2","","""event"",""trial"",""time""
""fullscreenenter"",""1"",""2463""
","
","
","""event"",""trial"",""time""
""fullscreenenter"",""1"",""2463""
","
","","","-1","","","13","6357","1847","&#9826;","elianto","#f73b6a7A","-1","-1","1","0","[]","0","0","3","","","","","","","",""
"pit-trial","70","534698","0.0-2.0-14.2-1.2","battery-v0.2","","""event"",""trial"",""time""
""fullscreenenter"",""1"",""2463""
","
","
","""event"",""trial"",""time""
""fullscreenenter"",""1"",""2463""
","
","","","-1","","","13","6357","1847","&#9826;","elianto","#f73b6a7A","-1","-1","1","0","[]","0","0","3","","","","","","","",""
"pit-trial","71","539552","0.0-2.0-14.2-2.2","battery-v0.2","","""event"",""trial"",""time""
""fullscreenenter"",""1"",""2463""
","
","
","""event"",""trial"",""time""
""fullscreenenter"",""1"",""2463""
","
","","","-1","","","13","6357","1847","&#9826;","elianto","#f73b6a7A","-1","-1","1","0","[]","0","0","3","","","","","","","",""
"pit-trial","72","544404","0.0-2.0-14.2-3.2","battery-v0.2","","""event"",""trial"",""time""
""fullscreenenter"",""1"",""2463""
","
","
","""event"",""trial"",""time""
""fullscreenenter"",""1"",""2463""
","
","","","-1","","","13","6357","1847","&#9826;","elianto","#f73b6a7A","-1","-1","1","-10","[]","0","0","3","","","","","","","",""
"pit-trial","73","549257","0.0-2.0-14.2-4.2","battery-v0.2","","""event"",""trial"",""time""
""fullscreenenter"",""1"",""2463""
","
","
","""event"",""trial"",""time""
""fullscreenenter"",""1"",""2463""
","
","","","-1","","","13","6357","1847","&#9826;","elianto","#f73b6a7A","-1","-1","1","0","[]","0","0","3","","","","","","","",""
"pit-trial","74","554109","0.0-2.0-14.3-0.3","battery-v0.2","","""event"",""trial"",""time""
""fullscreenenter"",""1"",""2463""
","
","
","""event"",""trial"",""time""
""fullscreenenter"",""1"",""2463""
","
","","","-1","","","13","6357","1847","&#9826;","elianto","#f73b6a7A","-1","-1","1","0","[]","0","0","3","","","","","","","",""
"pit-trial","75","558962","0.0-2.0-14.3-1.3","battery-v0.2","","""event"",""trial"",""time""
""fullscreenenter"",""1"",""2463""
","
","
","""event"",""trial"",""time""
""fullscreenenter"",""1"",""2463""
","
","","","-1","","","13","6357","1847","&#9826;","elianto","#f73b6a7A","-1","-1","1","0","[]","0","0","3","","","","","","","",""
"pit-trial","76","563822","0.0-2.0-14.3-2.3","battery-v0.2","","""event"",""trial"",""time""
""fullscreenenter"",""1"",""2463""
","
","
","""event"",""trial"",""time""
""fullscreenenter"",""1"",""2463""
","
","","","-1","","","13","6357","1847","&#9826;","elianto","#f73b6a7A","-1","-1","1","0","[]","0","0","3","","","","","","","",""
"pit-trial","77","568675","0.0-2.0-14.3-3.3","battery-v0.2","","""event"",""trial"",""time""
""fullscreenenter"",""1"",""2463""
","
","
","""event"",""trial"",""time""
""fullscreenenter"",""1"",""2463""
","
","","","-1","","","13","6357","1847","&#9826;","elianto","#f73b6a7A","-1","-1","1","-10","[]","0","0","3","","","","","","","",""
"pit-trial","78","573527","0.0-2.0-14.3-4.3","battery-v0.2","","""event"",""trial"",""time""
""fullscreenenter"",""1"",""2463""
","
","
","""event"",""trial"",""time""
""fullscreenenter"",""1"",""2463""
","
","","","-1","","","13","6357","1847","&#9826;","elianto","#f73b6a7A","-1","-1","1","0","[]","0","0","3","","","","","","","",""
"call-function","79","573528","0.0-2.0-15.0","battery-v0.2","","""event"",""trial"",""time""
""fullscreenenter"",""1"",""2463""
","
","
","""event"",""trial"",""time""
""fullscreenenter"",""1"",""2463""
","
","","","","","","","","","","","","","","","","","","","","","","","","","","",""
"pit-instructions","80","596792","0.0-2.0-16.0","battery-v0.2","","""event"",""trial"",""time""
""fullscreenenter"",""1"",""2463""
","
","
","""event"",""trial"",""time""
""fullscreenenter"",""1"",""2463""
","
","","[{""page_index"":0,""viewing_time"":6900.899999976158},{""page_index"":1,""viewing_time"":8033.600000023842},{""page_index"":2,""viewing_time"":4140},{""page_index"":3,""viewing_time"":4188.099999904633}]","23262.799999952316","","","","","","","","","","","","","","","","","","","","","","","",""
"pit-trial","81","599797","0.0-2.0-17.0-0.0","battery-v0.2","","""event"",""trial"",""time""
""fullscreenenter"",""1"",""2463""
","
","
","""event"",""trial"",""time""
""fullscreenenter"",""1"",""2463""
","
","","","130.79999995231628","","","13","6357","1847","&#9789;","elianto","#f73b6a7A"," "," ","1","0","[654.3999999761581,830.6000000238419,990.3999999761581,1165.7999999523163,1334.2999999523163,1502.6999999284744,1662.1000000238419,1870.6000000238419,2110.399999976158,2294.100000023842,2582.600000023842,2710.5,2797.899999976158,2926.399999976158]","14","0","4","","","","","","","",""
"pit-trial","82","602671","0.0-2.0-17.0-1.0","battery-v0.2","","""event"",""trial"",""time""
""fullscreenenter"",""1"",""2463""
","
","
","""event"",""trial"",""time""
""fullscreenenter"",""1"",""2463""
","
","","","17.799999952316284","","","13","6357","1847","&#9789;","elianto","#f73b6a7A"," "," ","1","0","[113.20000004768372,312.60000002384186,520.8000000715256,689.3999999761581,873.1000000238419,1473.1000000238419,1681.2000000476837,1865.3999999761581,2041.1000000238419,2232.8000000715256,2417.399999976158,2608.600000023842,2785.100000023842]","13","0","4","","","","","","","",""
"pit-trial","83","605559","0.0-2.0-17.0-2.0","battery-v0.2","","""event"",""trial"",""time""
""fullscreenenter"",""1"",""2463""
","
","
","""event"",""trial"",""time""
""fullscreenenter"",""1"",""2463""
","
","","","26","","","13","6357","1847","&#9789;","elianto","#f73b6a7A"," "," ","1","0","[110,294.7999999523163,390.10000002384186,494.2999999523163,678.5,790.5,878.6999999284744,1070.6999999284744,1174.1999999284744,1286.6999999284744,1390.6000000238419,1494.2999999523163,1606.1000000238419,1806.5,1910.6000000238419,2006.1000000238419,2102.5,2189.7999999523163,2302.6999999284744,2390.7999999523163,2518.399999976158,2718.399999976158,2814]","23","0","4","","","","","","","",""
"pit-trial","84","608469","0.0-2.0-17.0-3.0","battery-v0.2","","""event"",""trial"",""time""
""fullscreenenter"",""1"",""2463""
","
","
","""event"",""trial"",""time""
""fullscreenenter"",""1"",""2463""
","
","","","51.799999952316284","","","13","6357","1847","&#9789;","elianto","#f73b6a7A"," "," ","1","-10","[47,135.60000002384186,278.5,350.8000000715256,471.2000000476837,567.1000000238419,694.6000000238419,903,1014.7000000476837,1142.9000000953674,1246.7000000476837,1350.9000000953674,1454.2000000476837,1566.4000000953674,1806.5,1886.5,2014.8000000715256,2214.9000000953674,2414.600000023842,2511.100000023842,2654.8000000715256,2750.7000000476837,2879]","23","0","4","","","","","","","",""
"pit-trial","85","611385","0.0-2.0-17.0-4.0","battery-v0.2","","""event"",""trial"",""time""
""fullscreenenter"",""1"",""2463""
","
","
","""event"",""trial"",""time""
""fullscreenenter"",""1"",""2463""
","
","","","56.39999997615814","","","13","6357","1847","&#9789;","elianto","#f73b6a7A"," "," ","1","0","[56.299999952316284,160.69999992847443,384.1999999284744,608.2999999523163,824.5,913.1999999284744,1033,1144.5,1248.1000000238419,1480,1760.6999999284744,2016,2256.399999976158,2472.399999976158,2680.5,2880.399999976158]","16","0","4","","","","","","","",""
"pit-trial","86","614262","0.0-2.0-17.1-0.1","battery-v0.2","","""event"",""trial"",""time""
""fullscreenenter"",""1"",""2463""
","
","
","""event"",""trial"",""time""
""fullscreenenter"",""1"",""2463""
","
","","","5.899999976158142","","","13","6357","1847","&#9789;","elianto","#f73b6a7A"," "," ","1","0","[155.5,323.89999997615814,516.1000000238419,683.7000000476837,868.1000000238419,1028,1188.2999999523163,1347.8999999761581,1500,1667.5,1836.1000000238419,1996.1000000238419,2148.2000000476837,2316.100000023842,2635.5,2804.2000000476837]","16","0","4","","","","","","","",""
"pit-trial","87","617254","0.0-2.0-17.1-1.1","battery-v0.2","","""event"",""trial"",""time""
""fullscreenenter"",""1"",""2463""
","
","
","""event"",""trial"",""time""
""fullscreenenter"",""1"",""2463""
","
","","","127.10000002384186","","","13","6357","1847","&#9789;","elianto","#f73b6a7A"," "," ","1","0","[56.10000002384186,240.20000004768372,415.7000000476837,696.2000000476837,983.7000000476837,1120.2000000476837,1336.4000000953674,1512,2016,2248.3000000715256,2432.2000000476837,2624]","12","0","4","","","","","","","",""
"pit-trial","88","620220","0.0-2.0-17.1-2.1","battery-v0.2","","""event"",""trial"",""time""
""fullscreenenter"",""1"",""2463""
","
","
","""event"",""trial"",""time""
""fullscreenenter"",""1"",""2463""
","
","","","106.70000004768372","","","13","6357","1847","&#9789;","elianto","#f73b6a7A"," "," ","1","0","[191.10000002384186,687.5,959.5,1207.5,1463.7000000476837,1695.5,1943.7999999523163,2183.7000000476837,2423.2999999523163,2679.5,2919.899999976158]","11","0","4","","","","","","","",""
"pit-trial","89","623149","0.0-2.0-17.1-3.1","battery-v0.2","","""event"",""trial"",""time""
""fullscreenenter"",""1"",""2463""
","
","
","""event"",""trial"",""time""
""fullscreenenter"",""1"",""2463""
","
","","","56.60000002384186","","","13","6357","1847","&#9789;","elianto","#f73b6a7A"," "," ","1","-10","[193.79999995231628,441.59999990463257,681.5999999046326,913.3999999761581,1145.5,1385.5,1634,1881.2999999523163,2385.5999999046326,2658]","10","0","4","","","","","","","",""
"pit-trial","90","626301","0.0-2.0-17.1-4.1","battery-v0.2","","""event"",""trial"",""time""
""fullscreenenter"",""1"",""2463""
","
","
","""event"",""trial"",""time""
""fullscreenenter"",""1"",""2463""
","
","","","288.39999997615814","","","13","6357","1847","&#9789;","elianto","#f73b6a7A"," "," ","1","0","[8.700000047683716,289.2000000476837,568.7000000476837,728.8999999761581,1145.1000000238419,1409.1000000238419,1984.7999999523163,2665,3121.2000000476837]","9","0","4","","","","","","","",""
"pit-trial","91","629519","0.0-2.0-17.2-0.2","battery-v0.2","","""event"",""trial"",""time""
""fullscreenenter"",""1"",""2463""
","
","
","""event"",""trial"",""time""
""fullscreenenter"",""1"",""2463""
","
","","","366","","","13","6357","1847","&#9789;","elianto","#f73b6a7A"," "," ","1","0","[392.2999999523163,664.6000000238419,1216.2999999523163,1512.7999999523163,1768.7000000476837,2056.5,2201.399999976158,2552.600000023842,2840.7000000476837]","9","0","4","","","","","","","",""
"pit-trial","92","632705","0.0-2.0-17.2-1.2","battery-v0.2","","""event"",""trial"",""time""
""fullscreenenter"",""1"",""2463""
","
","
","""event"",""trial"",""time""
""fullscreenenter"",""1"",""2463""
","
","","","332.89999997615814","","","13","6357","1847","&#9789;","elianto","#f73b6a7A"," "," ","1","0","[152.60000002384186,422.7999999523163,703.3999999761581,1183.6999999284744,1335.5,1527.6000000238419,1806.8999999761581,2151.600000023842,2327,2503.5,2751.600000023842,3015.2999999523163]","12","0","4","","","","","","","",""
"pit-trial","93","635656","0.0-2.0-17.2-2.2","battery-v0.2","","""event"",""trial"",""time""
""fullscreenenter"",""1"",""2463""
","
","
","""event"",""trial"",""time""
""fullscreenenter"",""1"",""2463""
","
","","","99.39999997615814","","","13","6357","1847","&#9789;","elianto","#f73b6a7A"," "," ","1","0","[86.10000002384186,717.2999999523163,949.3999999761581,1741.1999999284744,2052.899999976158,2372.7999999523163,2717.600000023842]","7","0","4","","","","","","","",""
"pit-trial","94","638712","0.0-2.0-17.2-3.2","battery-v0.2","","""event"",""trial"",""time""
""fullscreenenter"",""1"",""2463""
","
","
","""event"",""trial"",""time""
""fullscreenenter"",""1"",""2463""
","
","","","202.79999995231628","","","13","6357","1847","&#9789;","elianto","#f73b6a7A"," "," ","1","-10","[76.80000007152557,428.60000002384186,741.3000000715256,1053,1277.6000000238419,1581.6000000238419,1829.8000000715256,2101.5,2605.399999976158,2886.100000023842]","10","0","4","","","","","","","",""
"pit-trial","95","641617","0.0-2.0-17.2-4.2","battery-v0.2","","""event"",""trial"",""time""
""fullscreenenter"",""1"",""2463""
","
","
","""event"",""trial"",""time""
""fullscreenenter"",""1"",""2463""
","
","","","51.89999997615814","","","13","6357","1847","&#9789;","elianto","#f73b6a7A"," "," ","1","0","[125.10000002384186,389.39999997615814,637.5,902.1000000238419,1230.3999999761581,1462.2000000476837,1670.2000000476837,1877.2000000476837,2070,2294.100000023842,2510.399999976158,2710]","12","0","4","","","","","","","",""
"pit-trial","96","644496","0.0-2.0-17.3-0.3","battery-v0.2","","""event"",""trial"",""time""
""fullscreenenter"",""1"",""2463""
","
","
","""event"",""trial"",""time""
""fullscreenenter"",""1"",""2463""
","
","","","25.300000071525574","","","13","6357","1847","&#9789;","elianto","#f73b6a7A"," "," ","1","0","[11.800000071525574,228.30000007152557,467.89999997615814,676.3999999761581,876.3000000715256,1100.2000000476837,1300.8000000715256,1500.7000000476837,1756.3000000715256,1956.7000000476837,2428.600000023842,2828.8000000715256]","12","0","4","","","","","","","",""
"pit-trial","97","647696","0.0-2.0-17.3-1.3","battery-v0.2","","""event"",""trial"",""time""
""fullscreenenter"",""1"",""2463""
","
","
","""event"",""trial"",""time""
""fullscreenenter"",""1"",""2463""
","
","","","348.10000002384186","","","13","6357","1847","&#9789;","elianto","#f73b6a7A"," "," ","1","0","[677.8000000715256,1198.3000000715256,2117.100000023842,2398.2000000476837,2886.4000000953674,3070.2000000476837]","6","0","4","","","","","","","",""
"pit-trial","98","650778","0.0-2.0-17.3-2.3","battery-v0.2","","""event"",""trial"",""time""
""fullscreenenter"",""1"",""2463""
","
","
","""event"",""trial"",""time""
""fullscreenenter"",""1"",""2463""
","
","","","229","","","13","6357","1847","&#9789;","elianto","#f73b6a7A"," "," ","1","0","[126.29999995231628,333.2999999523163,1079.6000000238419,1270,1463.1999999284744,1635,1800.1000000238419,1983.6000000238419,2170.399999976158,2358.600000023842,2590.5,2718.1999999284744,2824.2999999523163,3014.100000023842]","14","0","4","","","","","","","",""
"pit-trial","99","653654","0.0-2.0-17.3-3.3","battery-v0.2","","""event"",""trial"",""time""
""fullscreenenter"",""1"",""2463""
","
","
","""event"",""trial"",""time""
""fullscreenenter"",""1"",""2463""
","
","","","23.199999928474426","","","13","6357","1847","&#9789;","elianto","#f73b6a7A"," "," ","1","-10","[116.70000004768372,330.89999997615814,498.10000002384186,687.7000000476837,874,1058.8000000715256,1224.7000000476837,1423.3999999761581,1595.7000000476837,1783,1966.2000000476837,2158.100000023842,2361.8000000715256,2708.3000000715256]","14","0","4","","","","","","","",""
"pit-trial","100","656539","0.0-2.0-17.3-4.3","battery-v0.2","","""event"",""trial"",""time""
""fullscreenenter"",""1"",""2463""
","
","
","""event"",""trial"",""time""
""fullscreenenter"",""1"",""2463""
","
","","","32.700000047683716","","","13","6357","1847","&#9789;","elianto","#f73b6a7A"," "," ","1","0","[27.59999990463257,126.89999997615814,239.79999995231628,314.59999990463257,415.39999997615814,614,689.3999999761581,883.3999999761581,985.7999999523163,1094.7999999523163,1229,1318.3999999761581,1437,1528.8999999761581,1592.5999999046326,1660.0999999046326,1719.8999999761581,1877.7999999523163,1954.0999999046326,2089.2999999523163,2323,2576.399999976158,2689.7999999523163,2791.899999976158]","24","0","4","","","","","","","",""
"call-function","101","656540","0.0-2.0-18.0","battery-v0.2","","""event"",""trial"",""time""
""fullscreenenter"",""1"",""2463""
","
","
","""event"",""trial"",""time""
""fullscreenenter"",""1"",""2463""
","
","","","","","","","","","","","","","","","","","","","","","","","","","","",""
"pit-instructions","102","708776","0.0-2.0-19.0","battery-v0.2","","""event"",""trial"",""time""
""fullscreenenter"",""1"",""2463""
","
","
","""event"",""trial"",""time""
""fullscreenenter"",""1"",""2463""
","
","","[{""page_index"":0,""viewing_time"":6155.399999976158},{""page_index"":1,""viewing_time"":4123.800000071526},{""page_index"":2,""viewing_time"":8058.199999928474},{""page_index"":3,""viewing_time"":4203.900000095367},{""page_index"":4,""viewing_time"":6027.899999976158},{""page_index"":5,""viewing_time"":8095.899999976158},{""page_index"":6,""viewing_time"":7732.200000047684},{""page_index"":7,""viewing_time"":4460},{""page_index"":8,""viewing_time"":3378.0999999046326}]","52235.60000002384","","","","","","","","","","","","","","","","","","","","","","","",""
"pit-comprehension","103","712847","0.0-2.0-20.0-0.0","battery-v0.2","","""event"",""trial"",""time""
""fullscreenenter"",""1"",""2463""
","
","
","""event"",""trial"",""time""
""fullscreenenter"",""1"",""2463""
","
","","","4070","[""SPACE""]","0","13","6357","1847","","","","","","","","","","","","","","","","","","",""
"pit-instructions","104","714975","0.0-2.0-20.0-1.0","battery-v0.2","","""event"",""trial"",""time""
""fullscreenenter"",""1"",""2463""
","
","
","""event"",""trial"",""time""
""fullscreenenter"",""1"",""2463""
","
","","[{""page_index"":0,""viewing_time"":2093.8000000715256}]","2094.100000023842","","","","","","","","","","","","","","","","","","","","","","","",""
"pit-comprehension","105","720220","0.0-2.0-21.0-0.0","battery-v0.2","","""event"",""trial"",""time""
""fullscreenenter"",""1"",""2463""
","
","
","""event"",""trial"",""time""
""fullscreenenter"",""1"",""2463""
","
","","","5242.800000071526","[""10""]","0","13","6357","1847","","","","","","","","","","","","","","","","","","",""
"pit-instructions","106","721416","0.0-2.0-21.0-1.0","battery-v0.2","","""event"",""trial"",""time""
""fullscreenenter"",""1"",""2463""
","
","
","""event"",""trial"",""time""
""fullscreenenter"",""1"",""2463""
","
","","[{""page_index"":0,""viewing_time"":1165.7999999523163}]","1166.1000000238419","","","","","","","","","","","","","","","","","","","","","","","",""
"pit-comprehension","107","729496","0.0-2.0-22.0-0.0","battery-v0.2","","""event"",""trial"",""time""
""fullscreenenter"",""1"",""2463""
","
","
","""event"",""trial"",""time""
""fullscreenenter"",""1"",""2463""
","
","","","8078.299999952316","[""0""]","0","13","6357","1847","","","","","","","","","","","","","","","","","","",""
"pit-instructions","108","730778","0.0-2.0-22.0-1.0","battery-v0.2","","""event"",""trial"",""time""
""fullscreenenter"",""1"",""2463""
","
","
","""event"",""trial"",""time""
""fullscreenenter"",""1"",""2463""
","
","","[{""page_index"":0,""viewing_time"":1249.1999999284744}]","1249.3999999761581","","","","","","","","","","","","","","","","","","","","","","","",""
"pit-comprehension","109","739036","0.0-2.0-23.0-0.0","battery-v0.2","","""event"",""trial"",""time""
""fullscreenenter"",""1"",""2463""
","
","
","""event"",""trial"",""time""
""fullscreenenter"",""1"",""2463""
","
","","","8256","[""True""]","0","13","6357","1847","","","","","","","","","","","","","","","","","","",""
"pit-instructions","110","740210","0.0-2.0-23.0-1.0","battery-v0.2","","""event"",""trial"",""time""
""fullscreenenter"",""1"",""2463""
","
","
","""event"",""trial"",""time""
""fullscreenenter"",""1"",""2463""
","
","","[{""page_index"":0,""viewing_time"":1142.3000000715256}]","1142.5","","","","","","","","","","","","","","","","","","","","","","","",""
"pit-comprehension","111","747418","0.0-2.0-24.0-0.0","battery-v0.2","","""event"",""trial"",""time""
""fullscreenenter"",""1"",""2463""
","
","
","""event"",""trial"",""time""
""fullscreenenter"",""1"",""2463""
","
","","","7206.200000047684","[""True""]","0","13","6357","1847","","","","","","","","","","","","","","","","","","",""
"pit-instructions","112","749335","0.0-2.0-24.0-1.0","battery-v0.2","","""event"",""trial"",""time""
""fullscreenenter"",""1"",""2463""
","
","
","""event"",""trial"",""time""
""fullscreenenter"",""1"",""2463""
","
","","[{""page_index"":0,""viewing_time"":1882.7999999523163}]","1883.2000000476837","","","","","","","","","","","","","","","","","","","","","","","",""
"pit-comprehension","113","755482","0.0-2.0-25.0-0.0","battery-v0.2","","""event"",""trial"",""time""
""fullscreenenter"",""1"",""2463""
","
","
","""event"",""trial"",""time""
""fullscreenenter"",""1"",""2463""
","
","","","6144.699999928474","[""True""]","0","13","6357","1847","","","","","","","","","","","","","","","","","","",""
"pit-instructions","114","756841","0.0-2.0-25.0-1.0","battery-v0.2","","""event"",""trial"",""time""
""fullscreenenter"",""1"",""2463""
","
","
","""event"",""trial"",""time""
""fullscreenenter"",""1"",""2463""
","
","","[{""page_index"":0,""viewing_time"":1328.7000000476837}]","1328.8999999761581","","","","","","","","","","","","","","","","","","","","","","","",""
"pit-comprehension","115","761620","0.0-2.0-26.0-0.0","battery-v0.2","","""event"",""trial"",""time""
""fullscreenenter"",""1"",""2463""
","
","
","""event"",""trial"",""time""
""fullscreenenter"",""1"",""2463""
","
","","","4776.900000095367","[""False""]","0","13","6357","1847","","","","","","","","","","","","","","","","","","",""
"pit-instructions","116","763149","0.0-2.0-26.0-1.0","battery-v0.2","","""event"",""trial"",""time""
""fullscreenenter"",""1"",""2463""
","
","
","""event"",""trial"",""time""
""fullscreenenter"",""1"",""2463""
","
","","[{""page_index"":0,""viewing_time"":1496.6000000238419}]","1496.8999999761581","","","","","","","","","","","","","","","","","","","","","","","",""
"pit-instructions","117","779108","0.0-3.0","battery-v0.2","","""event"",""trial"",""time""
""fullscreenenter"",""1"",""2463""
","
","
","""event"",""trial"",""time""
""fullscreenenter"",""1"",""2463""
","
","","[{""page_index"":0,""viewing_time"":3672.2999999523163},{""page_index"":1,""viewing_time"":6129.600000023842},{""page_index"":2,""viewing_time"":6154.600000023842}]","15956.799999952316","","","","","","","","","","","","","","","","","","","","","","","",""
"pit-trial","118","782975","0.0-4.0","battery-v0.2","","""event"",""trial"",""time""
""fullscreenenter"",""1"",""2463""
","
","
","""event"",""trial"",""time""
""fullscreenenter"",""1"",""2463""
","
","","","997","","","13","6357","1847","&#9733;","elianto","#3366ff99","-1"," ","0","0","[1856.8999999761581]","1","1","","","6357","1","2","2","win","no-go","0"
"pit-trial","119","786653","0.0-5.0","battery-v0.2","","""event"",""trial"",""time""
""fullscreenenter"",""1"",""2463""
","
","
","""event"",""trial"",""time""
""fullscreenenter"",""1"",""2463""
","
","","","821.3999999761581","","","13","6357","1847","&#9730;","elianto","#3366ff99"," "," ","1","+10","[1671.2999999523163]","1","1","","","6357","2","1","1","win","go","0"
"pit-trial","120","790496","0.0-6.0","battery-v0.2","","""event"",""trial"",""time""
""fullscreenenter"",""1"",""2463""
","
","
","""event"",""trial"",""time""
""fullscreenenter"",""1"",""2463""
","
","","","985.6999999284744","","","13","6357","1847","&#9752;","elianto","#f73b6a7A"," "," ","1","0","[1841.1000000238419]","1","1","","","6357","3","3","3","lose","go","0"
"pit-trial","121","795375","0.0-7.0","battery-v0.2","","""event"",""trial"",""time""
""fullscreenenter"",""1"",""2463""
","
","
","""event"",""trial"",""time""
""fullscreenenter"",""1"",""2463""
","
","","","-1","","","13","6357","1847","&#9728;","elianto","#f73b6a7A","-1","-1","1","0","[]","0","1","","","6357","4","0","4","lose","no-go","0"
"pit-trial","122","799295","0.0-8.0","battery-v0.2","","""event"",""trial"",""time""
""fullscreenenter"",""1"",""2463""
","
","
","""event"",""trial"",""time""
""fullscreenenter"",""1"",""2463""
","
","","","1048.8000000715256","","","13","6357","1847","&#9752;","elianto","#f73b6a7A"," "," ","1","0","[1903.6000000238419]","1","1","","","6357","5","3","3","lose","go","0"
"pit-trial","123","804172","0.0-9.0","battery-v0.2","","""event"",""trial"",""time""
""fullscreenenter"",""1"",""2463""
","
","
","""event"",""trial"",""time""
""fullscreenenter"",""1"",""2463""
","
","","","-1","","","13","6357","1847","&#9733;","elianto","#3366ff99","-1","-1","1","+10","[]","0","1","","","6357","6","2","2","win","no-go","0"
"pit-trial","124","809032","0.0-10.0","battery-v0.2","","""event"",""trial"",""time""
""fullscreenenter"",""1"",""2463""
","
","
","""event"",""trial"",""time""
""fullscreenenter"",""1"",""2463""
","
","","","-1","","","13","6357","1847","&#9728;","elianto","#f73b6a7A","-1","-1","1","-10","[]","0","1","","","6357","7","0","4","lose","no-go","1"
"pit-trial","125","812848","0.0-11.0","battery-v0.2","","""event"",""trial"",""time""
""fullscreenenter"",""1"",""2463""
","
","
","""event"",""trial"",""time""
""fullscreenenter"",""1"",""2463""
","
","","","961.3999999761581","","","13","6357","1847","&#9730;","elianto","#3366ff99"," "," ","1","+10","[1814.7999999523163]","1","1","","","6357","8","1","1","win","go","0"
"pit-trial","126","816664","0.0-12.0","battery-v0.2","","""event"",""trial"",""time""
""fullscreenenter"",""1"",""2463""
","
","
","""event"",""trial"",""time""
""fullscreenenter"",""1"",""2463""
","
","","","963.1000000238419","","","13","6357","1847","&#9730;","elianto","#3366ff99"," "," ","1","+10","[1813.8999999761581]","1","1","","","6357","9","1","1","win","go","0"
"pit-trial","127","821516","0.0-13.0","battery-v0.2","","""event"",""trial"",""time""
""fullscreenenter"",""1"",""2463""
","
","
","""event"",""trial"",""time""
""fullscreenenter"",""1"",""2463""
","
","","","-1","","","13","6357","1847","&#9733;","elianto","#3366ff99","-1","-1","1","+10","[]","0","1","","","6357","10","2","2","win","no-go","0"
"pit-trial","128","826377","0.0-14.0","battery-v0.2","","""event"",""trial"",""time""
""fullscreenenter"",""1"",""2463""
","
","
","""event"",""trial"",""time""
""fullscreenenter"",""1"",""2463""
","
","","","-1","","","13","6357","1847","&#9752;","elianto","#f73b6a7A"," ","-1","0","-10","[]","0","1","","","6357","11","3","3","lose","go","0"
"pit-trial","129","830160","0.0-15.0","battery-v0.2","","""event"",""trial"",""time""
""fullscreenenter"",""1"",""2463""
","
","
","""event"",""trial"",""time""
""fullscreenenter"",""1"",""2463""
","
","","","929.2999999523163","","","13","6357","1847","&#9728;","elianto","#f73b6a7A","-1"," ","0","-10","[1779.7999999523163]","1","1","","","6357","12","0","4","lose","no-go","0"
"pit-trial","130","834800","0.0-16.0","battery-v0.2","","""event"",""trial"",""time""
""fullscreenenter"",""1"",""2463""
","
","
","""event"",""trial"",""time""
""fullscreenenter"",""1"",""2463""
","
","","","1787.8999999761581","","","13","6357","1847","&#9752;","elianto","#f73b6a7A"," "," ","1","0","[2638.100000023842]","1","1","","","6357","13","3","3","lose","go","0"
"pit-trial","131","839654","0.0-17.0","battery-v0.2","","""event"",""trial"",""time""
""fullscreenenter"",""1"",""2463""
","
","
","""event"",""trial"",""time""
""fullscreenenter"",""1"",""2463""
","
","","","-1","","","13","6357","1847","&#9728;","elianto","#f73b6a7A","-1","-1","1","0","[]","0","1","","","6357","14","0","4","lose","no-go","0"
"pit-trial","132","843688","0.0-18.0","battery-v0.2","","""event"",""trial"",""time""
""fullscreenenter"",""1"",""2463""
","
","
","""event"",""trial"",""time""
""fullscreenenter"",""1"",""2463""
","
","","","1181.8999999761581","","","13","6357","1847","&#9733;","elianto","#3366ff99","-1"," ","0","0","[2032.1999999284744]","1","1","","","6357","15","2","2","win","no-go","0"
"pit-trial","133","847216","0.0-19.0","battery-v0.2","","""event"",""trial"",""time""
""fullscreenenter"",""1"",""2463""
","
","
","""event"",""trial"",""time""
""fullscreenenter"",""1"",""2463""
","
","","","674.7999999523163","","","13","6357","1847","&#9730;","elianto","#3366ff99"," "," ","1","+10","[1524.8999999761581]","1","1","","","6357","16","1","1","win","go","0"
"pit-trial","134","852069","0.0-20.0","battery-v0.2","","""event"",""trial"",""time""
""fullscreenenter"",""1"",""2463""
","
","
","""event"",""trial"",""time""
""fullscreenenter"",""1"",""2463""
","
","","","-1","","","13","6357","1847","&#9728;","elianto","#f73b6a7A","-1","-1","1","0","[]","0","1","","","6357","17","0","4","lose","no-go","0"
"pit-trial","135","856680","0.0-21.0","battery-v0.2","","""event"",""trial"",""time""
""fullscreenenter"",""1"",""2463""
","
","
","""event"",""trial"",""time""
""fullscreenenter"",""1"",""2463""
","
","","","1758.1000000238419","","","13","6357","1847","&#9752;","elianto","#f73b6a7A"," "," ","1","-10","[2608.0999999046326]","1","1","","","6357","18","3","3","lose","go","1"
"pit-trial","136","861533","0.0-22.0","battery-v0.2","","""event"",""trial"",""time""
""fullscreenenter"",""1"",""2463""
","
","
","""event"",""trial"",""time""
""fullscreenenter"",""1"",""2463""
","
","","","-1","","","13","6357","1847","&#9733;","elianto","#3366ff99","-1","-1","1","+10","[]","0","1","","","6357","19","2","2","win","no-go","0"
"pit-trial","137","865136","0.0-23.0","battery-v0.2","","""event"",""trial"",""time""
""fullscreenenter"",""1"",""2463""
","
","
","""event"",""trial"",""time""
""fullscreenenter"",""1"",""2463""
","
","","","750","","","13","6357","1847","&#9730;","elianto","#3366ff99"," "," ","1","+10","[1600.7000000476837]","1","1","","","6357","20","1","1","win","go","0"
"pit-instructions","138","876577","0.0-24.0","battery-v0.2","","""event"",""trial"",""time""
""fullscreenenter"",""1"",""2463""
","
","
","""event"",""trial"",""time""
""fullscreenenter"",""1"",""2463""
","
","","[{""page_index"":0,""viewing_time"":5270},{""page_index"":1,""viewing_time"":6170}]","11440.299999952316","","","","","","","","","","","","","","","","","","","","","","","",""
"pit-trial","139","880366","0.0-25.0","battery-v0.2","","""event"",""trial"",""time""
""fullscreenenter"",""1"",""2463""
","
","
","""event"",""trial"",""time""
""fullscreenenter"",""1"",""2463""
","
","","","912.8999999761581","","","13","6357","1847","f","elianto","#3366ff99","-1"," ","0","0","[1771.6000000238419]","1","2","","","6357","21","1","2","win","no-go","0"
"pit-trial","140","884279","0.0-26.0","battery-v0.2","","""event"",""trial"",""time""
""fullscreenenter"",""1"",""2463""
","
","
","""event"",""trial"",""time""
""fullscreenenter"",""1"",""2463""
","
","","","1055.5","","","13","6357","1847","n","elianto","#f73b6a7A"," "," ","1","0","[1911.2999999523163]","1","2","","","6357","22","0","3","lose","go","0"
"pit-trial","141","889136","0.0-27.0","battery-v0.2","","""event"",""trial"",""time""
""fullscreenenter"",""1"",""2463""
","
","
","""event"",""trial"",""time""
""fullscreenenter"",""1"",""2463""
","
","","","-1","","","13","6357","1847","b","elianto","#f73b6a7A","-1","-1","1","-10","[]","0","2","","","6357","23","3","4","lose","no-go","1"
"pit-trial","142","893275","0.0-28.0","battery-v0.2","","""event"",""trial"",""time""
""fullscreenenter"",""1"",""2463""
","
","
","""event"",""trial"",""time""
""fullscreenenter"",""1"",""2463""
","
","","","1280.2000000476837","","","13","6357","1847","t","elianto","#f73b6a7A"," "," ","1","0","[2133.5,3117.399999976158]","2","2","","","6357","24","2","3","lose","go","0"
"pit-trial","143","897933","0.0-29.0","battery-v0.2","","""event"",""trial"",""time""
""fullscreenenter"",""1"",""2463""
","
","
","""event"",""trial"",""time""
""fullscreenenter"",""1"",""2463""
","
","","","1790.1999999284744","","","13","6357","1847","n","elianto","#f73b6a7A"," "," ","1","0","[194.89999997615814,2643]","2","2","","","6357","25","0","3","lose","go","0"
"pit-trial","144","901920","0.0-30.0","battery-v0.2","","""event"",""trial"",""time""
""fullscreenenter"",""1"",""2463""
","
","
","""event"",""trial"",""time""
""fullscreenenter"",""1"",""2463""
","
","","","1133.3999999761581","","","13","6357","1847","t","elianto","#f73b6a7A"," "," ","1","0","[1984.5999999046326]","1","2","","","6357","26","2","3","lose","go","0"
"pit-trial","145","906676","0.0-31.0","battery-v0.2","","""event"",""trial"",""time""
""fullscreenenter"",""1"",""2463""
","
","
","""event"",""trial"",""time""
""fullscreenenter"",""1"",""2463""
","
","","","1891.5","","","13","6357","1847","f","elianto","#3366ff99","-1"," ","0","0","[2742.2999999523163]","1","2","","","6357","27","1","2","win","no-go","0"
"pit-trial","146","910584","0.0-32.0","battery-v0.2","","""event"",""trial"",""time""
""fullscreenenter"",""1"",""2463""
","
","
","""event"",""trial"",""time""
""fullscreenenter"",""1"",""2463""
","
","","","1054.9000000953674","","","13","6357","1847","b","elianto","#f73b6a7A","-1"," ","0","-10","[1906]","1","2","","","6357","28","3","4","lose","no-go","0"
"pit-trial","147","914161","0.0-33.0","battery-v0.2","","""event"",""trial"",""time""
""fullscreenenter"",""1"",""2463""
","
","
","""event"",""trial"",""time""
""fullscreenenter"",""1"",""2463""
","
","","","724.3999999761581","","","13","6357","1847","n","elianto","#f73b6a7A"," "," ","1","-10","[1574.7999999523163]","1","2","","","6357","29","0","3","lose","go","1"
"pit-trial","148","917777","0.0-34.0","battery-v0.2","","""event"",""trial"",""time""
""fullscreenenter"",""1"",""2463""
","
","
","""event"",""trial"",""time""
""fullscreenenter"",""1"",""2463""
","
","","","762.7000000476837","","","13","6357","1847","t","elianto","#f73b6a7A"," "," ","1","-10","[1613.7000000476837]","1","2","","","6357","30","2","3","lose","go","1"
"pit-trial","149","921473","0.0-35.0","battery-v0.2","","""event"",""trial"",""time""
""fullscreenenter"",""1"",""2463""
","
","
","""event"",""trial"",""time""
""fullscreenenter"",""1"",""2463""
","
","","","843.1000000238419","","","13","6357","1847","f","elianto","#3366ff99","-1"," ","0","0","[1693.8000000715256]","1","2","","","6357","31","1","2","win","no-go","0"
"pit-trial","150","926327","0.0-36.0","battery-v0.2","","""event"",""trial"",""time""
""fullscreenenter"",""1"",""2463""
","
","
","""event"",""trial"",""time""
""fullscreenenter"",""1"",""2463""
","
","","","-1","","","13","6357","1847","b","elianto","#f73b6a7A","-1","-1","1","0","[4845.199999928474]","1","2","","","6357","32","3","4","lose","no-go","0"
"pit-trial","151","930144","0.0-37.0","battery-v0.2","","""event"",""trial"",""time""
""fullscreenenter"",""1"",""2463""
","
","
","""event"",""trial"",""time""
""fullscreenenter"",""1"",""2463""
","
","","","964.1999999284744","","","13","6357","1847","n","elianto","#f73b6a7A"," "," ","1","0","[1815.0999999046326]","1","2","","","6357","33","0","3","lose","go","0"
"pit-trial","152","934998","0.0-38.0","battery-v0.2","","""event"",""trial"",""time""
""fullscreenenter"",""1"",""2463""
","
","
","""event"",""trial"",""time""
""fullscreenenter"",""1"",""2463""
","
","","","-1","","","13","6357","1847","b","elianto","#f73b6a7A","-1","-1","1","0","[]","0","2","","","6357","34","3","4","lose","no-go","0"
"pit-trial","153","939851","0.0-39.0","battery-v0.2","","""event"",""trial"",""time""
""fullscreenenter"",""1"",""2463""
","
","
","""event"",""trial"",""time""
""fullscreenenter"",""1"",""2463""
","
","","","-1","","","13","6357","1847","f","elianto","#3366ff99","-1","-1","1","+10","[]","0","2","","","6357","35","1","2","win","no-go","0"
"pit-trial","154","943601","0.0-40.0","battery-v0.2","","""event"",""trial"",""time""
""fullscreenenter"",""1"",""2463""
","
","
","""event"",""trial"",""time""
""fullscreenenter"",""1"",""2463""
","
","","","896.6000000238419","","","13","6357","1847","t","elianto","#f73b6a7A"," "," ","1","0","[1746.8999999761581]","1","2","","","6357","36","2","3","lose","go","0"
"pit-trial","155","947472","0.0-41.0","battery-v0.2","","""event"",""trial"",""time""
""fullscreenenter"",""1"",""2463""
","
","
","""event"",""trial"",""time""
""fullscreenenter"",""1"",""2463""
","
","","","1018.2999999523163","","","13","6357","1847","f","elianto","#3366ff99","-1"," ","0","+10","[1868.5999999046326]","1","2","","","6357","37","1","2","win","no-go","1"
"pit-trial","156","951544","0.0-42.0","battery-v0.2","","""event"",""trial"",""time""
""fullscreenenter"",""1"",""2463""
","
","
","""event"",""trial"",""time""
""fullscreenenter"",""1"",""2463""
","
","","","1218.5","","","13","6357","1847","t","elianto","#f73b6a7A"," "," ","1","-10","[2068.600000023842]","1","2","","","6357","38","2","3","lose","go","1"
"pit-trial","157","955088","0.0-43.0","battery-v0.2","","""event"",""trial"",""time""
""fullscreenenter"",""1"",""2463""
","
","
","""event"",""trial"",""time""
""fullscreenenter"",""1"",""2463""
","
","","","691.7999999523163","","","13","6357","1847","n","elianto","#f73b6a7A"," "," ","1","-10","[1541.7999999523163]","1","2","","","6357","39","0","3","lose","go","1"
"pit-trial","158","959941","0.0-44.0","battery-v0.2","","""event"",""trial"",""time""
""fullscreenenter"",""1"",""2463""
","
","
","""event"",""trial"",""time""
""fullscreenenter"",""1"",""2463""
","
","","","-1","","","13","6357","1847","b","elianto","#f73b6a7A","-1","-1","1","0","[]","0","2","","","6357","40","3","4","lose","no-go","0"
"pit-trial","159","963920","0.0-45.0","battery-v0.2","","""event"",""trial"",""time""
""fullscreenenter"",""1"",""2463""
","
","
","""event"",""trial"",""time""
""fullscreenenter"",""1"",""2463""
","
","","","1126.7000000476837","","","13","6357","1847","f","elianto","#3366ff99","-1"," ","0","0","[1977.3000000715256]","1","2","","","6357","41","1","2","win","no-go","0"
"pit-trial","160","967601","0.0-46.0","battery-v0.2","","""event"",""trial"",""time""
""fullscreenenter"",""1"",""2463""
","
","
","""event"",""trial"",""time""
""fullscreenenter"",""1"",""2463""
","
","","","827.2000000476837","","","13","6357","1847","n","elianto","#f73b6a7A"," "," ","1","0","[1678]","1","2","","","6357","42","0","3","lose","go","0"
"pit-trial","161","971624","0.0-47.0","battery-v0.2","","""event"",""trial"",""time""
""fullscreenenter"",""1"",""2463""
","
","
","""event"",""trial"",""time""
""fullscreenenter"",""1"",""2463""
","
","","","1170.5","","","13","6357","1847","t","elianto","#f73b6a7A"," "," ","1","0","[2021.5]","1","2","","","6357","43","2","3","lose","go","0"
"pit-trial","162","976477","0.0-48.0","battery-v0.2","","""event"",""trial"",""time""
""fullscreenenter"",""1"",""2463""
","
","
","""event"",""trial"",""time""
""fullscreenenter"",""1"",""2463""
","
","","","-1","","","13","6357","1847","b","elianto","#f73b6a7A","-1","-1","1","-10","[]","0","2","","","6357","44","3","4","lose","no-go","1"
"pit-trial","163","981330","0.0-49.0","battery-v0.2","","""event"",""trial"",""time""
""fullscreenenter"",""1"",""2463""
","
","
","""event"",""trial"",""time""
""fullscreenenter"",""1"",""2463""
","
","","","-1","","","13","6357","1847","b","elianto","#f73b6a7A","-1","-1","1","-10","[]","0","2","","","6357","45","3","4","lose","no-go","1"
"pit-trial","164","985216","0.0-50.0","battery-v0.2","","""event"",""trial"",""time""
""fullscreenenter"",""1"",""2463""
","
","
","""event"",""trial"",""time""
""fullscreenenter"",""1"",""2463""
","
","","","1032.6000000238419","","","13","6357","1847","f","elianto","#3366ff99","-1"," ","0","0","[1883.2000000476837]","1","2","","","6357","46","1","2","win","no-go","0"
"pit-trial","165","988984","0.0-51.0","battery-v0.2","","""event"",""trial"",""time""
""fullscreenenter"",""1"",""2463""
","
","
","""event"",""trial"",""time""
""fullscreenenter"",""1"",""2463""
","
","","","915.7000000476837","","","13","6357","1847","t","elianto","#f73b6a7A"," "," ","1","-10","[1765.7999999523163]","1","2","","","6357","47","2","3","lose","go","1"
"pit-trial","166","992592","0.0-52.0","battery-v0.2","","""event"",""trial"",""time""
""fullscreenenter"",""1"",""2463""
","
","
","""event"",""trial"",""time""
""fullscreenenter"",""1"",""2463""
","
","","","755.3999999761581","","","13","6357","1847","n","elianto","#f73b6a7A"," "," ","1","0","[1605.7000000476837]","1","2","","","6357","48","0","3","lose","go","0"
"pit-trial","167","996119","0.0-53.0","battery-v0.2","","""event"",""trial"",""time""
""fullscreenenter"",""1"",""2463""
","
","
","""event"",""trial"",""time""
""fullscreenenter"",""1"",""2463""
","
","","","675.4000000953674","","","13","6357","1847","f","elianto","#3366ff99","-1"," ","0","0","[1525.3999999761581]","1","2","","","6357","49","1","2","win","no-go","0"
"pit-trial","168","1000016","0.0-54.0","battery-v0.2","","""event"",""trial"",""time""
""fullscreenenter"",""1"",""2463""
","
","
","""event"",""trial"",""time""
""fullscreenenter"",""1"",""2463""
","
","","","1044.1000000238419","","","13","6357","1847","t","elianto","#f73b6a7A"," "," ","1","0","[1894.3000000715256]","1","2","","","6357","50","2","3","lose","go","0"
"pit-trial","169","1004869","0.0-55.0","battery-v0.2","","""event"",""trial"",""time""
""fullscreenenter"",""1"",""2463""
","
","
","""event"",""trial"",""time""
""fullscreenenter"",""1"",""2463""
","
","","","-1","","","13","6357","1847","b","elianto","#f73b6a7A","-1","-1","1","0","[]","0","2","","","6357","51","3","4","lose","no-go","0"
"pit-trial","170","1008521","0.0-56.0","battery-v0.2","","""event"",""trial"",""time""
""fullscreenenter"",""1"",""2463""
","
","
","""event"",""trial"",""time""
""fullscreenenter"",""1"",""2463""
","
","","","799.5","","","13","6357","1847","n","elianto","#f73b6a7A"," "," ","1","0","[1649.6000000238419]","1","2","","","6357","52","0","3","lose","go","0"
"pit-trial","171","1011984","0.0-57.0","battery-v0.2","","""event"",""trial"",""time""
""fullscreenenter"",""1"",""2463""
","
","
","""event"",""trial"",""time""
""fullscreenenter"",""1"",""2463""
","
","","","609.3000000715256","","","13","6357","1847","n","elianto","#f73b6a7A"," "," ","1","0","[1460.6000000238419]","1","2","","","6357","53","0","3","lose","go","0"
"pit-trial","172","1015656","0.0-58.0","battery-v0.2","","""event"",""trial"",""time""
""fullscreenenter"",""1"",""2463""
","
","
","""event"",""trial"",""time""
""fullscreenenter"",""1"",""2463""
","
","","","819.5","","","13","6357","1847","t","elianto","#f73b6a7A"," "," ","1","0","[1670.3000000715256]","1","2","","","6357","54","2","3","lose","go","0"
"pit-trial","173","1019535","0.0-59.0","battery-v0.2","","""event"",""trial"",""time""
""fullscreenenter"",""1"",""2463""
","
","
","""event"",""trial"",""time""
""fullscreenenter"",""1"",""2463""
","
","","","1025.8999999761581","","","13","6357","1847","f","elianto","#3366ff99","-1"," ","0","0","[1876.8999999761581]","1","2","","","6357","55","1","2","win","no-go","0"
"pit-trial","174","1023272","0.0-60.0","battery-v0.2","","""event"",""trial"",""time""
""fullscreenenter"",""1"",""2463""
","
","
","""event"",""trial"",""time""
""fullscreenenter"",""1"",""2463""
","
","","","884.1000000238419","","","13","6357","1847","b","elianto","#f73b6a7A","-1"," ","0","-10","[238.20000004768372,1734.6000000238419]","2","2","","","6357","56","3","4","lose","no-go","0"
"pit-trial","175","1026703","0.0-61.0","battery-v0.2","","""event"",""trial"",""time""
""fullscreenenter"",""1"",""2463""
","
","
","""event"",""trial"",""time""
""fullscreenenter"",""1"",""2463""
","
","","","579.3999999761581","","","13","6357","1847","b","elianto","#f73b6a7A","-1"," ","0","-10","[1429.8999999761581]","1","2","","","6357","57","3","4","lose","no-go","0"
"pit-trial","176","1030184","0.0-62.0","battery-v0.2","","""event"",""trial"",""time""
""fullscreenenter"",""1"",""2463""
","
","
","""event"",""trial"",""time""
""fullscreenenter"",""1"",""2463""
","
","","","628.1000000238419","","","13","6357","1847","n","elianto","#f73b6a7A"," "," ","1","-10","[1478.5]","1","2","","","6357","58","0","3","lose","go","1"
"pit-trial","177","1033599","0.0-63.0","battery-v0.2","","""event"",""trial"",""time""
""fullscreenenter"",""1"",""2463""
","
","
","""event"",""trial"",""time""
""fullscreenenter"",""1"",""2463""
","
","","","563","","","13","6357","1847","c","elianto","#3366ff99"," "," ","1","+10","[1413.7999999523163]","1","2","","","6357","59","4","1","win","go","0"
"pit-trial","178","1037273","0.0-64.0","battery-v0.2","","""event"",""trial"",""time""
""fullscreenenter"",""1"",""2463""
","
","
","""event"",""trial"",""time""
""fullscreenenter"",""1"",""2463""
","
","","","819.3000000715256","","","13","6357","1847","t","elianto","#f73b6a7A"," "," ","1","-10","[1670.4000000953674]","1","2","","","6357","60","2","3","lose","go","1"
"pit-trial","179","1042126","0.0-65.0","battery-v0.2","","""event"",""trial"",""time""
""fullscreenenter"",""1"",""2463""
","
","
","""event"",""trial"",""time""
""fullscreenenter"",""1"",""2463""
","
","","","-1","","","13","6357","1847","b","elianto","#f73b6a7A","-1","-1","1","0","[]","0","2","","","6357","61","3","4","lose","no-go","0"
"pit-trial","180","1046840","0.0-66.0","battery-v0.2","","""event"",""trial"",""time""
""fullscreenenter"",""1"",""2463""
","
","
","""event"",""trial"",""time""
""fullscreenenter"",""1"",""2463""
","
","","","1861.8999999761581","","","13","6357","1847","c","elianto","#3366ff99"," "," ","1","+10","[2712.100000023842]","1","2","","","6357","62","4","1","win","go","0"
"pit-trial","181","1050425","0.0-67.0","battery-v0.2","","""event"",""trial"",""time""
""fullscreenenter"",""1"",""2463""
","
","
","""event"",""trial"",""time""
""fullscreenenter"",""1"",""2463""
","
","","","730.3999999761581","","","13","6357","1847","f","elianto","#3366ff99","-1"," ","0","0","[1581.3999999761581]","1","2","","","6357","63","1","2","win","no-go","0"
"pit-trial","182","1054008","0.0-68.0","battery-v0.2","","""event"",""trial"",""time""
""fullscreenenter"",""1"",""2463""
","
","
","""event"",""trial"",""time""
""fullscreenenter"",""1"",""2463""
","
","","","730.7000000476837","","","13","6357","1847","t","elianto","#f73b6a7A"," "," ","1","0","[1581.4000000953674]","1","2","","","6357","64","2","3","lose","go","0"
"pit-trial","183","1057648","0.0-69.0","battery-v0.2","","""event"",""trial"",""time""
""fullscreenenter"",""1"",""2463""
","
","
","""event"",""trial"",""time""
""fullscreenenter"",""1"",""2463""
","
","","","787.2999999523163","","","13","6357","1847","c","elianto","#3366ff99"," "," ","1","0","[1638.1000000238419]","1","2","","","6357","65","4","1","win","go","1"
"pit-trial","184","1061233","0.0-70.0","battery-v0.2","","""event"",""trial"",""time""
""fullscreenenter"",""1"",""2463""
","
","
","""event"",""trial"",""time""
""fullscreenenter"",""1"",""2463""
","
","","","730.8999999761581","","","13","6357","1847","f","elianto","#3366ff99","-1"," ","0","0","[1581.6000000238419]","1","2","","","6357","66","1","2","win","no-go","0"
"pit-trial","185","1066086","0.0-71.0","battery-v0.2","","""event"",""trial"",""time""
""fullscreenenter"",""1"",""2463""
","
","
","""event"",""trial"",""time""
""fullscreenenter"",""1"",""2463""
","
","","","-1","","","13","6357","1847","b","elianto","#f73b6a7A","-1","-1","1","0","[]","0","2","","","6357","67","3","4","lose","no-go","0"
"pit-trial","186","1070007","0.0-72.0","battery-v0.2","","""event"",""trial"",""time""
""fullscreenenter"",""1"",""2463""
","
","
","""event"",""trial"",""time""
""fullscreenenter"",""1"",""2463""
","
","","","1069.6000000238419","","","13","6357","1847","z","elianto","#3366ff99","-1"," ","0","+10","[1919.7000000476837]","1","2","","","6357","68","5","2","win","no-go","1"
"pit-trial","187","1074000","0.0-73.0","battery-v0.2","","""event"",""trial"",""time""
""fullscreenenter"",""1"",""2463""
","
","
","""event"",""trial"",""time""
""fullscreenenter"",""1"",""2463""
","
","","","1141","","","13","6357","1847","z","elianto","#3366ff99","-1"," ","0","+10","[1991]","1","2","","","6357","69","5","2","win","no-go","1"
"pit-trial","188","1078854","0.0-74.0","battery-v0.2","","""event"",""trial"",""time""
""fullscreenenter"",""1"",""2463""
","
","
","""event"",""trial"",""time""
""fullscreenenter"",""1"",""2463""
","
","","","-1","","","13","6357","1847","f","elianto","#3366ff99","-1","-1","1","+10","[]","0","2","","","6357","70","1","2","win","no-go","0"
"pit-trial","189","1082487","0.0-75.0","battery-v0.2","","""event"",""trial"",""time""
""fullscreenenter"",""1"",""2463""
","
","
","""event"",""trial"",""time""
""fullscreenenter"",""1"",""2463""
","
","","","781.2999999523163","","","13","6357","1847","c","elianto","#3366ff99"," "," ","1","+10","[1631.7999999523163]","1","2","","","6357","71","4","1","win","go","0"
"pit-trial","190","1086136","0.0-76.0","battery-v0.2","","""event"",""trial"",""time""
""fullscreenenter"",""1"",""2463""
","
","
","""event"",""trial"",""time""
""fullscreenenter"",""1"",""2463""
","
","","","795.3999999761581","","","13","6357","1847","t","elianto","#f73b6a7A"," "," ","1","-10","[1646.2000000476837]","1","2","","","6357","72","2","3","lose","go","1"
"pit-trial","191","1089632","0.0-77.0","battery-v0.2","","""event"",""trial"",""time""
""fullscreenenter"",""1"",""2463""
","
","
","""event"",""trial"",""time""
""fullscreenenter"",""1"",""2463""
","
","","","643.1000000238419","","","13","6357","1847","z","elianto","#3366ff99","-1"," ","0","0","[1493.7000000476837]","1","2","","","6357","73","5","2","win","no-go","0"
"pit-trial","192","1094485","0.0-78.0","battery-v0.2","","""event"",""trial"",""time""
""fullscreenenter"",""1"",""2463""
","
","
","""event"",""trial"",""time""
""fullscreenenter"",""1"",""2463""
","
","","","-1","","","13","6357","1847","f","elianto","#3366ff99","-1","-1","1","0","[]","0","2","","","6357","74","1","2","win","no-go","1"
"pit-trial","193","1098009","0.0-79.0","battery-v0.2","","""event"",""trial"",""time""
""fullscreenenter"",""1"",""2463""
","
","
","""event"",""trial"",""time""
""fullscreenenter"",""1"",""2463""
","
","","","669.8999999761581","","","13","6357","1847","c","elianto","#3366ff99"," "," ","1","+10","[1521]","1","2","","","6357","75","4","1","win","go","0"
"pit-trial","194","1102862","0.0-80.0","battery-v0.2","","""event"",""trial"",""time""
""fullscreenenter"",""1"",""2463""
","
","
","""event"",""trial"",""time""
""fullscreenenter"",""1"",""2463""
","
","","","-1","","","13","6357","1847","b","elianto","#f73b6a7A","-1","-1","1","0","[]","0","2","","","6357","76","3","4","lose","no-go","0"
"pit-trial","195","1106360","0.0-81.0","battery-v0.2","","""event"",""trial"",""time""
""fullscreenenter"",""1"",""2463""
","
","
","""event"",""trial"",""time""
""fullscreenenter"",""1"",""2463""
","
","","","645.6000000238419","","","13","6357","1847","z","elianto","#3366ff99","-1"," ","0","0","[1495.5999999046326]","1","2","","","6357","77","5","2","win","no-go","0"
"pit-trial","196","1111213","0.0-82.0","battery-v0.2","","""event"",""trial"",""time""
""fullscreenenter"",""1"",""2463""
","
","
","""event"",""trial"",""time""
""fullscreenenter"",""1"",""2463""
","
","","","-1","","","13","6357","1847","b","elianto","#f73b6a7A","-1","-1","1","0","[]","0","2","","","6357","78","3","4","lose","no-go","0"
"pit-trial","197","1114744","0.0-83.0","battery-v0.2","","""event"",""trial"",""time""
""fullscreenenter"",""1"",""2463""
","
","
","""event"",""trial"",""time""
""fullscreenenter"",""1"",""2463""
","
","","","678.1000000238419","","","13","6357","1847","c","elianto","#3366ff99"," "," ","1","+10","[1528.2000000476837]","1","2","","","6357","79","4","1","win","go","0"
"pit-trial","198","1118184","0.0-84.0","battery-v0.2","","""event"",""trial"",""time""
""fullscreenenter"",""1"",""2463""
","
","
","""event"",""trial"",""time""
""fullscreenenter"",""1"",""2463""
","
","","","587.7000000476837","","","13","6357","1847","c","elianto","#3366ff99"," "," ","1","0","[1438]","1","2","","","6357","80","4","1","win","go","1"
"pit-trial","199","1121792","0.0-85.0","battery-v0.2","","""event"",""trial"",""time""
""fullscreenenter"",""1"",""2463""
","
","
","""event"",""trial"",""time""
""fullscreenenter"",""1"",""2463""
","
","","","755.4000000953674","","","13","6357","1847","z","elianto","#3366ff99","-1"," ","0","0","[1605.8999999761581]","1","2","","","6357","81","5","2","win","no-go","0"
"pit-trial","200","1126644","0.0-86.0","battery-v0.2","","""event"",""trial"",""time""
""fullscreenenter"",""1"",""2463""
","
","
","""event"",""trial"",""time""
""fullscreenenter"",""1"",""2463""
","
","","","-1","","","13","6357","1847","b","elianto","#f73b6a7A","-1","-1","1","0","[]","0","2","","","6357","82","3","4","lose","no-go","0"
"pit-trial","201","1130104","0.0-87.0","battery-v0.2","","""event"",""trial"",""time""
""fullscreenenter"",""1"",""2463""
","
","
","""event"",""trial"",""time""
""fullscreenenter"",""1"",""2463""
","
","","","607.8999999761581","","","13","6357","1847","c","elianto","#3366ff99"," "," ","1","+10","[1458]","1","2","","","6357","83","4","1","win","go","0"
"pit-trial","202","1134957","0.0-88.0","battery-v0.2","","""event"",""trial"",""time""
""fullscreenenter"",""1"",""2463""
","
","
","""event"",""trial"",""time""
""fullscreenenter"",""1"",""2463""
","
","","","-1","","","13","6357","1847","y","elianto","#f73b6a7A","-1","-1","1","-10","[]","0","2","","","6357","84","7","4","lose","no-go","1"
"pit-trial","203","1138888","0.0-89.0","battery-v0.2","","""event"",""trial"",""time""
""fullscreenenter"",""1"",""2463""
","
","
","""event"",""trial"",""time""
""fullscreenenter"",""1"",""2463""
","
","","","1077.6000000238419","","","13","6357","1847","h","elianto","#f73b6a7A"," "," ","1","-10","[1928]","1","2","","","6357","85","6","3","lose","go","1"
"pit-trial","204","1142361","0.0-90.0","battery-v0.2","","""event"",""trial"",""time""
""fullscreenenter"",""1"",""2463""
","
","
","""event"",""trial"",""time""
""fullscreenenter"",""1"",""2463""
","
","","","620","","","13","6357","1847","c","elianto","#3366ff99"," "," ","1","+10","[1470.5999999046326]","1","2","","","6357","86","4","1","win","go","0"
"pit-trial","205","1146127","0.0-91.0","battery-v0.2","","""event"",""trial"",""time""
""fullscreenenter"",""1"",""2463""
","
","
","""event"",""trial"",""time""
""fullscreenenter"",""1"",""2463""
","
","","","913.1000000238419","","","13","6357","1847","y","elianto","#f73b6a7A","-1"," ","0","0","[1764.1000000238419]","1","2","","","6357","87","7","4","lose","no-go","1"
"pit-trial","206","1149559","0.0-92.0","battery-v0.2","","""event"",""trial"",""time""
""fullscreenenter"",""1"",""2463""
","
","
","""event"",""trial"",""time""
""fullscreenenter"",""1"",""2463""
","
","","","578.6999999284744","","","13","6357","1847","z","elianto","#3366ff99","-1"," ","0","0","[1429.1999999284744]","1","2","","","6357","88","5","2","win","no-go","0"
"pit-trial","207","1152929","0.0-93.0","battery-v0.2","","""event"",""trial"",""time""
""fullscreenenter"",""1"",""2463""
","
","
","""event"",""trial"",""time""
""fullscreenenter"",""1"",""2463""
","
","","","516.3999999761581","","","13","6357","1847","z","elianto","#3366ff99","-1"," ","0","0","[1366.7999999523163]","1","2","","","6357","89","5","2","win","no-go","0"
"pit-trial","208","1157782","0.0-94.0","battery-v0.2","","""event"",""trial"",""time""
""fullscreenenter"",""1"",""2463""
","
","
","""event"",""trial"",""time""
""fullscreenenter"",""1"",""2463""
","
","","","-1","","","13","6357","1847","h","elianto","#f73b6a7A"," ","-1","0","0","[]","0","2","","","6357","90","6","3","lose","go","1"
"pit-trial","209","1161247","0.0-95.0","battery-v0.2","","""event"",""trial"",""time""
""fullscreenenter"",""1"",""2463""
","
","
","""event"",""trial"",""time""
""fullscreenenter"",""1"",""2463""
","
","","","612.1000000238419","","","13","6357","1847","c","elianto","#3366ff99"," "," ","1","+10","[1462.6000000238419]","1","2","","","6357","91","4","1","win","go","0"
"pit-trial","210","1165376","0.0-96.0","battery-v0.2","","""event"",""trial"",""time""
""fullscreenenter"",""1"",""2463""
","
","
","""event"",""trial"",""time""
""fullscreenenter"",""1"",""2463""
","
","","","1276.5","","","13","6357","1847","y","elianto","#f73b6a7A","-1"," ","0","-10","[2126.600000023842]","1","2","","","6357","92","7","4","lose","no-go","0"
"pit-trial","211","1170230","0.0-97.0","battery-v0.2","","""event"",""trial"",""time""
""fullscreenenter"",""1"",""2463""
","
","
","""event"",""trial"",""time""
""fullscreenenter"",""1"",""2463""
","
","","","-1","","","13","6357","1847","y","elianto","#f73b6a7A","-1","-1","1","0","[]","0","2","","","6357","93","7","4","lose","no-go","0"
"pit-trial","212","1175083","0.0-98.0","battery-v0.2","","""event"",""trial"",""time""
""fullscreenenter"",""1"",""2463""
","
","
","""event"",""trial"",""time""
""fullscreenenter"",""1"",""2463""
","
","","","-1","","","13","6357","1847","r","elianto","#3366ff99"," ","-1","0","+10","[]","0","2","","","6357","94","8","1","win","go","1"
"pit-trial","213","1179813","0.0-99.0","battery-v0.2","","""event"",""trial"",""time""
""fullscreenenter"",""1"",""2463""
","
","
","""event"",""trial"",""time""
""fullscreenenter"",""1"",""2463""
","
","","","1865.3999999761581","","","13","6357","1847","h","elianto","#f73b6a7A"," "," ","1","-10","[2715.399999976158]","1","2","","","6357","95","6","3","lose","go","1"
"pit-trial","214","1183438","0.0-100.0","battery-v0.2","","""event"",""trial"",""time""
""fullscreenenter"",""1"",""2463""
","
","
","""event"",""trial"",""time""
""fullscreenenter"",""1"",""2463""
","
","","","773.1000000238419","","","13","6357","1847","z","elianto","#3366ff99","-1"," ","0","+10","[1623.3999999761581]","1","2","","","6357","96","5","2","win","no-go","1"
"pit-trial","215","1188023","0.0-101.0","battery-v0.2","","""event"",""trial"",""time""
""fullscreenenter"",""1"",""2463""
","
","
","""event"",""trial"",""time""
""fullscreenenter"",""1"",""2463""
","
","","","1732.2000000476837","","","13","6357","1847","z","elianto","#3366ff99","-1"," ","0","0","[2582.600000023842]","1","2","","","6357","97","5","2","win","no-go","0"
"pit-trial","216","1192876","0.0-102.0","battery-v0.2","","""event"",""trial"",""time""
""fullscreenenter"",""1"",""2463""
","
","
","""event"",""trial"",""time""
""fullscreenenter"",""1"",""2463""
","
","","","-1","","","13","6357","1847","y","elianto","#f73b6a7A","-1","-1","1","-10","[]","0","2","","","6357","98","7","4","lose","no-go","1"
"pit-trial","217","1197152","0.0-103.0","battery-v0.2","","""event"",""trial"",""time""
""fullscreenenter"",""1"",""2463""
","
","
","""event"",""trial"",""time""
""fullscreenenter"",""1"",""2463""
","
","","","1423.7000000476837","","","13","6357","1847","r","elianto","#3366ff99"," "," ","1","+10","[2274]","1","2","","","6357","99","8","1","win","go","0"
"pit-trial","218","1202006","0.0-104.0","battery-v0.2","","""event"",""trial"",""time""
""fullscreenenter"",""1"",""2463""
","
","
","""event"",""trial"",""time""
""fullscreenenter"",""1"",""2463""
","
","","","-1","","","13","6357","1847","h","elianto","#f73b6a7A"," ","-1","0","-10","[3989.100000023842]","1","2","","","6357","100","6","3","lose","go","0"
"pit-trial","219","1205904","0.0-105.0","battery-v0.2","","""event"",""trial"",""time""
""fullscreenenter"",""1"",""2463""
","
","
","""event"",""trial"",""time""
""fullscreenenter"",""1"",""2463""
","
","","","1045.3999999761581","","","13","6357","1847","m","elianto","#3366ff99"," "," ","1","+10","[1896]","1","2","","","6357","101","9","1","win","go","0"
"pit-trial","220","1210624","0.0-106.0","battery-v0.2","","""event"",""trial"",""time""
""fullscreenenter"",""1"",""2463""
","
","
","""event"",""trial"",""time""
""fullscreenenter"",""1"",""2463""
","
","","","1867.6000000238419","","","13","6357","1847","z","elianto","#3366ff99","-1"," ","0","+10","[2718]","1","2","","","6357","102","5","2","win","no-go","1"
"pit-trial","221","1214464","0.0-107.0","battery-v0.2","","""event"",""trial"",""time""
""fullscreenenter"",""1"",""2463""
","
","
","""event"",""trial"",""time""
""fullscreenenter"",""1"",""2463""
","
","","","985.8999999761581","","","13","6357","1847","r","elianto","#3366ff99"," "," ","1","+10","[1836.6999999284744]","1","2","","","6357","103","8","1","win","go","0"
"pit-trial","222","1219318","0.0-108.0","battery-v0.2","","""event"",""trial"",""time""
""fullscreenenter"",""1"",""2463""
","
","
","""event"",""trial"",""time""
""fullscreenenter"",""1"",""2463""
","
","","","-1","","","13","6357","1847","y","elianto","#f73b6a7A","-1","-1","1","0","[]","0","2","","","6357","104","7","4","lose","no-go","0"
"pit-trial","223","1222959","0.0-109.0","battery-v0.2","","""event"",""trial"",""time""
""fullscreenenter"",""1"",""2463""
","
","
","""event"",""trial"",""time""
""fullscreenenter"",""1"",""2463""
","
","","","788","","","13","6357","1847","h","elianto","#f73b6a7A"," "," ","1","0","[1638.6999999284744]","1","2","","","6357","105","6","3","lose","go","0"
"pit-trial","224","1226599","0.0-110.0","battery-v0.2","","""event"",""trial"",""time""
""fullscreenenter"",""1"",""2463""
","
","
","""event"",""trial"",""time""
""fullscreenenter"",""1"",""2463""
","
","","","787.6000000238419","","","13","6357","1847","m","elianto","#3366ff99"," "," ","1","0","[1637.7999999523163]","1","2","","","6357","106","9","1","win","go","1"
"pit-trial","225","1230175","0.0-111.0","battery-v0.2","","""event"",""trial"",""time""
""fullscreenenter"",""1"",""2463""
","
","
","""event"",""trial"",""time""
""fullscreenenter"",""1"",""2463""
","
","","","723.6000000238419","","","13","6357","1847","c","elianto","#3366ff99"," "," ","1","+10","[1574.7999999523163]","1","2","","","6357","107","4","1","win","go","0"
"pit-trial","226","1233832","0.0-112.0","battery-v0.2","","""event"",""trial"",""time""
""fullscreenenter"",""1"",""2463""
","
","
","""event"",""trial"",""time""
""fullscreenenter"",""1"",""2463""
","
","","","803.8999999761581","","","13","6357","1847","r","elianto","#3366ff99"," "," ","1","+10","[1654.7999999523163]","1","2","","","6357","108","8","1","win","go","0"
"pit-trial","227","1237472","0.0-113.0","battery-v0.2","","""event"",""trial"",""time""
""fullscreenenter"",""1"",""2463""
","
","
","""event"",""trial"",""time""
""fullscreenenter"",""1"",""2463""
","
","","","787.3000000715256","","","13","6357","1847","r","elianto","#3366ff99"," "," ","1","0","[1637.3000000715256]","1","2","","","6357","109","8","1","win","go","1"
"pit-trial","228","1241183","0.0-114.0","battery-v0.2","","""event"",""trial"",""time""
""fullscreenenter"",""1"",""2463""
","
","
","""event"",""trial"",""time""
""fullscreenenter"",""1"",""2463""
","
","","","857.5","","","13","6357","1847","z","elianto","#3366ff99","-1"," ","0","0","[1708.5]","1","2","","","6357","110","5","2","win","no-go","0"
"pit-trial","229","1244936","0.0-115.0","battery-v0.2","","""event"",""trial"",""time""
""fullscreenenter"",""1"",""2463""
","
","
","""event"",""trial"",""time""
""fullscreenenter"",""1"",""2463""
","
","","","900.1999999284744","","","13","6357","1847","m","elianto","#3366ff99"," "," ","1","+10","[1750.5999999046326]","1","2","","","6357","111","9","1","win","go","0"
"pit-trial","230","1249788","0.0-116.0","battery-v0.2","","""event"",""trial"",""time""
""fullscreenenter"",""1"",""2463""
","
","
","""event"",""trial"",""time""
""fullscreenenter"",""1"",""2463""
","
","","","-1","","","13","6357","1847","h","elianto","#f73b6a7A"," ","-1","0","-10","[3045.2999999523163]","1","2","","","6357","112","6","3","lose","go","0"
"pit-trial","231","1253400","0.0-117.0","battery-v0.2","","""event"",""trial"",""time""
""fullscreenenter"",""1"",""2463""
","
","
","""event"",""trial"",""time""
""fullscreenenter"",""1"",""2463""
","
","","","759.7999999523163","","","13","6357","1847","z","elianto","#3366ff99","-1"," ","0","+10","[1610]","1","2","","","6357","113","5","2","win","no-go","1"
"pit-trial","232","1257008","0.0-118.0","battery-v0.2","","""event"",""trial"",""time""
""fullscreenenter"",""1"",""2463""
","
","
","""event"",""trial"",""time""
""fullscreenenter"",""1"",""2463""
","
","","","753.8999999761581","","","13","6357","1847","m","elianto","#3366ff99"," "," ","1","+10","[1605]","1","2","","","6357","114","9","1","win","go","0"
"pit-trial","233","1260511","0.0-119.0","battery-v0.2","","""event"",""trial"",""time""
""fullscreenenter"",""1"",""2463""
","
","
","""event"",""trial"",""time""
""fullscreenenter"",""1"",""2463""
","
","","","650.7000000476837","","","13","6357","1847","r","elianto","#3366ff99"," "," ","1","+10","[1501.3000000715256]","1","2","","","6357","115","8","1","win","go","0"
"pit-trial","234","1264671","0.0-120.0","battery-v0.2","","""event"",""trial"",""time""
""fullscreenenter"",""1"",""2463""
","
","
","""event"",""trial"",""time""
""fullscreenenter"",""1"",""2463""
","
","","","1306.6000000238419","","","13","6357","1847","h","elianto","#f73b6a7A"," "," ","1","0","[2157]","1","2","","","6357","116","6","3","lose","go","0"
"pit-trial","235","1268305","0.0-121.0","battery-v0.2","","""event"",""trial"",""time""
""fullscreenenter"",""1"",""2463""
","
","
","""event"",""trial"",""time""
""fullscreenenter"",""1"",""2463""
","
","","","780.3999999761581","","","13","6357","1847","h","elianto","#f73b6a7A"," "," ","1","0","[1630.5999999046326]","1","2","","","6357","117","6","3","lose","go","0"
"pit-trial","236","1273158","0.0-122.0","battery-v0.2","","""event"",""trial"",""time""
""fullscreenenter"",""1"",""2463""
","
","
","""event"",""trial"",""time""
""fullscreenenter"",""1"",""2463""
","
","","","-1","","","13","6357","1847","z","elianto","#3366ff99","-1","-1","1","+10","[]","0","2","","","6357","118","5","2","win","no-go","0"
"pit-trial","237","1276776","0.0-123.0","battery-v0.2","","""event"",""trial"",""time""
""fullscreenenter"",""1"",""2463""
","
","
","""event"",""trial"",""time""
""fullscreenenter"",""1"",""2463""
","
","","","765.1000000238419","","","13","6357","1847","r","elianto","#3366ff99"," "," ","1","+10","[1615.2999999523163]","1","2","","","6357","119","8","1","win","go","0"
"pit-trial","238","1281080","0.0-124.0","battery-v0.2","","""event"",""trial"",""time""
""fullscreenenter"",""1"",""2463""
","
","
","""event"",""trial"",""time""
""fullscreenenter"",""1"",""2463""
","
","","","1450.6999999284744","","","13","6357","1847","m","elianto","#3366ff99"," "," ","1","0","[2301.2999999523163]","1","2","","","6357","120","9","1","win","go","1"
"pit-trial","239","1284632","0.0-125.0","battery-v0.2","","""event"",""trial"",""time""
""fullscreenenter"",""1"",""2463""
","
","
","""event"",""trial"",""time""
""fullscreenenter"",""1"",""2463""
","
","","","698.2999999523163","","","13","6357","1847","m","elianto","#3366ff99"," "," ","1","+10","[1548.5]","1","2","","","6357","121","9","1","win","go","0"
"pit-trial","240","1288096","0.0-126.0","battery-v0.2","","""event"",""trial"",""time""
""fullscreenenter"",""1"",""2463""
","
","
","""event"",""trial"",""time""
""fullscreenenter"",""1"",""2463""
","
","","","611","","","13","6357","1847","r","elianto","#3366ff99"," "," ","1","0","[1461.7999999523163]","1","2","","","6357","122","8","1","win","go","1"
"pit-trial","241","1292949","0.0-127.0","battery-v0.2","","""event"",""trial"",""time""
""fullscreenenter"",""1"",""2463""
","
","
","""event"",""trial"",""time""
""fullscreenenter"",""1"",""2463""
","
","","","-1","","","13","6357","1847","y","elianto","#f73b6a7A","-1","-1","1","0","[2876.5999999046326]","1","2","","","6357","123","7","4","lose","no-go","0"
"pit-trial","242","1297802","0.0-128.0","battery-v0.2","","""event"",""trial"",""time""
""fullscreenenter"",""1"",""2463""
","
","
","""event"",""trial"",""time""
""fullscreenenter"",""1"",""2463""
","
","","","-1","","","13","6357","1847","h","elianto","#f73b6a7A"," ","-1","0","0","[]","0","2","","","6357","124","6","3","lose","go","1"
"pit-trial","243","1301303","0.0-129.0","battery-v0.2","","""event"",""trial"",""time""
""fullscreenenter"",""1"",""2463""
","
","
","""event"",""trial"",""time""
""fullscreenenter"",""1"",""2463""
","
","","","647.8999999761581","","","13","6357","1847","r","elianto","#3366ff99"," "," ","1","+10","[1499.5]","1","2","","","6357","125","8","1","win","go","0"
"pit-trial","244","1305184","0.0-130.0","battery-v0.2","","""event"",""trial"",""time""
""fullscreenenter"",""1"",""2463""
","
","
","""event"",""trial"",""time""
""fullscreenenter"",""1"",""2463""
","
","","","1027.6999999284744","","","13","6357","1847","y","elianto","#f73b6a7A","-1"," ","0","-10","[1878.3999999761581]","1","2","","","6357","126","7","4","lose","no-go","0"
"pit-trial","245","1308664","0.0-131.0","battery-v0.2","","""event"",""trial"",""time""
""fullscreenenter"",""1"",""2463""
","
","
","""event"",""trial"",""time""
""fullscreenenter"",""1"",""2463""
","
","","","625.2999999523163","","","13","6357","1847","m","elianto","#3366ff99"," "," ","1","+10","[1477.2999999523163]","1","2","","","6357","127","9","1","win","go","0"
"pit-trial","246","1313518","0.0-132.0","battery-v0.2","","""event"",""trial"",""time""
""fullscreenenter"",""1"",""2463""
","
","
","""event"",""trial"",""time""
""fullscreenenter"",""1"",""2463""
","
","","","-1","","","13","6357","1847","h","elianto","#f73b6a7A"," ","-1","0","0","[]","0","2","","","6357","128","6","3","lose","go","1"
"pit-trial","247","1316896","0.0-133.0","battery-v0.2","","""event"",""trial"",""time""
""fullscreenenter"",""1"",""2463""
","
","
","""event"",""trial"",""time""
""fullscreenenter"",""1"",""2463""
","
","","","525.3999999761581","","","13","6357","1847","y","elianto","#f73b6a7A","-1"," ","0","-10","[1375.6000000238419]","1","2","","","6357","129","7","4","lose","no-go","0"
"pit-trial","248","1320624","0.0-134.0","battery-v0.2","","""event"",""trial"",""time""
""fullscreenenter"",""1"",""2463""
","
","
","""event"",""trial"",""time""
""fullscreenenter"",""1"",""2463""
","
","","","874.8999999761581","","","13","6357","1847","r","elianto","#3366ff99"," "," ","1","+10","[1725.1000000238419]","1","2","","","6357","130","8","1","win","go","0"
"pit-trial","249","1324103","0.0-135.0","battery-v0.2","","""event"",""trial"",""time""
""fullscreenenter"",""1"",""2463""
","
","
","""event"",""trial"",""time""
""fullscreenenter"",""1"",""2463""
","
","","","626.7999999523163","","","13","6357","1847","m","elianto","#3366ff99"," "," ","1","+10","[1477.5]","1","2","","","6357","131","9","1","win","go","0"
"pit-trial","250","1328957","0.0-136.0","battery-v0.2","","""event"",""trial"",""time""
""fullscreenenter"",""1"",""2463""
","
","
","""event"",""trial"",""time""
""fullscreenenter"",""1"",""2463""
","
","","","-1","","","13","6357","1847","h","elianto","#f73b6a7A"," ","-1","0","-10","[]","0","2","","","6357","132","6","3","lose","go","0"
"pit-trial","251","1332337","0.0-137.0","battery-v0.2","","""event"",""trial"",""time""
""fullscreenenter"",""1"",""2463""
","
","
","""event"",""trial"",""time""
""fullscreenenter"",""1"",""2463""
","
","","","526.8999999761581","","","13","6357","1847","y","elianto","#f73b6a7A","-1"," ","0","0","[1377.8999999761581]","1","2","","","6357","133","7","4","lose","no-go","1"
"pit-trial","252","1335831","0.0-138.0","battery-v0.2","","""event"",""trial"",""time""
""fullscreenenter"",""1"",""2463""
","
","
","""event"",""trial"",""time""
""fullscreenenter"",""1"",""2463""
","
