"trial_type","trial_index","time_elapsed","internal_node_id","task_version","subject_id","interactions","blur_events","focus_events","fullscreenenter_events","fullscreenexit_events","success","view_history","rt","responses","num_errors","age","subject","participantId","rune","rune_set","hex","correct","choice","accuracy","outcome","keys","total_keys","block","practice","value","sub","trial","stimulus","robot","valence","action","sham"
"pavlovia","0","11","0.0-0.0","battery-v0.2","","""event"",""trial"",""time""
""fullscreenenter"",""1"",""67989""
","
","
","""event"",""trial"",""time""
""fullscreenenter"",""1"",""67989""
","
","","","","","","","","","","","","","","","","","","","","","","","","","","",""
"fullscreen","1","68922","0.0-1.0","battery-v0.2","","""event"",""trial"",""time""
""fullscreenenter"",""1"",""67989""
","
","
","""event"",""trial"",""time""
""fullscreenenter"",""1"",""67989""
","
","true","","","","","","","","","","","","","","","","","","","","","","","","","",""
"pit-instructions","2","75319","0.0-2.0-0.0","battery-v0.2","","""event"",""trial"",""time""
""fullscreenenter"",""1"",""67989""
","
","
","""event"",""trial"",""time""
""fullscreenenter"",""1"",""67989""
","
","","[{""page_index"":0,""viewing_time"":6390}]","6391","","","","","","","","","","","","","","","","","","","","","","","",""
"pit-comprehension","3","78760","0.0-2.0-1.0-0.0","battery-v0.2","","""event"",""trial"",""time""
""fullscreenenter"",""1"",""67989""
","
","
","""event"",""trial"",""time""
""fullscreenenter"",""1"",""67989""
","
","","","3333","[""shark""]","0","23","3963","592","","","","","","","","","","","","","","","","","","",""
"pit-instructions","4","89735","0.0-2.0-1.0-1.0","battery-v0.2","","""event"",""trial"",""time""
""fullscreenenter"",""1"",""67989""
","
","
","""event"",""trial"",""time""
""fullscreenenter"",""1"",""67989""
","
","","[{""page_index"":0,""viewing_time"":10925}]","10925","","","","","","","","","","","","","","","","","","","","","","","",""
"pit-comprehension","5","92720","0.0-2.0-2.0-0.0","battery-v0.2","","""event"",""trial"",""time""
""fullscreenenter"",""1"",""67989""
","
","
","""event"",""trial"",""time""
""fullscreenenter"",""1"",""67989""
","
","","","2937","[""tiger""]","0","23","3963","592","","","","","","","","","","","","","","","","","","",""
"pit-instructions","6","94694","0.0-2.0-2.0-1.0","battery-v0.2","","""event"",""trial"",""time""
""fullscreenenter"",""1"",""67989""
","
","
","""event"",""trial"",""time""
""fullscreenenter"",""1"",""67989""
","
","","[{""page_index"":0,""viewing_time"":1930}]","1930","","","","","","","","","","","","","","","","","","","","","","","",""
"pit-instructions","7","231192","0.0-2.0-3.0","battery-v0.2","","""event"",""trial"",""time""
""fullscreenenter"",""1"",""67989""
","
","
","""event"",""trial"",""time""
""fullscreenenter"",""1"",""67989""
","
","","[{""page_index"":0,""viewing_time"":36512},{""page_index"":1,""viewing_time"":11511},{""page_index"":2,""viewing_time"":6824},{""page_index"":3,""viewing_time"":5312},{""page_index"":4,""viewing_time"":6184},{""page_index"":5,""viewing_time"":7592},{""page_index"":6,""viewing_time"":7600},{""page_index"":7,""viewing_time"":8368},{""page_index"":8,""viewing_time"":8584},{""page_index"":9,""viewing_time"":8464},{""page_index"":10,""viewing_time"":9528.00000000003},{""page_index"":11,""viewing_time"":6694.999999999971},{""page_index"":12,""viewing_time"":7472},{""page_index"":13,""viewing_time"":5800}]","136446","","","","","","","","","","","","","","","","","","","","","","","",""
"pit-trial","8","234204","0.0-2.0-4.0-0.0","battery-v0.2","","""event"",""trial"",""time""
""fullscreenenter"",""1"",""67989""
","
","
","""event"",""trial"",""time""
""fullscreenenter"",""1"",""67989""
","
","","","117","","","23","3963","592","&#9784;","elianto","#FFFFF080"," "," ","1","&#10004","[966.9999999999709]","1","0","0","","","","","","","",""
"pit-trial","9","237465","0.0-2.0-4.1-0.1","battery-v0.2","","""event"",""trial"",""time""
""fullscreenenter"",""1"",""67989""
","
","
","""event"",""trial"",""time""
""fullscreenenter"",""1"",""67989""
","
","","","369","","","23","3963","592","&#9784;","elianto","#FFFFF080"," "," ","1","&#10004","[1219]","1","0","0","","","","","","","",""
"pit-trial","10","240898","0.0-2.0-4.2-0.2","battery-v0.2","","""event"",""trial"",""time""
""fullscreenenter"",""1"",""67989""
","
","
","""event"",""trial"",""time""
""fullscreenenter"",""1"",""67989""
","
","","","541","","","23","3963","592","&#9784;","elianto","#FFFFF080"," "," ","1","&#10004","[1392]","1","0","0","","","","","","","",""
"pit-trial","11","244214","0.0-2.0-4.3-0.3","battery-v0.2","","""event"",""trial"",""time""
""fullscreenenter"",""1"",""67989""
","
","
","""event"",""trial"",""time""
""fullscreenenter"",""1"",""67989""
","
","","","423","","","23","3963","592","&#9784;","elianto","#FFFFF080"," "," ","1","&#10004","[1273]","1","0","0","","","","","","","",""
"pit-trial","12","247464","0.0-2.0-4.4-0.4","battery-v0.2","","""event"",""trial"",""time""
""fullscreenenter"",""1"",""67989""
","
","
","""event"",""trial"",""time""
""fullscreenenter"",""1"",""67989""
","
","","","357","","","23","3963","592","&#9784;","elianto","#FFFFF080"," "," ","1","&#10004","[1208]","1","0","0","","","","","","","",""
"pit-instructions","13","270208","0.0-2.0-5.0","battery-v0.2","","""event"",""trial"",""time""
""fullscreenenter"",""1"",""67989""
","
","
","""event"",""trial"",""time""
""fullscreenenter"",""1"",""67989""
","
","","[{""page_index"":0,""viewing_time"":5290.999999999971},{""page_index"":1,""viewing_time"":5416.000000000087},{""page_index"":2,""viewing_time"":4879.999999999942},{""page_index"":3,""viewing_time"":7112}]","22699","","","","","","","","","","","","","","","","","","","","","","","",""
"pit-trial","14","275100","0.0-2.0-6.0-0.0","battery-v0.2","","""event"",""trial"",""time""
""fullscreenenter"",""1"",""67989""
","
","
","""event"",""trial"",""time""
""fullscreenenter"",""1"",""67989""
","
","","","-1","","","23","3963","592","&#9854;","elianto","#FFFFF080","-1","-1","1","&#10004","[]","0","0","1","","","","","","","",""
"pit-trial","15","279992","0.0-2.0-6.1-0.1","battery-v0.2","","""event"",""trial"",""time""
""fullscreenenter"",""1"",""67989""
","
","
","""event"",""trial"",""time""
""fullscreenenter"",""1"",""67989""
","
","","","-1","","","23","3963","592","&#9854;","elianto","#FFFFF080","-1","-1","1","&#10004","[]","0","0","1","","","","","","","",""
"pit-trial","16","284885","0.0-2.0-6.2-0.2","battery-v0.2","","""event"",""trial"",""time""
""fullscreenenter"",""1"",""67989""
","
","
","""event"",""trial"",""time""
""fullscreenenter"",""1"",""67989""
","
","","","-1","","","23","3963","592","&#9854;","elianto","#FFFFF080","-1","-1","1","&#10004","[]","0","0","1","","","","","","","",""
"pit-trial","17","289776","0.0-2.0-6.3-0.3","battery-v0.2","","""event"",""trial"",""time""
""fullscreenenter"",""1"",""67989""
","
","
","""event"",""trial"",""time""
""fullscreenenter"",""1"",""67989""
","
","","","-1","","","23","3963","592","&#9854;","elianto","#FFFFF080","-1","-1","1","&#10004","[]","0","0","1","","","","","","","",""
"pit-trial","18","294668","0.0-2.0-6.4-0.4","battery-v0.2","","""event"",""trial"",""time""
""fullscreenenter"",""1"",""67989""
","
","
","""event"",""trial"",""time""
""fullscreenenter"",""1"",""67989""
","
","","","-1","","","23","3963","592","&#9854;","elianto","#FFFFF080","-1","-1","1","&#10004","[]","0","0","1","","","","","","","",""
"pit-instructions","19","428370","0.0-2.0-7.0","battery-v0.2","","""event"",""trial"",""time""
""fullscreenenter"",""1"",""67989""
","
","
","""event"",""trial"",""time""
""fullscreenenter"",""1"",""67989""
","
","","[{""page_index"":0,""viewing_time"":17671},{""page_index"":1,""viewing_time"":8976},{""page_index"":2,""viewing_time"":6672},{""page_index"":3,""viewing_time"":6088},{""page_index"":4,""viewing_time"":6096.000000000058},{""page_index"":5,""viewing_time"":5832.999999999942},{""page_index"":6,""viewing_time"":4967},{""page_index"":7,""viewing_time"":8664.000000000058},{""page_index"":8,""viewing_time"":8871.999999999942},{""page_index"":9,""viewing_time"":7897.000000000058},{""page_index"":10,""viewing_time"":6390.999999999942},{""page_index"":11,""viewing_time"":4249},{""page_index"":12,""viewing_time"":7569},{""page_index"":13,""viewing_time"":7014},{""page_index"":14,""viewing_time"":7088},{""page_index"":15,""viewing_time"":6344},{""page_index"":16,""viewing_time"":6256.000000000058},{""page_index"":17,""viewing_time"":7007.999999999942}]","133656","","","","","","","","","","","","","","","","","","","","","","","",""
"pit-trial","20","431682","0.0-2.0-8.0-0.0","battery-v0.2","","""event"",""trial"",""time""
""fullscreenenter"",""1"",""67989""
","
","
","""event"",""trial"",""time""
""fullscreenenter"",""1"",""67989""
","
","","","419.0000000000582","","","23","3963","592","&#9776;","elianto","#3366ff99"," "," ","1","+10","[1270.0000000000582]","1","0","1","","","","","","","",""
"pit-trial","21","435006","0.0-2.0-8.0-1.0","battery-v0.2","","""event"",""trial"",""time""
""fullscreenenter"",""1"",""67989""
","
","
","""event"",""trial"",""time""
""fullscreenenter"",""1"",""67989""
","
","","","433","","","23","3963","592","&#9776;","elianto","#3366ff99"," "," ","1","+10","[1283]","1","0","1","","","","","","","",""
"pit-trial","22","438279","0.0-2.0-8.0-2.0","battery-v0.2","","""event"",""trial"",""time""
""fullscreenenter"",""1"",""67989""
","
","
","""event"",""trial"",""time""
""fullscreenenter"",""1"",""67989""
","
","","","383","","","23","3963","592","&#9776;","elianto","#3366ff99"," "," ","1","+10","[1233]","1","0","1","","","","","","","",""
"pit-trial","23","441431","0.0-2.0-8.0-3.0","battery-v0.2","","""event"",""trial"",""time""
""fullscreenenter"",""1"",""67989""
","
","
","""event"",""trial"",""time""
""fullscreenenter"",""1"",""67989""
","
","","","258","","","23","3963","592","&#9776;","elianto","#3366ff99"," "," ","1","0","[1108]","1","0","1","","","","","","","",""
"pit-trial","24","444560","0.0-2.0-8.0-4.0","battery-v0.2","","""event"",""trial"",""time""
""fullscreenenter"",""1"",""67989""
","
","
","""event"",""trial"",""time""
""fullscreenenter"",""1"",""67989""
","
","","","236","","","23","3963","592","&#9776;","elianto","#3366ff99"," "," ","1","+10","[1086]","1","0","1","","","","","","","",""
"pit-trial","25","447875","0.0-2.0-8.1-0.1","battery-v0.2","","""event"",""trial"",""time""
""fullscreenenter"",""1"",""67989""
","
","
","""event"",""trial"",""time""
""fullscreenenter"",""1"",""67989""
","
","","","419.0000000000582","","","23","3963","592","&#9776;","elianto","#3366ff99"," "," ","1","+10","[1270.0000000000582]","1","0","1","","","","","","","",""
"pit-trial","26","451026","0.0-2.0-8.1-1.1","battery-v0.2","","""event"",""trial"",""time""
""fullscreenenter"",""1"",""67989""
","
","
","""event"",""trial"",""time""
""fullscreenenter"",""1"",""67989""
","
","","","258","","","23","3963","592","&#9776;","elianto","#3366ff99"," "," ","1","+10","[1109]","1","0","1","","","","","","","",""
"pit-trial","27","454335","0.0-2.0-8.1-2.1","battery-v0.2","","""event"",""trial"",""time""
""fullscreenenter"",""1"",""67989""
","
","
","""event"",""trial"",""time""
""fullscreenenter"",""1"",""67989""
","
","","","417","","","23","3963","592","&#9776;","elianto","#3366ff99"," "," ","1","+10","[1268]","1","0","1","","","","","","","",""
"pit-trial","28","457615","0.0-2.0-8.1-3.1","battery-v0.2","","""event"",""trial"",""time""
""fullscreenenter"",""1"",""67989""
","
","
","""event"",""trial"",""time""
""fullscreenenter"",""1"",""67989""
","
","","","387","","","23","3963","592","&#9776;","elianto","#3366ff99"," "," ","1","0","[1237]","1","0","1","","","","","","","",""
"pit-trial","29","460897","0.0-2.0-8.1-4.1","battery-v0.2","","""event"",""trial"",""time""
""fullscreenenter"",""1"",""67989""
","
","
","""event"",""trial"",""time""
""fullscreenenter"",""1"",""67989""
","
","","","389","","","23","3963","592","&#9776;","elianto","#3366ff99"," "," ","1","+10","[1239]","1","0","1","","","","","","","",""
"pit-trial","30","463968","0.0-2.0-8.2-0.2","battery-v0.2","","""event"",""trial"",""time""
""fullscreenenter"",""1"",""67989""
","
","
","""event"",""trial"",""time""
""fullscreenenter"",""1"",""67989""
","
","","","175","","","23","3963","592","&#9776;","elianto","#3366ff99"," "," ","1","+10","[1026]","1","0","1","","","","","","","",""
"pit-trial","31","467038","0.0-2.0-8.2-1.2","battery-v0.2","","""event"",""trial"",""time""
""fullscreenenter"",""1"",""67989""
","
","
","""event"",""trial"",""time""
""fullscreenenter"",""1"",""67989""
","
","","","177","","","23","3963","592","&#9776;","elianto","#3366ff99"," "," ","1","+10","[1027]","1","0","1","","","","","","","",""
"pit-trial","32","470288","0.0-2.0-8.2-2.2","battery-v0.2","","""event"",""trial"",""time""
""fullscreenenter"",""1"",""67989""
","
","
","""event"",""trial"",""time""
""fullscreenenter"",""1"",""67989""
","
","","","359","","","23","3963","592","&#9776;","elianto","#3366ff99"," "," ","1","+10","[1209]","1","0","1","","","","","","","",""
"pit-trial","33","473462","0.0-2.0-8.2-3.2","battery-v0.2","","""event"",""trial"",""time""
""fullscreenenter"",""1"",""67989""
","
","
","""event"",""trial"",""time""
""fullscreenenter"",""1"",""67989""
","
","","","281","","","23","3963","592","&#9776;","elianto","#3366ff99"," "," ","1","0","[1131]","1","0","1","","","","","","","",""
"pit-trial","34","476711","0.0-2.0-8.2-4.2","battery-v0.2","","""event"",""trial"",""time""
""fullscreenenter"",""1"",""67989""
","
","
","""event"",""trial"",""time""
""fullscreenenter"",""1"",""67989""
","
","","","358","","","23","3963","592","&#9776;","elianto","#3366ff99"," "," ","1","+10","[1209]","1","0","1","","","","","","","",""
"call-function","35","476750","0.0-2.0-9.0","battery-v0.2","","""event"",""trial"",""time""
""fullscreenenter"",""1"",""67989""
","
","
","""event"",""trial"",""time""
""fullscreenenter"",""1"",""67989""
","
","","","","","","","","","","","","","","","","","","","","","","","","","","",""
"pit-instructions","36","530515","0.0-2.0-10.0","battery-v0.2","","""event"",""trial"",""time""
""fullscreenenter"",""1"",""67989""
","
","
","""event"",""trial"",""time""
""fullscreenenter"",""1"",""67989""
","
","","[{""page_index"":0,""viewing_time"":9300},{""page_index"":1,""viewing_time"":9872},{""page_index"":2,""viewing_time"":10624},{""page_index"":3,""viewing_time"":10567.000000000058},{""page_index"":4,""viewing_time"":13400.999999999942}]","53764","","","","","","","","","","","","","","","","","","","","","","","",""
"pit-trial","37","534075","0.0-2.0-11.0-0.0","battery-v0.2","","""event"",""trial"",""time""
""fullscreenenter"",""1"",""67989""
","
","
","""event"",""trial"",""time""
""fullscreenenter"",""1"",""67989""
","
","","","669","","","23","3963","592","&#9761;","elianto","#3366ff99","-1"," ","0","0","[1520]","1","0","2","","","","","","","",""
"pit-trial","38","537334","0.0-2.0-11.0-1.0","battery-v0.2","","""event"",""trial"",""time""
""fullscreenenter"",""1"",""67989""
","
","
","""event"",""trial"",""time""
""fullscreenenter"",""1"",""67989""
","
","","","365","","","23","3963","592","&#9761;","elianto","#3366ff99","-1"," ","0","0","[1216]","1","0","2","","","","","","","",""
"pit-trial","39","540602","0.0-2.0-11.0-2.0","battery-v0.2","","""event"",""trial"",""time""
""fullscreenenter"",""1"",""67989""
","
","
","""event"",""trial"",""time""
""fullscreenenter"",""1"",""67989""
","
","","","374","","","23","3963","592","&#9761;","elianto","#3366ff99","-1"," ","0","0","[1226]","1","0","2","","","","","","","",""
"pit-trial","40","543842","0.0-2.0-11.0-3.0","battery-v0.2","","""event"",""trial"",""time""
""fullscreenenter"",""1"",""67989""
","
","
","""event"",""trial"",""time""
""fullscreenenter"",""1"",""67989""
","
","","","348","","","23","3963","592","&#9761;","elianto","#3366ff99","-1"," ","0","+10","[1197.9999999998836]","1","0","2","","","","","","","",""
"pit-trial","41","547035","0.0-2.0-11.0-4.0","battery-v0.2","","""event"",""trial"",""time""
""fullscreenenter"",""1"",""67989""
","
","
","""event"",""trial"",""time""
""fullscreenenter"",""1"",""67989""
","
","","","303","","","23","3963","592","&#9761;","elianto","#3366ff99","-1"," ","0","0","[1152]","1","0","2","","","","","","","",""
"pit-trial","42","550275","0.0-2.0-11.1-0.1","battery-v0.2","","""event"",""trial"",""time""
""fullscreenenter"",""1"",""67989""
","
","
","""event"",""trial"",""time""
""fullscreenenter"",""1"",""67989""
","
","","","348","","","23","3963","592","&#9761;","elianto","#3366ff99","-1"," ","0","0","[1197.9999999998836]","1","0","2","","","","","","","",""
"pit-trial","43","553515","0.0-2.0-11.1-1.1","battery-v0.2","","""event"",""trial"",""time""
""fullscreenenter"",""1"",""67989""
","
","
","""event"",""trial"",""time""
""fullscreenenter"",""1"",""67989""
","
","","","348","","","23","3963","592","&#9761;","elianto","#3366ff99","-1"," ","0","0","[1199]","1","0","2","","","","","","","",""
"pit-trial","44","556709","0.0-2.0-11.1-2.1","battery-v0.2","","""event"",""trial"",""time""
""fullscreenenter"",""1"",""67989""
","
","
","""event"",""trial"",""time""
""fullscreenenter"",""1"",""67989""
","
","","","298","","","23","3963","592","&#9761;","elianto","#3366ff99","-1"," ","0","0","[1149]","1","0","2","","","","","","","",""
"pit-trial","45","559949","0.0-2.0-11.1-3.1","battery-v0.2","","""event"",""trial"",""time""
""fullscreenenter"",""1"",""67989""
","
","
","""event"",""trial"",""time""
""fullscreenenter"",""1"",""67989""
","
","","","344","","","23","3963","592","&#9761;","elianto","#3366ff99","-1"," ","0","+10","[1195]","1","0","2","","","","","","","",""
"pit-trial","46","563194","0.0-2.0-11.1-4.1","battery-v0.2","","""event"",""trial"",""time""
""fullscreenenter"",""1"",""67989""
","
","
","""event"",""trial"",""time""
""fullscreenenter"",""1"",""67989""
","
","","","351","","","23","3963","592","&#9761;","elianto","#3366ff99","-1"," ","0","0","[1201]","1","0","2","","","","","","","",""
"pit-trial","47","566383","0.0-2.0-11.2-0.2","battery-v0.2","","""event"",""trial"",""time""
""fullscreenenter"",""1"",""67989""
","
","
","""event"",""trial"",""time""
""fullscreenenter"",""1"",""67989""
","
","","","297","","","23","3963","592","&#9761;","elianto","#3366ff99","-1"," ","0","0","[1148]","1","0","2","","","","","","","",""
"pit-trial","48","569574","0.0-2.0-11.2-1.2","battery-v0.2","","""event"",""trial"",""time""
""fullscreenenter"",""1"",""67989""
","
","
","""event"",""trial"",""time""
""fullscreenenter"",""1"",""67989""
","
","","","299","","","23","3963","592","&#9761;","elianto","#3366ff99","-1"," ","0","0","[1150]","1","0","2","","","","","","","",""
"pit-trial","49","572787","0.0-2.0-11.2-2.2","battery-v0.2","","""event"",""trial"",""time""
""fullscreenenter"",""1"",""67989""
","
","
","""event"",""trial"",""time""
""fullscreenenter"",""1"",""67989""
","
","","","323","","","23","3963","592","&#9761;","elianto","#3366ff99","-1"," ","0","0","[1173]","1","0","2","","","","","","","",""
"pit-trial","50","575971","0.0-2.0-11.2-3.2","battery-v0.2","","""event"",""trial"",""time""
""fullscreenenter"",""1"",""67989""
","
","
","""event"",""trial"",""time""
""fullscreenenter"",""1"",""67989""
","
","","","287.0000000001164","","","23","3963","592","&#9761;","elianto","#3366ff99","-1"," ","0","+10","[1138.0000000001164]","1","0","2","","","","","","","",""
"pit-trial","51","579238","0.0-2.0-11.2-4.2","battery-v0.2","","""event"",""trial"",""time""
""fullscreenenter"",""1"",""67989""
","
","
","""event"",""trial"",""time""
""fullscreenenter"",""1"",""67989""
","
","","","376","","","23","3963","592","&#9761;","elianto","#3366ff99","-1"," ","0","0","[1227]","1","0","2","","","","","","","",""
"pit-trial","52","582491","0.0-2.0-11.3-0.3","battery-v0.2","","""event"",""trial"",""time""
""fullscreenenter"",""1"",""67989""
","
","
","""event"",""trial"",""time""
""fullscreenenter"",""1"",""67989""
","
","","","362","","","23","3963","592","&#9761;","elianto","#3366ff99","-1"," ","0","0","[1212]","1","0","2","","","","","","","",""
"pit-trial","53","585666","0.0-2.0-11.3-1.3","battery-v0.2","","""event"",""trial"",""time""
""fullscreenenter"",""1"",""67989""
","
","
","""event"",""trial"",""time""
""fullscreenenter"",""1"",""67989""
","
","","","283","","","23","3963","592","&#9761;","elianto","#3366ff99","-1"," ","0","0","[1133]","1","0","2","","","","","","","",""
"pit-trial","54","588898","0.0-2.0-11.3-2.3","battery-v0.2","","""event"",""trial"",""time""
""fullscreenenter"",""1"",""67989""
","
","
","""event"",""trial"",""time""
""fullscreenenter"",""1"",""67989""
","
","","","339","","","23","3963","592","&#9761;","elianto","#3366ff99","-1"," ","0","0","[1190]","1","0","2","","","","","","","",""
"pit-trial","55","592117","0.0-2.0-11.3-3.3","battery-v0.2","","""event"",""trial"",""time""
""fullscreenenter"",""1"",""67989""
","
","
","""event"",""trial"",""time""
""fullscreenenter"",""1"",""67989""
","
","","","326","","","23","3963","592","&#9761;","elianto","#3366ff99","-1"," ","0","+10","[1175.9999999998836]","1","0","2","","","","","","","",""
"pit-trial","56","595330","0.0-2.0-11.3-4.3","battery-v0.2","","""event"",""trial"",""time""
""fullscreenenter"",""1"",""67989""
","
","
","""event"",""trial"",""time""
""fullscreenenter"",""1"",""67989""
","
","","","321","","","23","3963","592","&#9761;","elianto","#3366ff99","-1"," ","0","0","[1172]","1","0","2","","","","","","","",""
"call-function","57","595373","0.0-2.0-12.0","battery-v0.2","","""event"",""trial"",""time""
""fullscreenenter"",""1"",""67989""
","
","
","""event"",""trial"",""time""
""fullscreenenter"",""1"",""67989""
","
","","","","","","","","","","","","","","","","","","","","","","","","","","",""
"pit-instructions","58","628900","0.0-2.0-13.0","battery-v0.2","","""event"",""trial"",""time""
""fullscreenenter"",""1"",""67989""
","
","
","""event"",""trial"",""time""
""fullscreenenter"",""1"",""67989""
","
","","[{""page_index"":0,""viewing_time"":5412.999999999884},{""page_index"":1,""viewing_time"":7033},{""page_index"":2,""viewing_time"":3584},{""page_index"":3,""viewing_time"":11384},{""page_index"":4,""viewing_time"":6112}]","33525.99999999988","","","","","","","","","","","","","","","","","","","","","","","",""
"pit-trial","59","633792","0.0-2.0-14.0-0.0","battery-v0.2","","""event"",""trial"",""time""
""fullscreenenter"",""1"",""67989""
","
","
","""event"",""trial"",""time""
""fullscreenenter"",""1"",""67989""
","
","","","-1","","","23","3963","592","&#9826;","elianto","#f73b6a7A","-1","-1","1","0","[]","0","0","3","","","","","","","",""
"pit-trial","60","638684","0.0-2.0-14.0-1.0","battery-v0.2","","""event"",""trial"",""time""
""fullscreenenter"",""1"",""67989""
","
","
","""event"",""trial"",""time""
""fullscreenenter"",""1"",""67989""
","
","","","-1","","","23","3963","592","&#9826;","elianto","#f73b6a7A","-1","-1","1","0","[]","0","0","3","","","","","","","",""
"pit-trial","61","643578","0.0-2.0-14.0-2.0","battery-v0.2","","""event"",""trial"",""time""
""fullscreenenter"",""1"",""67989""
","
","
","""event"",""trial"",""time""
""fullscreenenter"",""1"",""67989""
","
","","","-1","","","23","3963","592","&#9826;","elianto","#f73b6a7A","-1","-1","1","0","[]","0","0","3","","","","","","","",""
"pit-trial","62","648474","0.0-2.0-14.0-3.0","battery-v0.2","","""event"",""trial"",""time""
""fullscreenenter"",""1"",""67989""
","
","
","""event"",""trial"",""time""
""fullscreenenter"",""1"",""67989""
","
","","","-1","","","23","3963","592","&#9826;","elianto","#f73b6a7A","-1","-1","1","-10","[]","0","0","3","","","","","","","",""
"pit-trial","63","651810","0.0-2.0-14.0-4.0","battery-v0.2","","""event"",""trial"",""time""
""fullscreenenter"",""1"",""67989""
","
","
","""event"",""trial"",""time""
""fullscreenenter"",""1"",""67989""
","
","","","443","","","23","3963","592","&#9826;","elianto","#f73b6a7A","-1"," ","0","-10","[1294]","1","0","3","","","","","","","",""
"pit-trial","64","656703","0.0-2.0-14.1-0.1","battery-v0.2","","""event"",""trial"",""time""
""fullscreenenter"",""1"",""67989""
","
","
","""event"",""trial"",""time""
""fullscreenenter"",""1"",""67989""
","
","","","-1","","","23","3963","592","&#9826;","elianto","#f73b6a7A","-1","-1","1","0","[]","0","0","3","","","","","","","",""
"pit-trial","65","661596","0.0-2.0-14.1-1.1","battery-v0.2","","""event"",""trial"",""time""
""fullscreenenter"",""1"",""67989""
","
","
","""event"",""trial"",""time""
""fullscreenenter"",""1"",""67989""
","
","","","-1","","","23","3963","592","&#9826;","elianto","#f73b6a7A","-1","-1","1","0","[]","0","0","3","","","","","","","",""
"pit-trial","66","666488","0.0-2.0-14.1-2.1","battery-v0.2","","""event"",""trial"",""time""
""fullscreenenter"",""1"",""67989""
","
","
","""event"",""trial"",""time""
""fullscreenenter"",""1"",""67989""
","
","","","-1","","","23","3963","592","&#9826;","elianto","#f73b6a7A","-1","-1","1","0","[]","0","0","3","","","","","","","",""
"pit-trial","67","671383","0.0-2.0-14.1-3.1","battery-v0.2","","""event"",""trial"",""time""
""fullscreenenter"",""1"",""67989""
","
","
","""event"",""trial"",""time""
""fullscreenenter"",""1"",""67989""
","
","","","-1","","","23","3963","592","&#9826;","elianto","#f73b6a7A","-1","-1","1","-10","[]","0","0","3","","","","","","","",""
"pit-trial","68","676276","0.0-2.0-14.1-4.1","battery-v0.2","","""event"",""trial"",""time""
""fullscreenenter"",""1"",""67989""
","
","
","""event"",""trial"",""time""
""fullscreenenter"",""1"",""67989""
","
","","","-1","","","23","3963","592","&#9826;","elianto","#f73b6a7A","-1","-1","1","0","[]","0","0","3","","","","","","","",""
"pit-trial","69","681170","0.0-2.0-14.2-0.2","battery-v0.2","","""event"",""trial"",""time""
""fullscreenenter"",""1"",""67989""
","
","
","""event"",""trial"",""time""
""fullscreenenter"",""1"",""67989""
","
","","","-1","","","23","3963","592","&#9826;","elianto","#f73b6a7A","-1","-1","1","0","[]","0","0","3","","","","","","","",""
"pit-trial","70","686064","0.0-2.0-14.2-1.2","battery-v0.2","","""event"",""trial"",""time""
""fullscreenenter"",""1"",""67989""
","
","
","""event"",""trial"",""time""
""fullscreenenter"",""1"",""67989""
","
","","","-1","","","23","3963","592","&#9826;","elianto","#f73b6a7A","-1","-1","1","0","[]","0","0","3","","","","","","","",""
"pit-trial","71","690959","0.0-2.0-14.2-2.2","battery-v0.2","","""event"",""trial"",""time""
""fullscreenenter"",""1"",""67989""
","
","
","""event"",""trial"",""time""
""fullscreenenter"",""1"",""67989""
","
","","","-1","","","23","3963","592","&#9826;","elianto","#f73b6a7A","-1","-1","1","0","[]","0","0","3","","","","","","","",""
"pit-trial","72","695853","0.0-2.0-14.2-3.2","battery-v0.2","","""event"",""trial"",""time""
""fullscreenenter"",""1"",""67989""
","
","
","""event"",""trial"",""time""
""fullscreenenter"",""1"",""67989""
","
","","","-1","","","23","3963","592","&#9826;","elianto","#f73b6a7A","-1","-1","1","-10","[]","0","0","3","","","","","","","",""
"pit-trial","73","700746","0.0-2.0-14.2-4.2","battery-v0.2","","""event"",""trial"",""time""
""fullscreenenter"",""1"",""67989""
","
","
","""event"",""trial"",""time""
""fullscreenenter"",""1"",""67989""
","
","","","-1","","","23","3963","592","&#9826;","elianto","#f73b6a7A","-1","-1","1","0","[]","0","0","3","","","","","","","",""
"pit-trial","74","705639","0.0-2.0-14.3-0.3","battery-v0.2","","""event"",""trial"",""time""
""fullscreenenter"",""1"",""67989""
","
","
","""event"",""trial"",""time""
""fullscreenenter"",""1"",""67989""
","
","","","-1","","","23","3963","592","&#9826;","elianto","#f73b6a7A","-1","-1","1","0","[]","0","0","3","","","","","","","",""
"pit-trial","75","710531","0.0-2.0-14.3-1.3","battery-v0.2","","""event"",""trial"",""time""
""fullscreenenter"",""1"",""67989""
","
","
","""event"",""trial"",""time""
""fullscreenenter"",""1"",""67989""
","
","","","-1","","","23","3963","592","&#9826;","elianto","#f73b6a7A","-1","-1","1","0","[]","0","0","3","","","","","","","",""
"pit-trial","76","715423","0.0-2.0-14.3-2.3","battery-v0.2","","""event"",""trial"",""time""
""fullscreenenter"",""1"",""67989""
","
","
","""event"",""trial"",""time""
""fullscreenenter"",""1"",""67989""
","
","","","-1","","","23","3963","592","&#9826;","elianto","#f73b6a7A","-1","-1","1","0","[]","0","0","3","","","","","","","",""
"pit-trial","77","720315","0.0-2.0-14.3-3.3","battery-v0.2","","""event"",""trial"",""time""
""fullscreenenter"",""1"",""67989""
","
","
","""event"",""trial"",""time""
""fullscreenenter"",""1"",""67989""
","
","","","-1","","","23","3963","592","&#9826;","elianto","#f73b6a7A","-1","-1","1","-10","[]","0","0","3","","","","","","","",""
"pit-trial","78","725207","0.0-2.0-14.3-4.3","battery-v0.2","","""event"",""trial"",""time""
""fullscreenenter"",""1"",""67989""
","
","
","""event"",""trial"",""time""
""fullscreenenter"",""1"",""67989""
","
","","","-1","","","23","3963","592","&#9826;","elianto","#f73b6a7A","-1","-1","1","0","[]","0","0","3","","","","","","","",""
"call-function","79","725250","0.0-2.0-15.0","battery-v0.2","","""event"",""trial"",""time""
""fullscreenenter"",""1"",""67989""
","
","
","""event"",""trial"",""time""
""fullscreenenter"",""1"",""67989""
","
","","","","","","","","","","","","","","","","","","","","","","","","","","",""
"pit-instructions","80","749932","0.0-2.0-16.0","battery-v0.2","","""event"",""trial"",""time""
""fullscreenenter"",""1"",""67989""
","
","
","""event"",""trial"",""time""
""fullscreenenter"",""1"",""67989""
","
","","[{""page_index"":0,""viewing_time"":6737.999999999884},{""page_index"":1,""viewing_time"":8328},{""page_index"":2,""viewing_time"":4225},{""page_index"":3,""viewing_time"":5391}]","24682.999999999884","","","","","","","","","","","","","","","","","","","","","","","",""
"pit-trial","81","754826","0.0-2.0-17.0-0.0","battery-v0.2","","""event"",""trial"",""time""
""fullscreenenter"",""1"",""67989""
","
","
","""event"",""trial"",""time""
""fullscreenenter"",""1"",""67989""
","
","","","-1","","","23","3963","592","&#9789;","elianto","#f73b6a7A"," ","-1","0","-10","[]","0","0","4","","","","","","","",""
"pit-trial","82","759721","0.0-2.0-17.0-1.0","battery-v0.2","","""event"",""trial"",""time""
""fullscreenenter"",""1"",""67989""
","
","
","""event"",""trial"",""time""
""fullscreenenter"",""1"",""67989""
","
","","","-1","","","23","3963","592","&#9789;","elianto","#f73b6a7A"," ","-1","0","-10","[]","0","0","4","","","","","","","",""
"pit-trial","83","763027","0.0-2.0-17.0-2.0","battery-v0.2","","""event"",""trial"",""time""
""fullscreenenter"",""1"",""67989""
","
","
","""event"",""trial"",""time""
""fullscreenenter"",""1"",""67989""
","
","","","413","","","23","3963","592","&#9789;","elianto","#f73b6a7A"," "," ","1","0","[1264]","1","0","4","","","","","","","",""
"pit-trial","84","766337","0.0-2.0-17.0-3.0","battery-v0.2","","""event"",""trial"",""time""
""fullscreenenter"",""1"",""67989""
","
","
","""event"",""trial"",""time""
""fullscreenenter"",""1"",""67989""
","
","","","417.9999999998836","","","23","3963","592","&#9789;","elianto","#f73b6a7A"," "," ","1","-10","[1267.9999999998836]","1","0","4","","","","","","","",""
"pit-trial","85","771229","0.0-2.0-17.0-4.0","battery-v0.2","","""event"",""trial"",""time""
""fullscreenenter"",""1"",""67989""
","
","
","""event"",""trial"",""time""
""fullscreenenter"",""1"",""67989""
","
","","","-1","","","23","3963","592","&#9789;","elianto","#f73b6a7A"," ","-1","0","-10","[]","0","0","4","","","","","","","",""
"pit-trial","86","774579","0.0-2.0-17.1-0.1","battery-v0.2","","""event"",""trial"",""time""
""fullscreenenter"",""1"",""67989""
","
","
","""event"",""trial"",""time""
""fullscreenenter"",""1"",""67989""
","
","","","457","","","23","3963","592","&#9789;","elianto","#f73b6a7A"," "," ","1","0","[1308]","1","0","4","","","","","","","",""
"pit-trial","87","777849","0.0-2.0-17.1-1.1","battery-v0.2","","""event"",""trial"",""time""
""fullscreenenter"",""1"",""67989""
","
","
","""event"",""trial"",""time""
""fullscreenenter"",""1"",""67989""
","
","","","375","","","23","3963","592","&#9789;","elianto","#f73b6a7A"," "," ","1","0","[1226]","1","0","4","","","","","","","",""
"pit-trial","88","781072","0.0-2.0-17.1-2.1","battery-v0.2","","""event"",""trial"",""time""
""fullscreenenter"",""1"",""67989""
","
","
","""event"",""trial"",""time""
""fullscreenenter"",""1"",""67989""
","
","","","329","","","23","3963","592","&#9789;","elianto","#f73b6a7A"," "," ","1","0","[1180]","1","0","4","","","","","","","",""
"pit-trial","89","784335","0.0-2.0-17.1-3.1","battery-v0.2","","""event"",""trial"",""time""
""fullscreenenter"",""1"",""67989""
","
","
","""event"",""trial"",""time""
""fullscreenenter"",""1"",""67989""
","
","","","369","","","23","3963","592","&#9789;","elianto","#f73b6a7A"," "," ","1","-10","[1218.9999999998836]","1","0","4","","","","","","","",""
"pit-trial","90","787614","0.0-2.0-17.1-4.1","battery-v0.2","","""event"",""trial"",""time""
""fullscreenenter"",""1"",""67989""
","
","
","""event"",""trial"",""time""
""fullscreenenter"",""1"",""67989""
","
","","","386.9999999998836","","","23","3963","592","&#9789;","elianto","#f73b6a7A"," "," ","1","0","[1239]","1","0","4","","","","","","","",""
"pit-trial","91","790899","0.0-2.0-17.2-0.2","battery-v0.2","","""event"",""trial"",""time""
""fullscreenenter"",""1"",""67989""
","
","
","""event"",""trial"",""time""
""fullscreenenter"",""1"",""67989""
","
","","","393","","","23","3963","592","&#9789;","elianto","#f73b6a7A"," "," ","1","0","[1244]","1","0","4","","","","","","","",""
"pit-trial","92","794174","0.0-2.0-17.2-1.2","battery-v0.2","","""event"",""trial"",""time""
""fullscreenenter"",""1"",""67989""
","
","
","""event"",""trial"",""time""
""fullscreenenter"",""1"",""67989""
","
","","","380","","","23","3963","592","&#9789;","elianto","#f73b6a7A"," "," ","1","0","[1230.0000000001164]","1","0","4","","","","","","","",""
"pit-trial","93","797421","0.0-2.0-17.2-2.2","battery-v0.2","","""event"",""trial"",""time""
""fullscreenenter"",""1"",""67989""
","
","
","""event"",""trial"",""time""
""fullscreenenter"",""1"",""67989""
","
","","","354","","","23","3963","592","&#9789;","elianto","#f73b6a7A"," "," ","1","0","[1206]","1","0","4","","","","","","","",""
"pit-trial","94","800662","0.0-2.0-17.2-3.2","battery-v0.2","","""event"",""trial"",""time""
""fullscreenenter"",""1"",""67989""
","
","
","""event"",""trial"",""time""
""fullscreenenter"",""1"",""67989""
","
","","","350","","","23","3963","592","&#9789;","elianto","#f73b6a7A"," "," ","1","-10","[1200]","1","0","4","","","","","","","",""
"pit-trial","95","803957","0.0-2.0-17.2-4.2","battery-v0.2","","""event"",""trial"",""time""
""fullscreenenter"",""1"",""67989""
","
","
","""event"",""trial"",""time""
""fullscreenenter"",""1"",""67989""
","
","","","404","","","23","3963","592","&#9789;","elianto","#f73b6a7A"," "," ","1","0","[1253.9999999998836]","1","0","4","","","","","","","",""
"pit-trial","96","807237","0.0-2.0-17.3-0.3","battery-v0.2","","""event"",""trial"",""time""
""fullscreenenter"",""1"",""67989""
","
","
","""event"",""trial"",""time""
""fullscreenenter"",""1"",""67989""
","
","","","388.9999999998836","","","23","3963","592","&#9789;","elianto","#f73b6a7A"," "," ","1","0","[1239]","1","0","4","","","","","","","",""
"pit-trial","97","810478","0.0-2.0-17.3-1.3","battery-v0.2","","""event"",""trial"",""time""
""fullscreenenter"",""1"",""67989""
","
","
","""event"",""trial"",""time""
""fullscreenenter"",""1"",""67989""
","
","","","351","","","23","3963","592","&#9789;","elianto","#f73b6a7A"," "," ","1","0","[1201]","1","0","4","","","","","","","",""
"pit-trial","98","813689","0.0-2.0-17.3-2.3","battery-v0.2","","""event"",""trial"",""time""
""fullscreenenter"",""1"",""67989""
","
","
","""event"",""trial"",""time""
""fullscreenenter"",""1"",""67989""
","
","","","321","","","23","3963","592","&#9789;","elianto","#f73b6a7A"," "," ","1","0","[1171]","1","0","4","","","","","","","",""
"pit-trial","99","816889","0.0-2.0-17.3-3.3","battery-v0.2","","""event"",""trial"",""time""
""fullscreenenter"",""1"",""67989""
","
","
","""event"",""trial"",""time""
""fullscreenenter"",""1"",""67989""
","
","","","309","","","23","3963","592","&#9789;","elianto","#f73b6a7A"," "," ","1","-10","[1160]","1","0","4","","","","","","","",""
"pit-trial","100","820070","0.0-2.0-17.3-4.3","battery-v0.2","","""event"",""trial"",""time""
""fullscreenenter"",""1"",""67989""
","
","
","""event"",""trial"",""time""
""fullscreenenter"",""1"",""67989""
","
","","","290","","","23","3963","592","&#9789;","elianto","#f73b6a7A"," "," ","1","0","[1141]","1","0","4","","","","","","","",""
"call-function","101","820111","0.0-2.0-18.0","battery-v0.2","","""event"",""trial"",""time""
""fullscreenenter"",""1"",""67989""
","
","
","""event"",""trial"",""time""
""fullscreenenter"",""1"",""67989""
","
","","","","","","","","","","","","","","","","","","","","","","","","","","",""
"pit-instructions","102","894062","0.0-2.0-19.0","battery-v0.2","","""event"",""trial"",""time""
""fullscreenenter"",""1"",""67989""
","
","
","""event"",""trial"",""time""
""fullscreenenter"",""1"",""67989""
","
","","[{""page_index"":0,""viewing_time"":6589},{""page_index"":1,""viewing_time"":6745},{""page_index"":2,""viewing_time"":13968.000000000116},{""page_index"":3,""viewing_time"":7440.999999999884},{""page_index"":4,""viewing_time"":8351},{""page_index"":5,""viewing_time"":9616},{""page_index"":6,""viewing_time"":10920},{""page_index"":7,""viewing_time"":5936},{""page_index"":8,""viewing_time"":4384}]","73950","","","","","","","","","","","","","","","","","","","","","","","",""
"pit-comprehension","103","898680","0.0-2.0-20.0-0.0","battery-v0.2","","""event"",""trial"",""time""
""fullscreenenter"",""1"",""67989""
","
","
","""event"",""trial"",""time""
""fullscreenenter"",""1"",""67989""
","
","","","4572","[""SPACE""]","0","23","3963","592","","","","","","","","","","","","","","","","","","",""
"pit-instructions","104","902502","0.0-2.0-20.0-1.0","battery-v0.2","","""event"",""trial"",""time""
""fullscreenenter"",""1"",""67989""
","
","
","""event"",""trial"",""time""
""fullscreenenter"",""1"",""67989""
","
","","[{""page_index"":0,""viewing_time"":3750.9999999998836}]","3750.9999999998836","","","","","","","","","","","","","","","","","","","","","","","",""
"pit-comprehension","105","909247","0.0-2.0-21.0-0.0","battery-v0.2","","""event"",""trial"",""time""
""fullscreenenter"",""1"",""67989""
","
","
","""event"",""trial"",""time""
""fullscreenenter"",""1"",""67989""
","
","","","6699.000000000116","[""10""]","0","23","3963","592","","","","","","","","","","","","","","","","","","",""
"pit-instructions","106","911158","0.0-2.0-21.0-1.0","battery-v0.2","","""event"",""trial"",""time""
""fullscreenenter"",""1"",""67989""
","
","
","""event"",""trial"",""time""
""fullscreenenter"",""1"",""67989""
","
","","[{""page_index"":0,""viewing_time"":1841}]","1841","","","","","","","","","","","","","","","","","","","","","","","",""
"pit-comprehension","107","919455","0.0-2.0-22.0-0.0","battery-v0.2","","""event"",""trial"",""time""
""fullscreenenter"",""1"",""67989""
","
","
","""event"",""trial"",""time""
""fullscreenenter"",""1"",""67989""
","
","","","8251.999999999884","[""0""]","0","23","3963","592","","","","","","","","","","","","","","","","","","",""
"pit-instructions","108","921382","0.0-2.0-22.0-1.0","battery-v0.2","","""event"",""trial"",""time""
""fullscreenenter"",""1"",""67989""
","
","
","""event"",""trial"",""time""
""fullscreenenter"",""1"",""67989""
","
","","[{""page_index"":0,""viewing_time"":1855}]","1855","","","","","","","","","","","","","","","","","","","","","","","",""
"pit-comprehension","109","932359","0.0-2.0-23.0-0.0","battery-v0.2","","""event"",""trial"",""time""
""fullscreenenter"",""1"",""67989""
","
","
","""event"",""trial"",""time""
""fullscreenenter"",""1"",""67989""
","
","","","10932","[""False""]","1","23","3963","592","","","","","","","","","","","","","","","","","","",""
"pit-instructions","110","934798","0.0-2.0-23.0-1.0","battery-v0.2","","""event"",""trial"",""time""
""fullscreenenter"",""1"",""67989""
","
","
","""event"",""trial"",""time""
""fullscreenenter"",""1"",""67989""
","
","","[{""page_index"":0,""viewing_time"":2365}]","2365","","","","","","","","","","","","","","","","","","","","","","","",""
"pit-instructions","111","936766","0.0-2.0-23.0-2.0-0.0","battery-v0.2","","""event"",""trial"",""time""
""fullscreenenter"",""1"",""67989""
","
","
","""event"",""trial"",""time""
""fullscreenenter"",""1"",""67989""
","
","","[{""page_index"":0,""viewing_time"":1928}]","1928","","","","","","","","","","","","","","","","","","","","","","","",""
"pit-comprehension","112","945623","0.0-2.0-23.1-0.1","battery-v0.2","","""event"",""trial"",""time""
""fullscreenenter"",""1"",""67989""
","
","
","""event"",""trial"",""time""
""fullscreenenter"",""1"",""67989""
","
","","","8816","[""True""]","0","23","3963","592","","","","","","","","","","","","","","","","","","",""
"pit-instructions","113","948030","0.0-2.0-23.1-1.1","battery-v0.2","","""event"",""trial"",""time""
""fullscreenenter"",""1"",""67989""
","
","
","""event"",""trial"",""time""
""fullscreenenter"",""1"",""67989""
","
","","[{""page_index"":0,""viewing_time"":2332}]","2333","","","","","","","","","","","","","","","","","","","","","","","",""
"pit-comprehension","114","955639","0.0-2.0-24.0-0.0","battery-v0.2","","""event"",""trial"",""time""
""fullscreenenter"",""1"",""67989""
","
","
","""event"",""trial"",""time""
""fullscreenenter"",""1"",""67989""
","
","","","7565.999999999884","[""True""]","0","23","3963","592","","","","","","","","","","","","","","","","","","",""
"pit-instructions","115","961319","0.0-2.0-24.0-1.0","battery-v0.2","","""event"",""trial"",""time""
""fullscreenenter"",""1"",""67989""
","
","
","""event"",""trial"",""time""
""fullscreenenter"",""1"",""67989""
","
","","[{""page_index"":0,""viewing_time"":5604.000000000116}]","5604.000000000116","","","","","","","","","","","","","","","","","","","","","","","",""
"pit-comprehension","116","967960","0.0-2.0-25.0-0.0","battery-v0.2","","""event"",""trial"",""time""
""fullscreenenter"",""1"",""67989""
","
","
","""event"",""trial"",""time""
""fullscreenenter"",""1"",""67989""
","
","","","6595","[""True""]","0","23","3963","592","","","","","","","","","","","","","","","","","","",""
"pit-instructions","117","969687","0.0-2.0-25.0-1.0","battery-v0.2","","""event"",""trial"",""time""
""fullscreenenter"",""1"",""67989""
","
","
","""event"",""trial"",""time""
""fullscreenenter"",""1"",""67989""
","
","","[{""page_index"":0,""viewing_time"":1649}]","1649","","","","","","","","","","","","","","","","","","","","","","","",""
"pit-comprehension","118","975025","0.0-2.0-26.0-0.0","battery-v0.2","","""event"",""trial"",""time""
""fullscreenenter"",""1"",""67989""
","
","
","""event"",""trial"",""time""
""fullscreenenter"",""1"",""67989""
","
","","","5293","[""False""]","0","23","3963","592","","","","","","","","","","","","","","","","","","",""
"pit-instructions","119","976759","0.0-2.0-26.0-1.0","battery-v0.2","","""event"",""trial"",""time""
""fullscreenenter"",""1"",""67989""
","
","
","""event"",""trial"",""time""
""fullscreenenter"",""1"",""67989""
","
","","[{""page_index"":0,""viewing_time"":1657}]","1657","","","","","","","","","","","","","","","","","","","","","","","",""
"pit-instructions","120","993656","0.0-3.0","battery-v0.2","","""event"",""trial"",""time""
""fullscreenenter"",""1"",""67989""
","
","
","""event"",""trial"",""time""
""fullscreenenter"",""1"",""67989""
","
","","[{""page_index"":0,""viewing_time"":3845},{""page_index"":1,""viewing_time"":5672.000000000116},{""page_index"":2,""viewing_time"":7336.999999999884}]","16854","","","","","","","","","","","","","","","","","","","","","","","",""
"pit-trial","121","997057","0.0-4.0","battery-v0.2","","""event"",""trial"",""time""
""fullscreenenter"",""1"",""67989""
","
","
","""event"",""trial"",""time""
""fullscreenenter"",""1"",""67989""
","
","","","501","","","23","3963","592","&#9730;","elianto","#3366ff99"," "," ","1","+10","[1352]","1","1","","","3963","1","1","1","win","go","0"
"pit-trial","122","1000511","0.0-5.0","battery-v0.2","","""event"",""trial"",""time""
""fullscreenenter"",""1"",""67989""
","
","
","""event"",""trial"",""time""
""fullscreenenter"",""1"",""67989""
","
","","","560.9999999998836","","","23","3963","592","&#9728;","elianto","#f73b6a7A","-1"," ","0","-10","[1411]","1","1","","","3963","2","0","4","lose","no-go","0"
"pit-trial","123","1003926","0.0-6.0","battery-v0.2","","""event"",""trial"",""time""
""fullscreenenter"",""1"",""67989""
","
","
","""event"",""trial"",""time""
""fullscreenenter"",""1"",""67989""
","
","","","522","","","23","3963","592","&#9752;","elianto","#f73b6a7A"," "," ","1","0","[1373]","1","1","","","3963","3","3","3","lose","go","0"
"pit-trial","124","1007302","0.0-7.0","battery-v0.2","","""event"",""trial"",""time""
""fullscreenenter"",""1"",""67989""
","
","
","""event"",""trial"",""time""
""fullscreenenter"",""1"",""67989""
","
","","","484","","","23","3963","592","&#9733;","elianto","#3366ff99","-1"," ","0","0","[1335]","1","1","","","3963","4","2","2","win","no-go","0"
"pit-trial","125","1010814","0.0-8.0","battery-v0.2","","""event"",""trial"",""time""
""fullscreenenter"",""1"",""67989""
","
","
","""event"",""trial"",""time""
""fullscreenenter"",""1"",""67989""
","
","","","620","","","23","3963","592","&#9733;","elianto","#3366ff99","-1"," ","0","0","[1471]","1","1","","","3963","5","2","2","win","no-go","0"
"pit-trial","126","1014292","0.0-9.0","battery-v0.2","","""event"",""trial"",""time""
""fullscreenenter"",""1"",""67989""
","
","
","""event"",""trial"",""time""
""fullscreenenter"",""1"",""67989""
","
","","","584.0000000001164","","","23","3963","592","&#9752;","elianto","#f73b6a7A"," "," ","1","0","[1435.0000000001164]","1","1","","","3963","6","3","3","lose","go","0"
"pit-trial","127","1019187","0.0-10.0","battery-v0.2","","""event"",""trial"",""time""
""fullscreenenter"",""1"",""67989""
","
","
","""event"",""trial"",""time""
""fullscreenenter"",""1"",""67989""
","
","","","-1","","","23","3963","592","&#9728;","elianto","#f73b6a7A","-1","-1","1","-10","[]","0","1","","","3963","7","0","4","lose","no-go","1"
"pit-trial","128","1022713","0.0-11.0","battery-v0.2","","""event"",""trial"",""time""
""fullscreenenter"",""1"",""67989""
","
","
","""event"",""trial"",""time""
""fullscreenenter"",""1"",""67989""
","
","","","632.0000000001164","","","23","3963","592","&#9730;","elianto","#3366ff99"," "," ","1","+10","[1482]","1","1","","","3963","8","1","1","win","go","0"
"pit-trial","129","1027607","0.0-12.0","battery-v0.2","","""event"",""trial"",""time""
""fullscreenenter"",""1"",""67989""
","
","
","""event"",""trial"",""time""
""fullscreenenter"",""1"",""67989""
","
","","","-1","","","23","3963","592","&#9733;","elianto","#3366ff99","-1","-1","1","+10","[]","0","1","","","3963","9","2","2","win","no-go","0"
"pit-trial","130","1032500","0.0-13.0","battery-v0.2","","""event"",""trial"",""time""
""fullscreenenter"",""1"",""67989""
","
","
","""event"",""trial"",""time""
""fullscreenenter"",""1"",""67989""
","
","","","-1","","","23","3963","592","&#9728;","elianto","#f73b6a7A","-1","-1","1","0","[]","0","1","","","3963","10","0","4","lose","no-go","0"
"pit-trial","131","1036224","0.0-14.0","battery-v0.2","","""event"",""trial"",""time""
""fullscreenenter"",""1"",""67989""
","
","
","""event"",""trial"",""time""
""fullscreenenter"",""1"",""67989""
","
","","","831.9999999998836","","","23","3963","592","&#9730;","elianto","#3366ff99"," "," ","1","+10","[1682]","1","1","","","3963","11","1","1","win","go","0"
"pit-trial","132","1039836","0.0-15.0","battery-v0.2","","""event"",""trial"",""time""
""fullscreenenter"",""1"",""67989""
","
","
","""event"",""trial"",""time""
""fullscreenenter"",""1"",""67989""
","
","","","718","","","23","3963","592","&#9752;","elianto","#f73b6a7A"," "," ","1","0","[1568.9999999998836]","1","1","","","3963","12","3","3","lose","go","0"
"pit-trial","133","1043489","0.0-16.0","battery-v0.2","","""event"",""trial"",""time""
""fullscreenenter"",""1"",""67989""
","
","
","""event"",""trial"",""time""
""fullscreenenter"",""1"",""67989""
","
","","","761.9999999998836","","","23","3963","592","&#9752;","elianto","#f73b6a7A"," "," ","1","0","[1613]","1","1","","","3963","13","3","3","lose","go","0"
"pit-trial","134","1046996","0.0-17.0","battery-v0.2","","""event"",""trial"",""time""
""fullscreenenter"",""1"",""67989""
","
","
","""event"",""trial"",""time""
""fullscreenenter"",""1"",""67989""
","
","","","614.9999999998836","","","23","3963","592","&#9733;","elianto","#3366ff99","-1"," ","0","0","[1466]","1","1","","","3963","14","2","2","win","no-go","0"
"pit-trial","135","1051891","0.0-18.0","battery-v0.2","","""event"",""trial"",""time""
""fullscreenenter"",""1"",""67989""
","
","
","""event"",""trial"",""time""
""fullscreenenter"",""1"",""67989""
","
","","","-1","","","23","3963","592","&#9728;","elianto","#f73b6a7A","-1","-1","1","0","[]","0","1","","","3963","15","0","4","lose","no-go","0"
"pit-trial","136","1055548","0.0-19.0","battery-v0.2","","""event"",""trial"",""time""
""fullscreenenter"",""1"",""67989""
","
","
","""event"",""trial"",""time""
""fullscreenenter"",""1"",""67989""
","
","","","765","","","23","3963","592","&#9730;","elianto","#3366ff99"," "," ","1","+10","[1616]","1","1","","","3963","16","1","1","win","go","0"
"pit-trial","137","1059137","0.0-20.0","battery-v0.2","","""event"",""trial"",""time""
""fullscreenenter"",""1"",""67989""
","
","
","""event"",""trial"",""time""
""fullscreenenter"",""1"",""67989""
","
","","","696","","","23","3963","592","&#9730;","elianto","#3366ff99"," "," ","1","0","[1547]","1","1","","","3963","17","1","1","win","go","1"
"pit-trial","138","1064029","0.0-21.0","battery-v0.2","","""event"",""trial"",""time""
""fullscreenenter"",""1"",""67989""
","
","
","""event"",""trial"",""time""
""fullscreenenter"",""1"",""67989""
","
","","","-1","","","23","3963","592","&#9733;","elianto","#3366ff99","-1","-1","1","0","[]","0","1","","","3963","18","2","2","win","no-go","1"
"pit-trial","139","1068924","0.0-22.0","battery-v0.2","","""event"",""trial"",""time""
""fullscreenenter"",""1"",""67989""
","
","
","""event"",""trial"",""time""
""fullscreenenter"",""1"",""67989""
","
","","","-1","","","23","3963","592","&#9728;","elianto","#f73b6a7A","-1","-1","1","0","[]","0","1","","","3963","19","0","4","lose","no-go","0"
"pit-trial","140","1072588","0.0-23.0","battery-v0.2","","""event"",""trial"",""time""
""fullscreenenter"",""1"",""67989""
","
","
","""event"",""trial"",""time""
""fullscreenenter"",""1"",""67989""
","
","","","770","","","23","3963","592","&#9752;","elianto","#f73b6a7A"," "," ","1","-10","[1621]","1","1","","","3963","20","3","3","lose","go","1"
"pit-instructions","141","1112128","0.0-24.0","battery-v0.2","","""event"",""trial"",""time""
""fullscreenenter"",""1"",""67989""
","
","
","""event"",""trial"",""time""
""fullscreenenter"",""1"",""67989""
","
","","[{""page_index"":0,""viewing_time"":32333},{""page_index"":1,""viewing_time"":7167}]","39500","","","","","","","","","","","","","","","","","","","","","","","",""
"pit-trial","142","1115649","0.0-25.0","battery-v0.2","","""event"",""trial"",""time""
""fullscreenenter"",""1"",""67989""
","
","
","""event"",""trial"",""time""
""fullscreenenter"",""1"",""67989""
","
","","","622.9999999997672","","","23","3963","592","u","elianto","#f73b6a7A"," "," ","1","0","[1474]","1","2","","","3963","21","0","3","lose","go","0"
"pit-trial","143","1119225","0.0-26.0","battery-v0.2","","""event"",""trial"",""time""
""fullscreenenter"",""1"",""67989""
","
","
","""event"",""trial"",""time""
""fullscreenenter"",""1"",""67989""
","
","","","685","","","23","3963","592","g","elianto","#f73b6a7A","-1"," ","0","0","[1536]","1","2","","","3963","22","3","4","lose","no-go","1"
"pit-trial","144","1122686","0.0-27.0","battery-v0.2","","""event"",""trial"",""time""
""fullscreenenter"",""1"",""67989""
","
","
","""event"",""trial"",""time""
""fullscreenenter"",""1"",""67989""
","
","","","567","","","23","3963","592","l","elianto","#3366ff99","-1"," ","0","0","[1418]","1","2","","","3963","23","1","2","win","no-go","0"
"pit-trial","145","1126439","0.0-28.0","battery-v0.2","","""event"",""trial"",""time""
""fullscreenenter"",""1"",""67989""
","
","
","""event"",""trial"",""time""
""fullscreenenter"",""1"",""67989""
","
","","","858","","","23","3963","592","a","elianto","#f73b6a7A"," "," ","1","-10","[1709]","1","2","","","3963","24","2","3","lose","go","1"
"pit-trial","146","1131335","0.0-29.0","battery-v0.2","","""event"",""trial"",""time""
""fullscreenenter"",""1"",""67989""
","
","
","""event"",""trial"",""time""
""fullscreenenter"",""1"",""67989""
","
","","","-1","","","23","3963","592","a","elianto","#f73b6a7A"," ","-1","0","-10","[]","0","2","","","3963","25","2","3","lose","go","0"
"pit-trial","147","1134980","0.0-30.0","battery-v0.2","","""event"",""trial"",""time""
""fullscreenenter"",""1"",""67989""
","
","
","""event"",""trial"",""time""
""fullscreenenter"",""1"",""67989""
","
","","","752","","","23","3963","592","u","elianto","#f73b6a7A"," "," ","1","-10","[1603]","1","2","","","3963","26","0","3","lose","go","1"
"pit-trial","148","1138784","0.0-31.0","battery-v0.2","","""event"",""trial"",""time""
""fullscreenenter"",""1"",""67989""
","
","
","""event"",""trial"",""time""
""fullscreenenter"",""1"",""67989""
","
","","","911","","","23","3963","592","l","elianto","#3366ff99","-1"," ","0","+10","[1762]","1","2","","","3963","27","1","2","win","no-go","1"
"pit-trial","149","1143676","0.0-32.0","battery-v0.2","","""event"",""trial"",""time""
""fullscreenenter"",""1"",""67989""
","
","
","""event"",""trial"",""time""
""fullscreenenter"",""1"",""67989""
","
","","","-1","","","23","3963","592","g","elianto","#f73b6a7A","-1","-1","1","0","[]","0","2","","","3963","28","3","4","lose","no-go","0"
"pit-trial","150","1148574","0.0-33.0","battery-v0.2","","""event"",""trial"",""time""
""fullscreenenter"",""1"",""67989""
","
","
","""event"",""trial"",""time""
""fullscreenenter"",""1"",""67989""
","
","","","-1","","","23","3963","592","u","elianto","#f73b6a7A"," ","-1","0","-10","[]","0","2","","","3963","29","0","3","lose","go","0"
"pit-trial","151","1152135","0.0-34.0","battery-v0.2","","""event"",""trial"",""time""
""fullscreenenter"",""1"",""67989""
","
","
","""event"",""trial"",""time""
""fullscreenenter"",""1"",""67989""
","
","","","665","","","23","3963","592","l","elianto","#3366ff99","-1"," ","0","0","[1516]","1","2","","","3963","30","1","2","win","no-go","0"
"pit-trial","152","1156073","0.0-35.0","battery-v0.2","","""event"",""trial"",""time""
""fullscreenenter"",""1"",""67989""
","
","
","""event"",""trial"",""time""
""fullscreenenter"",""1"",""67989""
","
","","","1043","","","23","3963","592","g","elianto","#f73b6a7A","-1"," ","0","-10","[1894]","1","2","","","3963","31","3","4","lose","no-go","0"
"pit-trial","153","1160972","0.0-36.0","battery-v0.2","","""event"",""trial"",""time""
""fullscreenenter"",""1"",""67989""
","
","
","""event"",""trial"",""time""
""fullscreenenter"",""1"",""67989""
","
","","","-1","","","23","3963","592","a","elianto","#f73b6a7A"," ","-1","0","-10","[]","0","2","","","3963","32","2","3","lose","go","0"
"pit-trial","154","1164579","0.0-37.0","battery-v0.2","","""event"",""trial"",""time""
""fullscreenenter"",""1"",""67989""
","
","
","""event"",""trial"",""time""
""fullscreenenter"",""1"",""67989""
","
","","","713","","","23","3963","592","u","elianto","#f73b6a7A"," "," ","1","0","[1563]","1","2","","","3963","33","0","3","lose","go","0"
"pit-trial","155","1168409","0.0-38.0","battery-v0.2","","""event"",""trial"",""time""
""fullscreenenter"",""1"",""67989""
","
","
","""event"",""trial"",""time""
""fullscreenenter"",""1"",""67989""
","
","","","936","","","23","3963","592","g","elianto","#f73b6a7A","-1"," ","0","0","[1785]","1","2","","","3963","34","3","4","lose","no-go","1"
"pit-trial","156","1171963","0.0-39.0","battery-v0.2","","""event"",""trial"",""time""
""fullscreenenter"",""1"",""67989""
","
","
","""event"",""trial"",""time""
""fullscreenenter"",""1"",""67989""
","
","","","657.9999999997672","","","23","3963","592","l","elianto","#3366ff99","-1"," ","0","0","[1508]","1","2","","","3963","35","1","2","win","no-go","0"
"pit-trial","157","1176856","0.0-40.0","battery-v0.2","","""event"",""trial"",""time""
""fullscreenenter"",""1"",""67989""
","
","
","""event"",""trial"",""time""
""fullscreenenter"",""1"",""67989""
","
","","","-1","","","23","3963","592","a","elianto","#f73b6a7A"," ","-1","0","-10","[3971]","1","2","","","3963","36","2","3","lose","go","0"
"pit-trial","158","1180562","0.0-41.0","battery-v0.2","","""event"",""trial"",""time""
""fullscreenenter"",""1"",""67989""
","
","
","""event"",""trial"",""time""
""fullscreenenter"",""1"",""67989""
","
","","","812","","","23","3963","592","a","elianto","#f73b6a7A"," "," ","1","-10","[1663]","1","2","","","3963","37","2","3","lose","go","1"
"pit-trial","159","1185455","0.0-42.0","battery-v0.2","","""event"",""trial"",""time""
""fullscreenenter"",""1"",""67989""
","
","
","""event"",""trial"",""time""
""fullscreenenter"",""1"",""67989""
","
","","","-1","","","23","3963","592","g","elianto","#f73b6a7A","-1","-1","1","0","[]","0","2","","","3963","38","3","4","lose","no-go","0"
"pit-trial","160","1190348","0.0-43.0","battery-v0.2","","""event"",""trial"",""time""
""fullscreenenter"",""1"",""67989""
","
","
","""event"",""trial"",""time""
""fullscreenenter"",""1"",""67989""
","
","","","-1","","","23","3963","592","u","elianto","#f73b6a7A"," ","-1","0","0","[]","0","2","","","3963","39","0","3","lose","go","1"
"pit-trial","161","1195242","0.0-44.0","battery-v0.2","","""event"",""trial"",""time""
""fullscreenenter"",""1"",""67989""
","
","
","""event"",""trial"",""time""
""fullscreenenter"",""1"",""67989""
","
","","","-1","","","23","3963","592","l","elianto","#3366ff99","-1","-1","1","+10","[]","0","2","","","3963","40","1","2","win","no-go","0"
"pit-trial","162","1200135","0.0-45.0","battery-v0.2","","""event"",""trial"",""time""
""fullscreenenter"",""1"",""67989""
","
","
","""event"",""trial"",""time""
""fullscreenenter"",""1"",""67989""
","
","","","-1","","","23","3963","592","g","elianto","#f73b6a7A","-1","-1","1","0","[]","0","2","","","3963","41","3","4","lose","no-go","0"
"pit-trial","163","1205030","0.0-46.0","battery-v0.2","","""event"",""trial"",""time""
""fullscreenenter"",""1"",""67989""
","
","
","""event"",""trial"",""time""
""fullscreenenter"",""1"",""67989""
","
","","","-1","","","23","3963","592","u","elianto","#f73b6a7A"," ","-1","0","-10","[]","0","2","","","3963","42","0","3","lose","go","0"
"pit-trial","164","1209925","0.0-47.0","battery-v0.2","","""event"",""trial"",""time""
""fullscreenenter"",""1"",""67989""
","
","
","""event"",""trial"",""time""
""fullscreenenter"",""1"",""67989""
","
","","","-1","","","23","3963","592","l","elianto","#3366ff99","-1","-1","1","+10","[]","0","2","","","3963","43","1","2","win","no-go","0"
"pit-trial","165","1214819","0.0-48.0","battery-v0.2","","""event"",""trial"",""time""
""fullscreenenter"",""1"",""67989""
","
","
","""event"",""trial"",""time""
""fullscreenenter"",""1"",""67989""
","
","","","-1","","","23","3963","592","a","elianto","#f73b6a7A"," ","-1","0","0","[]","0","2","","","3963","44","2","3","lose","go","1"
"pit-trial","166","1219712","0.0-49.0","battery-v0.2","","""event"",""trial"",""time""
""fullscreenenter"",""1"",""67989""
","
","
","""event"",""trial"",""time""
""fullscreenenter"",""1"",""67989""
","
","","","-1","","","23","3963","592","a","elianto","#f73b6a7A"," ","-1","0","0","[]","0","2","","","3963","45","2","3","lose","go","1"
"pit-trial","167","1224607","0.0-50.0","battery-v0.2","","""event"",""trial"",""time""
""fullscreenenter"",""1"",""67989""
","
","
","""event"",""trial"",""time""
""fullscreenenter"",""1"",""67989""
","
","","","-1","","","23","3963","592","u","elianto","#f73b6a7A"," ","-1","0","-10","[]","0","2","","","3963","46","0","3","lose","go","0"
"pit-trial","168","1229500","0.0-51.0","battery-v0.2","","""event"",""trial"",""time""
""fullscreenenter"",""1"",""67989""
","
","
","""event"",""trial"",""time""
""fullscreenenter"",""1"",""67989""
","
","","","-1","","","23","3963","592","l","elianto","#3366ff99","-1","-1","1","+10","[]","0","2","","","3963","47","1","2","win","no-go","0"
"pit-trial","169","1234397","0.0-52.0","battery-v0.2","","""event"",""trial"",""time""
""fullscreenenter"",""1"",""67989""
","
","
","""event"",""trial"",""time""
""fullscreenenter"",""1"",""67989""
","
","","","-1","","","23","3963","592","g","elianto","#f73b6a7A","-1","-1","1","0","[]","0","2","","","3963","48","3","4","lose","no-go","0"
"pit-trial","170","1239290","0.0-53.0","battery-v0.2","","""event"",""trial"",""time""
""fullscreenenter"",""1"",""67989""
","
","
","""event"",""trial"",""time""
""fullscreenenter"",""1"",""67989""
","
","","","-1","","","23","3963","592","g","elianto","#f73b6a7A","-1","-1","1","0","[]","0","2","","","3963","49","3","4","lose","no-go","0"
"pit-trial","171","1242694","0.0-54.0","battery-v0.2","","""event"",""trial"",""time""
""fullscreenenter"",""1"",""67989""
","
","
","""event"",""trial"",""time""
""fullscreenenter"",""1"",""67989""
","
","","","510","","","23","3963","592","u","elianto","#f73b6a7A"," "," ","1","0","[1361]","1","2","","","3963","50","0","3","lose","go","0"
"pit-trial","172","1247590","0.0-55.0","battery-v0.2","","""event"",""trial"",""time""
""fullscreenenter"",""1"",""67989""
","
","
","""event"",""trial"",""time""
""fullscreenenter"",""1"",""67989""
","
","","","-1","","","23","3963","592","l","elianto","#3366ff99","-1","-1","1","+10","[]","0","2","","","3963","51","1","2","win","no-go","0"
"pit-trial","173","1252486","0.0-56.0","battery-v0.2","","""event"",""trial"",""time""
""fullscreenenter"",""1"",""67989""
","
","
","""event"",""trial"",""time""
""fullscreenenter"",""1"",""67989""
","
","","","-1","","","23","3963","592","a","elianto","#f73b6a7A"," ","-1","0","-10","[]","0","2","","","3963","52","2","3","lose","go","0"
"pit-trial","174","1256848","0.0-57.0","battery-v0.2","","""event"",""trial"",""time""
""fullscreenenter"",""1"",""67989""
","
","
","""event"",""trial"",""time""
""fullscreenenter"",""1"",""67989""
","
","","","1470","","","23","3963","592","u","elianto","#f73b6a7A"," "," ","1","0","[2321]","1","2","","","3963","53","0","3","lose","go","0"
"pit-trial","175","1261744","0.0-58.0","battery-v0.2","","""event"",""trial"",""time""
""fullscreenenter"",""1"",""67989""
","
","
","""event"",""trial"",""time""
""fullscreenenter"",""1"",""67989""
","
","","","-1","","","23","3963","592","g","elianto","#f73b6a7A","-1","-1","1","0","[]","0","2","","","3963","54","3","4","lose","no-go","0"
"pit-trial","176","1266640","0.0-59.0","battery-v0.2","","""event"",""trial"",""time""
""fullscreenenter"",""1"",""67989""
","
","
","""event"",""trial"",""time""
""fullscreenenter"",""1"",""67989""
","
","","","-1","","","23","3963","592","a","elianto","#f73b6a7A"," ","-1","0","-10","[]","0","2","","","3963","55","2","3","lose","go","0"
"pit-trial","177","1271532","0.0-60.0","battery-v0.2","","""event"",""trial"",""time""
""fullscreenenter"",""1"",""67989""
","
","
","""event"",""trial"",""time""
""fullscreenenter"",""1"",""67989""
","
","","","-1","","","23","3963","592","l","elianto","#3366ff99","-1","-1","1","0","[]","0","2","","","3963","56","1","2","win","no-go","1"
"pit-trial","178","1275322","0.0-61.0","battery-v0.2","","""event"",""trial"",""time""
""fullscreenenter"",""1"",""67989""
","
","
","""event"",""trial"",""time""
""fullscreenenter"",""1"",""67989""
","
","","","897","","","23","3963","592","a","elianto","#f73b6a7A"," "," ","1","0","[1746.9999999997672]","1","2","","","3963","57","2","3","lose","go","0"
"pit-trial","179","1280216","0.0-62.0","battery-v0.2","","""event"",""trial"",""time""
""fullscreenenter"",""1"",""67989""
","
","
","""event"",""trial"",""time""
""fullscreenenter"",""1"",""67989""
","
","","","-1","","","23","3963","592","u","elianto","#f73b6a7A"," ","-1","0","-10","[]","0","2","","","3963","58","0","3","lose","go","0"
"pit-trial","180","1285112","0.0-63.0","battery-v0.2","","""event"",""trial"",""time""
""fullscreenenter"",""1"",""67989""
","
","
","""event"",""trial"",""time""
""fullscreenenter"",""1"",""67989""
","
","","","-1","","","23","3963","592","g","elianto","#f73b6a7A","-1","-1","1","0","[]","0","2","","","3963","59","3","4","lose","no-go","0"
"pit-trial","181","1289178","0.0-64.0","battery-v0.2","","""event"",""trial"",""time""
""fullscreenenter"",""1"",""67989""
","
","
","""event"",""trial"",""time""
""fullscreenenter"",""1"",""67989""
","
","","","1174","","","23","3963","592","p","elianto","#3366ff99"," "," ","1","+10","[2024]","1","2","","","3963","60","4","1","win","go","0"
"pit-trial","182","1294071","0.0-65.0","battery-v0.2","","""event"",""trial"",""time""
""fullscreenenter"",""1"",""67989""
","
","
","""event"",""trial"",""time""
""fullscreenenter"",""1"",""67989""
","
","","","-1","","","23","3963","592","g","elianto","#f73b6a7A","-1","-1","1","0","[]","0","2","","","3963","61","3","4","lose","no-go","0"
"pit-trial","183","1298966","0.0-66.0","battery-v0.2","","""event"",""trial"",""time""
""fullscreenenter"",""1"",""67989""
","
","
","""event"",""trial"",""time""
""fullscreenenter"",""1"",""67989""
","
","","","-1","","","23","3963","592","l","elianto","#3366ff99","-1","-1","1","+10","[]","0","2","","","3963","62","1","2","win","no-go","0"
"pit-trial","184","1302425","0.0-67.0","battery-v0.2","","""event"",""trial"",""time""
""fullscreenenter"",""1"",""67989""
","
","
","""event"",""trial"",""time""
""fullscreenenter"",""1"",""67989""
","
","","","567","","","23","3963","592","p","elianto","#3366ff99"," "," ","1","+10","[1416.9999999997672]","1","2","","","3963","63","4","1","win","go","0"
"pit-trial","185","1307319","0.0-68.0","battery-v0.2","","""event"",""trial"",""time""
""fullscreenenter"",""1"",""67989""
","
","
","""event"",""trial"",""time""
""fullscreenenter"",""1"",""67989""
","
","","","-1","","","23","3963","592","a","elianto","#f73b6a7A"," ","-1","0","-10","[]","0","2","","","3963","64","2","3","lose","go","0"
"pit-trial","186","1312211","0.0-69.0","battery-v0.2","","""event"",""trial"",""time""
""fullscreenenter"",""1"",""67989""
","
","
","""event"",""trial"",""time""
""fullscreenenter"",""1"",""67989""
","
","","","-1","","","23","3963","592","l","elianto","#3366ff99","-1","-1","1","0","[]","0","2","","","3963","65","1","2","win","no-go","1"
"pit-trial","187","1315935","0.0-70.0","battery-v0.2","","""event"",""trial"",""time""
""fullscreenenter"",""1"",""67989""
","
","
","""event"",""trial"",""time""
""fullscreenenter"",""1"",""67989""
","
","","","828","","","23","3963","592","p","elianto","#3366ff99"," "," ","1","+10","[1678]","1","2","","","3963","66","4","1","win","go","0"
"pit-trial","188","1320830","0.0-71.0","battery-v0.2","","""event"",""trial"",""time""
""fullscreenenter"",""1"",""67989""
","
","
","""event"",""trial"",""time""
""fullscreenenter"",""1"",""67989""
","
","","","-1","","","23","3963","592","g","elianto","#f73b6a7A","-1","-1","1","0","[]","0","2","","","3963","67","3","4","lose","no-go","0"
"pit-trial","189","1324517","0.0-72.0","battery-v0.2","","""event"",""trial"",""time""
""fullscreenenter"",""1"",""67989""
","
","
","""event"",""trial"",""time""
""fullscreenenter"",""1"",""67989""
","
","","","793","","","23","3963","592","s","elianto","#3366ff99","-1"," ","0","0","[1643.9999999997672]","1","2","","","3963","68","5","2","win","no-go","0"
"pit-trial","190","1328140","0.0-73.0","battery-v0.2","","""event"",""trial"",""time""
""fullscreenenter"",""1"",""67989""
","
","
","""event"",""trial"",""time""
""fullscreenenter"",""1"",""67989""
","
","","","726","","","23","3963","592","l","elianto","#3366ff99","-1"," ","0","0","[1577]","1","2","","","3963","69","1","2","win","no-go","0"
"pit-trial","191","1331933","0.0-74.0","battery-v0.2","","""event"",""trial"",""time""
""fullscreenenter"",""1"",""67989""
","
","
","""event"",""trial"",""time""
""fullscreenenter"",""1"",""67989""
","
","","","900","","","23","3963","592","a","elianto","#f73b6a7A"," "," ","1","0","[1750.9999999997672]","1","2","","","3963","70","2","3","lose","go","0"
"pit-trial","192","1335671","0.0-75.0","battery-v0.2","","""event"",""trial"",""time""
""fullscreenenter"",""1"",""67989""
","
","
","""event"",""trial"",""time""
""fullscreenenter"",""1"",""67989""
","
","","","844","","","23","3963","592","s","elianto","#3366ff99","-1"," ","0","0","[1694]","1","2","","","3963","71","5","2","win","no-go","0"
"pit-trial","193","1339322","0.0-76.0","battery-v0.2","","""event"",""trial"",""time""
""fullscreenenter"",""1"",""67989""
","
","
","""event"",""trial"",""time""
""fullscreenenter"",""1"",""67989""
","
","","","757","","","23","3963","592","p","elianto","#3366ff99"," "," ","1","0","[1608]","1","2","","","3963","72","4","1","win","go","1"
"pit-trial","194","1344215","0.0-77.0","battery-v0.2","","""event"",""trial"",""time""
""fullscreenenter"",""1"",""67989""
","
","
","""event"",""trial"",""time""
""fullscreenenter"",""1"",""67989""
","
","","","-1","","","23","3963","592","l","elianto","#3366ff99","-1","-1","1","+10","[]","0","2","","","3963","73","1","2","win","no-go","0"
"pit-trial","195","1349109","0.0-78.0","battery-v0.2","","""event"",""trial"",""time""
""fullscreenenter"",""1"",""67989""
","
","
","""event"",""trial"",""time""
""fullscreenenter"",""1"",""67989""
","
","","","-1","","","23","3963","592","g","elianto","#f73b6a7A","-1","-1","1","0","[]","0","2","","","3963","74","3","4","lose","no-go","0"
"pit-trial","196","1353189","0.0-79.0","battery-v0.2","","""event"",""trial"",""time""
""fullscreenenter"",""1"",""67989""
","
","
","""event"",""trial"",""time""
""fullscreenenter"",""1"",""67989""
","
","","","1188","","","23","3963","592","p","elianto","#3366ff99"," "," ","1","0","[2039]","1","2","","","3963","75","4","1","win","go","1"
"pit-trial","197","1358083","0.0-80.0","battery-v0.2","","""event"",""trial"",""time""
""fullscreenenter"",""1"",""67989""
","
","
","""event"",""trial"",""time""
""fullscreenenter"",""1"",""67989""
","
","","","-1","","","23","3963","592","s","elianto","#3366ff99","-1","-1","1","+10","[]","0","2","","","3963","76","5","2","win","no-go","0"
"pit-trial","198","1361917","0.0-81.0","battery-v0.2","","""event"",""trial"",""time""
""fullscreenenter"",""1"",""67989""
","
","
","""event"",""trial"",""time""
""fullscreenenter"",""1"",""67989""
","
","","","941","","","23","3963","592","p","elianto","#3366ff99"," "," ","1","+10","[1791]","1","2","","","3963","77","4","1","win","go","0"
"pit-trial","199","1365869","0.0-82.0","battery-v0.2","","""event"",""trial"",""time""
""fullscreenenter"",""1"",""67989""
","
","
","""event"",""trial"",""time""
""fullscreenenter"",""1"",""67989""
","
","","","1058","","","23","3963","592","p","elianto","#3366ff99"," "," ","1","+10","[1907.9999999997672]","1","2","","","3963","78","4","1","win","go","0"
"pit-trial","200","1370762","0.0-83.0","battery-v0.2","","""event"",""trial"",""time""
""fullscreenenter"",""1"",""67989""
","
","
","""event"",""trial"",""time""
""fullscreenenter"",""1"",""67989""
","
","","","-1","","","23","3963","592","g","elianto","#f73b6a7A","-1","-1","1","0","[]","0","2","","","3963","79","3","4","lose","no-go","0"
"pit-trial","201","1375657","0.0-84.0","battery-v0.2","","""event"",""trial"",""time""
""fullscreenenter"",""1"",""67989""
","
","
","""event"",""trial"",""time""
""fullscreenenter"",""1"",""67989""
","
","","","-1","","","23","3963","592","s","elianto","#3366ff99","-1","-1","1","+10","[]","0","2","","","3963","80","5","2","win","no-go","0"
"pit-trial","202","1379901","0.0-85.0","battery-v0.2","","""event"",""trial"",""time""
""fullscreenenter"",""1"",""67989""
","
","
","""event"",""trial"",""time""
""fullscreenenter"",""1"",""67989""
","
","","","1348","","","23","3963","592","e","elianto","#f73b6a7A","-1"," ","0","-10","[2198]","1","2","","","3963","81","7","4","lose","no-go","0"
"pit-trial","203","1384794","0.0-86.0","battery-v0.2","","""event"",""trial"",""time""
""fullscreenenter"",""1"",""67989""
","
","
","""event"",""trial"",""time""
""fullscreenenter"",""1"",""67989""
","
","","","-1","","","23","3963","592","g","elianto","#f73b6a7A","-1","-1","1","0","[]","0","2","","","3963","82","3","4","lose","no-go","0"
"pit-trial","204","1389689","0.0-87.0","battery-v0.2","","""event"",""trial"",""time""
""fullscreenenter"",""1"",""67989""
","
","
","""event"",""trial"",""time""
""fullscreenenter"",""1"",""67989""
","
","","","-1","","","23","3963","592","s","elianto","#3366ff99","-1","-1","1","+10","[]","0","2","","","3963","83","5","2","win","no-go","0"
"pit-trial","205","1393493","0.0-88.0","battery-v0.2","","""event"",""trial"",""time""
""fullscreenenter"",""1"",""67989""
","
","
","""event"",""trial"",""time""
""fullscreenenter"",""1"",""67989""
","
","","","909","","","23","3963","592","p","elianto","#3366ff99"," "," ","1","0","[1760]","1","2","","","3963","84","4","1","win","go","1"
"pit-trial","206","1398387","0.0-89.0","battery-v0.2","","""event"",""trial"",""time""
""fullscreenenter"",""1"",""67989""
","
","
","""event"",""trial"",""time""
""fullscreenenter"",""1"",""67989""
","
","","","-1","","","23","3963","592","e","elianto","#f73b6a7A","-1","-1","1","0","[]","0","2","","","3963","85","7","4","lose","no-go","0"
"pit-trial","207","1403281","0.0-90.0","battery-v0.2","","""event"",""trial"",""time""
""fullscreenenter"",""1"",""67989""
","
","
","""event"",""trial"",""time""
""fullscreenenter"",""1"",""67989""
","
","","","-1","","","23","3963","592","s","elianto","#3366ff99","-1","-1","1","+10","[]","0","2","","","3963","86","5","2","win","no-go","0"
"pit-trial","208","1408175","0.0-91.0","battery-v0.2","","""event"",""trial"",""time""
""fullscreenenter"",""1"",""67989""
","
","
","""event"",""trial"",""time""
""fullscreenenter"",""1"",""67989""
","
","","","-1","","","23","3963","592","w","elianto","#f73b6a7A"," ","-1","0","-10","[]","0","2","","","3963","87","6","3","lose","go","0"
"pit-trial","209","1412436","0.0-92.0","battery-v0.2","","""event"",""trial"",""time""
""fullscreenenter"",""1"",""67989""
","
","
","""event"",""trial"",""time""
""fullscreenenter"",""1"",""67989""
","
","","","1366","","","23","3963","592","p","elianto","#3366ff99"," "," ","1","+10","[2217]","1","2","","","3963","88","4","1","win","go","0"
"pit-trial","210","1417329","0.0-93.0","battery-v0.2","","""event"",""trial"",""time""
""fullscreenenter"",""1"",""67989""
","
","
","""event"",""trial"",""time""
""fullscreenenter"",""1"",""67989""
","
","","","-1","","","23","3963","592","s","elianto","#3366ff99","-1","-1","1","+10","[]","0","2","","","3963","89","5","2","win","no-go","0"
"pit-trial","211","1422225","0.0-94.0","battery-v0.2","","""event"",""trial"",""time""
""fullscreenenter"",""1"",""67989""
","
","
","""event"",""trial"",""time""
""fullscreenenter"",""1"",""67989""
","
","","","-1","","","23","3963","592","e","elianto","#f73b6a7A","-1","-1","1","0","[]","0","2","","","3963","90","7","4","lose","no-go","0"
"pit-trial","212","1425672","0.0-95.0","battery-v0.2","","""event"",""trial"",""time""
""fullscreenenter"",""1"",""67989""
","
","
","""event"",""trial"",""time""
""fullscreenenter"",""1"",""67989""
","
","","","552.0000000002328","","","23","3963","592","w","elianto","#f73b6a7A"," "," ","1","0","[1403]","1","2","","","3963","91","6","3","lose","go","0"
"pit-trial","213","1429791","0.0-96.0","battery-v0.2","","""event"",""trial"",""time""
""fullscreenenter"",""1"",""67989""
","
","
","""event"",""trial"",""time""
""fullscreenenter"",""1"",""67989""
","
","","","1225","","","23","3963","592","p","elianto","#3366ff99"," "," ","1","+10","[2076]","1","2","","","3963","92","4","1","win","go","0"
"pit-trial","214","1434686","0.0-97.0","battery-v0.2","","""event"",""trial"",""time""
""fullscreenenter"",""1"",""67989""
","
","
","""event"",""trial"",""time""
""fullscreenenter"",""1"",""67989""
","
","","","-1","","","23","3963","592","e","elianto","#f73b6a7A","-1","-1","1","-10","[]","0","2","","","3963","93","7","4","lose","no-go","1"
"pit-trial","215","1438459","0.0-98.0","battery-v0.2","","""event"",""trial"",""time""
""fullscreenenter"",""1"",""67989""
","
","
","""event"",""trial"",""time""
""fullscreenenter"",""1"",""67989""
","
","","","879","","","23","3963","592","d","elianto","#3366ff99"," "," ","1","+10","[1730]","1","2","","","3963","94","8","1","win","go","0"
"pit-trial","216","1442202","0.0-99.0","battery-v0.2","","""event"",""trial"",""time""
""fullscreenenter"",""1"",""67989""
","
","
","""event"",""trial"",""time""
""fullscreenenter"",""1"",""67989""
","
","","","850","","","23","3963","592","w","elianto","#f73b6a7A"," "," ","1","0","[1700]","1","2","","","3963","95","6","3","lose","go","0"
"pit-trial","217","1447096","0.0-100.0","battery-v0.2","","""event"",""trial"",""time""
""fullscreenenter"",""1"",""67989""
","
","
","""event"",""trial"",""time""
""fullscreenenter"",""1"",""67989""
","
","","","-1","","","23","3963","592","s","elianto","#3366ff99","-1","-1","1","+10","[]","0","2","","","3963","96","5","2","win","no-go","0"
"pit-trial","218","1451988","0.0-101.0","battery-v0.2","","""event"",""trial"",""time""
""fullscreenenter"",""1"",""67989""
","
","
","""event"",""trial"",""time""
""fullscreenenter"",""1"",""67989""
","
","","","-1","","","23","3963","592","s","elianto","#3366ff99","-1","-1","1","+10","[]","0","2","","","3963","97","5","2","win","no-go","0"
"pit-trial","219","1456882","0.0-102.0","battery-v0.2","","""event"",""trial"",""time""
""fullscreenenter"",""1"",""67989""
","
","
","""event"",""trial"",""time""
""fullscreenenter"",""1"",""67989""
","
","","","-1","","","23","3963","592","e","elianto","#f73b6a7A","-1","-1","1","0","[]","0","2","","","3963","98","7","4","lose","no-go","0"
"pit-trial","220","1460365","0.0-103.0","battery-v0.2","","""event"",""trial"",""time""
""fullscreenenter"",""1"",""67989""
","
","
","""event"",""trial"",""time""
""fullscreenenter"",""1"",""67989""
","
","","","588","","","23","3963","592","w","elianto","#f73b6a7A"," "," ","1","-10","[1438]","1","2","","","3963","99","6","3","lose","go","1"
"pit-trial","221","1464189","0.0-104.0","battery-v0.2","","""event"",""trial"",""time""
""fullscreenenter"",""1"",""67989""
","
","
","""event"",""trial"",""time""
""fullscreenenter"",""1"",""67989""
","
","","","930","","","23","3963","592","d","elianto","#3366ff99"," "," ","1","+10","[1780]","1","2","","","3963","100","8","1","win","go","0"
"pit-trial","222","1469082","0.0-105.0","battery-v0.2","","""event"",""trial"",""time""
""fullscreenenter"",""1"",""67989""
","
","
","""event"",""trial"",""time""
""fullscreenenter"",""1"",""67989""
","
","","","-1","","","23","3963","592","e","elianto","#f73b6a7A","-1","-1","1","0","[]","0","2","","","3963","101","7","4","lose","no-go","0"
"pit-trial","223","1472873","0.0-106.0","battery-v0.2","","""event"",""trial"",""time""
""fullscreenenter"",""1"",""67989""
","
","
","""event"",""trial"",""time""
""fullscreenenter"",""1"",""67989""
","
","","","898","","","23","3963","592","j","elianto","#3366ff99"," "," ","1","+10","[1748]","1","2","","","3963","102","9","1","win","go","0"
"pit-trial","224","1476525","0.0-107.0","battery-v0.2","","""event"",""trial"",""time""
""fullscreenenter"",""1"",""67989""
","
","
","""event"",""trial"",""time""
""fullscreenenter"",""1"",""67989""
","
","","","757","","","23","3963","592","s","elianto","#3366ff99","-1"," ","0","0","[1608]","1","2","","","3963","103","5","2","win","no-go","0"
"pit-trial","225","1480244","0.0-108.0","battery-v0.2","","""event"",""trial"",""time""
""fullscreenenter"",""1"",""67989""
","
","
","""event"",""trial"",""time""
""fullscreenenter"",""1"",""67989""
","
","","","821.9999999997672","","","23","3963","592","d","elianto","#3366ff99"," "," ","1","+10","[1672]","1","2","","","3963","104","8","1","win","go","0"
"pit-trial","226","1483812","0.0-109.0","battery-v0.2","","""event"",""trial"",""time""
""fullscreenenter"",""1"",""67989""
","
","
","""event"",""trial"",""time""
""fullscreenenter"",""1"",""67989""
","
","","","675","","","23","3963","592","j","elianto","#3366ff99"," "," ","1","+10","[1525]","1","2","","","3963","105","9","1","win","go","0"
"pit-trial","227","1487410","0.0-110.0","battery-v0.2","","""event"",""trial"",""time""
""fullscreenenter"",""1"",""67989""
","
","
","""event"",""trial"",""time""
""fullscreenenter"",""1"",""67989""
","
","","","706","","","23","3963","592","p","elianto","#3366ff99"," "," ","1","+10","[1556]","1","2","","","3963","106","4","1","win","go","0"
"pit-trial","228","1491520","0.0-111.0","battery-v0.2","","""event"",""trial"",""time""
""fullscreenenter"",""1"",""67989""
","
","
","""event"",""trial"",""time""
""fullscreenenter"",""1"",""67989""
","
","","","1216.0000000002328","","","23","3963","592","w","elianto","#f73b6a7A"," "," ","1","-10","[2067.000000000233]","1","2","","","3963","107","6","3","lose","go","1"
"pit-trial","229","1495098","0.0-112.0","battery-v0.2","","""event"",""trial"",""time""
""fullscreenenter"",""1"",""67989""
","
","
","""event"",""trial"",""time""
""fullscreenenter"",""1"",""67989""
","
","","","686","","","23","3963","592","d","elianto","#3366ff99"," "," ","1","+10","[1537]","1","2","","","3963","108","8","1","win","go","0"
"pit-trial","230","1498612","0.0-113.0","battery-v0.2","","""event"",""trial"",""time""
""fullscreenenter"",""1"",""67989""
","
","
","""event"",""trial"",""time""
""fullscreenenter"",""1"",""67989""
","
","","","617","","","23","3963","592","s","elianto","#3366ff99","-1"," ","0","0","[1467.9999999997672]","1","2","","","3963","109","5","2","win","no-go","0"
"pit-trial","231","1502410","0.0-114.0","battery-v0.2","","""event"",""trial"",""time""
""fullscreenenter"",""1"",""67989""
","
","
","""event"",""trial"",""time""
""fullscreenenter"",""1"",""67989""
","
","","","899.9999999997672","","","23","3963","592","w","elianto","#f73b6a7A"," "," ","1","-10","[1752]","1","2","","","3963","110","6","3","lose","go","1"
"pit-trial","232","1506026","0.0-115.0","battery-v0.2","","""event"",""trial"",""time""
""fullscreenenter"",""1"",""67989""
","
","
","""event"",""trial"",""time""
""fullscreenenter"",""1"",""67989""
","
","","","721","","","23","3963","592","j","elianto","#3366ff99"," "," ","1","+10","[1571]","1","2","","","3963","111","9","1","win","go","0"
"pit-trial","233","1509513","0.0-116.0","battery-v0.2","","""event"",""trial"",""time""
""fullscreenenter"",""1"",""67989""
","
","
","""event"",""trial"",""time""
""fullscreenenter"",""1"",""67989""
","
","","","594","","","23","3963","592","d","elianto","#3366ff99"," "," ","1","+10","[1445.9999999997672]","1","2","","","3963","112","8","1","win","go","0"
"pit-trial","234","1512968","0.0-117.0","battery-v0.2","","""event"",""trial"",""time""
""fullscreenenter"",""1"",""67989""
","
","
","""event"",""trial"",""time""
""fullscreenenter"",""1"",""67989""
","
","","","561","","","23","3963","592","s","elianto","#3366ff99","-1"," ","0","0","[1412]","1","2","","","3963","113","5","2","win","no-go","0"
"pit-trial","235","1516512","0.0-118.0","battery-v0.2","","""event"",""trial"",""time""
""fullscreenenter"",""1"",""67989""
","
","
","""event"",""trial"",""time""
""fullscreenenter"",""1"",""67989""
","
","","","651","","","23","3963","592","d","elianto","#3366ff99"," "," ","1","+10","[1501]","1","2","","","3963","114","8","1","win","go","0"
"pit-trial","236","1520122","0.0-119.0","battery-v0.2","","""event"",""trial"",""time""
""fullscreenenter"",""1"",""67989""
","
","
","""event"",""trial"",""time""
""fullscreenenter"",""1"",""67989""
","
","","","717","","","23","3963","592","j","elianto","#3366ff99"," "," ","1","+10","[1568]","1","2","","","3963","115","9","1","win","go","0"
"pit-trial","237","1525017","0.0-120.0","battery-v0.2","","""event"",""trial"",""time""
""fullscreenenter"",""1"",""67989""
","
","
","""event"",""trial"",""time""
""fullscreenenter"",""1"",""67989""
","
","","","-1","","","23","3963","592","w","elianto","#f73b6a7A"," ","-1","0","-10","[]","0","2","","","3963","116","6","3","lose","go","0"
"pit-trial","238","1528535","0.0-121.0","battery-v0.2","","""event"",""trial"",""time""
""fullscreenenter"",""1"",""67989""
","
","
","""event"",""trial"",""time""
""fullscreenenter"",""1"",""67989""
","
","","","627","","","23","3963","592","s","elianto","#3366ff99","-1"," ","0","0","[1477]","1","2","","","3963","117","5","2","win","no-go","0"
"pit-trial","239","1532060","0.0-122.0","battery-v0.2","","""event"",""trial"",""time""
""fullscreenenter"",""1"",""67989""
","
","
","""event"",""trial"",""time""
""fullscreenenter"",""1"",""67989""
","
","","","630","","","23","3963","592","j","elianto","#3366ff99"," "," ","1","+10","[1480]","1","2","","","3963","118","9","1","win","go","0"
"pit-trial","240","1536954","0.0-123.0","battery-v0.2","","""event"",""trial"",""time""
""fullscreenenter"",""1"",""67989""
","
","
","""event"",""trial"",""time""
""fullscreenenter"",""1"",""67989""
","
","","","-1","","","23","3963","592","w","elianto","#f73b6a7A"," ","-1","0","-10","[]","0","2","","","3963","119","6","3","lose","go","0"
"pit-trial","241","1540492","0.0-124.0","battery-v0.2","","""event"",""trial"",""time""
""fullscreenenter"",""1"",""67989""
","
","
","""event"",""trial"",""time""
""fullscreenenter"",""1"",""67989""
","
","","","645","","","23","3963","592","d","elianto","#3366ff99"," "," ","1","0","[1495.0000000002328]","1","2","","","3963","120","8","1","win","go","1"
"pit-trial","242","1544066","0.0-125.0","battery-v0.2","","""event"",""trial"",""time""
""fullscreenenter"",""1"",""67989""
","
","
","""event"",""trial"",""time""
""fullscreenenter"",""1"",""67989""
","
","","","679.0000000002328","","","23","3963","592","j","elianto","#3366ff99"," "," ","1","+10","[1530.0000000002328]","1","2","","","3963","121","9","1","win","go","0"
"pit-trial","243","1547846","0.0-126.0","battery-v0.2","","""event"",""trial"",""time""
""fullscreenenter"",""1"",""67989""
","
","
","""event"",""trial"",""time""
""fullscreenenter"",""1"",""67989""
","
","","","888.0000000002328","","","23","3963","592","e","elianto","#f73b6a7A","-1"," ","0","-10","[1738.0000000002328]","1","2","","","3963","122","7","4","lose","no-go","0"
"pit-trial","244","1551599","0.0-127.0","battery-v0.2","","""event"",""trial"",""time""
""fullscreenenter"",""1"",""67989""
","
","
","""event"",""trial"",""time""
""fullscreenenter"",""1"",""67989""
","
","","","859","","","23","3963","592","w","elianto","#f73b6a7A"," "," ","1","0","[1709]","1","2","","","3963","123","6","3","lose","go","0"
"pit-trial","245","1555103","0.0-128.0","battery-v0.2","","""event"",""trial"",""time""
""fullscreenenter"",""1"",""67989""
","
","
","""event"",""trial"",""time""
""fullscreenenter"",""1"",""67989""
","
","","","609","","","23","3963","592","d","elianto","#3366ff99"," "," ","1","+10","[1458.9999999997672]","1","2","","","3963","124","8","1","win","go","0"
"pit-trial","246","1558775","0.0-129.0","battery-v0.2","","""event"",""trial"",""time""
""fullscreenenter"",""1"",""67989""
","
","
","""event"",""trial"",""time""
""fullscreenenter"",""1"",""67989""
","
","","","779","","","23","3963","592","w","elianto","#f73b6a7A"," "," ","1","0","[1629.9999999997672]","1","2","","","3963","125","6","3","lose","go","0"
"pit-trial","247","1562284","0.0-130.0","battery-v0.2","","""event"",""trial"",""time""
""fullscreenenter"",""1"",""67989""
","
","
","""event"",""trial"",""time""
""fullscreenenter"",""1"",""67989""
","
","","","613","","","23","3963","592","d","elianto","#3366ff99"," "," ","1","+10","[1464]","1","2","","","3963","126","8","1","win","go","0"
"pit-trial","248","1565832","0.0-131.0","battery-v0.2","","""event"",""trial"",""time""
""fullscreenenter"",""1"",""67989""
","
","
","""event"",""trial"",""time""
""fullscreenenter"",""1"",""67989""
","
","","","655","","","23","3963","592","j","elianto","#3366ff99"," "," ","1","0","[1505]","1","2","","","3963","127","9","1","win","go","1"
"pit-trial","249","1570724","0.0-132.0","battery-v0.2","","""event"",""trial"",""time""
""fullscreenenter"",""1"",""67989""
","
","
","""event"",""trial"",""time""
""fullscreenenter"",""1"",""67989""
","
","","","-1","","","23","3963","592","e","elianto","#f73b6a7A","-1","-1","1","0","[]","0","2","","","3963","128","7","4","lose","no-go","0"
"pit-trial","250","1574221","0.0-133.0","battery-v0.2","","""event"",""trial"",""time""
""fullscreenenter"",""1"",""67989""
","
","
","""event"",""trial"",""time""
""fullscreenenter"",""1"",""67989""
","
","","","603.0000000002328","","","23","3963","592","w","elianto","#f73b6a7A"," "," ","1","0","[1454.0000000002328]","1","2","","","3963","129","6","3","lose","go","0"
"pit-trial","251","1577698","0.0-134.0","battery-v0.2","","""event"",""trial"",""time""
""fullscreenenter"",""1"",""67989""
","
","
","""event"",""trial"",""time""
""fullscreenenter"",""1"",""67989""
","
","","","585","","","23","3963","592","j","elianto","#3366ff99"," "," ","1","+10","[1435]","1","2","","","3963","130","9","1","win","go","0"
"pit-trial","252","1582590","0.0-135.0","battery-v0.2","","""event"",""trial"",""time""
""fullscreenenter"",""1"",""67989""
","
","
","""event"",""trial"",""time""
""fullscreenenter"",""1"",""67989""
","
","","","-1","","","23","3963","592","d","elianto","#3366ff99"," ","-1","0","0","[]","0","2","","","3963","131","8","1","win","go","0"
"pit-trial","253","1587484","0.0-136.0","battery-v0.2","","""event"",""trial"",""time""
""fullscreenenter"",""1"",""67989""
","
","
","""event"",""trial"",""time""
""fullscreenenter"",""1"",""67989""
","
","","","-1","","","23","3963","592","e","elianto","#f73b6a7A","-1","-1","1","0","[]","0","2","","","3963","132","7","4","lose","no-go","0"
"pit-trial","254","1592376","0.0-137.0","battery-v0.2","","""event"",""trial"",""time""
""fullscreenenter"",""1"",""67989""
","
","
","""event"",""trial"",""time""
""fullscreenenter"",""1"",""67989""
","
","","","-1","","","23","3963","592","e","elianto","#f73b6a7A","-1","-1","1","0","[]","0","2","","","3963","133","7","4","lose","no-go","0"
"pit-trial","255","1596075","0.0-138.0","battery-v0.2","","""event"",""trial"",""time""
""fullscreenenter"",""1"",""67989""
","
","
","""event"",""trial"",""time""
""fullscreenenter"",""1"",""67989""
","
","","","806","","","23","3963","592","w","elianto","#f73b6a7A"," "," ","1","0","[1657]","1","2","","","3963","134","6","3","lose","go","0"
"pit-trial","256","1599890","0.0-139.0","battery-v0.2","","""event"",""trial"",""time""
""fullscreenenter"",""1"",""67989""
","
","
","""event"",""trial"",""time""
""fullscreenenter"",""1"",""67989""
","
","","","920","","","23","3963","592","j","elianto","#3366ff99"," "," ","1","+10","[1771]","1","2","","","3963","135","9","1","win","go","0"
"pit-trial","257","1603623","0.0-140.0","battery-v0.2","","""event"",""trial"",""time""
""fullscreenenter"",""1"",""67989""
","
","
","""event"",""trial"",""time""
""fullscreenenter"",""1"",""67989""
","
","","","841","","","23","3963","592","d","elianto","#3366ff99"," "," ","1","+10","[1692]","1","2","","","3963","136","8","1","win","go","0"
"pit-trial","258","1607267","0.0-141.0","battery-v0.2","","""event"",""trial"",""time""
""fullscreenenter"",""1"",""67989""
","
","
","""event"",""trial"",""time""
""fullscreenenter"",""1"",""67989""
","
","","","750","","","23","3963","592","d","elianto","#3366ff99"," "," ","1","+10","[1600]","1","2","","","3963","137","8","1","win","go","0"
"pit-trial","259","1610757","0.0-142.0","battery-v0.2","","""event"",""trial"",""time""
""fullscreenenter"",""1"",""67989""
","
","
","""event"",""trial"",""time""
""fullscreenenter"",""1"",""67989""
","
","","","597","","","23","3963","592","j","elianto","#3366ff99"," "," ","1","+10","[1447.9999999997672]","1","2","","","3963","138","9","1","win","go","0"
"pit-trial","260","1615651","0.0-143.0","battery-v0.2","","""event"",""trial"",""time""
""fullscreenenter"",""1"",""67989""
","
","
","""event"",""trial"",""time""
""fullscreenenter"",""1"",""67989""
","
","","","-1","","","23","3963","592","e","elianto","#f73b6a7A","-1","-1","1","0","[]","0","2","","","3963","139","7","4","lose","no-go","0"
"pit-trial","261","1619384","0.0-144.0","battery-v0.2","","""event"",""trial"",""time""
""fullscreenenter"",""1"",""67989""
","
","
","""event"",""trial"",""time""
""fullscreenenter"",""1"",""67989""
","
","","","842","","","23","3963","592","w","elianto","#f73b6a7A"," "," ","1","0","[1693]","1","2","","","3963","140","6","3","lose","go","0"
"pit-instructions","262","1695461","0.0-145.0","battery-v0.2","","""event"",""trial"",""time""
""fullscreenenter"",""1"",""67989""
","
","
","""event"",""trial"",""time""
""fullscreenenter"",""1"",""67989""
","
","","[{""page_index"":0,""viewing_time"":6014},{""page_index"":1,""viewing_time"":70016}]","76031","","","","","","","","","","","","","","","","","","","","","","","",""
"pit-trial","263","1700357","0.0-146.0","battery-v0.2","","""event"",""trial"",""time""
""fullscreenenter"",""1"",""67989""
","
","
","""event"",""trial"",""time""
""fullscreenenter"",""1"",""67989""
","
","","","-1","","","23","3963","592","t","elianto","#f73b6a7A","-1","-1","1","-10","[]","0","3","","","3963","141","2","4","lose","no-go","1"
"pit-trial","264","1703955","0.0-147.0","battery-v0.2","","""event"",""trial"",""time""
""fullscreenenter"",""1"",""67989""
","
","
","""event"",""trial"",""time""
""fullscreenenter"",""1"",""67989""
","
","","","704","","","23","3963","592","f","elianto","#3366ff99"," "," ","1","+10","[1555]","1","3","","","3963","142","1","1","win","go","0"
"pit-trial","265","1707460","0.0-148.0","battery-v0.2","","""event"",""trial"",""time""
""fullscreenenter"",""1"",""67989""
","
","
","""event"",""trial"",""time""
""fullscreenenter"",""1"",""67989""
","
","","","615","","","23","3963","592","b","elianto","#f73b6a7A"," "," ","1","0","[1465]","1","3","","","3963","143","3","3","lose","go","0"
"pit-trial","266","1710842","0.0-149.0","battery-v0.2","","""event"",""trial"",""time""
""fullscreenenter"",""1"",""67989""
","
","
","""event"",""trial"",""time""
""fullscreenenter"",""1"",""67989""
","
","","","489","","","23","3963","592","n","elianto","#f73b6a7A","-1"," ","0","-10","[1339.9999999997672]","1","3","","","3963","144","0","4","lose","no-go","0"
"pit-trial","267","1714421","0.0-150.0","battery-v0.2","","""event"",""trial"",""time""
""fullscreenenter"",""1"",""67989""
","
","
","""event"",""trial"",""time""
""fullscreenenter"",""1"",""67989""
","
","","","686","","","23","3963","592","f","elianto","#3366ff99"," "," ","1","+10","[1536]","1","3","","","3963","145","1","1","win","go","0"
"pit-trial","268","1719315","0.0-151.0","battery-v0.2","","""event"",""trial"",""time""
""fullscreenenter"",""1"",""67989""
","
","
","""event"",""trial"",""time""
""fullscreenenter"",""1"",""67989""
","
","","","-1","","","23","3963","592","t","elianto","#f73b6a7A","-1","-1","1","-10","[]","0","3","","","3963","146","2","4","lose","no-go","1"
"pit-trial","269","1724207","0.0-152.0","battery-v0.2","","""event"",""trial"",""time""
""fullscreenenter"",""1"",""67989""
","
","
","""event"",""trial"",""time""
""fullscreenenter"",""1"",""67989""
","
","","","-1","","","23","3963","592","b","elianto","#f73b6a7A"," ","-1","0","-10","[]","0","3","","","3963","147","3","3","lose","go","0"
"pit-trial","270","1728017","0.0-153.0","battery-v0.2","","""event"",""trial"",""time""
""fullscreenenter"",""1"",""67989""
","
","
","""event"",""trial"",""time""
""fullscreenenter"",""1"",""67989""
","
","","","917","","","23","3963","592","n","elianto","#f73b6a7A","-1"," ","0","-10","[1767]","1","3","","","3963","148","0","4","lose","no-go","0"
"pit-trial","271","1731470","0.0-154.0","battery-v0.2","","""event"",""trial"",""time""
""fullscreenenter"",""1"",""67989""
","
","
","""event"",""trial"",""time""
""fullscreenenter"",""1"",""67989""
","
","","","553.9999999997672","","","23","3963","592","t","elianto","#f73b6a7A","-1"," ","0","-10","[1404]","1","3","","","3963","149","2","4","lose","no-go","0"
"pit-trial","272","1735016","0.0-155.0","battery-v0.2","","""event"",""trial"",""time""
""fullscreenenter"",""1"",""67989""
","
","
","""event"",""trial"",""time""
""fullscreenenter"",""1"",""67989""
","
","","","655","","","23","3963","592","f","elianto","#3366ff99"," "," ","1","+10","[1506]","1","3","","","3963","150","1","1","win","go","0"
"pit-trial","273","1739910","0.0-156.0","battery-v0.2","","""event"",""trial"",""time""
""fullscreenenter"",""1"",""67989""
","
","
","""event"",""trial"",""time""
""fullscreenenter"",""1"",""67989""
","
","","","-1","","","23","3963","592","n","elianto","#f73b6a7A","-1","-1","1","0","[]","0","3","","","3963","151","0","4","lose","no-go","0"
"pit-trial","274","1744804","0.0-157.0","battery-v0.2","","""event"",""trial"",""time""
""fullscreenenter"",""1"",""67989""
","
","
","""event"",""trial"",""time""
""fullscreenenter"",""1"",""67989""
","
","","","-1","","","23","3963","592","b","elianto","#f73b6a7A"," ","-1","0","-10","[]","0","3","","","3963","152","3","3","lose","go","0"
"pit-trial","275","1748387","0.0-158.0","battery-v0.2","","""event"",""trial"",""time""
""fullscreenenter"",""1"",""67989""
","
","
