"trial_type","trial_index","time_elapsed","internal_node_id","task_version","subject_id","interactions","blur_events","focus_events","fullscreenenter_events","fullscreenexit_events","success","view_history","rt","responses","num_errors","age","subject","participantId","rune","rune_set","hex","correct","choice","accuracy","outcome","keys","total_keys","block","practice","value","sub","trial","stimulus","robot","valence","action","sham"
"pavlovia","0","7","0.0-0.0","battery-v0.2","","""event"",""trial"",""time""
""fullscreenenter"",""1"",""11411""
","
","
","""event"",""trial"",""time""
""fullscreenenter"",""1"",""11411""
","
","","","","","","","","","","","","","","","","","","","","","","","","","","",""
"fullscreen","1","12388","0.0-1.0","battery-v0.2","","""event"",""trial"",""time""
""fullscreenenter"",""1"",""11411""
","
","
","""event"",""trial"",""time""
""fullscreenenter"",""1"",""11411""
","
","true","","","","","","","","","","","","","","","","","","","","","","","","","",""
"pit-instructions","2","32269","0.0-2.0-0.0","battery-v0.2","","""event"",""trial"",""time""
""fullscreenenter"",""1"",""11411""
","
","
","""event"",""trial"",""time""
""fullscreenenter"",""1"",""11411""
","
","","[{""page_index"":0,""viewing_time"":19876.199999999255}]","19876.699999999255","","","","","","","","","","","","","","","","","","","","","","","",""
"pit-comprehension","3","35602","0.0-2.0-1.0-0.0","battery-v0.2","","""event"",""trial"",""time""
""fullscreenenter"",""1"",""11411""
","
","
","""event"",""trial"",""time""
""fullscreenenter"",""1"",""11411""
","
","","","3329.39999999851","[""shark""]","0","23","20583","7510","","","","","","","","","","","","","","","","","","",""
"pit-instructions","4","37385","0.0-2.0-1.0-1.0","battery-v0.2","","""event"",""trial"",""time""
""fullscreenenter"",""1"",""11411""
","
","
","""event"",""trial"",""time""
""fullscreenenter"",""1"",""11411""
","
","","[{""page_index"":0,""viewing_time"":1773.6000000014901}]","1774","","","","","","","","","","","","","","","","","","","","","","","",""
"pit-comprehension","5","40753","0.0-2.0-2.0-0.0","battery-v0.2","","""event"",""trial"",""time""
""fullscreenenter"",""1"",""11411""
","
","
","""event"",""trial"",""time""
""fullscreenenter"",""1"",""11411""
","
","","","3364.10000000149","[""tiger""]","0","23","20583","7510","","","","","","","","","","","","","","","","","","",""
"pit-instructions","6","41836","0.0-2.0-2.0-1.0","battery-v0.2","","""event"",""trial"",""time""
""fullscreenenter"",""1"",""11411""
","
","
","""event"",""trial"",""time""
""fullscreenenter"",""1"",""11411""
","
","","[{""page_index"":0,""viewing_time"":1079}]","1079.3999999985099","","","","","","","","","","","","","","","","","","","","","","","",""
"pit-instructions","7","183826","0.0-2.0-3.0","battery-v0.2","","""event"",""trial"",""time""
""fullscreenenter"",""1"",""11411""
","
","
","""event"",""trial"",""time""
""fullscreenenter"",""1"",""11411""
","
","","[{""page_index"":0,""viewing_time"":10163.10000000149},{""page_index"":1,""viewing_time"":20632.199999999255},{""page_index"":2,""viewing_time"":8300.699999999255},{""page_index"":3,""viewing_time"":5533.60000000149},{""page_index"":4,""viewing_time"":5999.699999999255},{""page_index"":5,""viewing_time"":7016.699999999255},{""page_index"":6,""viewing_time"":30766.300000000745},{""page_index"":7,""viewing_time"":8300},{""page_index"":8,""viewing_time"":6583.10000000149},{""page_index"":9,""viewing_time"":12249.89999999851},{""page_index"":10,""viewing_time"":7966.39999999851},{""page_index"":11,""viewing_time"":7100.20000000298},{""page_index"":12,""viewing_time"":6492.39999999851},{""page_index"":13,""viewing_time"":4886.699999999255}]","141991.80000000075","","","","","","","","","","","","","","","","","","","","","","","",""
"pit-trial","8","187130","0.0-2.0-4.0-0.0","battery-v0.2","","""event"",""trial"",""time""
""fullscreenenter"",""1"",""11411""
","
","
","""event"",""trial"",""time""
""fullscreenenter"",""1"",""11411""
","
","","","447.79999999701977","","","23","20583","7510","&#9784;","elianto","#FFFFF080"," "," ","1","&#10004","[1299.3999999985099]","1","0","0","","","","","","","",""
"pit-trial","9","191986","0.0-2.0-4.1-0.1","battery-v0.2","","""event"",""trial"",""time""
""fullscreenenter"",""1"",""11411""
","
","
","""event"",""trial"",""time""
""fullscreenenter"",""1"",""11411""
","
","","","-1","","","23","20583","7510","&#9784;","elianto","#FFFFF080"," ","-1","0","&#10060","[]","0","0","0","","","","","","","",""
"pit-trial","10","196842","0.0-2.0-4.2-0.2","battery-v0.2","","""event"",""trial"",""time""
""fullscreenenter"",""1"",""11411""
","
","
","""event"",""trial"",""time""
""fullscreenenter"",""1"",""11411""
","
","","","-1","","","23","20583","7510","&#9784;","elianto","#FFFFF080"," ","-1","0","&#10060","[]","0","0","0","","","","","","","",""
"pit-trial","11","201406","0.0-2.0-4.3-0.3","battery-v0.2","","""event"",""trial"",""time""
""fullscreenenter"",""1"",""11411""
","
","
","""event"",""trial"",""time""
""fullscreenenter"",""1"",""11411""
","
","","","1707.4000000022352","","","23","20583","7510","&#9784;","elianto","#FFFFF080"," "," ","1","&#10004","[2558.800000000745]","1","0","0","","","","","","","",""
"pit-trial","12","204695","0.0-2.0-4.4-0.4","battery-v0.2","","""event"",""trial"",""time""
""fullscreenenter"",""1"",""11411""
","
","
","""event"",""trial"",""time""
""fullscreenenter"",""1"",""11411""
","
","","","433.5","","","23","20583","7510","&#9784;","elianto","#FFFFF080"," "," ","1","&#10004","[1284.7999999970198]","1","0","0","","","","","","","",""
"pit-trial","13","207944","0.0-2.0-4.5-0.5","battery-v0.2","","""event"",""trial"",""time""
""fullscreenenter"",""1"",""11411""
","
","
","""event"",""trial"",""time""
""fullscreenenter"",""1"",""11411""
","
","","","393.5","","","23","20583","7510","&#9784;","elianto","#FFFFF080"," "," ","1","&#10004","[1244.5]","1","0","0","","","","","","","",""
"pit-instructions","14","231711","0.0-2.0-5.0","battery-v0.2","","""event"",""trial"",""time""
""fullscreenenter"",""1"",""11411""
","
","
","""event"",""trial"",""time""
""fullscreenenter"",""1"",""11411""
","
","","[{""page_index"":0,""viewing_time"":5044.70000000298},{""page_index"":1,""viewing_time"":7034.199999999255},{""page_index"":2,""viewing_time"":5666.800000000745},{""page_index"":3,""viewing_time"":6016.599999997765}]","23762.800000000745","","","","","","","","","","","","","","","","","","","","","","","",""
"pit-trial","15","236567","0.0-2.0-6.0-0.0","battery-v0.2","","""event"",""trial"",""time""
""fullscreenenter"",""1"",""11411""
","
","
","""event"",""trial"",""time""
""fullscreenenter"",""1"",""11411""
","
","","","-1","","","23","20583","7510","&#9854;","elianto","#FFFFF080","-1","-1","1","&#10004","[]","0","0","1","","","","","","","",""
"pit-trial","16","241423","0.0-2.0-6.1-0.1","battery-v0.2","","""event"",""trial"",""time""
""fullscreenenter"",""1"",""11411""
","
","
","""event"",""trial"",""time""
""fullscreenenter"",""1"",""11411""
","
","","","-1","","","23","20583","7510","&#9854;","elianto","#FFFFF080","-1","-1","1","&#10004","[]","0","0","1","","","","","","","",""
"pit-trial","17","246280","0.0-2.0-6.2-0.2","battery-v0.2","","""event"",""trial"",""time""
""fullscreenenter"",""1"",""11411""
","
","
","""event"",""trial"",""time""
""fullscreenenter"",""1"",""11411""
","
","","","-1","","","23","20583","7510","&#9854;","elianto","#FFFFF080","-1","-1","1","&#10004","[]","0","0","1","","","","","","","",""
"pit-trial","18","251136","0.0-2.0-6.3-0.3","battery-v0.2","","""event"",""trial"",""time""
""fullscreenenter"",""1"",""11411""
","
","
","""event"",""trial"",""time""
""fullscreenenter"",""1"",""11411""
","
","","","-1","","","23","20583","7510","&#9854;","elianto","#FFFFF080","-1","-1","1","&#10004","[]","0","0","1","","","","","","","",""
"pit-trial","19","255990","0.0-2.0-6.4-0.4","battery-v0.2","","""event"",""trial"",""time""
""fullscreenenter"",""1"",""11411""
","
","
","""event"",""trial"",""time""
""fullscreenenter"",""1"",""11411""
","
","","","-1","","","23","20583","7510","&#9854;","elianto","#FFFFF080","-1","-1","1","&#10004","[]","0","0","1","","","","","","","",""
"pit-instructions","20","524128","0.0-2.0-7.0","battery-v0.2","","""event"",""trial"",""time""
""fullscreenenter"",""1"",""11411""
","
","
","""event"",""trial"",""time""
""fullscreenenter"",""1"",""11411""
","
","","[{""page_index"":0,""viewing_time"":6384.10000000149},{""page_index"":1,""viewing_time"":8000},{""page_index"":2,""viewing_time"":7400},{""page_index"":3,""viewing_time"":6500.300000000745},{""page_index"":4,""viewing_time"":5549.699999999255},{""page_index"":5,""viewing_time"":5483.39999999851},{""page_index"":6,""viewing_time"":6050},{""page_index"":7,""viewing_time"":34782.900000002235},{""page_index"":8,""viewing_time"":8483},{""page_index"":9,""viewing_time"":6266.29999999702},{""page_index"":10,""viewing_time"":6017.300000000745},{""page_index"":11,""viewing_time"":66916},{""page_index"":12,""viewing_time"":14766.699999999255},{""page_index"":13,""viewing_time"":33816},{""page_index"":14,""viewing_time"":22599.70000000298},{""page_index"":15,""viewing_time"":14752.599999997765},{""page_index"":16,""viewing_time"":6913.900000002235},{""page_index"":17,""viewing_time"":7450.099999997765}]","268132.6000000015","","","","","","","","","","","","","","","","","","","","","","","",""
"pit-trial","21","527557","0.0-2.0-8.0-0.0","battery-v0.2","","""event"",""trial"",""time""
""fullscreenenter"",""1"",""11411""
","
","
","""event"",""trial"",""time""
""fullscreenenter"",""1"",""11411""
","
","","","574.3999999985099","","","23","20583","7510","&#9776;","elianto","#3366ff99"," "," ","1","+10","[1424.7999999970198]","1","0","1","","","","","","","",""
"pit-trial","22","530804","0.0-2.0-8.0-1.0","battery-v0.2","","""event"",""trial"",""time""
""fullscreenenter"",""1"",""11411""
","
","
","""event"",""trial"",""time""
""fullscreenenter"",""1"",""11411""
","
","","","392","","","23","20583","7510","&#9776;","elianto","#3366ff99"," "," ","1","+10","[1243.5]","1","0","1","","","","","","","",""
"pit-trial","23","534118","0.0-2.0-8.0-2.0","battery-v0.2","","""event"",""trial"",""time""
""fullscreenenter"",""1"",""11411""
","
","
","""event"",""trial"",""time""
""fullscreenenter"",""1"",""11411""
","
","","","459.69999999925494","","","23","20583","7510","&#9776;","elianto","#3366ff99"," "," ","1","+10","[1310.9000000022352]","1","0","1","","","","","","","",""
"pit-trial","24","537687","0.0-2.0-8.0-3.0","battery-v0.2","","""event"",""trial"",""time""
""fullscreenenter"",""1"",""11411""
","
","
","""event"",""trial"",""time""
""fullscreenenter"",""1"",""11411""
","
","","","713.4000000022352","","","23","20583","7510","&#9776;","elianto","#3366ff99"," "," ","1","0","[1564.8999999985099]","1","0","1","","","","","","","",""
"pit-trial","25","541349","0.0-2.0-8.0-4.0","battery-v0.2","","""event"",""trial"",""time""
""fullscreenenter"",""1"",""11411""
","
","
","""event"",""trial"",""time""
""fullscreenenter"",""1"",""11411""
","
","","","806","","","23","20583","7510","&#9776;","elianto","#3366ff99"," "," ","1","+10","[1657.699999999255]","1","0","1","","","","","","","",""
"pit-trial","26","544570","0.0-2.0-8.1-0.1","battery-v0.2","","""event"",""trial"",""time""
""fullscreenenter"",""1"",""11411""
","
","
","""event"",""trial"",""time""
""fullscreenenter"",""1"",""11411""
","
","","","365.30000000074506","","","23","20583","7510","&#9776;","elianto","#3366ff99"," "," ","1","+10","[1217]","1","0","1","","","","","","","",""
"pit-trial","27","547862","0.0-2.0-8.1-1.1","battery-v0.2","","""event"",""trial"",""time""
""fullscreenenter"",""1"",""11411""
","
","
","""event"",""trial"",""time""
""fullscreenenter"",""1"",""11411""
","
","","","436.8999999985099","","","23","20583","7510","&#9776;","elianto","#3366ff99"," "," ","1","+10","[1288.199999999255]","1","0","1","","","","","","","",""
"pit-trial","28","552238","0.0-2.0-8.1-2.1","battery-v0.2","","""event"",""trial"",""time""
""fullscreenenter"",""1"",""11411""
","
","
","""event"",""trial"",""time""
""fullscreenenter"",""1"",""11411""
","
","","","1520.3999999985099","","","23","20583","7510","&#9776;","elianto","#3366ff99"," "," ","1","+10","[2372.099999997765]","1","0","1","","","","","","","",""
"pit-trial","29","555537","0.0-2.0-8.1-3.1","battery-v0.2","","""event"",""trial"",""time""
""fullscreenenter"",""1"",""11411""
","
","
","""event"",""trial"",""time""
""fullscreenenter"",""1"",""11411""
","
","","","443.5","","","23","20583","7510","&#9776;","elianto","#3366ff99"," "," ","1","0","[1295.0999999977648]","1","0","1","","","","","","","",""
"pit-trial","30","558811","0.0-2.0-8.1-4.1","battery-v0.2","","""event"",""trial"",""time""
""fullscreenenter"",""1"",""11411""
","
","
","""event"",""trial"",""time""
""fullscreenenter"",""1"",""11411""
","
","","","419.3999999985099","","","23","20583","7510","&#9776;","elianto","#3366ff99"," "," ","1","+10","[1270.5]","1","0","1","","","","","","","",""
"pit-trial","31","563346","0.0-2.0-8.2-0.2","battery-v0.2","","""event"",""trial"",""time""
""fullscreenenter"",""1"",""11411""
","
","
","""event"",""trial"",""time""
""fullscreenenter"",""1"",""11411""
","
","","","1680.800000000745","","","23","20583","7510","&#9776;","elianto","#3366ff99"," "," ","1","+10","[2531.099999997765]","1","0","1","","","","","","","",""
"pit-trial","32","567608","0.0-2.0-8.2-1.2","battery-v0.2","","""event"",""trial"",""time""
""fullscreenenter"",""1"",""11411""
","
","
","""event"",""trial"",""time""
""fullscreenenter"",""1"",""11411""
","
","","","1408","","","23","20583","7510","&#9776;","elianto","#3366ff99"," "," ","1","+10","[2258.599999997765]","1","0","1","","","","","","","",""
"pit-trial","33","572463","0.0-2.0-8.2-2.2","battery-v0.2","","""event"",""trial"",""time""
""fullscreenenter"",""1"",""11411""
","
","
","""event"",""trial"",""time""
""fullscreenenter"",""1"",""11411""
","
","","","-1","","","23","20583","7510","&#9776;","elianto","#3366ff99"," ","-1","0","0","[]","0","0","1","","","","","","","",""
"pit-trial","34","576185","0.0-2.0-8.2-3.2","battery-v0.2","","""event"",""trial"",""time""
""fullscreenenter"",""1"",""11411""
","
","
","""event"",""trial"",""time""
""fullscreenenter"",""1"",""11411""
","
","","","866.7999999970198","","","23","20583","7510","&#9776;","elianto","#3366ff99"," "," ","1","0","[1717.800000000745]","1","0","1","","","","","","","",""
"pit-trial","35","581792","0.0-2.0-8.2-4.2","battery-v0.2","","""event"",""trial"",""time""
""fullscreenenter"",""1"",""11411""
","
","
","""event"",""trial"",""time""
""fullscreenenter"",""1"",""11411""
","
","","","-1","","","23","20583","7510","&#9776;","elianto","#3366ff99"," ","-1","0","0","[]","0","0","1","","","","","","","",""
"call-function","36","581794","0.0-2.0-9.0","battery-v0.2","","""event"",""trial"",""time""
""fullscreenenter"",""1"",""11411""
""blur"",""37"",""599850""
""focus"",""37"",""611201""
","""event"",""trial"",""time""
""blur"",""37"",""599850""
","""event"",""trial"",""time""
""focus"",""37"",""611201""
","""event"",""trial"",""time""
""fullscreenenter"",""1"",""11411""
","
","","","","","","","","","","","","","","","","","","","","","","","","","","",""
"pit-instructions","37","645860","0.0-2.0-10.0","battery-v0.2","","""event"",""trial"",""time""
""fullscreenenter"",""1"",""11411""
""blur"",""37"",""599850""
""focus"",""37"",""611201""
","""event"",""trial"",""time""
""blur"",""37"",""599850""
","""event"",""trial"",""time""
""focus"",""37"",""611201""
","""event"",""trial"",""time""
""fullscreenenter"",""1"",""11411""
","
","","[{""page_index"":0,""viewing_time"":11598},{""page_index"":1,""viewing_time"":18966.89999999851},{""page_index"":2,""viewing_time"":11166.5},{""page_index"":3,""viewing_time"":13300.300000000745},{""page_index"":4,""viewing_time"":9033}]","64065.10000000149","","","","","","","","","","","","","","","","","","","","","","","",""
"pit-trial","38","649153","0.0-2.0-11.0-0.0","battery-v0.2","","""event"",""trial"",""time""
""fullscreenenter"",""1"",""11411""
""blur"",""37"",""599850""
""focus"",""37"",""611201""
","""event"",""trial"",""time""
""blur"",""37"",""599850""
","""event"",""trial"",""time""
""focus"",""37"",""611201""
","""event"",""trial"",""time""
""fullscreenenter"",""1"",""11411""
","
","","","436.69999999925494","","","23","20583","7510","&#9761;","elianto","#3366ff99","-1"," ","0","0","[1288.800000000745]","1","0","2","","","","","","","",""
"pit-trial","39","652433","0.0-2.0-11.0-1.0","battery-v0.2","","""event"",""trial"",""time""
""fullscreenenter"",""1"",""11411""
""blur"",""37"",""599850""
""focus"",""37"",""611201""
","""event"",""trial"",""time""
""blur"",""37"",""599850""
","""event"",""trial"",""time""
""focus"",""37"",""611201""
","""event"",""trial"",""time""
""fullscreenenter"",""1"",""11411""
","
","","","424.30000000074506","","","23","20583","7510","&#9761;","elianto","#3366ff99","-1"," ","0","0","[1276.300000000745]","1","0","2","","","","","","","",""
"pit-trial","40","655662","0.0-2.0-11.0-2.0","battery-v0.2","","""event"",""trial"",""time""
""fullscreenenter"",""1"",""11411""
""blur"",""37"",""599850""
""focus"",""37"",""611201""
","""event"",""trial"",""time""
""blur"",""37"",""599850""
","""event"",""trial"",""time""
""focus"",""37"",""611201""
","""event"",""trial"",""time""
""fullscreenenter"",""1"",""11411""
","
","","","374.5","","","23","20583","7510","&#9761;","elianto","#3366ff99","-1"," ","0","0","[1225.8999999985099]","1","0","2","","","","","","","",""
"pit-trial","41","659153","0.0-2.0-11.0-3.0","battery-v0.2","","""event"",""trial"",""time""
""fullscreenenter"",""1"",""11411""
""blur"",""37"",""599850""
""focus"",""37"",""611201""
""fullscreenexit"",""42"",""662233""
","""event"",""trial"",""time""
""blur"",""37"",""599850""
","""event"",""trial"",""time""
""focus"",""37"",""611201""
","""event"",""trial"",""time""
""fullscreenenter"",""1"",""11411""
","""event"",""trial"",""time""
""fullscreenexit"",""42"",""662233""
","","","635.6000000014901","","","23","20583","7510","&#9761;","elianto","#3366ff99","-1"," ","0","+10","[1486.4000000022352]","1","0","2","","","","","","","",""
"pit-trial","42","662563","0.0-2.0-11.0-4.0","battery-v0.2","","""event"",""trial"",""time""
""fullscreenenter"",""1"",""11411""
""blur"",""37"",""599850""
""focus"",""37"",""611201""
""fullscreenexit"",""42"",""662233""
","""event"",""trial"",""time""
""blur"",""37"",""599850""
","""event"",""trial"",""time""
""focus"",""37"",""611201""
","""event"",""trial"",""time""
""fullscreenenter"",""1"",""11411""
","""event"",""trial"",""time""
""fullscreenexit"",""42"",""662233""
","","","554.8000000007451","","","23","20583","7510","&#9761;","elianto","#3366ff99","-1"," ","0","0","[1406.0999999977648]","1","0","2","","","","","","","",""
"pit-trial","43","665572","0.0-2.0-11.1-0.1","battery-v0.2","","""event"",""trial"",""time""
""fullscreenenter"",""1"",""11411""
""blur"",""37"",""599850""
""focus"",""37"",""611201""
""fullscreenexit"",""42"",""662233""
","""event"",""trial"",""time""
""blur"",""37"",""599850""
","""event"",""trial"",""time""
""focus"",""37"",""611201""
","""event"",""trial"",""time""
""fullscreenenter"",""1"",""11411""
","""event"",""trial"",""time""
""fullscreenexit"",""42"",""662233""
","","","152.30000000074506","","","23","20583","7510","&#9761;","elianto","#3366ff99","-1"," ","0","0","[1004.2999999970198]","1","0","2","","","","","","","",""
"pit-trial","44","668884","0.0-2.0-11.1-1.1","battery-v0.2","","""event"",""trial"",""time""
""fullscreenenter"",""1"",""11411""
""blur"",""37"",""599850""
""focus"",""37"",""611201""
""fullscreenexit"",""42"",""662233""
","""event"",""trial"",""time""
""blur"",""37"",""599850""
","""event"",""trial"",""time""
""focus"",""37"",""611201""
","""event"",""trial"",""time""
""fullscreenenter"",""1"",""11411""
","""event"",""trial"",""time""
""fullscreenexit"",""42"",""662233""
","","","457.5","","","23","20583","7510","&#9761;","elianto","#3366ff99","-1"," ","0","0","[1308.6000000014901]","1","0","2","","","","","","","",""
"pit-trial","45","672142","0.0-2.0-11.1-2.1","battery-v0.2","","""event"",""trial"",""time""
""fullscreenenter"",""1"",""11411""
""blur"",""37"",""599850""
""focus"",""37"",""611201""
""fullscreenexit"",""42"",""662233""
","""event"",""trial"",""time""
""blur"",""37"",""599850""
","""event"",""trial"",""time""
""focus"",""37"",""611201""
","""event"",""trial"",""time""
""fullscreenenter"",""1"",""11411""
","""event"",""trial"",""time""
""fullscreenexit"",""42"",""662233""
","","","402.6000000014901","","","23","20583","7510","&#9761;","elianto","#3366ff99","-1"," ","0","0","[1254.699999999255]","1","0","2","","","","","","","",""
"pit-trial","46","675064","0.0-2.0-11.1-3.1","battery-v0.2","","""event"",""trial"",""time""
""fullscreenenter"",""1"",""11411""
""blur"",""37"",""599850""
""focus"",""37"",""611201""
""fullscreenexit"",""42"",""662233""
","""event"",""trial"",""time""
""blur"",""37"",""599850""
","""event"",""trial"",""time""
""focus"",""37"",""611201""
","""event"",""trial"",""time""
""fullscreenenter"",""1"",""11411""
","""event"",""trial"",""time""
""fullscreenexit"",""42"",""662233""
","","","66.19999999925494","","","23","20583","7510","&#9761;","elianto","#3366ff99","-1"," ","0","+10","[917.6999999992549]","1","0","2","","","","","","","",""
"pit-trial","47","678127","0.0-2.0-11.1-4.1","battery-v0.2","","""event"",""trial"",""time""
""fullscreenenter"",""1"",""11411""
""blur"",""37"",""599850""
""focus"",""37"",""611201""
""fullscreenexit"",""42"",""662233""
","""event"",""trial"",""time""
""blur"",""37"",""599850""
","""event"",""trial"",""time""
""focus"",""37"",""611201""
","""event"",""trial"",""time""
""fullscreenenter"",""1"",""11411""
","""event"",""trial"",""time""
""fullscreenexit"",""42"",""662233""
","","","208.59999999776483","","","23","20583","7510","&#9761;","elianto","#3366ff99","-1"," ","0","0","[1059.800000000745]","1","0","2","","","","","","","",""
"pit-trial","48","681215","0.0-2.0-11.2-0.2","battery-v0.2","","""event"",""trial"",""time""
""fullscreenenter"",""1"",""11411""
""blur"",""37"",""599850""
""focus"",""37"",""611201""
""fullscreenexit"",""42"",""662233""
","""event"",""trial"",""time""
""blur"",""37"",""599850""
","""event"",""trial"",""time""
""focus"",""37"",""611201""
","""event"",""trial"",""time""
""fullscreenenter"",""1"",""11411""
","""event"",""trial"",""time""
""fullscreenexit"",""42"",""662233""
","","","232.79999999701977","","","23","20583","7510","&#9761;","elianto","#3366ff99","-1"," ","0","0","[1084]","1","0","2","","","","","","","",""
"pit-trial","49","684868","0.0-2.0-11.2-1.2","battery-v0.2","","""event"",""trial"",""time""
""fullscreenenter"",""1"",""11411""
""blur"",""37"",""599850""
""focus"",""37"",""611201""
""fullscreenexit"",""42"",""662233""
","""event"",""trial"",""time""
""blur"",""37"",""599850""
","""event"",""trial"",""time""
""focus"",""37"",""611201""
","""event"",""trial"",""time""
""fullscreenenter"",""1"",""11411""
","""event"",""trial"",""time""
""fullscreenexit"",""42"",""662233""
","","","797.4000000022352","","","23","20583","7510","&#9761;","elianto","#3366ff99","-1"," ","0","0","[1648.7000000029802]","1","0","2","","","","","","","",""
"pit-trial","50","687825","0.0-2.0-11.2-2.2","battery-v0.2","","""event"",""trial"",""time""
""fullscreenenter"",""1"",""11411""
""blur"",""37"",""599850""
""focus"",""37"",""611201""
""fullscreenexit"",""42"",""662233""
","""event"",""trial"",""time""
""blur"",""37"",""599850""
","""event"",""trial"",""time""
""focus"",""37"",""611201""
","""event"",""trial"",""time""
""fullscreenenter"",""1"",""11411""
","""event"",""trial"",""time""
""fullscreenexit"",""42"",""662233""
","","","102","","","23","20583","7510","&#9761;","elianto","#3366ff99","-1"," ","0","0","[954.1000000014901]","1","0","2","","","","","","","",""
"pit-trial","51","691046","0.0-2.0-11.2-3.2","battery-v0.2","","""event"",""trial"",""time""
""fullscreenenter"",""1"",""11411""
""blur"",""37"",""599850""
""focus"",""37"",""611201""
""fullscreenexit"",""42"",""662233""
","""event"",""trial"",""time""
""blur"",""37"",""599850""
","""event"",""trial"",""time""
""focus"",""37"",""611201""
","""event"",""trial"",""time""
""fullscreenenter"",""1"",""11411""
","""event"",""trial"",""time""
""fullscreenexit"",""42"",""662233""
","","","365.70000000298023","","","23","20583","7510","&#9761;","elianto","#3366ff99","-1"," ","0","+10","[481.5999999977648,1217.199999999255]","2","0","2","","","","","","","",""
"pit-trial","52","694102","0.0-2.0-11.2-4.2","battery-v0.2","","""event"",""trial"",""time""
""fullscreenenter"",""1"",""11411""
""blur"",""37"",""599850""
""focus"",""37"",""611201""
""fullscreenexit"",""42"",""662233""
","""event"",""trial"",""time""
""blur"",""37"",""599850""
","""event"",""trial"",""time""
""focus"",""37"",""611201""
","""event"",""trial"",""time""
""fullscreenenter"",""1"",""11411""
","""event"",""trial"",""time""
""fullscreenexit"",""42"",""662233""
","","","201.60000000149012","","","23","20583","7510","&#9761;","elianto","#3366ff99","-1"," ","0","0","[1052.5]","1","0","2","","","","","","","",""
"pit-trial","53","697481","0.0-2.0-11.3-0.3","battery-v0.2","","""event"",""trial"",""time""
""fullscreenenter"",""1"",""11411""
""blur"",""37"",""599850""
""focus"",""37"",""611201""
""fullscreenexit"",""42"",""662233""
","""event"",""trial"",""time""
""blur"",""37"",""599850""
","""event"",""trial"",""time""
""focus"",""37"",""611201""
","""event"",""trial"",""time""
""fullscreenenter"",""1"",""11411""
","""event"",""trial"",""time""
""fullscreenexit"",""42"",""662233""
","","","522.8000000007451","","","23","20583","7510","&#9761;","elianto","#3366ff99","-1"," ","0","0","[1373.9000000022352]","1","0","2","","","","","","","",""
"pit-trial","54","700680","0.0-2.0-11.3-1.3","battery-v0.2","","""event"",""trial"",""time""
""fullscreenenter"",""1"",""11411""
""blur"",""37"",""599850""
""focus"",""37"",""611201""
""fullscreenexit"",""42"",""662233""
","""event"",""trial"",""time""
""blur"",""37"",""599850""
","""event"",""trial"",""time""
""focus"",""37"",""611201""
","""event"",""trial"",""time""
""fullscreenenter"",""1"",""11411""
","""event"",""trial"",""time""
""fullscreenexit"",""42"",""662233""
","","","345.1000000014901","","","23","20583","7510","&#9761;","elianto","#3366ff99","-1"," ","0","0","[1196.199999999255]","1","0","2","","","","","","","",""
"pit-trial","55","704001","0.0-2.0-11.3-2.3","battery-v0.2","","""event"",""trial"",""time""
""fullscreenenter"",""1"",""11411""
""blur"",""37"",""599850""
""focus"",""37"",""611201""
""fullscreenexit"",""42"",""662233""
","""event"",""trial"",""time""
""blur"",""37"",""599850""
","""event"",""trial"",""time""
""focus"",""37"",""611201""
","""event"",""trial"",""time""
""fullscreenenter"",""1"",""11411""
","""event"",""trial"",""time""
""fullscreenexit"",""42"",""662233""
","","","465.5999999977648","","","23","20583","7510","&#9761;","elianto","#3366ff99","-1"," ","0","0","[1316.8999999985099]","1","0","2","","","","","","","",""
"pit-trial","56","707124","0.0-2.0-11.3-3.3","battery-v0.2","","""event"",""trial"",""time""
""fullscreenenter"",""1"",""11411""
""blur"",""37"",""599850""
""focus"",""37"",""611201""
""fullscreenexit"",""42"",""662233""
","""event"",""trial"",""time""
""blur"",""37"",""599850""
","""event"",""trial"",""time""
""focus"",""37"",""611201""
","""event"",""trial"",""time""
""fullscreenenter"",""1"",""11411""
","""event"",""trial"",""time""
""fullscreenexit"",""42"",""662233""
","","","268","","","23","20583","7510","&#9761;","elianto","#3366ff99","-1"," ","0","+10","[1119.699999999255]","1","0","2","","","","","","","",""
"pit-trial","57","710735","0.0-2.0-11.3-4.3","battery-v0.2","","""event"",""trial"",""time""
""fullscreenenter"",""1"",""11411""
""blur"",""37"",""599850""
""focus"",""37"",""611201""
""fullscreenexit"",""42"",""662233""
","""event"",""trial"",""time""
""blur"",""37"",""599850""
","""event"",""trial"",""time""
""focus"",""37"",""611201""
","""event"",""trial"",""time""
""fullscreenenter"",""1"",""11411""
","""event"",""trial"",""time""
""fullscreenexit"",""42"",""662233""
","","","755.5","","","23","20583","7510","&#9761;","elianto","#3366ff99","-1"," ","0","0","[1606.7999999970198]","1","0","2","","","","","","","",""
"call-function","58","710737","0.0-2.0-12.0","battery-v0.2","","""event"",""trial"",""time""
""fullscreenenter"",""1"",""11411""
""blur"",""37"",""599850""
""focus"",""37"",""611201""
""fullscreenexit"",""42"",""662233""
","""event"",""trial"",""time""
""blur"",""37"",""599850""
","""event"",""trial"",""time""
""focus"",""37"",""611201""
","""event"",""trial"",""time""
""fullscreenenter"",""1"",""11411""
","""event"",""trial"",""time""
""fullscreenexit"",""42"",""662233""
","","","","","","","","","","","","","","","","","","","","","","","","","","",""
"pit-instructions","59","846976","0.0-2.0-13.0","battery-v0.2","","""event"",""trial"",""time""
""fullscreenenter"",""1"",""11411""
""blur"",""37"",""599850""
""focus"",""37"",""611201""
""fullscreenexit"",""42"",""662233""
","""event"",""trial"",""time""
""blur"",""37"",""599850""
","""event"",""trial"",""time""
""focus"",""37"",""611201""
","""event"",""trial"",""time""
""fullscreenenter"",""1"",""11411""
","""event"",""trial"",""time""
""fullscreenexit"",""42"",""662233""
","","[{""page_index"":0,""viewing_time"":5505},{""page_index"":1,""viewing_time"":8000.10000000149},{""page_index"":2,""viewing_time"":22583.599999997765},{""page_index"":3,""viewing_time"":28699.60000000149},{""page_index"":4,""viewing_time"":71449.30000000075}]","136238","","","","","","","","","","","","","","","","","","","","","","","",""
"pit-trial","60","851831","0.0-2.0-14.0-0.0","battery-v0.2","","""event"",""trial"",""time""
""fullscreenenter"",""1"",""11411""
""blur"",""37"",""599850""
""focus"",""37"",""611201""
""fullscreenexit"",""42"",""662233""
","""event"",""trial"",""time""
""blur"",""37"",""599850""
","""event"",""trial"",""time""
""focus"",""37"",""611201""
","""event"",""trial"",""time""
""fullscreenenter"",""1"",""11411""
","""event"",""trial"",""time""
""fullscreenexit"",""42"",""662233""
","","","-1","","","23","20583","7510","&#9826;","elianto","#f73b6a7A","-1","-1","1","0","[]","0","0","3","","","","","","","",""
"pit-trial","61","856687","0.0-2.0-14.0-1.0","battery-v0.2","","""event"",""trial"",""time""
""fullscreenenter"",""1"",""11411""
""blur"",""37"",""599850""
""focus"",""37"",""611201""
""fullscreenexit"",""42"",""662233""
","""event"",""trial"",""time""
""blur"",""37"",""599850""
","""event"",""trial"",""time""
""focus"",""37"",""611201""
","""event"",""trial"",""time""
""fullscreenenter"",""1"",""11411""
","""event"",""trial"",""time""
""fullscreenexit"",""42"",""662233""
","","","-1","","","23","20583","7510","&#9826;","elianto","#f73b6a7A","-1","-1","1","0","[]","0","0","3","","","","","","","",""
"pit-trial","62","861542","0.0-2.0-14.0-2.0","battery-v0.2","","""event"",""trial"",""time""
""fullscreenenter"",""1"",""11411""
""blur"",""37"",""599850""
""focus"",""37"",""611201""
""fullscreenexit"",""42"",""662233""
","""event"",""trial"",""time""
""blur"",""37"",""599850""
","""event"",""trial"",""time""
""focus"",""37"",""611201""
","""event"",""trial"",""time""
""fullscreenenter"",""1"",""11411""
","""event"",""trial"",""time""
""fullscreenexit"",""42"",""662233""
","","","-1","","","23","20583","7510","&#9826;","elianto","#f73b6a7A","-1","-1","1","0","[]","0","0","3","","","","","","","",""
"pit-trial","63","866396","0.0-2.0-14.0-3.0","battery-v0.2","","""event"",""trial"",""time""
""fullscreenenter"",""1"",""11411""
""blur"",""37"",""599850""
""focus"",""37"",""611201""
""fullscreenexit"",""42"",""662233""
","""event"",""trial"",""time""
""blur"",""37"",""599850""
","""event"",""trial"",""time""
""focus"",""37"",""611201""
","""event"",""trial"",""time""
""fullscreenenter"",""1"",""11411""
","""event"",""trial"",""time""
""fullscreenexit"",""42"",""662233""
","","","-1","","","23","20583","7510","&#9826;","elianto","#f73b6a7A","-1","-1","1","-10","[]","0","0","3","","","","","","","",""
"pit-trial","64","871253","0.0-2.0-14.0-4.0","battery-v0.2","","""event"",""trial"",""time""
""fullscreenenter"",""1"",""11411""
""blur"",""37"",""599850""
""focus"",""37"",""611201""
""fullscreenexit"",""42"",""662233""
","""event"",""trial"",""time""
""blur"",""37"",""599850""
","""event"",""trial"",""time""
""focus"",""37"",""611201""
","""event"",""trial"",""time""
""fullscreenenter"",""1"",""11411""
","""event"",""trial"",""time""
""fullscreenexit"",""42"",""662233""
","","","-1","","","23","20583","7510","&#9826;","elianto","#f73b6a7A","-1","-1","1","0","[]","0","0","3","","","","","","","",""
"pit-trial","65","876109","0.0-2.0-14.1-0.1","battery-v0.2","","""event"",""trial"",""time""
""fullscreenenter"",""1"",""11411""
""blur"",""37"",""599850""
""focus"",""37"",""611201""
""fullscreenexit"",""42"",""662233""
","""event"",""trial"",""time""
""blur"",""37"",""599850""
","""event"",""trial"",""time""
""focus"",""37"",""611201""
","""event"",""trial"",""time""
""fullscreenenter"",""1"",""11411""
","""event"",""trial"",""time""
""fullscreenexit"",""42"",""662233""
","","","-1","","","23","20583","7510","&#9826;","elianto","#f73b6a7A","-1","-1","1","0","[]","0","0","3","","","","","","","",""
"pit-trial","66","880964","0.0-2.0-14.1-1.1","battery-v0.2","","""event"",""trial"",""time""
""fullscreenenter"",""1"",""11411""
""blur"",""37"",""599850""
""focus"",""37"",""611201""
""fullscreenexit"",""42"",""662233""
","""event"",""trial"",""time""
""blur"",""37"",""599850""
","""event"",""trial"",""time""
""focus"",""37"",""611201""
","""event"",""trial"",""time""
""fullscreenenter"",""1"",""11411""
","""event"",""trial"",""time""
""fullscreenexit"",""42"",""662233""
","","","-1","","","23","20583","7510","&#9826;","elianto","#f73b6a7A","-1","-1","1","0","[]","0","0","3","","","","","","","",""
"pit-trial","67","885819","0.0-2.0-14.1-2.1","battery-v0.2","","""event"",""trial"",""time""
""fullscreenenter"",""1"",""11411""
""blur"",""37"",""599850""
""focus"",""37"",""611201""
""fullscreenexit"",""42"",""662233""
","""event"",""trial"",""time""
""blur"",""37"",""599850""
","""event"",""trial"",""time""
""focus"",""37"",""611201""
","""event"",""trial"",""time""
""fullscreenenter"",""1"",""11411""
","""event"",""trial"",""time""
""fullscreenexit"",""42"",""662233""
","","","-1","","","23","20583","7510","&#9826;","elianto","#f73b6a7A","-1","-1","1","0","[]","0","0","3","","","","","","","",""
"pit-trial","68","890674","0.0-2.0-14.1-3.1","battery-v0.2","","""event"",""trial"",""time""
""fullscreenenter"",""1"",""11411""
""blur"",""37"",""599850""
""focus"",""37"",""611201""
""fullscreenexit"",""42"",""662233""
","""event"",""trial"",""time""
""blur"",""37"",""599850""
","""event"",""trial"",""time""
""focus"",""37"",""611201""
","""event"",""trial"",""time""
""fullscreenenter"",""1"",""11411""
","""event"",""trial"",""time""
""fullscreenexit"",""42"",""662233""
","","","-1","","","23","20583","7510","&#9826;","elianto","#f73b6a7A","-1","-1","1","-10","[]","0","0","3","","","","","","","",""
"pit-trial","69","895529","0.0-2.0-14.1-4.1","battery-v0.2","","""event"",""trial"",""time""
""fullscreenenter"",""1"",""11411""
""blur"",""37"",""599850""
""focus"",""37"",""611201""
""fullscreenexit"",""42"",""662233""
","""event"",""trial"",""time""
""blur"",""37"",""599850""
","""event"",""trial"",""time""
""focus"",""37"",""611201""
","""event"",""trial"",""time""
""fullscreenenter"",""1"",""11411""
","""event"",""trial"",""time""
""fullscreenexit"",""42"",""662233""
","","","-1","","","23","20583","7510","&#9826;","elianto","#f73b6a7A","-1","-1","1","0","[]","0","0","3","","","","","","","",""
"pit-trial","70","900386","0.0-2.0-14.2-0.2","battery-v0.2","","""event"",""trial"",""time""
""fullscreenenter"",""1"",""11411""
""blur"",""37"",""599850""
""focus"",""37"",""611201""
""fullscreenexit"",""42"",""662233""
","""event"",""trial"",""time""
""blur"",""37"",""599850""
","""event"",""trial"",""time""
""focus"",""37"",""611201""
","""event"",""trial"",""time""
""fullscreenenter"",""1"",""11411""
","""event"",""trial"",""time""
""fullscreenexit"",""42"",""662233""
","","","-1","","","23","20583","7510","&#9826;","elianto","#f73b6a7A","-1","-1","1","0","[]","0","0","3","","","","","","","",""
"pit-trial","71","905241","0.0-2.0-14.2-1.2","battery-v0.2","","""event"",""trial"",""time""
""fullscreenenter"",""1"",""11411""
""blur"",""37"",""599850""
""focus"",""37"",""611201""
""fullscreenexit"",""42"",""662233""
","""event"",""trial"",""time""
""blur"",""37"",""599850""
","""event"",""trial"",""time""
""focus"",""37"",""611201""
","""event"",""trial"",""time""
""fullscreenenter"",""1"",""11411""
","""event"",""trial"",""time""
""fullscreenexit"",""42"",""662233""
","","","-1","","","23","20583","7510","&#9826;","elianto","#f73b6a7A","-1","-1","1","0","[]","0","0","3","","","","","","","",""
"pit-trial","72","910096","0.0-2.0-14.2-2.2","battery-v0.2","","""event"",""trial"",""time""
""fullscreenenter"",""1"",""11411""
""blur"",""37"",""599850""
""focus"",""37"",""611201""
""fullscreenexit"",""42"",""662233""
","""event"",""trial"",""time""
""blur"",""37"",""599850""
","""event"",""trial"",""time""
""focus"",""37"",""611201""
","""event"",""trial"",""time""
""fullscreenenter"",""1"",""11411""
","""event"",""trial"",""time""
""fullscreenexit"",""42"",""662233""
","","","-1","","","23","20583","7510","&#9826;","elianto","#f73b6a7A","-1","-1","1","0","[]","0","0","3","","","","","","","",""
"pit-trial","73","914951","0.0-2.0-14.2-3.2","battery-v0.2","","""event"",""trial"",""time""
""fullscreenenter"",""1"",""11411""
""blur"",""37"",""599850""
""focus"",""37"",""611201""
""fullscreenexit"",""42"",""662233""
","""event"",""trial"",""time""
""blur"",""37"",""599850""
","""event"",""trial"",""time""
""focus"",""37"",""611201""
","""event"",""trial"",""time""
""fullscreenenter"",""1"",""11411""
","""event"",""trial"",""time""
""fullscreenexit"",""42"",""662233""
","","","-1","","","23","20583","7510","&#9826;","elianto","#f73b6a7A","-1","-1","1","-10","[]","0","0","3","","","","","","","",""
"pit-trial","74","919807","0.0-2.0-14.2-4.2","battery-v0.2","","""event"",""trial"",""time""
""fullscreenenter"",""1"",""11411""
""blur"",""37"",""599850""
""focus"",""37"",""611201""
""fullscreenexit"",""42"",""662233""
","""event"",""trial"",""time""
""blur"",""37"",""599850""
","""event"",""trial"",""time""
""focus"",""37"",""611201""
","""event"",""trial"",""time""
""fullscreenenter"",""1"",""11411""
","""event"",""trial"",""time""
""fullscreenexit"",""42"",""662233""
","","","-1","","","23","20583","7510","&#9826;","elianto","#f73b6a7A","-1","-1","1","0","[]","0","0","3","","","","","","","",""
"pit-trial","75","924663","0.0-2.0-14.3-0.3","battery-v0.2","","""event"",""trial"",""time""
""fullscreenenter"",""1"",""11411""
""blur"",""37"",""599850""
""focus"",""37"",""611201""
""fullscreenexit"",""42"",""662233""
","""event"",""trial"",""time""
""blur"",""37"",""599850""
","""event"",""trial"",""time""
""focus"",""37"",""611201""
","""event"",""trial"",""time""
""fullscreenenter"",""1"",""11411""
","""event"",""trial"",""time""
""fullscreenexit"",""42"",""662233""
","","","-1","","","23","20583","7510","&#9826;","elianto","#f73b6a7A","-1","-1","1","0","[]","0","0","3","","","","","","","",""
"pit-trial","76","929519","0.0-2.0-14.3-1.3","battery-v0.2","","""event"",""trial"",""time""
""fullscreenenter"",""1"",""11411""
""blur"",""37"",""599850""
""focus"",""37"",""611201""
""fullscreenexit"",""42"",""662233""
","""event"",""trial"",""time""
""blur"",""37"",""599850""
","""event"",""trial"",""time""
""focus"",""37"",""611201""
","""event"",""trial"",""time""
""fullscreenenter"",""1"",""11411""
","""event"",""trial"",""time""
""fullscreenexit"",""42"",""662233""
","","","-1","","","23","20583","7510","&#9826;","elianto","#f73b6a7A","-1","-1","1","0","[]","0","0","3","","","","","","","",""
"pit-trial","77","934374","0.0-2.0-14.3-2.3","battery-v0.2","","""event"",""trial"",""time""
""fullscreenenter"",""1"",""11411""
""blur"",""37"",""599850""
""focus"",""37"",""611201""
""fullscreenexit"",""42"",""662233""
","""event"",""trial"",""time""
""blur"",""37"",""599850""
","""event"",""trial"",""time""
""focus"",""37"",""611201""
","""event"",""trial"",""time""
""fullscreenenter"",""1"",""11411""
","""event"",""trial"",""time""
""fullscreenexit"",""42"",""662233""
","","","-1","","","23","20583","7510","&#9826;","elianto","#f73b6a7A","-1","-1","1","0","[]","0","0","3","","","","","","","",""
"pit-trial","78","939230","0.0-2.0-14.3-3.3","battery-v0.2","","""event"",""trial"",""time""
""fullscreenenter"",""1"",""11411""
""blur"",""37"",""599850""
""focus"",""37"",""611201""
""fullscreenexit"",""42"",""662233""
","""event"",""trial"",""time""
""blur"",""37"",""599850""
","""event"",""trial"",""time""
""focus"",""37"",""611201""
","""event"",""trial"",""time""
""fullscreenenter"",""1"",""11411""
","""event"",""trial"",""time""
""fullscreenexit"",""42"",""662233""
","","","-1","","","23","20583","7510","&#9826;","elianto","#f73b6a7A","-1","-1","1","-10","[]","0","0","3","","","","","","","",""
"pit-trial","79","944085","0.0-2.0-14.3-4.3","battery-v0.2","","""event"",""trial"",""time""
""fullscreenenter"",""1"",""11411""
""blur"",""37"",""599850""
""focus"",""37"",""611201""
""fullscreenexit"",""42"",""662233""
","""event"",""trial"",""time""
""blur"",""37"",""599850""
","""event"",""trial"",""time""
""focus"",""37"",""611201""
","""event"",""trial"",""time""
""fullscreenenter"",""1"",""11411""
","""event"",""trial"",""time""
""fullscreenexit"",""42"",""662233""
","","","-1","","","23","20583","7510","&#9826;","elianto","#f73b6a7A","-1","-1","1","0","[]","0","0","3","","","","","","","",""
"call-function","80","944087","0.0-2.0-15.0","battery-v0.2","","""event"",""trial"",""time""
""fullscreenenter"",""1"",""11411""
""blur"",""37"",""599850""
""focus"",""37"",""611201""
""fullscreenexit"",""42"",""662233""
","""event"",""trial"",""time""
""blur"",""37"",""599850""
","""event"",""trial"",""time""
""focus"",""37"",""611201""
","""event"",""trial"",""time""
""fullscreenenter"",""1"",""11411""
","""event"",""trial"",""time""
""fullscreenexit"",""42"",""662233""
","","","","","","","","","","","","","","","","","","","","","","","","","","",""
"pit-instructions","81","1090359","0.0-2.0-16.0","battery-v0.2","","""event"",""trial"",""time""
""fullscreenenter"",""1"",""11411""
""blur"",""37"",""599850""
""focus"",""37"",""611201""
""fullscreenexit"",""42"",""662233""
","""event"",""trial"",""time""
""blur"",""37"",""599850""
","""event"",""trial"",""time""
""focus"",""37"",""611201""
","""event"",""trial"",""time""
""fullscreenenter"",""1"",""11411""
","""event"",""trial"",""time""
""fullscreenexit"",""42"",""662233""
","","[{""page_index"":0,""viewing_time"":6837.5},{""page_index"":1,""viewing_time"":11700},{""page_index"":2,""viewing_time"":90546.29999999702},{""page_index"":3,""viewing_time"":37185.60000000149}]","146269.8999999985","","","","","","","","","","","","","","","","","","","","","","","",""
"pit-trial","82","1095215","0.0-2.0-17.0-0.0","battery-v0.2","","""event"",""trial"",""time""
""fullscreenenter"",""1"",""11411""
""blur"",""37"",""599850""
""focus"",""37"",""611201""
""fullscreenexit"",""42"",""662233""
","""event"",""trial"",""time""
""blur"",""37"",""599850""
","""event"",""trial"",""time""
""focus"",""37"",""611201""
","""event"",""trial"",""time""
""fullscreenenter"",""1"",""11411""
","""event"",""trial"",""time""
""fullscreenexit"",""42"",""662233""
","","","-1","","","23","20583","7510","&#9789;","elianto","#f73b6a7A"," ","-1","0","-10","[]","0","0","4","","","","","","","",""
"pit-trial","83","1100071","0.0-2.0-17.0-1.0","battery-v0.2","","""event"",""trial"",""time""
""fullscreenenter"",""1"",""11411""
""blur"",""37"",""599850""
""focus"",""37"",""611201""
""fullscreenexit"",""42"",""662233""
","""event"",""trial"",""time""
""blur"",""37"",""599850""
","""event"",""trial"",""time""
""focus"",""37"",""611201""
","""event"",""trial"",""time""
""fullscreenenter"",""1"",""11411""
","""event"",""trial"",""time""
""fullscreenexit"",""42"",""662233""
","","","-1","","","23","20583","7510","&#9789;","elianto","#f73b6a7A"," ","-1","0","-10","[]","0","0","4","","","","","","","",""
"pit-trial","84","1104927","0.0-2.0-17.0-2.0","battery-v0.2","","""event"",""trial"",""time""
""fullscreenenter"",""1"",""11411""
""blur"",""37"",""599850""
""focus"",""37"",""611201""
""fullscreenexit"",""42"",""662233""
","""event"",""trial"",""time""
""blur"",""37"",""599850""
","""event"",""trial"",""time""
""focus"",""37"",""611201""
","""event"",""trial"",""time""
""fullscreenenter"",""1"",""11411""
","""event"",""trial"",""time""
""fullscreenexit"",""42"",""662233""
","","","-1","","","23","20583","7510","&#9789;","elianto","#f73b6a7A"," ","-1","0","-10","[]","0","0","4","","","","","","","",""
"pit-trial","85","1109783","0.0-2.0-17.0-3.0","battery-v0.2","","""event"",""trial"",""time""
""fullscreenenter"",""1"",""11411""
""blur"",""37"",""599850""
""focus"",""37"",""611201""
""fullscreenexit"",""42"",""662233""
","""event"",""trial"",""time""
""blur"",""37"",""599850""
","""event"",""trial"",""time""
""focus"",""37"",""611201""
","""event"",""trial"",""time""
""fullscreenenter"",""1"",""11411""
","""event"",""trial"",""time""
""fullscreenexit"",""42"",""662233""
","","","-1","","","23","20583","7510","&#9789;","elianto","#f73b6a7A"," ","-1","0","0","[]","0","0","4","","","","","","","",""
"pit-trial","86","1114638","0.0-2.0-17.0-4.0","battery-v0.2","","""event"",""trial"",""time""
""fullscreenenter"",""1"",""11411""
""blur"",""37"",""599850""
""focus"",""37"",""611201""
""fullscreenexit"",""42"",""662233""
","""event"",""trial"",""time""
""blur"",""37"",""599850""
","""event"",""trial"",""time""
""focus"",""37"",""611201""
","""event"",""trial"",""time""
""fullscreenenter"",""1"",""11411""
","""event"",""trial"",""time""
""fullscreenexit"",""42"",""662233""
","","","-1","","","23","20583","7510","&#9789;","elianto","#f73b6a7A"," ","-1","0","-10","[]","0","0","4","","","","","","","",""
"pit-trial","87","1119495","0.0-2.0-17.1-0.1","battery-v0.2","","""event"",""trial"",""time""
""fullscreenenter"",""1"",""11411""
""blur"",""37"",""599850""
""focus"",""37"",""611201""
""fullscreenexit"",""42"",""662233""
","""event"",""trial"",""time""
""blur"",""37"",""599850""
","""event"",""trial"",""time""
""focus"",""37"",""611201""
","""event"",""trial"",""time""
""fullscreenenter"",""1"",""11411""
","""event"",""trial"",""time""
""fullscreenexit"",""42"",""662233""
","","","-1","","","23","20583","7510","&#9789;","elianto","#f73b6a7A"," ","-1","0","-10","[]","0","0","4","","","","","","","",""
"pit-trial","88","1124350","0.0-2.0-17.1-1.1","battery-v0.2","","""event"",""trial"",""time""
""fullscreenenter"",""1"",""11411""
""blur"",""37"",""599850""
""focus"",""37"",""611201""
""fullscreenexit"",""42"",""662233""
","""event"",""trial"",""time""
""blur"",""37"",""599850""
","""event"",""trial"",""time""
""focus"",""37"",""611201""
","""event"",""trial"",""time""
""fullscreenenter"",""1"",""11411""
","""event"",""trial"",""time""
""fullscreenexit"",""42"",""662233""
","","","-1","","","23","20583","7510","&#9789;","elianto","#f73b6a7A"," ","-1","0","-10","[]","0","0","4","","","","","","","",""
"pit-trial","89","1129205","0.0-2.0-17.1-2.1","battery-v0.2","","""event"",""trial"",""time""
""fullscreenenter"",""1"",""11411""
""blur"",""37"",""599850""
""focus"",""37"",""611201""
""fullscreenexit"",""42"",""662233""
","""event"",""trial"",""time""
""blur"",""37"",""599850""
","""event"",""trial"",""time""
""focus"",""37"",""611201""
","""event"",""trial"",""time""
""fullscreenenter"",""1"",""11411""
","""event"",""trial"",""time""
""fullscreenexit"",""42"",""662233""
","","","-1","","","23","20583","7510","&#9789;","elianto","#f73b6a7A"," ","-1","0","-10","[]","0","0","4","","","","","","","",""
"pit-trial","90","1134061","0.0-2.0-17.1-3.1","battery-v0.2","","""event"",""trial"",""time""
""fullscreenenter"",""1"",""11411""
""blur"",""37"",""599850""
""focus"",""37"",""611201""
""fullscreenexit"",""42"",""662233""
","""event"",""trial"",""time""
""blur"",""37"",""599850""
","""event"",""trial"",""time""
""focus"",""37"",""611201""
","""event"",""trial"",""time""
""fullscreenenter"",""1"",""11411""
","""event"",""trial"",""time""
""fullscreenexit"",""42"",""662233""
","","","-1","","","23","20583","7510","&#9789;","elianto","#f73b6a7A"," ","-1","0","0","[]","0","0","4","","","","","","","",""
"pit-trial","91","1138916","0.0-2.0-17.1-4.1","battery-v0.2","","""event"",""trial"",""time""
""fullscreenenter"",""1"",""11411""
""blur"",""37"",""599850""
""focus"",""37"",""611201""
""fullscreenexit"",""42"",""662233""
","""event"",""trial"",""time""
""blur"",""37"",""599850""
","""event"",""trial"",""time""
""focus"",""37"",""611201""
","""event"",""trial"",""time""
""fullscreenenter"",""1"",""11411""
","""event"",""trial"",""time""
""fullscreenexit"",""42"",""662233""
","","","-1","","","23","20583","7510","&#9789;","elianto","#f73b6a7A"," ","-1","0","-10","[]","0","0","4","","","","","","","",""
"pit-trial","92","1143771","0.0-2.0-17.2-0.2","battery-v0.2","","""event"",""trial"",""time""
""fullscreenenter"",""1"",""11411""
""blur"",""37"",""599850""
""focus"",""37"",""611201""
""fullscreenexit"",""42"",""662233""
","""event"",""trial"",""time""
""blur"",""37"",""599850""
","""event"",""trial"",""time""
""focus"",""37"",""611201""
","""event"",""trial"",""time""
""fullscreenenter"",""1"",""11411""
","""event"",""trial"",""time""
""fullscreenexit"",""42"",""662233""
","","","-1","","","23","20583","7510","&#9789;","elianto","#f73b6a7A"," ","-1","0","-10","[]","0","0","4","","","","","","","",""
"pit-trial","93","1148627","0.0-2.0-17.2-1.2","battery-v0.2","","""event"",""trial"",""time""
""fullscreenenter"",""1"",""11411""
""blur"",""37"",""599850""
""focus"",""37"",""611201""
""fullscreenexit"",""42"",""662233""
","""event"",""trial"",""time""
""blur"",""37"",""599850""
","""event"",""trial"",""time""
""focus"",""37"",""611201""
","""event"",""trial"",""time""
""fullscreenenter"",""1"",""11411""
","""event"",""trial"",""time""
""fullscreenexit"",""42"",""662233""
","","","-1","","","23","20583","7510","&#9789;","elianto","#f73b6a7A"," ","-1","0","-10","[]","0","0","4","","","","","","","",""
"pit-trial","94","1153482","0.0-2.0-17.2-2.2","battery-v0.2","","""event"",""trial"",""time""
""fullscreenenter"",""1"",""11411""
""blur"",""37"",""599850""
""focus"",""37"",""611201""
""fullscreenexit"",""42"",""662233""
","""event"",""trial"",""time""
""blur"",""37"",""599850""
","""event"",""trial"",""time""
""focus"",""37"",""611201""
","""event"",""trial"",""time""
""fullscreenenter"",""1"",""11411""
","""event"",""trial"",""time""
""fullscreenexit"",""42"",""662233""
","","","-1","","","23","20583","7510","&#9789;","elianto","#f73b6a7A"," ","-1","0","-10","[]","0","0","4","","","","","","","",""
"pit-trial","95","1158339","0.0-2.0-17.2-3.2","battery-v0.2","","""event"",""trial"",""time""
""fullscreenenter"",""1"",""11411""
""blur"",""37"",""599850""
""focus"",""37"",""611201""
""fullscreenexit"",""42"",""662233""
","""event"",""trial"",""time""
""blur"",""37"",""599850""
","""event"",""trial"",""time""
""focus"",""37"",""611201""
","""event"",""trial"",""time""
""fullscreenenter"",""1"",""11411""
","""event"",""trial"",""time""
""fullscreenexit"",""42"",""662233""
","","","-1","","","23","20583","7510","&#9789;","elianto","#f73b6a7A"," ","-1","0","0","[]","0","0","4","","","","","","","",""
"pit-trial","96","1163194","0.0-2.0-17.2-4.2","battery-v0.2","","""event"",""trial"",""time""
""fullscreenenter"",""1"",""11411""
""blur"",""37"",""599850""
""focus"",""37"",""611201""
""fullscreenexit"",""42"",""662233""
","""event"",""trial"",""time""
""blur"",""37"",""599850""
","""event"",""trial"",""time""
""focus"",""37"",""611201""
","""event"",""trial"",""time""
""fullscreenenter"",""1"",""11411""
","""event"",""trial"",""time""
""fullscreenexit"",""42"",""662233""
","","","-1","","","23","20583","7510","&#9789;","elianto","#f73b6a7A"," ","-1","0","-10","[]","0","0","4","","","","","","","",""
"pit-trial","97","1168050","0.0-2.0-17.3-0.3","battery-v0.2","","""event"",""trial"",""time""
""fullscreenenter"",""1"",""11411""
""blur"",""37"",""599850""
""focus"",""37"",""611201""
""fullscreenexit"",""42"",""662233""
","""event"",""trial"",""time""
""blur"",""37"",""599850""
","""event"",""trial"",""time""
""focus"",""37"",""611201""
","""event"",""trial"",""time""
""fullscreenenter"",""1"",""11411""
","""event"",""trial"",""time""
""fullscreenexit"",""42"",""662233""
","","","-1","","","23","20583","7510","&#9789;","elianto","#f73b6a7A"," ","-1","0","-10","[]","0","0","4","","","","","","","",""
"pit-trial","98","1172905","0.0-2.0-17.3-1.3","battery-v0.2","","""event"",""trial"",""time""
""fullscreenenter"",""1"",""11411""
""blur"",""37"",""599850""
""focus"",""37"",""611201""
""fullscreenexit"",""42"",""662233""
","""event"",""trial"",""time""
""blur"",""37"",""599850""
","""event"",""trial"",""time""
""focus"",""37"",""611201""
","""event"",""trial"",""time""
""fullscreenenter"",""1"",""11411""
","""event"",""trial"",""time""
""fullscreenexit"",""42"",""662233""
","","","-1","","","23","20583","7510","&#9789;","elianto","#f73b6a7A"," ","-1","0","-10","[]","0","0","4","","","","","","","",""
"pit-trial","99","1177761","0.0-2.0-17.3-2.3","battery-v0.2","","""event"",""trial"",""time""
""fullscreenenter"",""1"",""11411""
""blur"",""37"",""599850""
""focus"",""37"",""611201""
""fullscreenexit"",""42"",""662233""
","""event"",""trial"",""time""
""blur"",""37"",""599850""
","""event"",""trial"",""time""
""focus"",""37"",""611201""
","""event"",""trial"",""time""
""fullscreenenter"",""1"",""11411""
","""event"",""trial"",""time""
""fullscreenexit"",""42"",""662233""
","","","-1","","","23","20583","7510","&#9789;","elianto","#f73b6a7A"," ","-1","0","-10","[]","0","0","4","","","","","","","",""
"pit-trial","100","1182617","0.0-2.0-17.3-3.3","battery-v0.2","","""event"",""trial"",""time""
""fullscreenenter"",""1"",""11411""
""blur"",""37"",""599850""
""focus"",""37"",""611201""
""fullscreenexit"",""42"",""662233""
","""event"",""trial"",""time""
""blur"",""37"",""599850""
","""event"",""trial"",""time""
""focus"",""37"",""611201""
","""event"",""trial"",""time""
""fullscreenenter"",""1"",""11411""
","""event"",""trial"",""time""
""fullscreenexit"",""42"",""662233""
","","","-1","","","23","20583","7510","&#9789;","elianto","#f73b6a7A"," ","-1","0","0","[]","0","0","4","","","","","","","",""
"pit-trial","101","1187472","0.0-2.0-17.3-4.3","battery-v0.2","","""event"",""trial"",""time""
""fullscreenenter"",""1"",""11411""
""blur"",""37"",""599850""
""focus"",""37"",""611201""
""fullscreenexit"",""42"",""662233""
","""event"",""trial"",""time""
""blur"",""37"",""599850""
","""event"",""trial"",""time""
""focus"",""37"",""611201""
","""event"",""trial"",""time""
""fullscreenenter"",""1"",""11411""
","""event"",""trial"",""time""
""fullscreenexit"",""42"",""662233""
","","","-1","","","23","20583","7510","&#9789;","elianto","#f73b6a7A"," ","-1","0","-10","[]","0","0","4","","","","","","","",""
"call-function","102","1187473","0.0-2.0-18.0","battery-v0.2","","""event"",""trial"",""time""
""fullscreenenter"",""1"",""11411""
""blur"",""37"",""599850""
""focus"",""37"",""611201""
""fullscreenexit"",""42"",""662233""
""blur"",""103"",""1595114""
""focus"",""103"",""1637283""
","""event"",""trial"",""time""
""blur"",""37"",""599850""
""blur"",""103"",""1595114""
","""event"",""trial"",""time""
""focus"",""37"",""611201""
""focus"",""103"",""1637283""
","""event"",""trial"",""time""
""fullscreenenter"",""1"",""11411""
","""event"",""trial"",""time""
""fullscreenexit"",""42"",""662233""
","","","","","","","","","","","","","","","","","","","","","","","","","","",""
"pit-instructions","103","1677136","0.0-2.0-19.0","battery-v0.2","","""event"",""trial"",""time""
""fullscreenenter"",""1"",""11411""
""blur"",""37"",""599850""
""focus"",""37"",""611201""
""fullscreenexit"",""42"",""662233""
""blur"",""103"",""1595114""
""focus"",""103"",""1637283""
","""event"",""trial"",""time""
""blur"",""37"",""599850""
""blur"",""103"",""1595114""
","""event"",""trial"",""time""
""focus"",""37"",""611201""
""focus"",""103"",""1637283""
","""event"",""trial"",""time""
""fullscreenenter"",""1"",""11411""
","""event"",""trial"",""time""
""fullscreenexit"",""42"",""662233""
","","[{""page_index"":0,""viewing_time"":61730.10000000149},{""page_index"":1,""viewing_time"":7152.89999999851},{""page_index"":2,""viewing_time"":29784.29999999702},{""page_index"":3,""viewing_time"":9115.5},{""page_index"":4,""viewing_time"":8916.60000000149},{""page_index"":5,""viewing_time"":16266.89999999851},{""page_index"":6,""viewing_time"":143581.80000000447},{""page_index"":7,""viewing_time"":162194.8999999985},{""page_index"":8,""viewing_time"":29250.20000000298}]","467993.799999997","","","","","","","","","","","","","","","","","","","","","","","",""
"pit-comprehension","104","1695755","0.0-2.0-20.0-0.0","battery-v0.2","","""event"",""trial"",""time""
""fullscreenenter"",""1"",""11411""
""blur"",""37"",""599850""
""focus"",""37"",""611201""
""fullscreenexit"",""42"",""662233""
""blur"",""103"",""1595114""
""focus"",""103"",""1637283""
","""event"",""trial"",""time""
""blur"",""37"",""599850""
""blur"",""103"",""1595114""
","""event"",""trial"",""time""
""focus"",""37"",""611201""
""focus"",""103"",""1637283""
","""event"",""trial"",""time""
""fullscreenenter"",""1"",""11411""
","""event"",""trial"",""time""
""fullscreenexit"",""42"",""662233""
","","","18613.19999999553","[""SPACE""]","0","23","20583","7510","","","","","","","","","","","","","","","","","","",""
"pit-instructions","105","1700619","0.0-2.0-20.0-1.0","battery-v0.2","","""event"",""trial"",""time""
""fullscreenenter"",""1"",""11411""
""blur"",""37"",""599850""
""focus"",""37"",""611201""
""fullscreenexit"",""42"",""662233""
""blur"",""103"",""1595114""
""focus"",""103"",""1637283""
","""event"",""trial"",""time""
""blur"",""37"",""599850""
""blur"",""103"",""1595114""
","""event"",""trial"",""time""
""focus"",""37"",""611201""
""focus"",""103"",""1637283""
","""event"",""trial"",""time""
""fullscreenenter"",""1"",""11411""
","""event"",""trial"",""time""
""fullscreenexit"",""42"",""662233""
","","[{""page_index"":0,""viewing_time"":4840.60000000149}]","4841.10000000149","","","","","","","","","","","","","","","","","","","","","","","",""
"pit-comprehension","106","1720519","0.0-2.0-21.0-0.0","battery-v0.2","","""event"",""trial"",""time""
""fullscreenenter"",""1"",""11411""
""blur"",""37"",""599850""
""focus"",""37"",""611201""
""fullscreenexit"",""42"",""662233""
""blur"",""103"",""1595114""
""focus"",""103"",""1637283""
","""event"",""trial"",""time""
""blur"",""37"",""599850""
""blur"",""103"",""1595114""
","""event"",""trial"",""time""
""focus"",""37"",""611201""
""focus"",""103"",""1637283""
","""event"",""trial"",""time""
""fullscreenenter"",""1"",""11411""
","""event"",""trial"",""time""
""fullscreenexit"",""42"",""662233""
","","","19896.09999999404","[""10""]","0","23","20583","7510","","","","","","","","","","","","","","","","","","",""
"pit-instructions","107","1721951","0.0-2.0-21.0-1.0","battery-v0.2","","""event"",""trial"",""time""
""fullscreenenter"",""1"",""11411""
""blur"",""37"",""599850""
""focus"",""37"",""611201""
""fullscreenexit"",""42"",""662233""
""blur"",""103"",""1595114""
""focus"",""103"",""1637283""
","""event"",""trial"",""time""
""blur"",""37"",""599850""
""blur"",""103"",""1595114""
","""event"",""trial"",""time""
""focus"",""37"",""611201""
""focus"",""103"",""1637283""
","""event"",""trial"",""time""
""fullscreenenter"",""1"",""11411""
","""event"",""trial"",""time""
""fullscreenexit"",""42"",""662233""
","","[{""page_index"":0,""viewing_time"":1405.2999999970198}]","1405.6999999955297","","","","","","","","","","","","","","","","","","","","","","","",""
"pit-comprehension","108","1733036","0.0-2.0-22.0-0.0","battery-v0.2","","""event"",""trial"",""time""
""fullscreenenter"",""1"",""11411""
""blur"",""37"",""599850""
""focus"",""37"",""611201""
""fullscreenexit"",""42"",""662233""
""blur"",""103"",""1595114""
""focus"",""103"",""1637283""
","""event"",""trial"",""time""
""blur"",""37"",""599850""
""blur"",""103"",""1595114""
","""event"",""trial"",""time""
""focus"",""37"",""611201""
""focus"",""103"",""1637283""
","""event"",""trial"",""time""
""fullscreenenter"",""1"",""11411""
","""event"",""trial"",""time""
""fullscreenexit"",""42"",""662233""
","","","11080.39999999851","[""0""]","0","23","20583","7510","","","","","","","","","","","","","","","","","","",""
"pit-instructions","109","1737884","0.0-2.0-22.0-1.0","battery-v0.2","","""event"",""trial"",""time""
""fullscreenenter"",""1"",""11411""
""blur"",""37"",""599850""
""focus"",""37"",""611201""
""fullscreenexit"",""42"",""662233""
""blur"",""103"",""1595114""
""focus"",""103"",""1637283""
","""event"",""trial"",""time""
""blur"",""37"",""599850""
""blur"",""103"",""1595114""
","""event"",""trial"",""time""
""focus"",""37"",""611201""
""focus"",""103"",""1637283""
","""event"",""trial"",""time""
""fullscreenenter"",""1"",""11411""
","""event"",""trial"",""time""
""fullscreenexit"",""42"",""662233""
","","[{""page_index"":0,""viewing_time"":4824.30000000447}]","4824.5","","","","","","","","","","","","","","","","","","","","","","","",""
"pit-comprehension","110","1772802","0.0-2.0-23.0-0.0","battery-v0.2","","""event"",""trial"",""time""
""fullscreenenter"",""1"",""11411""
""blur"",""37"",""599850""
""focus"",""37"",""611201""
""fullscreenexit"",""42"",""662233""
""blur"",""103"",""1595114""
""focus"",""103"",""1637283""
","""event"",""trial"",""time""
""blur"",""37"",""599850""
""blur"",""103"",""1595114""
","""event"",""trial"",""time""
""focus"",""37"",""611201""
""focus"",""103"",""1637283""
","""event"",""trial"",""time""
""fullscreenenter"",""1"",""11411""
","""event"",""trial"",""time""
""fullscreenexit"",""42"",""662233""
","","","34914.09999999404","[""True""]","0","23","20583","7510","","","","","","","","","","","","","","","","","","",""
"pit-instructions","111","1792635","0.0-2.0-23.0-1.0","battery-v0.2","","""event"",""trial"",""time""
""fullscreenenter"",""1"",""11411""
""blur"",""37"",""599850""
""focus"",""37"",""611201""
""fullscreenexit"",""42"",""662233""
""blur"",""103"",""1595114""
""focus"",""103"",""1637283""
","""event"",""trial"",""time""
""blur"",""37"",""599850""
""blur"",""103"",""1595114""
","""event"",""trial"",""time""
""focus"",""37"",""611201""
""focus"",""103"",""1637283""
","""event"",""trial"",""time""
""fullscreenenter"",""1"",""11411""
","""event"",""trial"",""time""
""fullscreenexit"",""42"",""662233""
","","[{""page_index"":0,""viewing_time"":19808.39999999851}]","19808.89999999851","","","","","","","","","","","","","","","","","","","","","","","",""
"pit-comprehension","112","1805535","0.0-2.0-24.0-0.0","battery-v0.2","","""event"",""trial"",""time""
""fullscreenenter"",""1"",""11411""
""blur"",""37"",""599850""
""focus"",""37"",""611201""
""fullscreenexit"",""42"",""662233""
""blur"",""103"",""1595114""
""focus"",""103"",""1637283""
","""event"",""trial"",""time""
""blur"",""37"",""599850""
""blur"",""103"",""1595114""
","""event"",""trial"",""time""
""focus"",""37"",""611201""
""focus"",""103"",""1637283""
","""event"",""trial"",""time""
""fullscreenenter"",""1"",""11411""
","""event"",""trial"",""time""
""fullscreenexit"",""42"",""662233""
","","","12897.10000000149","[""True""]","0","23","20583","7510","","","","","","","","","","","","","","","","","","",""
"pit-instructions","113","1823535","0.0-2.0-24.0-1.0","battery-v0.2","","""event"",""trial"",""time""
""fullscreenenter"",""1"",""11411""
""blur"",""37"",""599850""
""focus"",""37"",""611201""
""fullscreenexit"",""42"",""662233""
""blur"",""103"",""1595114""
""focus"",""103"",""1637283""
","""event"",""trial"",""time""
""blur"",""37"",""599850""
""blur"",""103"",""1595114""
","""event"",""trial"",""time""
""focus"",""37"",""611201""
""focus"",""103"",""1637283""
","""event"",""trial"",""time""
""fullscreenenter"",""1"",""11411""
","""event"",""trial"",""time""
""fullscreenexit"",""42"",""662233""
","","[{""page_index"":0,""viewing_time"":17973.10000000149}]","17973.70000000298","","","","","","","","","","","","","","","","","","","","","","","",""
"pit-comprehension","114","1841435","0.0-2.0-25.0-0.0","battery-v0.2","","""event"",""trial"",""time""
""fullscreenenter"",""1"",""11411""
""blur"",""37"",""599850""
""focus"",""37"",""611201""
""fullscreenexit"",""42"",""662233""
""blur"",""103"",""1595114""
""focus"",""103"",""1637283""
","""event"",""trial"",""time""
""blur"",""37"",""599850""
""blur"",""103"",""1595114""
","""event"",""trial"",""time""
""focus"",""37"",""611201""
""focus"",""103"",""1637283""
","""event"",""trial"",""time""
""fullscreenenter"",""1"",""11411""
","""event"",""trial"",""time""
""fullscreenexit"",""42"",""662233""
","","","17896.20000000298","[""True""]","0","23","20583","7510","","","","","","","","","","","","","","","","","","",""
"pit-instructions","115","1845068","0.0-2.0-25.0-1.0","battery-v0.2","","""event"",""trial"",""time""
""fullscreenenter"",""1"",""11411""
""blur"",""37"",""599850""
""focus"",""37"",""611201""
""fullscreenexit"",""42"",""662233""
""blur"",""103"",""1595114""
""focus"",""103"",""1637283""
","""event"",""trial"",""time""
""blur"",""37"",""599850""
""blur"",""103"",""1595114""
","""event"",""trial"",""time""
""focus"",""37"",""611201""
""focus"",""103"",""1637283""
","""event"",""trial"",""time""
""fullscreenenter"",""1"",""11411""
","""event"",""trial"",""time""
""fullscreenexit"",""42"",""662233""
","","[{""page_index"":0,""viewing_time"":3607.39999999851}]","3607.7999999970198","","","","","","","","","","","","","","","","","","","","","","","",""
"pit-comprehension","116","1849469","0.0-2.0-26.0-0.0","battery-v0.2","","""event"",""trial"",""time""
""fullscreenenter"",""1"",""11411""
""blur"",""37"",""599850""
""focus"",""37"",""611201""
""fullscreenexit"",""42"",""662233""
""blur"",""103"",""1595114""
""focus"",""103"",""1637283""
","""event"",""trial"",""time""
""blur"",""37"",""599850""
""blur"",""103"",""1595114""
","""event"",""trial"",""time""
""focus"",""37"",""611201""
""focus"",""103"",""1637283""
","""event"",""trial"",""time""
""fullscreenenter"",""1"",""11411""
","""event"",""trial"",""time""
""fullscreenexit"",""42"",""662233""
","","","4396.89999999851","[""True""]","1","23","20583","7510","","","","","","","","","","","","","","","","","","",""
"pit-instructions","117","1862367","0.0-2.0-26.0-1.0","battery-v0.2","","""event"",""trial"",""time""
""fullscreenenter"",""1"",""11411""
""blur"",""37"",""599850""
""focus"",""37"",""611201""
""fullscreenexit"",""42"",""662233""
""blur"",""103"",""1595114""
""focus"",""103"",""1637283""
","""event"",""trial"",""time""
""blur"",""37"",""599850""
""blur"",""103"",""1595114""
","""event"",""trial"",""time""
""focus"",""37"",""611201""
""focus"",""103"",""1637283""
","""event"",""trial"",""time""
""fullscreenenter"",""1"",""11411""
","""event"",""trial"",""time""
""fullscreenexit"",""42"",""662233""
","","[{""page_index"":0,""viewing_time"":12877.30000000447}]","12877.70000000298","","","","","","","","","","","","","","","","","","","","","","","",""
"pit-instructions","118","1866084","0.0-2.0-26.0-2.0-0.0","battery-v0.2","","""event"",""trial"",""time""
""fullscreenenter"",""1"",""11411""
""blur"",""37"",""599850""
""focus"",""37"",""611201""
""fullscreenexit"",""42"",""662233""
""blur"",""103"",""1595114""
""focus"",""103"",""1637283""
","""event"",""trial"",""time""
""blur"",""37"",""599850""
""blur"",""103"",""1595114""
","""event"",""trial"",""time""
""focus"",""37"",""611201""
""focus"",""103"",""1637283""
","""event"",""trial"",""time""
""fullscreenenter"",""1"",""11411""
","""event"",""trial"",""time""
""fullscreenexit"",""42"",""662233""
","","[{""page_index"":0,""viewing_time"":3714.5}]","3714.89999999851","","","","","","","","","","","","","","","","","","","","","","","",""
"pit-comprehension","119","1870752","0.0-2.0-26.1-0.1","battery-v0.2","","""event"",""trial"",""time""
""fullscreenenter"",""1"",""11411""
""blur"",""37"",""599850""
""focus"",""37"",""611201""
""fullscreenexit"",""42"",""662233""
""blur"",""103"",""1595114""
""focus"",""103"",""1637283""
","""event"",""trial"",""time""
""blur"",""37"",""599850""
""blur"",""103"",""1595114""
","""event"",""trial"",""time""
""focus"",""37"",""611201""
""focus"",""103"",""1637283""
","""event"",""trial"",""time""
""fullscreenenter"",""1"",""11411""
","""event"",""trial"",""time""
""fullscreenexit"",""42"",""662233""
","","","4664.5","[""False""]","0","23","20583","7510","","","","","","","","","","","","","","","","","","",""
"pit-instructions","120","1873301","0.0-2.0-26.1-1.1","battery-v0.2","","""event"",""trial"",""time""
""fullscreenenter"",""1"",""11411""
""blur"",""37"",""599850""
""focus"",""37"",""611201""
""fullscreenexit"",""42"",""662233""
""blur"",""103"",""1595114""
""focus"",""103"",""1637283""
","""event"",""trial"",""time""
""blur"",""37"",""599850""
""blur"",""103"",""1595114""
","""event"",""trial"",""time""
""focus"",""37"",""611201""
""focus"",""103"",""1637283""
","""event"",""trial"",""time""
""fullscreenenter"",""1"",""11411""
","""event"",""trial"",""time""
""fullscreenexit"",""42"",""662233""
","","[{""page_index"":0,""viewing_time"":2523}]","2523.39999999851","","","","","","","","","","","","","","","","","","","","","","","",""
"pit-instructions","121","1977469","0.0-3.0","battery-v0.2","","""event"",""trial"",""time""
""fullscreenenter"",""1"",""11411""
""blur"",""37"",""599850""
""focus"",""37"",""611201""
""fullscreenexit"",""42"",""662233""
""blur"",""103"",""1595114""
""focus"",""103"",""1637283""
","""event"",""trial"",""time""
""blur"",""37"",""599850""
""blur"",""103"",""1595114""
","""event"",""trial"",""time""
""focus"",""37"",""611201""
""focus"",""103"",""1637283""
","""event"",""trial"",""time""
""fullscreenenter"",""1"",""11411""
","""event"",""trial"",""time""
""fullscreenexit"",""42"",""662233""
","","[{""page_index"":0,""viewing_time"":11597.39999999851},{""page_index"":1,""viewing_time"":53599.5},{""page_index"":2,""viewing_time"":38968}]","104165.39999999851","","","","","","","","","","","","","","","","","","","","","","","",""
"pit-trial","122","1982330","0.0-4.0","battery-v0.2","","""event"",""trial"",""time""
""fullscreenenter"",""1"",""11411""
""blur"",""37"",""599850""
""focus"",""37"",""611201""
""fullscreenexit"",""42"",""662233""
""blur"",""103"",""1595114""
""focus"",""103"",""1637283""
","""event"",""trial"",""time""
""blur"",""37"",""599850""
""blur"",""103"",""1595114""
","""event"",""trial"",""time""
""focus"",""37"",""611201""
""focus"",""103"",""1637283""
","""event"",""trial"",""time""
""fullscreenenter"",""1"",""11411""
","""event"",""trial"",""time""
""fullscreenexit"",""42"",""662233""
","","","-1","","","23","20583","7510","&#9752;","elianto","#f73b6a7A"," ","-1","0","-10","[]","0","1","","","20583","1","3","3","lose","go","0"
"pit-trial","123","1987185","0.0-5.0","battery-v0.2","","""event"",""trial"",""time""
""fullscreenenter"",""1"",""11411""
""blur"",""37"",""599850""
""focus"",""37"",""611201""
""fullscreenexit"",""42"",""662233""
""blur"",""103"",""1595114""
""focus"",""103"",""1637283""
","""event"",""trial"",""time""
""blur"",""37"",""599850""
""blur"",""103"",""1595114""
","""event"",""trial"",""time""
""focus"",""37"",""611201""
""focus"",""103"",""1637283""
","""event"",""trial"",""time""
""fullscreenenter"",""1"",""11411""
","""event"",""trial"",""time""
""fullscreenexit"",""42"",""662233""
","","","-1","","","23","20583","7510","&#9728;","elianto","#f73b6a7A","-1","-1","1","0","[]","0","1","","","20583","2","0","4","lose","no-go","0"
"pit-trial","124","1990910","0.0-6.0","battery-v0.2","","""event"",""trial"",""time""
""fullscreenenter"",""1"",""11411""
""blur"",""37"",""599850""
""focus"",""37"",""611201""
""fullscreenexit"",""42"",""662233""
""blur"",""103"",""1595114""
""focus"",""103"",""1637283""
","""event"",""trial"",""time""
""blur"",""37"",""599850""
""blur"",""103"",""1595114""
","""event"",""trial"",""time""
""focus"",""37"",""611201""
""focus"",""103"",""1637283""
","""event"",""trial"",""time""
""fullscreenenter"",""1"",""11411""
","""event"",""trial"",""time""
""fullscreenexit"",""42"",""662233""
","","","869.3000000044703","","","23","20583","7510","&#9733;","elianto","#3366ff99","-1"," ","0","0","[1720.7000000029802]","1","1","","","20583","3","2","2","win","no-go","0"
"pit-trial","125","1994248","0.0-7.0","battery-v0.2","","""event"",""trial"",""time""
""fullscreenenter"",""1"",""11411""
""blur"",""37"",""599850""
""focus"",""37"",""611201""
""fullscreenexit"",""42"",""662233""
""blur"",""103"",""1595114""
""focus"",""103"",""1637283""
","""event"",""trial"",""time""
""blur"",""37"",""599850""
""blur"",""103"",""1595114""
","""event"",""trial"",""time""
""focus"",""37"",""611201""
""focus"",""103"",""1637283""
","""event"",""trial"",""time""
""fullscreenenter"",""1"",""11411""
","""event"",""trial"",""time""
""fullscreenexit"",""42"",""662233""
","","","482.1000000014901","","","23","20583","7510","&#9730;","elianto","#3366ff99"," "," ","1","0","[1333.5]","1","1","","","20583","4","1","1","win","go","1"
"pit-trial","126","1997592","0.0-8.0","battery-v0.2","","""event"",""trial"",""time""
""fullscreenenter"",""1"",""11411""
""blur"",""37"",""599850""
""focus"",""37"",""611201""
""fullscreenexit"",""42"",""662233""
""blur"",""103"",""1595114""
""focus"",""103"",""1637283""
","""event"",""trial"",""time""
""blur"",""37"",""599850""
""blur"",""103"",""1595114""
","""event"",""trial"",""time""
""focus"",""37"",""611201""
""focus"",""103"",""1637283""
","""event"",""trial"",""time""
""fullscreenenter"",""1"",""11411""
","""event"",""trial"",""time""
""fullscreenexit"",""42"",""662233""
","","","488","","","23","20583","7510","&#9733;","elianto","#3366ff99","-1"," ","0","+10","[1339.8000000044703]","1","1","","","20583","5","2","2","win","no-go","1"
"pit-trial","127","2002448","0.0-9.0","battery-v0.2","","""event"",""trial"",""time""
""fullscreenenter"",""1"",""11411""
""blur"",""37"",""599850""
""focus"",""37"",""611201""
""fullscreenexit"",""42"",""662233""
""blur"",""103"",""1595114""
""focus"",""103"",""1637283""
","""event"",""trial"",""time""
""blur"",""37"",""599850""
""blur"",""103"",""1595114""
","""event"",""trial"",""time""
""focus"",""37"",""611201""
""focus"",""103"",""1637283""
","""event"",""trial"",""time""
""fullscreenenter"",""1"",""11411""
","""event"",""trial"",""time""
""fullscreenexit"",""42"",""662233""
","","","-1","","","23","20583","7510","&#9752;","elianto","#f73b6a7A"," ","-1","0","-10","[]","0","1","","","20583","6","3","3","lose","go","0"
"pit-trial","128","2005895","0.0-10.0","battery-v0.2","","""event"",""trial"",""time""
""fullscreenenter"",""1"",""11411""
""blur"",""37"",""599850""
""focus"",""37"",""611201""
""fullscreenexit"",""42"",""662233""
""blur"",""103"",""1595114""
""focus"",""103"",""1637283""
","""event"",""trial"",""time""
""blur"",""37"",""599850""
""blur"",""103"",""1595114""
","""event"",""trial"",""time""
""focus"",""37"",""611201""
""focus"",""103"",""1637283""
","""event"",""trial"",""time""
""fullscreenenter"",""1"",""11411""
","""event"",""trial"",""time""
""fullscreenexit"",""42"",""662233""
","","","592.1000000014901","","","23","20583","7510","&#9730;","elianto","#3366ff99"," "," ","1","+10","[1443.1000000014901]","1","1","","","20583","7","1","1","win","go","0"
"pit-trial","129","2010751","0.0-11.0","battery-v0.2","","""event"",""trial"",""time""
""fullscreenenter"",""1"",""11411""
""blur"",""37"",""599850""
""focus"",""37"",""611201""
""fullscreenexit"",""42"",""662233""
""blur"",""103"",""1595114""
""focus"",""103"",""1637283""
","""event"",""trial"",""time""
""blur"",""37"",""599850""
""blur"",""103"",""1595114""
","""event"",""trial"",""time""
""focus"",""37"",""611201""
""focus"",""103"",""1637283""
","""event"",""trial"",""time""
""fullscreenenter"",""1"",""11411""
","""event"",""trial"",""time""
""fullscreenexit"",""42"",""662233""
","","","-1","","","23","20583","7510","&#9728;","elianto","#f73b6a7A","-1","-1","1","0","[]","0","1","","","20583","8","0","4","lose","no-go","0"
"pit-trial","130","2014116","0.0-12.0","battery-v0.2","","""event"",""trial"",""time""
""fullscreenenter"",""1"",""11411""
""blur"",""37"",""599850""
""focus"",""37"",""611201""
""fullscreenexit"",""42"",""662233""
""blur"",""103"",""1595114""
""focus"",""103"",""1637283""
","""event"",""trial"",""time""
""blur"",""37"",""599850""
""blur"",""103"",""1595114""
","""event"",""trial"",""time""
""focus"",""37"",""611201""
""focus"",""103"",""1637283""
","""event"",""trial"",""time""
""fullscreenenter"",""1"",""11411""
","""event"",""trial"",""time""
""fullscreenexit"",""42"",""662233""
","","","510.19999999552965","","","23","20583","7510","&#9733;","elianto","#3366ff99","-1"," ","0","0","[1360.5]","1","1","","","20583","9","2","2","win","no-go","0"
"pit-trial","131","2018971","0.0-13.0","battery-v0.2","","""event"",""trial"",""time""
""fullscreenenter"",""1"",""11411""
""blur"",""37"",""599850""
""focus"",""37"",""611201""
""fullscreenexit"",""42"",""662233""
""blur"",""103"",""1595114""
""focus"",""103"",""1637283""
","""event"",""trial"",""time""
""blur"",""37"",""599850""
""blur"",""103"",""1595114""
","""event"",""trial"",""time""
""focus"",""37"",""611201""
""focus"",""103"",""1637283""
","""event"",""trial"",""time""
""fullscreenenter"",""1"",""11411""
","""event"",""trial"",""time""
""fullscreenexit"",""42"",""662233""
","","","-1","","","23","20583","7510","&#9752;","elianto","#f73b6a7A"," ","-1","0","0","[]","0","1","","","20583","10","3","3","lose","go","1"
"pit-trial","132","2023827","0.0-14.0","battery-v0.2","","""event"",""trial"",""time""
""fullscreenenter"",""1"",""11411""
""blur"",""37"",""599850""
""focus"",""37"",""611201""
""fullscreenexit"",""42"",""662233""
""blur"",""103"",""1595114""
""focus"",""103"",""1637283""
","""event"",""trial"",""time""
""blur"",""37"",""599850""
""blur"",""103"",""1595114""
","""event"",""trial"",""time""
""focus"",""37"",""611201""
""focus"",""103"",""1637283""
","""event"",""trial"",""time""
""fullscreenenter"",""1"",""11411""
","""event"",""trial"",""time""
""fullscreenexit"",""42"",""662233""
","","","-1","","","23","20583","7510","&#9728;","elianto","#f73b6a7A","-1","-1","1","-10","[]","0","1","","","20583","11","0","4","lose","no-go","1"
"pit-trial","133","2027345","0.0-15.0","battery-v0.2","","""event"",""trial"",""time""
""fullscreenenter"",""1"",""11411""
""blur"",""37"",""599850""
""focus"",""37"",""611201""
""fullscreenexit"",""42"",""662233""
""blur"",""103"",""1595114""
""focus"",""103"",""1637283""
","""event"",""trial"",""time""
""blur"",""37"",""599850""
""blur"",""103"",""1595114""
","""event"",""trial"",""time""
""focus"",""37"",""611201""
""focus"",""103"",""1637283""
","""event"",""trial"",""time""
""fullscreenenter"",""1"",""11411""
","""event"",""trial"",""time""
""fullscreenexit"",""42"",""662233""
","","","662.6999999955297","","","23","20583","7510","&#9730;","elianto","#3366ff99"," "," ","1","+10","[1514.1999999955297]","1","1","","","20583","12","1","1","win","go","0"
"pit-trial","134","2032200","0.0-16.0","battery-v0.2","","""event"",""trial"",""time""
""fullscreenenter"",""1"",""11411""
""blur"",""37"",""599850""
""focus"",""37"",""611201""
""fullscreenexit"",""42"",""662233""
""blur"",""103"",""1595114""
""focus"",""103"",""1637283""
","""event"",""trial"",""time""
""blur"",""37"",""599850""
""blur"",""103"",""1595114""
","""event"",""trial"",""time""
""focus"",""37"",""611201""
""focus"",""103"",""1637283""
","""event"",""trial"",""time""
""fullscreenenter"",""1"",""11411""
","""event"",""trial"",""time""
""fullscreenexit"",""42"",""662233""
","","","-1","","","23","20583","7510","&#9728;","elianto","#f73b6a7A","-1","-1","1","0","[]","0","1","","","20583","13","0","4","lose","no-go","0"
"pit-trial","135","2035609","0.0-17.0","battery-v0.2","","""event"",""trial"",""time""
""fullscreenenter"",""1"",""11411""
""blur"",""37"",""599850""
""focus"",""37"",""611201""
""fullscreenexit"",""42"",""662233""
""blur"",""103"",""1595114""
""focus"",""103"",""1637283""
","""event"",""trial"",""time""
""blur"",""37"",""599850""
""blur"",""103"",""1595114""
","""event"",""trial"",""time""
""focus"",""37"",""611201""
""focus"",""103"",""1637283""
","""event"",""trial"",""time""
""fullscreenenter"",""1"",""11411""
","""event"",""trial"",""time""
""fullscreenexit"",""42"",""662233""
","","","554.5","","","23","20583","7510","&#9730;","elianto","#3366ff99"," "," ","1","+10","[1405.6000000014901]","1","1","","","20583","14","1","1","win","go","0"
"pit-trial","136","2039052","0.0-18.0","battery-v0.2","","""event"",""trial"",""time""
""fullscreenenter"",""1"",""11411""
""blur"",""37"",""599850""
""focus"",""37"",""611201""
""fullscreenexit"",""42"",""662233""
""blur"",""103"",""1595114""
""focus"",""103"",""1637283""
","""event"",""trial"",""time""
""blur"",""37"",""599850""
""blur"",""103"",""1595114""
","""event"",""trial"",""time""
""focus"",""37"",""611201""
""focus"",""103"",""1637283""
","""event"",""trial"",""time""
""fullscreenenter"",""1"",""11411""
","""event"",""trial"",""time""
""fullscreenexit"",""42"",""662233""
","","","587.7000000029802","","","23","20583","7510","&#9733;","elianto","#3366ff99","-1"," ","0","0","[1438.6000000014901]","1","1","","","20583","15","2","2","win","no-go","0"
"pit-trial","137","2043906","0.0-19.0","battery-v0.2","","""event"",""trial"",""time""
""fullscreenenter"",""1"",""11411""
""blur"",""37"",""599850""
""focus"",""37"",""611201""
""fullscreenexit"",""42"",""662233""
""blur"",""103"",""1595114""
""focus"",""103"",""1637283""
","""event"",""trial"",""time""
""blur"",""37"",""599850""
""blur"",""103"",""1595114""
","""event"",""trial"",""time""
""focus"",""37"",""611201""
""focus"",""103"",""1637283""
","""event"",""trial"",""time""
""fullscreenenter"",""1"",""11411""
","""event"",""trial"",""time""
""fullscreenexit"",""42"",""662233""
","","","-1","","","23","20583","7510","&#9752;","elianto","#f73b6a7A"," ","-1","0","-10","[]","0","1","","","20583","16","3","3","lose","go","0"
"pit-trial","138","2048762","0.0-20.0","battery-v0.2","","""event"",""trial"",""time""
""fullscreenenter"",""1"",""11411""
""blur"",""37"",""599850""
""focus"",""37"",""611201""
""fullscreenexit"",""42"",""662233""
""blur"",""103"",""1595114""
""focus"",""103"",""1637283""
","""event"",""trial"",""time""
""blur"",""37"",""599850""
""blur"",""103"",""1595114""
","""event"",""trial"",""time""
""focus"",""37"",""611201""
""focus"",""103"",""1637283""
","""event"",""trial"",""time""
""fullscreenenter"",""1"",""11411""
","""event"",""trial"",""time""
""fullscreenexit"",""42"",""662233""
","","","-1","","","23","20583","7510","&#9728;","elianto","#f73b6a7A","-1","-1","1","0","[]","0","1","","","20583","17","0","4","lose","no-go","0"
"pit-trial","139","2052137","0.0-21.0","battery-v0.2","","""event"",""trial"",""time""
""fullscreenenter"",""1"",""11411""
""blur"",""37"",""599850""
""focus"",""37"",""611201""
""fullscreenexit"",""42"",""662233""
""blur"",""103"",""1595114""
""focus"",""103"",""1637283""
","""event"",""trial"",""time""
""blur"",""37"",""599850""
""blur"",""103"",""1595114""
","""event"",""trial"",""time""
""focus"",""37"",""611201""
""focus"",""103"",""1637283""
","""event"",""trial"",""time""
""fullscreenenter"",""1"",""11411""
","""event"",""trial"",""time""
""fullscreenexit"",""42"",""662233""
","","","519","","","23","20583","7510","&#9730;","elianto","#3366ff99"," "," ","1","+10","[1370.1000000014901]","1","1","","","20583","18","1","1","win","go","0"
"pit-trial","140","2056498","0.0-22.0","battery-v0.2","","""event"",""trial"",""time""
""fullscreenenter"",""1"",""11411""
""blur"",""37"",""599850""
""focus"",""37"",""611201""
""fullscreenexit"",""42"",""662233""
""blur"",""103"",""1595114""
""focus"",""103"",""1637283""
","""event"",""trial"",""time""
""blur"",""37"",""599850""
""blur"",""103"",""1595114""
","""event"",""trial"",""time""
""focus"",""37"",""611201""
""focus"",""103"",""1637283""
","""event"",""trial"",""time""
""fullscreenenter"",""1"",""11411""
","""event"",""trial"",""time""
""fullscreenexit"",""42"",""662233""
","","","1505.2999999970198","","","23","20583","7510","&#9733;","elianto","#3366ff99","-1"," ","0","0","[2357.1999999955297]","1","1","","","20583","19","2","2","win","no-go","0"
"pit-trial","141","2061353","0.0-23.0","battery-v0.2","","""event"",""trial"",""time""
""fullscreenenter"",""1"",""11411""
""blur"",""37"",""599850""
""focus"",""37"",""611201""
""fullscreenexit"",""42"",""662233""
""blur"",""103"",""1595114""
""focus"",""103"",""1637283""
","""event"",""trial"",""time""
""blur"",""37"",""599850""
""blur"",""103"",""1595114""
","""event"",""trial"",""time""
""focus"",""37"",""611201""
""focus"",""103"",""1637283""
","""event"",""trial"",""time""
""fullscreenenter"",""1"",""11411""
","""event"",""trial"",""time""
""fullscreenexit"",""42"",""662233""
","","","-1","","","23","20583","7510","&#9752;","elianto","#f73b6a7A"," ","-1","0","-10","[]","0","1","","","20583","20","3","3","lose","go","0"
"pit-instructions","142","2079473","0.0-24.0","battery-v0.2","","""event"",""trial"",""time""
""fullscreenenter"",""1"",""11411""
""blur"",""37"",""599850""
""focus"",""37"",""611201""
""fullscreenexit"",""42"",""662233""
""blur"",""103"",""1595114""
""focus"",""103"",""1637283""
","""event"",""trial"",""time""
""blur"",""37"",""599850""
""blur"",""103"",""1595114""
","""event"",""trial"",""time""
""focus"",""37"",""611201""
""focus"",""103"",""1637283""
","""event"",""trial"",""time""
""fullscreenenter"",""1"",""11411""
","""event"",""trial"",""time""
""fullscreenexit"",""42"",""662233""
","","[{""page_index"":0,""viewing_time"":10494.10000000149},{""page_index"":1,""viewing_time"":7622.5}]","18117","","","","","","","","","","","","","","","","","","","","","","","",""
"pit-trial","143","2084329","0.0-25.0","battery-v0.2","","""event"",""trial"",""time""
""fullscreenenter"",""1"",""11411""
""blur"",""37"",""599850""
""focus"",""37"",""611201""
""fullscreenexit"",""42"",""662233""
""blur"",""103"",""1595114""
""focus"",""103"",""1637283""
","""event"",""trial"",""time""
""blur"",""37"",""599850""
""blur"",""103"",""1595114""
","""event"",""trial"",""time""
""focus"",""37"",""611201""
""focus"",""103"",""1637283""
","""event"",""trial"",""time""
""fullscreenenter"",""1"",""11411""
","""event"",""trial"",""time""
""fullscreenexit"",""42"",""662233""
","","","-1","","","23","20583","7510","m","elianto","#f73b6a7A"," ","-1","0","-10","[]","0","2","","","20583","21","0","3","lose","go","0"
"pit-trial","144","2089186","0.0-26.0","battery-v0.2","","""event"",""trial"",""time""
""fullscreenenter"",""1"",""11411""
""blur"",""37"",""599850""
""focus"",""37"",""611201""
""fullscreenexit"",""42"",""662233""
""blur"",""103"",""1595114""
""focus"",""103"",""1637283""
","""event"",""trial"",""time""
""blur"",""37"",""599850""
""blur"",""103"",""1595114""
","""event"",""trial"",""time""
""focus"",""37"",""611201""
""focus"",""103"",""1637283""
","""event"",""trial"",""time""
""fullscreenenter"",""1"",""11411""
","""event"",""trial"",""time""
""fullscreenexit"",""42"",""662233""
","","","-1","","","23","20583","7510","y","elianto","#f73b6a7A"," ","-1","0","-10","[]","0","2","","","20583","22","2","3","lose","go","0"
"pit-trial","145","2094041","0.0-27.0","battery-v0.2","","""event"",""trial"",""time""
""fullscreenenter"",""1"",""11411""
""blur"",""37"",""599850""
""focus"",""37"",""611201""
""fullscreenexit"",""42"",""662233""
""blur"",""103"",""1595114""
""focus"",""103"",""1637283""
","""event"",""trial"",""time""
""blur"",""37"",""599850""
""blur"",""103"",""1595114""
","""event"",""trial"",""time""
""focus"",""37"",""611201""
""focus"",""103"",""1637283""
","""event"",""trial"",""time""
""fullscreenenter"",""1"",""11411""
","""event"",""trial"",""time""
""fullscreenexit"",""42"",""662233""
","","","-1","","","23","20583","7510","h","elianto","#f73b6a7A","-1","-1","1","-10","[]","0","2","","","20583","23","3","4","lose","no-go","1"
"pit-trial","146","2097394","0.0-28.0","battery-v0.2","","""event"",""trial"",""time""
""fullscreenenter"",""1"",""11411""
""blur"",""37"",""599850""
""focus"",""37"",""611201""
""fullscreenexit"",""42"",""662233""
""blur"",""103"",""1595114""
""focus"",""103"",""1637283""
","""event"",""trial"",""time""
""blur"",""37"",""599850""
""blur"",""103"",""1595114""
","""event"",""trial"",""time""
""focus"",""37"",""611201""
""focus"",""103"",""1637283""
","""event"",""trial"",""time""
""fullscreenenter"",""1"",""11411""
","""event"",""trial"",""time""
""fullscreenexit"",""42"",""662233""
","","","496.8999999985099","","","23","20583","7510","r","elianto","#3366ff99","-1"," ","0","0","[1348.3000000044703]","1","2","","","20583","24","1","2","win","no-go","0"
"pit-trial","147","2102250","0.0-29.0","battery-v0.2","","""event"",""trial"",""time""
""fullscreenenter"",""1"",""11411""
""blur"",""37"",""599850""
""focus"",""37"",""611201""
""fullscreenexit"",""42"",""662233""
""blur"",""103"",""1595114""
""focus"",""103"",""1637283""
","""event"",""trial"",""time""
""blur"",""37"",""599850""
""blur"",""103"",""1595114""
","""event"",""trial"",""time""
""focus"",""37"",""611201""
""focus"",""103"",""1637283""
","""event"",""trial"",""time""
""fullscreenenter"",""1"",""11411""
","""event"",""trial"",""time""
""fullscreenexit"",""42"",""662233""
","","","-1","","","23","20583","7510","m","elianto","#f73b6a7A"," ","-1","0","-10","[]","0","2","","","20583","25","0","3","lose","go","0"
"pit-trial","148","2107106","0.0-30.0","battery-v0.2","","""event"",""trial"",""time""
""fullscreenenter"",""1"",""11411""
""blur"",""37"",""599850""
""focus"",""37"",""611201""
""fullscreenexit"",""42"",""662233""
""blur"",""103"",""1595114""
""focus"",""103"",""1637283""
","""event"",""trial"",""time""
""blur"",""37"",""599850""
""blur"",""103"",""1595114""
","""event"",""trial"",""time""
""focus"",""37"",""611201""
""focus"",""103"",""1637283""
","""event"",""trial"",""time""
""fullscreenenter"",""1"",""11411""
","""event"",""trial"",""time""
""fullscreenexit"",""42"",""662233""
","","","-1","","","23","20583","7510","h","elianto","#f73b6a7A","-1","-1","1","0","[]","0","2","","","20583","26","3","4","lose","no-go","0"
"pit-trial","149","2111961","0.0-31.0","battery-v0.2","","""event"",""trial"",""time""
""fullscreenenter"",""1"",""11411""
""blur"",""37"",""599850""
""focus"",""37"",""611201""
""fullscreenexit"",""42"",""662233""
""blur"",""103"",""1595114""
""focus"",""103"",""1637283""
","""event"",""trial"",""time""
""blur"",""37"",""599850""
""blur"",""103"",""1595114""
","""event"",""trial"",""time""
""focus"",""37"",""611201""
""focus"",""103"",""1637283""
","""event"",""trial"",""time""
""fullscreenenter"",""1"",""11411""
","""event"",""trial"",""time""
""fullscreenexit"",""42"",""662233""
","","","-1","","","23","20583","7510","y","elianto","#f73b6a7A"," ","-1","0","0","[]","0","2","","","20583","27","2","3","lose","go","1"
"pit-trial","150","2115481","0.0-32.0","battery-v0.2","","""event"",""trial"",""time""
""fullscreenenter"",""1"",""11411""
""blur"",""37"",""599850""
""focus"",""37"",""611201""
""fullscreenexit"",""42"",""662233""
""blur"",""103"",""1595114""
""focus"",""103"",""1637283""
","""event"",""trial"",""time""
""blur"",""37"",""599850""
""blur"",""103"",""1595114""
","""event"",""trial"",""time""
""focus"",""37"",""611201""
""focus"",""103"",""1637283""
","""event"",""trial"",""time""
""fullscreenenter"",""1"",""11411""
","""event"",""trial"",""time""
""fullscreenexit"",""42"",""662233""
","","","664.0999999940395","","","23","20583","7510","r","elianto","#3366ff99","-1"," ","0","0","[1515.5]","1","2","","","20583","28","1","2","win","no-go","0"
"pit-trial","151","2120337","0.0-33.0","battery-v0.2","","""event"",""trial"",""time""
""fullscreenenter"",""1"",""11411""
""blur"",""37"",""599850""
""focus"",""37"",""611201""
""fullscreenexit"",""42"",""662233""
""blur"",""103"",""1595114""
""focus"",""103"",""1637283""
","""event"",""trial"",""time""
""blur"",""37"",""599850""
""blur"",""103"",""1595114""
","""event"",""trial"",""time""
""focus"",""37"",""611201""
""focus"",""103"",""1637283""
","""event"",""trial"",""time""
""fullscreenenter"",""1"",""11411""
","""event"",""trial"",""time""
""fullscreenexit"",""42"",""662233""
","","","-1","","","23","20583","7510","h","elianto","#f73b6a7A","-1","-1","1","0","[]","0","2","","","20583","29","3","4","lose","no-go","0"
"pit-trial","152","2123975","0.0-34.0","battery-v0.2","","""event"",""trial"",""time""
""fullscreenenter"",""1"",""11411""
""blur"",""37"",""599850""
""focus"",""37"",""611201""
""fullscreenexit"",""42"",""662233""
""blur"",""103"",""1595114""
""focus"",""103"",""1637283""
","""event"",""trial"",""time""
""blur"",""37"",""599850""
""blur"",""103"",""1595114""
","""event"",""trial"",""time""
""focus"",""37"",""611201""
""focus"",""103"",""1637283""
","""event"",""trial"",""time""
""fullscreenenter"",""1"",""11411""
","""event"",""trial"",""time""
""fullscreenexit"",""42"",""662233""
","","","782.8999999985099","","","23","20583","7510","r","elianto","#3366ff99","-1"," ","0","0","[1634.6000000014901]","1","2","","","20583","30","1","2","win","no-go","0"
"pit-trial","153","2128831","0.0-35.0","battery-v0.2","","""event"",""trial"",""time""
""fullscreenenter"",""1"",""11411""
""blur"",""37"",""599850""
""focus"",""37"",""611201""
""fullscreenexit"",""42"",""662233""
""blur"",""103"",""1595114""
""focus"",""103"",""1637283""
","""event"",""trial"",""time""
""blur"",""37"",""599850""
""blur"",""103"",""1595114""
","""event"",""trial"",""time""
""focus"",""37"",""611201""
""focus"",""103"",""1637283""
","""event"",""trial"",""time""
""fullscreenenter"",""1"",""11411""
","""event"",""trial"",""time""
""fullscreenexit"",""42"",""662233""
","","","-1","","","23","20583","7510","m","elianto","#f73b6a7A"," ","-1","0","-10","[]","0","2","","","20583","31","0","3","lose","go","0"
"pit-trial","154","2133687","0.0-36.0","battery-v0.2","","""event"",""trial"",""time""
""fullscreenenter"",""1"",""11411""
""blur"",""37"",""599850""
""focus"",""37"",""611201""
""fullscreenexit"",""42"",""662233""
""blur"",""103"",""1595114""
""focus"",""103"",""1637283""
","""event"",""trial"",""time""
""blur"",""37"",""599850""
""blur"",""103"",""1595114""
","""event"",""trial"",""time""
""focus"",""37"",""611201""
""focus"",""103"",""1637283""
","""event"",""trial"",""time""
""fullscreenenter"",""1"",""11411""
","""event"",""trial"",""time""
""fullscreenexit"",""42"",""662233""
","","","-1","","","23","20583","7510","y","elianto","#f73b6a7A"," ","-1","0","0","[]","0","2","","","20583","32","2","3","lose","go","1"
"pit-trial","155","2138543","0.0-37.0","battery-v0.2","","""event"",""trial"",""time""
""fullscreenenter"",""1"",""11411""
""blur"",""37"",""599850""
""focus"",""37"",""611201""
""fullscreenexit"",""42"",""662233""
""blur"",""103"",""1595114""
""focus"",""103"",""1637283""
","""event"",""trial"",""time""
""blur"",""37"",""599850""
""blur"",""103"",""1595114""
","""event"",""trial"",""time""
""focus"",""37"",""611201""
""focus"",""103"",""1637283""
","""event"",""trial"",""time""
""fullscreenenter"",""1"",""11411""
","""event"",""trial"",""time""
""fullscreenexit"",""42"",""662233""
","","","-1","","","23","20583","7510","h","elianto","#f73b6a7A","-1","-1","1","0","[]","0","2","","","20583","33","3","4","lose","no-go","0"
"pit-trial","156","2141879","0.0-38.0","battery-v0.2","","""event"",""trial"",""time""
""fullscreenenter"",""1"",""11411""
""blur"",""37"",""599850""
""focus"",""37"",""611201""
""fullscreenexit"",""42"",""662233""
""blur"",""103"",""1595114""
""focus"",""103"",""1637283""
","""event"",""trial"",""time""
""blur"",""37"",""599850""
""blur"",""103"",""1595114""
","""event"",""trial"",""time""
""focus"",""37"",""611201""
""focus"",""103"",""1637283""
","""event"",""trial"",""time""
""fullscreenenter"",""1"",""11411""
","""event"",""trial"",""time""
""fullscreenexit"",""42"",""662233""
","","","480.40000000596046","","","23","20583","7510","r","elianto","#3366ff99","-1"," ","0","0","[1331.8000000044703]","1","2","","","20583","34","1","2","win","no-go","0"
"pit-trial","157","2146735","0.0-39.0","battery-v0.2","","""event"",""trial"",""time""
""fullscreenenter"",""1"",""11411""
""blur"",""37"",""599850""
""focus"",""37"",""611201""
""fullscreenexit"",""42"",""662233""
""blur"",""103"",""1595114""
""focus"",""103"",""1637283""
","""event"",""trial"",""time""
""blur"",""37"",""599850""
""blur"",""103"",""1595114""
","""event"",""trial"",""time""
""focus"",""37"",""611201""
""focus"",""103"",""1637283""
","""event"",""trial"",""time""
""fullscreenenter"",""1"",""11411""
","""event"",""trial"",""time""
""fullscreenexit"",""42"",""662233""
","","","-1","","","23","20583","7510","m","elianto","#f73b6a7A"," ","-1","0","-10","[3756.2999999970198]","1","2","","","20583","35","0","3","lose","go","0"
"pit-trial","158","2151590","0.0-40.0","battery-v0.2","","""event"",""trial"",""time""
""fullscreenenter"",""1"",""11411""
""blur"",""37"",""599850""
""focus"",""37"",""611201""
""fullscreenexit"",""42"",""662233""
