"trial_type","trial_index","time_elapsed","internal_node_id","task_version","subject_id","interactions","blur_events","focus_events","fullscreenenter_events","fullscreenexit_events","success","view_history","rt","responses","num_errors","age","subject","participantId","rune","rune_set","hex","correct","choice","accuracy","outcome","keys","total_keys","block","practice","value","sub","trial","stimulus","robot","valence","action","sham"
"pavlovia","0","8","0.0-0.0","battery-v0.2","","""event"",""trial"",""time""
""fullscreenenter"",""1"",""1197""
","
","
","""event"",""trial"",""time""
""fullscreenenter"",""1"",""1197""
","
","","","","","","","","","","","","","","","","","","","","","","","","","","",""
"fullscreen","1","2194","0.0-1.0","battery-v0.2","","""event"",""trial"",""time""
""fullscreenenter"",""1"",""1197""
","
","
","""event"",""trial"",""time""
""fullscreenenter"",""1"",""1197""
","
","true","","","","","","","","","","","","","","","","","","","","","","","","","",""
"pit-instructions","2","7452","0.0-2.0-0.0","battery-v0.2","","""event"",""trial"",""time""
""fullscreenenter"",""1"",""1197""
","
","
","""event"",""trial"",""time""
""fullscreenenter"",""1"",""1197""
","
","","[{""page_index"":0,""viewing_time"":5252.899999976158}]","5253.399999976158","","","","","","","","","","","","","","","","","","","","","","","",""
"pit-comprehension","3","10061","0.0-2.0-1.0-0.0","battery-v0.2","","""event"",""trial"",""time""
""fullscreenenter"",""1"",""1197""
","
","
","""event"",""trial"",""time""
""fullscreenenter"",""1"",""1197""
","
","","","2605.600000023842","[""shark""]","0","13","7685","3772","","","","","","","","","","","","","","","","","","",""
"pit-instructions","4","11399","0.0-2.0-1.0-1.0","battery-v0.2","","""event"",""trial"",""time""
""fullscreenenter"",""1"",""1197""
","
","
","""event"",""trial"",""time""
""fullscreenenter"",""1"",""1197""
","
","","[{""page_index"":0,""viewing_time"":1326.8999999761581}]","1327.1000000238419","","","","","","","","","","","","","","","","","","","","","","","",""
"pit-comprehension","5","13640","0.0-2.0-2.0-0.0","battery-v0.2","","""event"",""trial"",""time""
""fullscreenenter"",""1"",""1197""
","
","
","""event"",""trial"",""time""
""fullscreenenter"",""1"",""1197""
","
","","","2238.4000000953674","[""tiger""]","0","13","7685","3772","","","","","","","","","","","","","","","","","","",""
"pit-instructions","6","14600","0.0-2.0-2.0-1.0","battery-v0.2","","""event"",""trial"",""time""
""fullscreenenter"",""1"",""1197""
","
","
","""event"",""trial"",""time""
""fullscreenenter"",""1"",""1197""
","
","","[{""page_index"":0,""viewing_time"":955.6000000238419}]","955.8000000715256","","","","","","","","","","","","","","","","","","","","","","","",""
"pit-instructions","7","111485","0.0-2.0-3.0","battery-v0.2","","""event"",""trial"",""time""
""fullscreenenter"",""1"",""1197""
","
","
","""event"",""trial"",""time""
""fullscreenenter"",""1"",""1197""
","
","","[{""page_index"":0,""viewing_time"":7942.899999976158},{""page_index"":1,""viewing_time"":5868.199999928474},{""page_index"":2,""viewing_time"":6482.300000071526},{""page_index"":3,""viewing_time"":5459.5},{""page_index"":4,""viewing_time"":6278.699999928474},{""page_index"":5,""viewing_time"":5438.700000047684},{""page_index"":6,""viewing_time"":7155.5},{""page_index"":7,""viewing_time"":6881.700000047684},{""page_index"":8,""viewing_time"":7116.399999976158},{""page_index"":9,""viewing_time"":9947.399999976158},{""page_index"":10,""viewing_time"":7270.700000047684},{""page_index"":11,""viewing_time"":7818.099999904633},{""page_index"":12,""viewing_time"":7724.900000095367},{""page_index"":13,""viewing_time"":5498.199999928474}]","96883.5","","","","","","","","","","","","","","","","","","","","","","","",""
"pit-trial","8","114578","0.0-2.0-4.0-0.0","battery-v0.2","","""event"",""trial"",""time""
""fullscreenenter"",""1"",""1197""
","
","
","""event"",""trial"",""time""
""fullscreenenter"",""1"",""1197""
","
","","","237.20000004768372","","","13","7685","3772","&#9784;","elianto","#FFFFF080"," "," ","1","&#10004","[1089.7999999523163,3090.6999999284744]","2","0","0","","","","","","","",""
"pit-trial","9","117874","0.0-2.0-4.1-0.1","battery-v0.2","","""event"",""trial"",""time""
""fullscreenenter"",""1"",""1197""
","
","
","""event"",""trial"",""time""
""fullscreenenter"",""1"",""1197""
","
","","","429.40000009536743","","","13","7685","3772","&#9784;","elianto","#FFFFF080"," "," ","1","&#10004","[1289.5]","1","0","0","","","","","","","",""
"pit-trial","10","121494","0.0-2.0-4.2-0.2","battery-v0.2","","""event"",""trial"",""time""
""fullscreenenter"",""1"",""1197""
","
","
","""event"",""trial"",""time""
""fullscreenenter"",""1"",""1197""
","
","","","755.3999999761581","","","13","7685","3772","&#9784;","elianto","#FFFFF080"," "," ","1","&#10004","[19.799999952316284,1605.6999999284744]","2","0","0","","","","","","","",""
"pit-trial","11","124794","0.0-2.0-4.3-0.3","battery-v0.2","","""event"",""trial"",""time""
""fullscreenenter"",""1"",""1197""
","
","
","""event"",""trial"",""time""
""fullscreenenter"",""1"",""1197""
","
","","","432.7999999523163","","","13","7685","3772","&#9784;","elianto","#FFFFF080"," "," ","1","&#10004","[1291.3999999761581]","1","0","0","","","","","","","",""
"pit-trial","12","128104","0.0-2.0-4.4-0.4","battery-v0.2","","""event"",""trial"",""time""
""fullscreenenter"",""1"",""1197""
","
","
","""event"",""trial"",""time""
""fullscreenenter"",""1"",""1197""
","
","","","442.40000009536743","","","13","7685","3772","&#9784;","elianto","#FFFFF080"," "," ","1","&#10004","[1301.8000000715256]","1","0","0","","","","","","","",""
"pit-instructions","13","151109","0.0-2.0-5.0","battery-v0.2","","""event"",""trial"",""time""
""fullscreenenter"",""1"",""1197""
","
","
","""event"",""trial"",""time""
""fullscreenenter"",""1"",""1197""
","
","","[{""page_index"":0,""viewing_time"":5097.799999952316},{""page_index"":1,""viewing_time"":6850.600000023842},{""page_index"":2,""viewing_time"":4795.399999976158},{""page_index"":3,""viewing_time"":6257.300000071526}]","23001.5","","","","","","","","","","","","","","","","","","","","","","","",""
"pit-trial","14","155994","0.0-2.0-6.0-0.0","battery-v0.2","","""event"",""trial"",""time""
""fullscreenenter"",""1"",""1197""
","
","
","""event"",""trial"",""time""
""fullscreenenter"",""1"",""1197""
","
","","","-1","","","13","7685","3772","&#9854;","elianto","#FFFFF080","-1","-1","1","&#10004","[]","0","0","1","","","","","","","",""
"pit-trial","15","160884","0.0-2.0-6.1-0.1","battery-v0.2","","""event"",""trial"",""time""
""fullscreenenter"",""1"",""1197""
","
","
","""event"",""trial"",""time""
""fullscreenenter"",""1"",""1197""
","
","","","-1","","","13","7685","3772","&#9854;","elianto","#FFFFF080","-1","-1","1","&#10004","[]","0","0","1","","","","","","","",""
"pit-trial","16","165754","0.0-2.0-6.2-0.2","battery-v0.2","","""event"",""trial"",""time""
""fullscreenenter"",""1"",""1197""
","
","
","""event"",""trial"",""time""
""fullscreenenter"",""1"",""1197""
","
","","","-1","","","13","7685","3772","&#9854;","elianto","#FFFFF080","-1","-1","1","&#10004","[]","0","0","1","","","","","","","",""
"pit-trial","17","170624","0.0-2.0-6.3-0.3","battery-v0.2","","""event"",""trial"",""time""
""fullscreenenter"",""1"",""1197""
","
","
","""event"",""trial"",""time""
""fullscreenenter"",""1"",""1197""
","
","","","-1","","","13","7685","3772","&#9854;","elianto","#FFFFF080","-1","-1","1","&#10004","[]","0","0","1","","","","","","","",""
"pit-trial","18","175504","0.0-2.0-6.4-0.4","battery-v0.2","","""event"",""trial"",""time""
""fullscreenenter"",""1"",""1197""
","
","
","""event"",""trial"",""time""
""fullscreenenter"",""1"",""1197""
","
","","","-1","","","13","7685","3772","&#9854;","elianto","#FFFFF080","-1","-1","1","&#10004","[]","0","0","1","","","","","","","",""
"pit-instructions","19","293197","0.0-2.0-7.0","battery-v0.2","","""event"",""trial"",""time""
""fullscreenenter"",""1"",""1197""
","
","
","""event"",""trial"",""time""
""fullscreenenter"",""1"",""1197""
","
","","[{""page_index"":0,""viewing_time"":5839.799999952316},{""page_index"":1,""viewing_time"":7125.800000071526},{""page_index"":2,""viewing_time"":8035},{""page_index"":3,""viewing_time"":5990.299999952316},{""page_index"":4,""viewing_time"":5694.200000047684},{""page_index"":5,""viewing_time"":6544.299999952316},{""page_index"":6,""viewing_time"":4324.700000047684},{""page_index"":7,""viewing_time"":7218.899999976158},{""page_index"":8,""viewing_time"":6625.299999952316},{""page_index"":9,""viewing_time"":5990.700000047684},{""page_index"":10,""viewing_time"":7288.699999928474},{""page_index"":11,""viewing_time"":4242.100000023842},{""page_index"":12,""viewing_time"":6676.300000071526},{""page_index"":13,""viewing_time"":7607.099999904633},{""page_index"":14,""viewing_time"":7911.100000023842},{""page_index"":15,""viewing_time"":6924.300000071526},{""page_index"":16,""viewing_time"":6624.799999952316},{""page_index"":17,""viewing_time"":7024.899999976158}]","117688.60000002384","","","","","","","","","","","","","","","","","","","","","","","",""
"pit-trial","20","296585","0.0-2.0-8.0-0.0","battery-v0.2","","""event"",""trial"",""time""
""fullscreenenter"",""1"",""1197""
","
","
","""event"",""trial"",""time""
""fullscreenenter"",""1"",""1197""
","
","","","532.1999999284744","","","13","7685","3772","&#9776;","elianto","#3366ff99"," "," ","1","+10","[1385.0999999046326]","1","0","1","","","","","","","",""
"pit-trial","21","299925","0.0-2.0-8.0-1.0","battery-v0.2","","""event"",""trial"",""time""
""fullscreenenter"",""1"",""1197""
","
","
","""event"",""trial"",""time""
""fullscreenenter"",""1"",""1197""
","
","","","480.7000000476837","","","13","7685","3772","&#9776;","elianto","#3366ff99"," "," ","1","+10","[1331.1000000238419]","1","0","1","","","","","","","",""
"pit-trial","22","303314","0.0-2.0-8.0-2.0","battery-v0.2","","""event"",""trial"",""time""
""fullscreenenter"",""1"",""1197""
","
","
","""event"",""trial"",""time""
""fullscreenenter"",""1"",""1197""
","
","","","526.5","","","13","7685","3772","&#9776;","elianto","#3366ff99"," "," ","1","+10","[1384.1000000238419]","1","0","1","","","","","","","",""
"pit-trial","23","306754","0.0-2.0-8.0-3.0","battery-v0.2","","""event"",""trial"",""time""
""fullscreenenter"",""1"",""1197""
","
","
","""event"",""trial"",""time""
""fullscreenenter"",""1"",""1197""
","
","","","580","","","13","7685","3772","&#9776;","elianto","#3366ff99"," "," ","1","0","[1433.5]","1","0","1","","","","","","","",""
"pit-trial","24","310084","0.0-2.0-8.0-4.0","battery-v0.2","","""event"",""trial"",""time""
""fullscreenenter"",""1"",""1197""
","
","
","""event"",""trial"",""time""
""fullscreenenter"",""1"",""1197""
","
","","","469.10000002384186","","","13","7685","3772","&#9776;","elianto","#3366ff99"," "," ","1","+10","[1327.1999999284744]","1","0","1","","","","","","","",""
"pit-trial","25","313364","0.0-2.0-8.1-0.1","battery-v0.2","","""event"",""trial"",""time""
""fullscreenenter"",""1"",""1197""
","
","
","""event"",""trial"",""time""
""fullscreenenter"",""1"",""1197""
","
","","","400.60000002384186","","","13","7685","3772","&#9776;","elianto","#3366ff99"," "," ","1","+10","[1263.3999999761581]","1","0","1","","","","","","","",""
"pit-trial","26","316534","0.0-2.0-8.1-1.1","battery-v0.2","","""event"",""trial"",""time""
""fullscreenenter"",""1"",""1197""
","
","
","""event"",""trial"",""time""
""fullscreenenter"",""1"",""1197""
","
","","","301.60000002384186","","","13","7685","3772","&#9776;","elianto","#3366ff99"," "," ","1","+10","[1152.3999999761581]","1","0","1","","","","","","","",""
"pit-trial","27","319694","0.0-2.0-8.1-2.1","battery-v0.2","","""event"",""trial"",""time""
""fullscreenenter"",""1"",""1197""
","
","
","""event"",""trial"",""time""
""fullscreenenter"",""1"",""1197""
","
","","","292.8000000715256","","","13","7685","3772","&#9776;","elianto","#3366ff99"," "," ","1","+10","[1143.1000000238419]","1","0","1","","","","","","","",""
"pit-trial","28","322986","0.0-2.0-8.1-3.1","battery-v0.2","","""event"",""trial"",""time""
""fullscreenenter"",""1"",""1197""
","
","
","""event"",""trial"",""time""
""fullscreenenter"",""1"",""1197""
","
","","","435.7999999523163","","","13","7685","3772","&#9776;","elianto","#3366ff99"," "," ","1","0","[1289.5999999046326]","1","0","1","","","","","","","",""
"pit-trial","29","326340","0.0-2.0-8.1-4.1","battery-v0.2","","""event"",""trial"",""time""
""fullscreenenter"",""1"",""1197""
","
","
","""event"",""trial"",""time""
""fullscreenenter"",""1"",""1197""
","
","","","500.7999999523163","","","13","7685","3772","&#9776;","elianto","#3366ff99"," "," ","1","+10","[1352.0999999046326]","1","0","1","","","","","","","",""
"pit-trial","30","329813","0.0-2.0-8.2-0.2","battery-v0.2","","""event"",""trial"",""time""
""fullscreenenter"",""1"",""1197""
","
","
","""event"",""trial"",""time""
""fullscreenenter"",""1"",""1197""
","
","","","618.3999999761581","","","13","7685","3772","&#9776;","elianto","#3366ff99"," "," ","1","+10","[1469.1999999284744]","1","0","1","","","","","","","",""
"pit-trial","31","333200","0.0-2.0-8.2-1.2","battery-v0.2","","""event"",""trial"",""time""
""fullscreenenter"",""1"",""1197""
","
","
","""event"",""trial"",""time""
""fullscreenenter"",""1"",""1197""
","
","","","534.1000000238419","","","13","7685","3772","&#9776;","elianto","#3366ff99"," "," ","1","+10","[1384.7000000476837]","1","0","1","","","","","","","",""
"pit-trial","32","336536","0.0-2.0-8.2-2.2","battery-v0.2","","""event"",""trial"",""time""
""fullscreenenter"",""1"",""1197""
","
","
","""event"",""trial"",""time""
""fullscreenenter"",""1"",""1197""
","
","","","482.5","","","13","7685","3772","&#9776;","elianto","#3366ff99"," "," ","1","+10","[1333.2999999523163]","1","0","1","","","","","","","",""
"pit-trial","33","339998","0.0-2.0-8.2-3.2","battery-v0.2","","""event"",""trial"",""time""
""fullscreenenter"",""1"",""1197""
","
","
","""event"",""trial"",""time""
""fullscreenenter"",""1"",""1197""
","
","","","606.3999999761581","","","13","7685","3772","&#9776;","elianto","#3366ff99"," "," ","1","0","[1457.6000000238419]","1","0","1","","","","","","","",""
"pit-trial","34","343445","0.0-2.0-8.2-4.2","battery-v0.2","","""event"",""trial"",""time""
""fullscreenenter"",""1"",""1197""
","
","
","""event"",""trial"",""time""
""fullscreenenter"",""1"",""1197""
","
","","","592.7000000476837","","","13","7685","3772","&#9776;","elianto","#3366ff99"," "," ","1","+10","[1444.7000000476837]","1","0","1","","","","","","","",""
"call-function","35","343447","0.0-2.0-9.0","battery-v0.2","","""event"",""trial"",""time""
""fullscreenenter"",""1"",""1197""
""fullscreenexit"",""36"",""349950""
""blur"",""36"",""349964""
""focus"",""36"",""352999""
""blur"",""36"",""355498""
""focus"",""36"",""359508""
","""event"",""trial"",""time""
""blur"",""36"",""349964""
""blur"",""36"",""355498""
","""event"",""trial"",""time""
""focus"",""36"",""352999""
""focus"",""36"",""359508""
","""event"",""trial"",""time""
""fullscreenenter"",""1"",""1197""
","""event"",""trial"",""time""
""fullscreenexit"",""36"",""349950""
","","","","","","","","","","","","","","","","","","","","","","","","","","",""
"pit-instructions","36","392567","0.0-2.0-10.0","battery-v0.2","","""event"",""trial"",""time""
""fullscreenenter"",""1"",""1197""
""fullscreenexit"",""36"",""349950""
""blur"",""36"",""349964""
""focus"",""36"",""352999""
""blur"",""36"",""355498""
""focus"",""36"",""359508""
","""event"",""trial"",""time""
""blur"",""36"",""349964""
""blur"",""36"",""355498""
","""event"",""trial"",""time""
""focus"",""36"",""352999""
""focus"",""36"",""359508""
","""event"",""trial"",""time""
""fullscreenenter"",""1"",""1197""
","""event"",""trial"",""time""
""fullscreenexit"",""36"",""349950""
","","[{""page_index"":0,""viewing_time"":17482},{""page_index"":1,""viewing_time"":6749.100000023842},{""page_index"":2,""viewing_time"":9019.700000047684},{""page_index"":3,""viewing_time"":8630.199999928474},{""page_index"":4,""viewing_time"":7238.399999976158}]","49119.89999997616","","","","","","","","","","","","","","","","","","","","","","","",""
"pit-trial","37","395444","0.0-2.0-11.0-0.0","battery-v0.2","","""event"",""trial"",""time""
""fullscreenenter"",""1"",""1197""
""fullscreenexit"",""36"",""349950""
""blur"",""36"",""349964""
""focus"",""36"",""352999""
""blur"",""36"",""355498""
""focus"",""36"",""359508""
","""event"",""trial"",""time""
""blur"",""36"",""349964""
""blur"",""36"",""355498""
","""event"",""trial"",""time""
""focus"",""36"",""352999""
""focus"",""36"",""359508""
","""event"",""trial"",""time""
""fullscreenenter"",""1"",""1197""
","""event"",""trial"",""time""
""fullscreenexit"",""36"",""349950""
","","","10.899999976158142","","","13","7685","3772","&#9761;","elianto","#3366ff99","-1"," ","0","0","[873.5,1366.9000000953674]","2","0","2","","","","","","","",""
"pit-trial","38","398814","0.0-2.0-11.0-1.0","battery-v0.2","","""event"",""trial"",""time""
""fullscreenenter"",""1"",""1197""
""fullscreenexit"",""36"",""349950""
""blur"",""36"",""349964""
""focus"",""36"",""352999""
""blur"",""36"",""355498""
""focus"",""36"",""359508""
","""event"",""trial"",""time""
""blur"",""36"",""349964""
""blur"",""36"",""355498""
","""event"",""trial"",""time""
""focus"",""36"",""352999""
""focus"",""36"",""359508""
","""event"",""trial"",""time""
""fullscreenenter"",""1"",""1197""
","""event"",""trial"",""time""
""fullscreenexit"",""36"",""349950""
","","","498.2000000476837","","","13","7685","3772","&#9761;","elianto","#3366ff99","-1"," ","0","0","[1349.7000000476837]","1","0","2","","","","","","","",""
"pit-trial","39","401944","0.0-2.0-11.0-2.0","battery-v0.2","","""event"",""trial"",""time""
""fullscreenenter"",""1"",""1197""
""fullscreenexit"",""36"",""349950""
""blur"",""36"",""349964""
""focus"",""36"",""352999""
""blur"",""36"",""355498""
""focus"",""36"",""359508""
","""event"",""trial"",""time""
""blur"",""36"",""349964""
""blur"",""36"",""355498""
","""event"",""trial"",""time""
""focus"",""36"",""352999""
""focus"",""36"",""359508""
","""event"",""trial"",""time""
""fullscreenenter"",""1"",""1197""
","""event"",""trial"",""time""
""fullscreenexit"",""36"",""349950""
","","","241.60000002384186","","","13","7685","3772","&#9761;","elianto","#3366ff99","-1"," ","0","0","[1107.7000000476837]","1","0","2","","","","","","","",""
"pit-trial","40","405504","0.0-2.0-11.0-3.0","battery-v0.2","","""event"",""trial"",""time""
""fullscreenenter"",""1"",""1197""
""fullscreenexit"",""36"",""349950""
""blur"",""36"",""349964""
""focus"",""36"",""352999""
""blur"",""36"",""355498""
""focus"",""36"",""359508""
","""event"",""trial"",""time""
""blur"",""36"",""349964""
""blur"",""36"",""355498""
","""event"",""trial"",""time""
""focus"",""36"",""352999""
""focus"",""36"",""359508""
","""event"",""trial"",""time""
""fullscreenenter"",""1"",""1197""
","""event"",""trial"",""time""
""fullscreenexit"",""36"",""349950""
","","","690.5","","","13","7685","3772","&#9761;","elianto","#3366ff99","-1"," ","0","+10","[1542.0999999046326]","1","0","2","","","","","","","",""
"pit-trial","41","408794","0.0-2.0-11.0-4.0","battery-v0.2","","""event"",""trial"",""time""
""fullscreenenter"",""1"",""1197""
""fullscreenexit"",""36"",""349950""
""blur"",""36"",""349964""
""focus"",""36"",""352999""
""blur"",""36"",""355498""
""focus"",""36"",""359508""
","""event"",""trial"",""time""
""blur"",""36"",""349964""
""blur"",""36"",""355498""
","""event"",""trial"",""time""
""focus"",""36"",""352999""
""focus"",""36"",""359508""
","""event"",""trial"",""time""
""fullscreenenter"",""1"",""1197""
","""event"",""trial"",""time""
""fullscreenexit"",""36"",""349950""
","","","411.7000000476837","","","13","7685","3772","&#9761;","elianto","#3366ff99","-1"," ","0","0","[1269.5]","1","0","2","","","","","","","",""
"pit-trial","42","412074","0.0-2.0-11.1-0.1","battery-v0.2","","""event"",""trial"",""time""
""fullscreenenter"",""1"",""1197""
""fullscreenexit"",""36"",""349950""
""blur"",""36"",""349964""
""focus"",""36"",""352999""
""blur"",""36"",""355498""
""focus"",""36"",""359508""
","""event"",""trial"",""time""
""blur"",""36"",""349964""
""blur"",""36"",""355498""
","""event"",""trial"",""time""
""focus"",""36"",""352999""
""focus"",""36"",""359508""
","""event"",""trial"",""time""
""fullscreenenter"",""1"",""1197""
","""event"",""trial"",""time""
""fullscreenexit"",""36"",""349950""
","","","404.7000000476837","","","13","7685","3772","&#9761;","elianto","#3366ff99","-1"," ","0","0","[1257]","1","0","2","","","","","","","",""
"pit-trial","43","415404","0.0-2.0-11.1-1.1","battery-v0.2","","""event"",""trial"",""time""
""fullscreenenter"",""1"",""1197""
""fullscreenexit"",""36"",""349950""
""blur"",""36"",""349964""
""focus"",""36"",""352999""
""blur"",""36"",""355498""
""focus"",""36"",""359508""
","""event"",""trial"",""time""
""blur"",""36"",""349964""
""blur"",""36"",""355498""
","""event"",""trial"",""time""
""focus"",""36"",""352999""
""focus"",""36"",""359508""
","""event"",""trial"",""time""
""fullscreenenter"",""1"",""1197""
","""event"",""trial"",""time""
""fullscreenexit"",""36"",""349950""
","","","459.09999990463257","","","13","7685","3772","&#9761;","elianto","#3366ff99","-1"," ","0","0","[1313.5999999046326]","1","0","2","","","","","","","",""
"pit-trial","44","418844","0.0-2.0-11.1-2.1","battery-v0.2","","""event"",""trial"",""time""
""fullscreenenter"",""1"",""1197""
""fullscreenexit"",""36"",""349950""
""blur"",""36"",""349964""
""focus"",""36"",""352999""
""blur"",""36"",""355498""
""focus"",""36"",""359508""
","""event"",""trial"",""time""
""blur"",""36"",""349964""
""blur"",""36"",""355498""
","""event"",""trial"",""time""
""focus"",""36"",""352999""
""focus"",""36"",""359508""
","""event"",""trial"",""time""
""fullscreenenter"",""1"",""1197""
","""event"",""trial"",""time""
""fullscreenexit"",""36"",""349950""
","","","577.1000000238419","","","13","7685","3772","&#9761;","elianto","#3366ff99","-1"," ","0","0","[1434.6000000238419]","1","0","2","","","","","","","",""
"pit-trial","45","421934","0.0-2.0-11.1-3.1","battery-v0.2","","""event"",""trial"",""time""
""fullscreenenter"",""1"",""1197""
""fullscreenexit"",""36"",""349950""
""blur"",""36"",""349964""
""focus"",""36"",""352999""
""blur"",""36"",""355498""
""focus"",""36"",""359508""
","""event"",""trial"",""time""
""blur"",""36"",""349964""
""blur"",""36"",""355498""
","""event"",""trial"",""time""
""focus"",""36"",""352999""
""focus"",""36"",""359508""
","""event"",""trial"",""time""
""fullscreenenter"",""1"",""1197""
","""event"",""trial"",""time""
""fullscreenexit"",""36"",""349950""
","","","235.60000002384186","","","13","7685","3772","&#9761;","elianto","#3366ff99","-1"," ","0","+10","[1086.6999999284744]","1","0","2","","","","","","","",""
"pit-trial","46","425236","0.0-2.0-11.1-4.1","battery-v0.2","","""event"",""trial"",""time""
""fullscreenenter"",""1"",""1197""
""fullscreenexit"",""36"",""349950""
""blur"",""36"",""349964""
""focus"",""36"",""352999""
""blur"",""36"",""355498""
""focus"",""36"",""359508""
","""event"",""trial"",""time""
""blur"",""36"",""349964""
""blur"",""36"",""355498""
","""event"",""trial"",""time""
""focus"",""36"",""352999""
""focus"",""36"",""359508""
","""event"",""trial"",""time""
""fullscreenenter"",""1"",""1197""
","""event"",""trial"",""time""
""fullscreenexit"",""36"",""349950""
","","","447.40000009536743","","","13","7685","3772","&#9761;","elianto","#3366ff99","-1"," ","0","0","[1298.6000000238419]","1","0","2","","","","","","","",""
"pit-trial","47","430091","0.0-2.0-11.2-0.2","battery-v0.2","","""event"",""trial"",""time""
""fullscreenenter"",""1"",""1197""
""fullscreenexit"",""36"",""349950""
""blur"",""36"",""349964""
""focus"",""36"",""352999""
""blur"",""36"",""355498""
""focus"",""36"",""359508""
","""event"",""trial"",""time""
""blur"",""36"",""349964""
""blur"",""36"",""355498""
","""event"",""trial"",""time""
""focus"",""36"",""352999""
""focus"",""36"",""359508""
","""event"",""trial"",""time""
""fullscreenenter"",""1"",""1197""
","""event"",""trial"",""time""
""fullscreenexit"",""36"",""349950""
","","","-1","","","13","7685","3772","&#9761;","elianto","#3366ff99","-1","-1","1","+10","[]","0","0","2","","","","","","","",""
"pit-trial","48","433450","0.0-2.0-11.2-1.2","battery-v0.2","","""event"",""trial"",""time""
""fullscreenenter"",""1"",""1197""
""fullscreenexit"",""36"",""349950""
""blur"",""36"",""349964""
""focus"",""36"",""352999""
""blur"",""36"",""355498""
""focus"",""36"",""359508""
","""event"",""trial"",""time""
""blur"",""36"",""349964""
""blur"",""36"",""355498""
","""event"",""trial"",""time""
""focus"",""36"",""352999""
""focus"",""36"",""359508""
","""event"",""trial"",""time""
""fullscreenenter"",""1"",""1197""
","""event"",""trial"",""time""
""fullscreenexit"",""36"",""349950""
","","","507","","","13","7685","3772","&#9761;","elianto","#3366ff99","-1"," ","0","0","[1357.0999999046326]","1","0","2","","","","","","","",""
"pit-trial","49","436534","0.0-2.0-11.2-2.2","battery-v0.2","","""event"",""trial"",""time""
""fullscreenenter"",""1"",""1197""
""fullscreenexit"",""36"",""349950""
""blur"",""36"",""349964""
""focus"",""36"",""352999""
""blur"",""36"",""355498""
""focus"",""36"",""359508""
","""event"",""trial"",""time""
""blur"",""36"",""349964""
""blur"",""36"",""355498""
","""event"",""trial"",""time""
""focus"",""36"",""352999""
""focus"",""36"",""359508""
","""event"",""trial"",""time""
""fullscreenenter"",""1"",""1197""
","""event"",""trial"",""time""
""fullscreenexit"",""36"",""349950""
","","","230.80000007152557","","","13","7685","3772","&#9761;","elianto","#3366ff99","-1"," ","0","0","[668.8000000715256,1081.3000000715256]","2","0","2","","","","","","","",""
"pit-trial","50","439401","0.0-2.0-11.2-3.2","battery-v0.2","","""event"",""trial"",""time""
""fullscreenenter"",""1"",""1197""
""fullscreenexit"",""36"",""349950""
""blur"",""36"",""349964""
""focus"",""36"",""352999""
""blur"",""36"",""355498""
""focus"",""36"",""359508""
","""event"",""trial"",""time""
""blur"",""36"",""349964""
""blur"",""36"",""355498""
","""event"",""trial"",""time""
""focus"",""36"",""352999""
""focus"",""36"",""359508""
","""event"",""trial"",""time""
""fullscreenenter"",""1"",""1197""
","""event"",""trial"",""time""
""fullscreenexit"",""36"",""349950""
","","","13.399999976158142","","","13","7685","3772","&#9761;","elianto","#3366ff99","-1"," ","0","+10","[863.8999999761581]","1","0","2","","","","","","","",""
"pit-trial","51","442406","0.0-2.0-11.2-4.2","battery-v0.2","","""event"",""trial"",""time""
""fullscreenenter"",""1"",""1197""
""fullscreenexit"",""36"",""349950""
""blur"",""36"",""349964""
""focus"",""36"",""352999""
""blur"",""36"",""355498""
""focus"",""36"",""359508""
","""event"",""trial"",""time""
""blur"",""36"",""349964""
""blur"",""36"",""355498""
","""event"",""trial"",""time""
""focus"",""36"",""352999""
""focus"",""36"",""359508""
","""event"",""trial"",""time""
""fullscreenenter"",""1"",""1197""
","""event"",""trial"",""time""
""fullscreenexit"",""36"",""349950""
","","","151.70000004768372","","","13","7685","3772","&#9761;","elianto","#3366ff99","-1"," ","0","0","[1002.7000000476837]","1","0","2","","","","","","","",""
"pit-trial","52","445647","0.0-2.0-11.3-0.3","battery-v0.2","","""event"",""trial"",""time""
""fullscreenenter"",""1"",""1197""
""fullscreenexit"",""36"",""349950""
""blur"",""36"",""349964""
""focus"",""36"",""352999""
""blur"",""36"",""355498""
""focus"",""36"",""359508""
","""event"",""trial"",""time""
""blur"",""36"",""349964""
""blur"",""36"",""355498""
","""event"",""trial"",""time""
""focus"",""36"",""352999""
""focus"",""36"",""359508""
","""event"",""trial"",""time""
""fullscreenenter"",""1"",""1197""
","""event"",""trial"",""time""
""fullscreenexit"",""36"",""349950""
","","","386.60000002384186","","","13","7685","3772","&#9761;","elianto","#3366ff99","-1"," ","0","0","[1237.3000000715256,1664.3000000715256]","2","0","2","","","","","","","",""
"pit-trial","53","449404","0.0-2.0-11.3-1.3","battery-v0.2","","""event"",""trial"",""time""
""fullscreenenter"",""1"",""1197""
""fullscreenexit"",""36"",""349950""
""blur"",""36"",""349964""
""focus"",""36"",""352999""
""blur"",""36"",""355498""
""focus"",""36"",""359508""
","""event"",""trial"",""time""
""blur"",""36"",""349964""
""blur"",""36"",""355498""
","""event"",""trial"",""time""
""focus"",""36"",""352999""
""focus"",""36"",""359508""
","""event"",""trial"",""time""
""fullscreenenter"",""1"",""1197""
","""event"",""trial"",""time""
""fullscreenexit"",""36"",""349950""
","","","904","","","13","7685","3772","&#9761;","elianto","#3366ff99","-1"," ","0","0","[1754.8999999761581,2176.899999976158,2672.7999999523163,3220.899999976158,3648]","5","0","2","","","","","","","",""
"pit-trial","54","453021","0.0-2.0-11.3-2.3","battery-v0.2","","""event"",""trial"",""time""
""fullscreenenter"",""1"",""1197""
""fullscreenexit"",""36"",""349950""
""blur"",""36"",""349964""
""focus"",""36"",""352999""
""blur"",""36"",""355498""
""focus"",""36"",""359508""
","""event"",""trial"",""time""
""blur"",""36"",""349964""
""blur"",""36"",""355498""
","""event"",""trial"",""time""
""focus"",""36"",""352999""
""focus"",""36"",""359508""
","""event"",""trial"",""time""
""fullscreenenter"",""1"",""1197""
","""event"",""trial"",""time""
""fullscreenexit"",""36"",""349950""
","","","761.7000000476837","","","13","7685","3772","&#9761;","elianto","#3366ff99","-1"," ","0","0","[365.89999997615814,1612.8000000715256]","2","0","2","","","","","","","",""
"pit-trial","55","457874","0.0-2.0-11.3-3.3","battery-v0.2","","""event"",""trial"",""time""
""fullscreenenter"",""1"",""1197""
""fullscreenexit"",""36"",""349950""
""blur"",""36"",""349964""
""focus"",""36"",""352999""
""blur"",""36"",""355498""
""focus"",""36"",""359508""
","""event"",""trial"",""time""
""blur"",""36"",""349964""
""blur"",""36"",""355498""
","""event"",""trial"",""time""
""focus"",""36"",""352999""
""focus"",""36"",""359508""
","""event"",""trial"",""time""
""fullscreenenter"",""1"",""1197""
","""event"",""trial"",""time""
""fullscreenexit"",""36"",""349950""
","","","-1","","","13","7685","3772","&#9761;","elianto","#3366ff99","-1","-1","1","0","[687.3000000715256]","1","0","2","","","","","","","",""
"pit-trial","56","460930","0.0-2.0-11.3-4.3","battery-v0.2","","""event"",""trial"",""time""
""fullscreenenter"",""1"",""1197""
""fullscreenexit"",""36"",""349950""
""blur"",""36"",""349964""
""focus"",""36"",""352999""
""blur"",""36"",""355498""
""focus"",""36"",""359508""
","""event"",""trial"",""time""
""blur"",""36"",""349964""
""blur"",""36"",""355498""
","""event"",""trial"",""time""
""focus"",""36"",""352999""
""focus"",""36"",""359508""
","""event"",""trial"",""time""
""fullscreenenter"",""1"",""1197""
","""event"",""trial"",""time""
""fullscreenexit"",""36"",""349950""
","","","201.80000007152557","","","13","7685","3772","&#9761;","elianto","#3366ff99","-1"," ","0","0","[518.6999999284744,1052.3999999761581,1837.1000000238419,2321,2732.100000023842,3014]","6","0","2","","","","","","","",""
"call-function","57","460932","0.0-2.0-12.0","battery-v0.2","","""event"",""trial"",""time""
""fullscreenenter"",""1"",""1197""
""fullscreenexit"",""36"",""349950""
""blur"",""36"",""349964""
""focus"",""36"",""352999""
""blur"",""36"",""355498""
""focus"",""36"",""359508""
","""event"",""trial"",""time""
""blur"",""36"",""349964""
""blur"",""36"",""355498""
","""event"",""trial"",""time""
""focus"",""36"",""352999""
""focus"",""36"",""359508""
","""event"",""trial"",""time""
""fullscreenenter"",""1"",""1197""
","""event"",""trial"",""time""
""fullscreenexit"",""36"",""349950""
","","","","","","","","","","","","","","","","","","","","","","","","","","",""
"pit-instructions","58","494076","0.0-2.0-13.0","battery-v0.2","","""event"",""trial"",""time""
""fullscreenenter"",""1"",""1197""
""fullscreenexit"",""36"",""349950""
""blur"",""36"",""349964""
""focus"",""36"",""352999""
""blur"",""36"",""355498""
""focus"",""36"",""359508""
","""event"",""trial"",""time""
""blur"",""36"",""349964""
""blur"",""36"",""355498""
","""event"",""trial"",""time""
""focus"",""36"",""352999""
""focus"",""36"",""359508""
","""event"",""trial"",""time""
""fullscreenenter"",""1"",""1197""
","""event"",""trial"",""time""
""fullscreenexit"",""36"",""349950""
","","[{""page_index"":0,""viewing_time"":6551.5},{""page_index"":1,""viewing_time"":7412.100000023842},{""page_index"":2,""viewing_time"":3476.2999999523163},{""page_index"":3,""viewing_time"":10232.400000095367},{""page_index"":4,""viewing_time"":5471.199999928474}]","33143.89999997616","","","","","","","","","","","","","","","","","","","","","","","",""
"pit-trial","59","498953","0.0-2.0-14.0-0.0","battery-v0.2","","""event"",""trial"",""time""
""fullscreenenter"",""1"",""1197""
""fullscreenexit"",""36"",""349950""
""blur"",""36"",""349964""
""focus"",""36"",""352999""
""blur"",""36"",""355498""
""focus"",""36"",""359508""
","""event"",""trial"",""time""
""blur"",""36"",""349964""
""blur"",""36"",""355498""
","""event"",""trial"",""time""
""focus"",""36"",""352999""
""focus"",""36"",""359508""
","""event"",""trial"",""time""
""fullscreenenter"",""1"",""1197""
","""event"",""trial"",""time""
""fullscreenexit"",""36"",""349950""
","","","-1","","","13","7685","3772","&#9826;","elianto","#f73b6a7A","-1","-1","1","0","[]","0","0","3","","","","","","","",""
"pit-trial","60","503843","0.0-2.0-14.0-1.0","battery-v0.2","","""event"",""trial"",""time""
""fullscreenenter"",""1"",""1197""
""fullscreenexit"",""36"",""349950""
""blur"",""36"",""349964""
""focus"",""36"",""352999""
""blur"",""36"",""355498""
""focus"",""36"",""359508""
","""event"",""trial"",""time""
""blur"",""36"",""349964""
""blur"",""36"",""355498""
","""event"",""trial"",""time""
""focus"",""36"",""352999""
""focus"",""36"",""359508""
","""event"",""trial"",""time""
""fullscreenenter"",""1"",""1197""
","""event"",""trial"",""time""
""fullscreenexit"",""36"",""349950""
","","","-1","","","13","7685","3772","&#9826;","elianto","#f73b6a7A","-1","-1","1","0","[]","0","0","3","","","","","","","",""
"pit-trial","61","508724","0.0-2.0-14.0-2.0","battery-v0.2","","""event"",""trial"",""time""
""fullscreenenter"",""1"",""1197""
""fullscreenexit"",""36"",""349950""
""blur"",""36"",""349964""
""focus"",""36"",""352999""
""blur"",""36"",""355498""
""focus"",""36"",""359508""
","""event"",""trial"",""time""
""blur"",""36"",""349964""
""blur"",""36"",""355498""
","""event"",""trial"",""time""
""focus"",""36"",""352999""
""focus"",""36"",""359508""
","""event"",""trial"",""time""
""fullscreenenter"",""1"",""1197""
","""event"",""trial"",""time""
""fullscreenexit"",""36"",""349950""
","","","-1","","","13","7685","3772","&#9826;","elianto","#f73b6a7A","-1","-1","1","0","[]","0","0","3","","","","","","","",""
"pit-trial","62","513599","0.0-2.0-14.0-3.0","battery-v0.2","","""event"",""trial"",""time""
""fullscreenenter"",""1"",""1197""
""fullscreenexit"",""36"",""349950""
""blur"",""36"",""349964""
""focus"",""36"",""352999""
""blur"",""36"",""355498""
""focus"",""36"",""359508""
","""event"",""trial"",""time""
""blur"",""36"",""349964""
""blur"",""36"",""355498""
","""event"",""trial"",""time""
""focus"",""36"",""352999""
""focus"",""36"",""359508""
","""event"",""trial"",""time""
""fullscreenenter"",""1"",""1197""
","""event"",""trial"",""time""
""fullscreenexit"",""36"",""349950""
","","","-1","","","13","7685","3772","&#9826;","elianto","#f73b6a7A","-1","-1","1","-10","[]","0","0","3","","","","","","","",""
"pit-trial","63","518463","0.0-2.0-14.0-4.0","battery-v0.2","","""event"",""trial"",""time""
""fullscreenenter"",""1"",""1197""
""fullscreenexit"",""36"",""349950""
""blur"",""36"",""349964""
""focus"",""36"",""352999""
""blur"",""36"",""355498""
""focus"",""36"",""359508""
","""event"",""trial"",""time""
""blur"",""36"",""349964""
""blur"",""36"",""355498""
","""event"",""trial"",""time""
""focus"",""36"",""352999""
""focus"",""36"",""359508""
","""event"",""trial"",""time""
""fullscreenenter"",""1"",""1197""
","""event"",""trial"",""time""
""fullscreenexit"",""36"",""349950""
","","","-1","","","13","7685","3772","&#9826;","elianto","#f73b6a7A","-1","-1","1","0","[]","0","0","3","","","","","","","",""
"pit-trial","64","523353","0.0-2.0-14.1-0.1","battery-v0.2","","""event"",""trial"",""time""
""fullscreenenter"",""1"",""1197""
""fullscreenexit"",""36"",""349950""
""blur"",""36"",""349964""
""focus"",""36"",""352999""
""blur"",""36"",""355498""
""focus"",""36"",""359508""
","""event"",""trial"",""time""
""blur"",""36"",""349964""
""blur"",""36"",""355498""
","""event"",""trial"",""time""
""focus"",""36"",""352999""
""focus"",""36"",""359508""
","""event"",""trial"",""time""
""fullscreenenter"",""1"",""1197""
","""event"",""trial"",""time""
""fullscreenexit"",""36"",""349950""
","","","-1","","","13","7685","3772","&#9826;","elianto","#f73b6a7A","-1","-1","1","0","[]","0","0","3","","","","","","","",""
"pit-trial","65","528207","0.0-2.0-14.1-1.1","battery-v0.2","","""event"",""trial"",""time""
""fullscreenenter"",""1"",""1197""
""fullscreenexit"",""36"",""349950""
""blur"",""36"",""349964""
""focus"",""36"",""352999""
""blur"",""36"",""355498""
""focus"",""36"",""359508""
","""event"",""trial"",""time""
""blur"",""36"",""349964""
""blur"",""36"",""355498""
","""event"",""trial"",""time""
""focus"",""36"",""352999""
""focus"",""36"",""359508""
","""event"",""trial"",""time""
""fullscreenenter"",""1"",""1197""
","""event"",""trial"",""time""
""fullscreenexit"",""36"",""349950""
","","","-1","","","13","7685","3772","&#9826;","elianto","#f73b6a7A","-1","-1","1","0","[]","0","0","3","","","","","","","",""
"pit-trial","66","531986","0.0-2.0-14.1-2.1","battery-v0.2","","""event"",""trial"",""time""
""fullscreenenter"",""1"",""1197""
""fullscreenexit"",""36"",""349950""
""blur"",""36"",""349964""
""focus"",""36"",""352999""
""blur"",""36"",""355498""
""focus"",""36"",""359508""
","""event"",""trial"",""time""
""blur"",""36"",""349964""
""blur"",""36"",""355498""
","""event"",""trial"",""time""
""focus"",""36"",""352999""
""focus"",""36"",""359508""
","""event"",""trial"",""time""
""fullscreenenter"",""1"",""1197""
","""event"",""trial"",""time""
""fullscreenexit"",""36"",""349950""
","","","926.1000000238419","","","13","7685","3772","&#9826;","elianto","#f73b6a7A","-1"," ","0","-10","[1777.4000000953674]","1","0","3","","","","","","","",""
"pit-trial","67","535846","0.0-2.0-14.1-3.1","battery-v0.2","","""event"",""trial"",""time""
""fullscreenenter"",""1"",""1197""
""fullscreenexit"",""36"",""349950""
""blur"",""36"",""349964""
""focus"",""36"",""352999""
""blur"",""36"",""355498""
""focus"",""36"",""359508""
","""event"",""trial"",""time""
""blur"",""36"",""349964""
""blur"",""36"",""355498""
","""event"",""trial"",""time""
""focus"",""36"",""352999""
""focus"",""36"",""359508""
","""event"",""trial"",""time""
""fullscreenenter"",""1"",""1197""
","""event"",""trial"",""time""
""fullscreenexit"",""36"",""349950""
","","","1005.1999999284744","","","13","7685","3772","&#9826;","elianto","#f73b6a7A","-1"," ","0","0","[1855.7999999523163]","1","0","3","","","","","","","",""
"pit-trial","68","540699","0.0-2.0-14.1-4.1","battery-v0.2","","""event"",""trial"",""time""
""fullscreenenter"",""1"",""1197""
""fullscreenexit"",""36"",""349950""
""blur"",""36"",""349964""
""focus"",""36"",""352999""
""blur"",""36"",""355498""
""focus"",""36"",""359508""
","""event"",""trial"",""time""
""blur"",""36"",""349964""
""blur"",""36"",""355498""
","""event"",""trial"",""time""
""focus"",""36"",""352999""
""focus"",""36"",""359508""
","""event"",""trial"",""time""
""fullscreenenter"",""1"",""1197""
","""event"",""trial"",""time""
""fullscreenexit"",""36"",""349950""
","","","-1","","","13","7685","3772","&#9826;","elianto","#f73b6a7A","-1","-1","1","0","[]","0","0","3","","","","","","","",""
"pit-trial","69","545552","0.0-2.0-14.2-0.2","battery-v0.2","","""event"",""trial"",""time""
""fullscreenenter"",""1"",""1197""
""fullscreenexit"",""36"",""349950""
""blur"",""36"",""349964""
""focus"",""36"",""352999""
""blur"",""36"",""355498""
""focus"",""36"",""359508""
","""event"",""trial"",""time""
""blur"",""36"",""349964""
""blur"",""36"",""355498""
","""event"",""trial"",""time""
""focus"",""36"",""352999""
""focus"",""36"",""359508""
","""event"",""trial"",""time""
""fullscreenenter"",""1"",""1197""
","""event"",""trial"",""time""
""fullscreenexit"",""36"",""349950""
","","","-1","","","13","7685","3772","&#9826;","elianto","#f73b6a7A","-1","-1","1","0","[]","0","0","3","","","","","","","",""
"pit-trial","70","550407","0.0-2.0-14.2-1.2","battery-v0.2","","""event"",""trial"",""time""
""fullscreenenter"",""1"",""1197""
""fullscreenexit"",""36"",""349950""
""blur"",""36"",""349964""
""focus"",""36"",""352999""
""blur"",""36"",""355498""
""focus"",""36"",""359508""
","""event"",""trial"",""time""
""blur"",""36"",""349964""
""blur"",""36"",""355498""
","""event"",""trial"",""time""
""focus"",""36"",""352999""
""focus"",""36"",""359508""
","""event"",""trial"",""time""
""fullscreenenter"",""1"",""1197""
","""event"",""trial"",""time""
""fullscreenexit"",""36"",""349950""
","","","-1","","","13","7685","3772","&#9826;","elianto","#f73b6a7A","-1","-1","1","0","[]","0","0","3","","","","","","","",""
"pit-trial","71","555260","0.0-2.0-14.2-2.2","battery-v0.2","","""event"",""trial"",""time""
""fullscreenenter"",""1"",""1197""
""fullscreenexit"",""36"",""349950""
""blur"",""36"",""349964""
""focus"",""36"",""352999""
""blur"",""36"",""355498""
""focus"",""36"",""359508""
","""event"",""trial"",""time""
""blur"",""36"",""349964""
""blur"",""36"",""355498""
","""event"",""trial"",""time""
""focus"",""36"",""352999""
""focus"",""36"",""359508""
","""event"",""trial"",""time""
""fullscreenenter"",""1"",""1197""
","""event"",""trial"",""time""
""fullscreenexit"",""36"",""349950""
","","","-1","","","13","7685","3772","&#9826;","elianto","#f73b6a7A","-1","-1","1","0","[]","0","0","3","","","","","","","",""
"pit-trial","72","559345","0.0-2.0-14.2-3.2","battery-v0.2","","""event"",""trial"",""time""
""fullscreenenter"",""1"",""1197""
""fullscreenexit"",""36"",""349950""
""blur"",""36"",""349964""
""focus"",""36"",""352999""
""blur"",""36"",""355498""
""focus"",""36"",""359508""
","""event"",""trial"",""time""
""blur"",""36"",""349964""
""blur"",""36"",""355498""
","""event"",""trial"",""time""
""focus"",""36"",""352999""
""focus"",""36"",""359508""
","""event"",""trial"",""time""
""fullscreenenter"",""1"",""1197""
","""event"",""trial"",""time""
""fullscreenexit"",""36"",""349950""
","","","1230.5","","","13","7685","3772","&#9826;","elianto","#f73b6a7A","-1"," ","0","0","[2082]","1","0","3","","","","","","","",""
"pit-trial","73","563417","0.0-2.0-14.2-4.2","battery-v0.2","","""event"",""trial"",""time""
""fullscreenenter"",""1"",""1197""
""fullscreenexit"",""36"",""349950""
""blur"",""36"",""349964""
""focus"",""36"",""352999""
""blur"",""36"",""355498""
""focus"",""36"",""359508""
","""event"",""trial"",""time""
""blur"",""36"",""349964""
""blur"",""36"",""355498""
","""event"",""trial"",""time""
""focus"",""36"",""352999""
""focus"",""36"",""359508""
","""event"",""trial"",""time""
""fullscreenenter"",""1"",""1197""
","""event"",""trial"",""time""
""fullscreenexit"",""36"",""349950""
","","","1219.2000000476837","","","13","7685","3772","&#9826;","elianto","#f73b6a7A","-1"," ","0","-10","[2069.9000000953674]","1","0","3","","","","","","","",""
"pit-trial","74","568270","0.0-2.0-14.3-0.3","battery-v0.2","","""event"",""trial"",""time""
""fullscreenenter"",""1"",""1197""
""fullscreenexit"",""36"",""349950""
""blur"",""36"",""349964""
""focus"",""36"",""352999""
""blur"",""36"",""355498""
""focus"",""36"",""359508""
","""event"",""trial"",""time""
""blur"",""36"",""349964""
""blur"",""36"",""355498""
","""event"",""trial"",""time""
""focus"",""36"",""352999""
""focus"",""36"",""359508""
","""event"",""trial"",""time""
""fullscreenenter"",""1"",""1197""
","""event"",""trial"",""time""
""fullscreenexit"",""36"",""349950""
","","","-1","","","13","7685","3772","&#9826;","elianto","#f73b6a7A","-1","-1","1","0","[]","0","0","3","","","","","","","",""
"pit-trial","75","573124","0.0-2.0-14.3-1.3","battery-v0.2","","""event"",""trial"",""time""
""fullscreenenter"",""1"",""1197""
""fullscreenexit"",""36"",""349950""
""blur"",""36"",""349964""
""focus"",""36"",""352999""
""blur"",""36"",""355498""
""focus"",""36"",""359508""
","""event"",""trial"",""time""
""blur"",""36"",""349964""
""blur"",""36"",""355498""
","""event"",""trial"",""time""
""focus"",""36"",""352999""
""focus"",""36"",""359508""
","""event"",""trial"",""time""
""fullscreenenter"",""1"",""1197""
","""event"",""trial"",""time""
""fullscreenexit"",""36"",""349950""
","","","-1","","","13","7685","3772","&#9826;","elianto","#f73b6a7A","-1","-1","1","0","[]","0","0","3","","","","","","","",""
"pit-trial","76","577976","0.0-2.0-14.3-2.3","battery-v0.2","","""event"",""trial"",""time""
""fullscreenenter"",""1"",""1197""
""fullscreenexit"",""36"",""349950""
""blur"",""36"",""349964""
""focus"",""36"",""352999""
""blur"",""36"",""355498""
""focus"",""36"",""359508""
","""event"",""trial"",""time""
""blur"",""36"",""349964""
""blur"",""36"",""355498""
","""event"",""trial"",""time""
""focus"",""36"",""352999""
""focus"",""36"",""359508""
","""event"",""trial"",""time""
""fullscreenenter"",""1"",""1197""
","""event"",""trial"",""time""
""fullscreenexit"",""36"",""349950""
","","","-1","","","13","7685","3772","&#9826;","elianto","#f73b6a7A","-1","-1","1","0","[]","0","0","3","","","","","","","",""
"pit-trial","77","581788","0.0-2.0-14.3-3.3","battery-v0.2","","""event"",""trial"",""time""
""fullscreenenter"",""1"",""1197""
""fullscreenexit"",""36"",""349950""
""blur"",""36"",""349964""
""focus"",""36"",""352999""
""blur"",""36"",""355498""
""focus"",""36"",""359508""
","""event"",""trial"",""time""
""blur"",""36"",""349964""
""blur"",""36"",""355498""
","""event"",""trial"",""time""
""focus"",""36"",""352999""
""focus"",""36"",""359508""
","""event"",""trial"",""time""
""fullscreenenter"",""1"",""1197""
","""event"",""trial"",""time""
""fullscreenexit"",""36"",""349950""
","","","958","","","13","7685","3772","&#9826;","elianto","#f73b6a7A","-1"," ","0","0","[1809.2000000476837]","1","0","3","","","","","","","",""
"pit-trial","78","586642","0.0-2.0-14.3-4.3","battery-v0.2","","""event"",""trial"",""time""
""fullscreenenter"",""1"",""1197""
""fullscreenexit"",""36"",""349950""
""blur"",""36"",""349964""
""focus"",""36"",""352999""
""blur"",""36"",""355498""
""focus"",""36"",""359508""
","""event"",""trial"",""time""
""blur"",""36"",""349964""
""blur"",""36"",""355498""
","""event"",""trial"",""time""
""focus"",""36"",""352999""
""focus"",""36"",""359508""
","""event"",""trial"",""time""
""fullscreenenter"",""1"",""1197""
","""event"",""trial"",""time""
""fullscreenexit"",""36"",""349950""
","","","-1","","","13","7685","3772","&#9826;","elianto","#f73b6a7A","-1","-1","1","0","[]","0","0","3","","","","","","","",""
"call-function","79","586644","0.0-2.0-15.0","battery-v0.2","","""event"",""trial"",""time""
""fullscreenenter"",""1"",""1197""
""fullscreenexit"",""36"",""349950""
""blur"",""36"",""349964""
""focus"",""36"",""352999""
""blur"",""36"",""355498""
""focus"",""36"",""359508""
","""event"",""trial"",""time""
""blur"",""36"",""349964""
""blur"",""36"",""355498""
","""event"",""trial"",""time""
""focus"",""36"",""352999""
""focus"",""36"",""359508""
","""event"",""trial"",""time""
""fullscreenenter"",""1"",""1197""
","""event"",""trial"",""time""
""fullscreenexit"",""36"",""349950""
","","","","","","","","","","","","","","","","","","","","","","","","","","",""
"pit-instructions","80","612860","0.0-2.0-16.0","battery-v0.2","","""event"",""trial"",""time""
""fullscreenenter"",""1"",""1197""
""fullscreenexit"",""36"",""349950""
""blur"",""36"",""349964""
""focus"",""36"",""352999""
""blur"",""36"",""355498""
""focus"",""36"",""359508""
","""event"",""trial"",""time""
""blur"",""36"",""349964""
""blur"",""36"",""355498""
","""event"",""trial"",""time""
""focus"",""36"",""352999""
""focus"",""36"",""359508""
","""event"",""trial"",""time""
""fullscreenenter"",""1"",""1197""
","""event"",""trial"",""time""
""fullscreenexit"",""36"",""349950""
","","[{""page_index"":0,""viewing_time"":7462.799999952316},{""page_index"":1,""viewing_time"":9805.5},{""page_index"":2,""viewing_time"":4099.5},{""page_index"":3,""viewing_time"":4846.5}]","26214.699999928474","","","","","","","","","","","","","","","","","","","","","","","",""
"pit-trial","81","616214","0.0-2.0-17.0-0.0","battery-v0.2","","""event"",""trial"",""time""
""fullscreenenter"",""1"",""1197""
""fullscreenexit"",""36"",""349950""
""blur"",""36"",""349964""
""focus"",""36"",""352999""
""blur"",""36"",""355498""
""focus"",""36"",""359508""
","""event"",""trial"",""time""
""blur"",""36"",""349964""
""blur"",""36"",""355498""
","""event"",""trial"",""time""
""focus"",""36"",""352999""
""focus"",""36"",""359508""
","""event"",""trial"",""time""
""fullscreenenter"",""1"",""1197""
","""event"",""trial"",""time""
""fullscreenexit"",""36"",""349950""
","","","495.8000000715256","","","13","7685","3772","&#9789;","elianto","#f73b6a7A"," "," ","1","0","[1346.6000000238419]","1","0","4","","","","","","","",""
"pit-trial","82","619254","0.0-2.0-17.0-1.0","battery-v0.2","","""event"",""trial"",""time""
""fullscreenenter"",""1"",""1197""
""fullscreenexit"",""36"",""349950""
""blur"",""36"",""349964""
""focus"",""36"",""352999""
""blur"",""36"",""355498""
""focus"",""36"",""359508""
","""event"",""trial"",""time""
""blur"",""36"",""349964""
""blur"",""36"",""355498""
","""event"",""trial"",""time""
""focus"",""36"",""352999""
""focus"",""36"",""359508""
","""event"",""trial"",""time""
""fullscreenenter"",""1"",""1197""
","""event"",""trial"",""time""
""fullscreenexit"",""36"",""349950""
","","","158.20000004768372","","","13","7685","3772","&#9789;","elianto","#f73b6a7A"," "," ","1","0","[1018.3000000715256]","1","0","4","","","","","","","",""
"pit-trial","83","622364","0.0-2.0-17.0-2.0","battery-v0.2","","""event"",""trial"",""time""
""fullscreenenter"",""1"",""1197""
""fullscreenexit"",""36"",""349950""
""blur"",""36"",""349964""
""focus"",""36"",""352999""
""blur"",""36"",""355498""
""focus"",""36"",""359508""
","""event"",""trial"",""time""
""blur"",""36"",""349964""
""blur"",""36"",""355498""
","""event"",""trial"",""time""
""focus"",""36"",""352999""
""focus"",""36"",""359508""
","""event"",""trial"",""time""
""fullscreenenter"",""1"",""1197""
","""event"",""trial"",""time""
""fullscreenexit"",""36"",""349950""
","","","243.39999997615814","","","13","7685","3772","&#9789;","elianto","#f73b6a7A"," "," ","1","0","[1096.2999999523163]","1","0","4","","","","","","","",""
"pit-trial","84","625484","0.0-2.0-17.0-3.0","battery-v0.2","","""event"",""trial"",""time""
""fullscreenenter"",""1"",""1197""
""fullscreenexit"",""36"",""349950""
""blur"",""36"",""349964""
""focus"",""36"",""352999""
""blur"",""36"",""355498""
""focus"",""36"",""359508""
","""event"",""trial"",""time""
""blur"",""36"",""349964""
""blur"",""36"",""355498""
","""event"",""trial"",""time""
""focus"",""36"",""352999""
""focus"",""36"",""359508""
","""event"",""trial"",""time""
""fullscreenenter"",""1"",""1197""
","""event"",""trial"",""time""
""fullscreenexit"",""36"",""349950""
","","","256.60000002384186","","","13","7685","3772","&#9789;","elianto","#f73b6a7A"," "," ","1","-10","[1116.0999999046326]","1","0","4","","","","","","","",""
"pit-trial","85","628454","0.0-2.0-17.0-4.0","battery-v0.2","","""event"",""trial"",""time""
""fullscreenenter"",""1"",""1197""
""fullscreenexit"",""36"",""349950""
""blur"",""36"",""349964""
""focus"",""36"",""352999""
""blur"",""36"",""355498""
""focus"",""36"",""359508""
","""event"",""trial"",""time""
""blur"",""36"",""349964""
""blur"",""36"",""355498""
","""event"",""trial"",""time""
""focus"",""36"",""352999""
""focus"",""36"",""359508""
","""event"",""trial"",""time""
""fullscreenenter"",""1"",""1197""
","""event"",""trial"",""time""
""fullscreenexit"",""36"",""349950""
","","","91.40000009536743","","","13","7685","3772","&#9789;","elianto","#f73b6a7A"," "," ","1","0","[947.1000000238419]","1","0","4","","","","","","","",""
"pit-trial","86","631387","0.0-2.0-17.1-0.1","battery-v0.2","","""event"",""trial"",""time""
""fullscreenenter"",""1"",""1197""
""fullscreenexit"",""36"",""349950""
""blur"",""36"",""349964""
""focus"",""36"",""352999""
""blur"",""36"",""355498""
""focus"",""36"",""359508""
","""event"",""trial"",""time""
""blur"",""36"",""349964""
""blur"",""36"",""355498""
","""event"",""trial"",""time""
""focus"",""36"",""352999""
""focus"",""36"",""359508""
","""event"",""trial"",""time""
""fullscreenenter"",""1"",""1197""
","""event"",""trial"",""time""
""fullscreenexit"",""36"",""349950""
","","","71.40000009536743","","","13","7685","3772","&#9789;","elianto","#f73b6a7A"," "," ","1","0","[925.7000000476837]","1","0","4","","","","","","","",""
"pit-trial","87","634334","0.0-2.0-17.1-1.1","battery-v0.2","","""event"",""trial"",""time""
""fullscreenenter"",""1"",""1197""
""fullscreenexit"",""36"",""349950""
""blur"",""36"",""349964""
""focus"",""36"",""352999""
""blur"",""36"",""355498""
""focus"",""36"",""359508""
","""event"",""trial"",""time""
""blur"",""36"",""349964""
""blur"",""36"",""355498""
","""event"",""trial"",""time""
""focus"",""36"",""352999""
""focus"",""36"",""359508""
","""event"",""trial"",""time""
""fullscreenenter"",""1"",""1197""
","""event"",""trial"",""time""
""fullscreenexit"",""36"",""349950""
","","","87.19999992847443","","","13","7685","3772","&#9789;","elianto","#f73b6a7A"," "," ","1","0","[940.2999999523163]","1","0","4","","","","","","","",""
"pit-trial","88","637264","0.0-2.0-17.1-2.1","battery-v0.2","","""event"",""trial"",""time""
""fullscreenenter"",""1"",""1197""
""fullscreenexit"",""36"",""349950""
""blur"",""36"",""349964""
""focus"",""36"",""352999""
""blur"",""36"",""355498""
""focus"",""36"",""359508""
","""event"",""trial"",""time""
""blur"",""36"",""349964""
""blur"",""36"",""355498""
","""event"",""trial"",""time""
""focus"",""36"",""352999""
""focus"",""36"",""359508""
","""event"",""trial"",""time""
""fullscreenenter"",""1"",""1197""
","""event"",""trial"",""time""
""fullscreenexit"",""36"",""349950""
","","","56.799999952316284","","","13","7685","3772","&#9789;","elianto","#f73b6a7A"," "," ","1","0","[912.1999999284744]","1","0","4","","","","","","","",""
"pit-trial","89","640364","0.0-2.0-17.1-3.1","battery-v0.2","","""event"",""trial"",""time""
""fullscreenenter"",""1"",""1197""
""fullscreenexit"",""36"",""349950""
""blur"",""36"",""349964""
""focus"",""36"",""352999""
""blur"",""36"",""355498""
""focus"",""36"",""359508""
","""event"",""trial"",""time""
""blur"",""36"",""349964""
""blur"",""36"",""355498""
","""event"",""trial"",""time""
""focus"",""36"",""352999""
""focus"",""36"",""359508""
","""event"",""trial"",""time""
""fullscreenenter"",""1"",""1197""
","""event"",""trial"",""time""
""fullscreenexit"",""36"",""349950""
","","","229.10000002384186","","","13","7685","3772","&#9789;","elianto","#f73b6a7A"," "," ","1","-10","[1088.1000000238419]","1","0","4","","","","","","","",""
"pit-trial","90","643227","0.0-2.0-17.1-4.1","battery-v0.2","","""event"",""trial"",""time""
""fullscreenenter"",""1"",""1197""
""fullscreenexit"",""36"",""349950""
""blur"",""36"",""349964""
""focus"",""36"",""352999""
""blur"",""36"",""355498""
""focus"",""36"",""359508""
","""event"",""trial"",""time""
""blur"",""36"",""349964""
""blur"",""36"",""355498""
","""event"",""trial"",""time""
""focus"",""36"",""352999""
""focus"",""36"",""359508""
","""event"",""trial"",""time""
""fullscreenenter"",""1"",""1197""
","""event"",""trial"",""time""
""fullscreenexit"",""36"",""349950""
","","","1.899999976158142","","","13","7685","3772","&#9789;","elianto","#f73b6a7A"," "," ","1","0","[861.3999999761581]","1","0","4","","","","","","","",""
"pit-trial","91","647299","0.0-2.0-17.2-0.2","battery-v0.2","","""event"",""trial"",""time""
""fullscreenenter"",""1"",""1197""
""fullscreenexit"",""36"",""349950""
""blur"",""36"",""349964""
""focus"",""36"",""352999""
""blur"",""36"",""355498""
""focus"",""36"",""359508""
","""event"",""trial"",""time""
""blur"",""36"",""349964""
""blur"",""36"",""355498""
","""event"",""trial"",""time""
""focus"",""36"",""352999""
""focus"",""36"",""359508""
","""event"",""trial"",""time""
""fullscreenenter"",""1"",""1197""
","""event"",""trial"",""time""
""fullscreenexit"",""36"",""349950""
","","","1217.1999999284744","","","13","7685","3772","&#9789;","elianto","#f73b6a7A"," "," ","1","0","[816,2067.899999976158]","2","0","4","","","","","","","",""
"pit-trial","92","650238","0.0-2.0-17.2-1.2","battery-v0.2","","""event"",""trial"",""time""
""fullscreenenter"",""1"",""1197""
""fullscreenexit"",""36"",""349950""
""blur"",""36"",""349964""
""focus"",""36"",""352999""
""blur"",""36"",""355498""
""focus"",""36"",""359508""
","""event"",""trial"",""time""
""blur"",""36"",""349964""
""blur"",""36"",""355498""
","""event"",""trial"",""time""
""focus"",""36"",""352999""
""focus"",""36"",""359508""
","""event"",""trial"",""time""
""fullscreenenter"",""1"",""1197""
","""event"",""trial"",""time""
""fullscreenexit"",""36"",""349950""
","","","86.70000004768372","","","13","7685","3772","&#9789;","elianto","#f73b6a7A"," "," ","1","0","[937]","1","0","4","","","","","","","",""
"pit-trial","93","653190","0.0-2.0-17.2-2.2","battery-v0.2","","""event"",""trial"",""time""
""fullscreenenter"",""1"",""1197""
""fullscreenexit"",""36"",""349950""
""blur"",""36"",""349964""
""focus"",""36"",""352999""
""blur"",""36"",""355498""
""focus"",""36"",""359508""
","""event"",""trial"",""time""
""blur"",""36"",""349964""
""blur"",""36"",""355498""
","""event"",""trial"",""time""
""focus"",""36"",""352999""
""focus"",""36"",""359508""
","""event"",""trial"",""time""
""fullscreenenter"",""1"",""1197""
","""event"",""trial"",""time""
""fullscreenexit"",""36"",""349950""
","","","98.5","","","13","7685","3772","&#9789;","elianto","#f73b6a7A"," "," ","1","0","[949.3000000715256]","1","0","4","","","","","","","",""
"pit-trial","94","656278","0.0-2.0-17.2-3.2","battery-v0.2","","""event"",""trial"",""time""
""fullscreenenter"",""1"",""1197""
""fullscreenexit"",""36"",""349950""
""blur"",""36"",""349964""
""focus"",""36"",""352999""
""blur"",""36"",""355498""
""focus"",""36"",""359508""
","""event"",""trial"",""time""
""blur"",""36"",""349964""
""blur"",""36"",""355498""
","""event"",""trial"",""time""
""focus"",""36"",""352999""
""focus"",""36"",""359508""
","""event"",""trial"",""time""
""fullscreenenter"",""1"",""1197""
","""event"",""trial"",""time""
""fullscreenexit"",""36"",""349950""
","","","233.30000007152557","","","13","7685","3772","&#9789;","elianto","#f73b6a7A"," "," ","1","-10","[1084.9000000953674]","1","0","4","","","","","","","",""
"pit-trial","95","659305","0.0-2.0-17.2-4.2","battery-v0.2","","""event"",""trial"",""time""
""fullscreenenter"",""1"",""1197""
""fullscreenexit"",""36"",""349950""
""blur"",""36"",""349964""
""focus"",""36"",""352999""
""blur"",""36"",""355498""
""focus"",""36"",""359508""
","""event"",""trial"",""time""
""blur"",""36"",""349964""
""blur"",""36"",""355498""
","""event"",""trial"",""time""
""focus"",""36"",""352999""
""focus"",""36"",""359508""
","""event"",""trial"",""time""
""fullscreenenter"",""1"",""1197""
","""event"",""trial"",""time""
""fullscreenexit"",""36"",""349950""
","","","173.20000004768372","","","13","7685","3772","&#9789;","elianto","#f73b6a7A"," "," ","1","0","[1024.5]","1","0","4","","","","","","","",""
"pit-trial","96","662434","0.0-2.0-17.3-0.3","battery-v0.2","","""event"",""trial"",""time""
""fullscreenenter"",""1"",""1197""
""fullscreenexit"",""36"",""349950""
""blur"",""36"",""349964""
""focus"",""36"",""352999""
""blur"",""36"",""355498""
""focus"",""36"",""359508""
","""event"",""trial"",""time""
""blur"",""36"",""349964""
""blur"",""36"",""355498""
","""event"",""trial"",""time""
""focus"",""36"",""352999""
""focus"",""36"",""359508""
","""event"",""trial"",""time""
""fullscreenenter"",""1"",""1197""
","""event"",""trial"",""time""
""fullscreenexit"",""36"",""349950""
","","","276.6999999284744","","","13","7685","3772","&#9789;","elianto","#f73b6a7A"," "," ","1","0","[1126.7999999523163]","1","0","4","","","","","","","",""
"pit-trial","97","665554","0.0-2.0-17.3-1.3","battery-v0.2","","""event"",""trial"",""time""
""fullscreenenter"",""1"",""1197""
""fullscreenexit"",""36"",""349950""
""blur"",""36"",""349964""
""focus"",""36"",""352999""
""blur"",""36"",""355498""
""focus"",""36"",""359508""
","""event"",""trial"",""time""
""blur"",""36"",""349964""
""blur"",""36"",""355498""
","""event"",""trial"",""time""
""focus"",""36"",""352999""
""focus"",""36"",""359508""
","""event"",""trial"",""time""
""fullscreenenter"",""1"",""1197""
","""event"",""trial"",""time""
""fullscreenexit"",""36"",""349950""
","","","266.09999990463257","","","13","7685","3772","&#9789;","elianto","#f73b6a7A"," "," ","1","0","[1116.6999999284744]","1","0","4","","","","","","","",""
"pit-trial","98","668621","0.0-2.0-17.3-2.3","battery-v0.2","","""event"",""trial"",""time""
""fullscreenenter"",""1"",""1197""
""fullscreenexit"",""36"",""349950""
""blur"",""36"",""349964""
""focus"",""36"",""352999""
""blur"",""36"",""355498""
""focus"",""36"",""359508""
","""event"",""trial"",""time""
""blur"",""36"",""349964""
""blur"",""36"",""355498""
","""event"",""trial"",""time""
""focus"",""36"",""352999""
""focus"",""36"",""359508""
","""event"",""trial"",""time""
""fullscreenenter"",""1"",""1197""
","""event"",""trial"",""time""
""fullscreenexit"",""36"",""349950""
","","","213.80000007152557","","","13","7685","3772","&#9789;","elianto","#f73b6a7A"," "," ","1","0","[1064.6000000238419]","1","0","4","","","","","","","",""
"pit-trial","99","673475","0.0-2.0-17.3-3.3","battery-v0.2","","""event"",""trial"",""time""
""fullscreenenter"",""1"",""1197""
""fullscreenexit"",""36"",""349950""
""blur"",""36"",""349964""
""focus"",""36"",""352999""
""blur"",""36"",""355498""
""focus"",""36"",""359508""
","""event"",""trial"",""time""
""blur"",""36"",""349964""
""blur"",""36"",""355498""
","""event"",""trial"",""time""
""focus"",""36"",""352999""
""focus"",""36"",""359508""
","""event"",""trial"",""time""
""fullscreenenter"",""1"",""1197""
","""event"",""trial"",""time""
""fullscreenexit"",""36"",""349950""
","","","-1","","","13","7685","3772","&#9789;","elianto","#f73b6a7A"," ","-1","0","0","[]","0","0","4","","","","","","","",""
"pit-trial","100","676834","0.0-2.0-17.3-4.3","battery-v0.2","","""event"",""trial"",""time""
""fullscreenenter"",""1"",""1197""
""fullscreenexit"",""36"",""349950""
""blur"",""36"",""349964""
""focus"",""36"",""352999""
""blur"",""36"",""355498""
""focus"",""36"",""359508""
","""event"",""trial"",""time""
""blur"",""36"",""349964""
""blur"",""36"",""355498""
","""event"",""trial"",""time""
""focus"",""36"",""352999""
""focus"",""36"",""359508""
","""event"",""trial"",""time""
""fullscreenenter"",""1"",""1197""
","""event"",""trial"",""time""
""fullscreenexit"",""36"",""349950""
","","","505.39999997615814","","","13","7685","3772","&#9789;","elianto","#f73b6a7A"," "," ","1","0","[1355.8999999761581]","1","0","4","","","","","","","",""
"call-function","101","676836","0.0-2.0-18.0","battery-v0.2","","""event"",""trial"",""time""
""fullscreenenter"",""1"",""1197""
""fullscreenexit"",""36"",""349950""
""blur"",""36"",""349964""
""focus"",""36"",""352999""
""blur"",""36"",""355498""
""focus"",""36"",""359508""
","""event"",""trial"",""time""
""blur"",""36"",""349964""
""blur"",""36"",""355498""
","""event"",""trial"",""time""
""focus"",""36"",""352999""
""focus"",""36"",""359508""
","""event"",""trial"",""time""
""fullscreenenter"",""1"",""1197""
","""event"",""trial"",""time""
""fullscreenexit"",""36"",""349950""
","","","","","","","","","","","","","","","","","","","","","","","","","","",""
"pit-instructions","102","746740","0.0-2.0-19.0","battery-v0.2","","""event"",""trial"",""time""
""fullscreenenter"",""1"",""1197""
""fullscreenexit"",""36"",""349950""
""blur"",""36"",""349964""
""focus"",""36"",""352999""
""blur"",""36"",""355498""
""focus"",""36"",""359508""
","""event"",""trial"",""time""
""blur"",""36"",""349964""
""blur"",""36"",""355498""
","""event"",""trial"",""time""
""focus"",""36"",""352999""
""focus"",""36"",""359508""
","""event"",""trial"",""time""
""fullscreenenter"",""1"",""1197""
","""event"",""trial"",""time""
""fullscreenexit"",""36"",""349950""
","","[{""page_index"":0,""viewing_time"":6826.699999928474},{""page_index"":1,""viewing_time"":6152.899999976158},{""page_index"":2,""viewing_time"":8170.100000023842},{""page_index"":3,""viewing_time"":10549.899999976158},{""page_index"":4,""viewing_time"":8781.300000071526},{""page_index"":5,""viewing_time"":10049.199999928474},{""page_index"":6,""viewing_time"":8261.200000047684},{""page_index"":7,""viewing_time"":7103.799999952316},{""page_index"":8,""viewing_time"":4008.5}]","69903.89999997616","","","","","","","","","","","","","","","","","","","","","","","",""
"pit-comprehension","103","752554","0.0-2.0-20.0-0.0","battery-v0.2","","""event"",""trial"",""time""
""fullscreenenter"",""1"",""1197""
""fullscreenexit"",""36"",""349950""
""blur"",""36"",""349964""
""focus"",""36"",""352999""
""blur"",""36"",""355498""
""focus"",""36"",""359508""
","""event"",""trial"",""time""
""blur"",""36"",""349964""
""blur"",""36"",""355498""
","""event"",""trial"",""time""
""focus"",""36"",""352999""
""focus"",""36"",""359508""
","""event"",""trial"",""time""
""fullscreenenter"",""1"",""1197""
","""event"",""trial"",""time""
""fullscreenexit"",""36"",""349950""
","","","5809.799999952316","[""SPACE""]","0","13","7685","3772","","","","","","","","","","","","","","","","","","",""
"pit-instructions","104","755032","0.0-2.0-20.0-1.0","battery-v0.2","","""event"",""trial"",""time""
""fullscreenenter"",""1"",""1197""
""fullscreenexit"",""36"",""349950""
""blur"",""36"",""349964""
""focus"",""36"",""352999""
""blur"",""36"",""355498""
""focus"",""36"",""359508""
","""event"",""trial"",""time""
""blur"",""36"",""349964""
""blur"",""36"",""355498""
","""event"",""trial"",""time""
""focus"",""36"",""352999""
""focus"",""36"",""359508""
","""event"",""trial"",""time""
""fullscreenenter"",""1"",""1197""
","""event"",""trial"",""time""
""fullscreenexit"",""36"",""349950""
","","[{""page_index"":0,""viewing_time"":2439.8000000715256}]","2440.100000023842","","","","","","","","","","","","","","","","","","","","","","","",""
"pit-comprehension","105","761482","0.0-2.0-21.0-0.0","battery-v0.2","","""event"",""trial"",""time""
""fullscreenenter"",""1"",""1197""
""fullscreenexit"",""36"",""349950""
""blur"",""36"",""349964""
""focus"",""36"",""352999""
""blur"",""36"",""355498""
""focus"",""36"",""359508""
","""event"",""trial"",""time""
""blur"",""36"",""349964""
""blur"",""36"",""355498""
","""event"",""trial"",""time""
""focus"",""36"",""352999""
""focus"",""36"",""359508""
","""event"",""trial"",""time""
""fullscreenenter"",""1"",""1197""
","""event"",""trial"",""time""
""fullscreenexit"",""36"",""349950""
","","","6447.300000071526","[""10""]","0","13","7685","3772","","","","","","","","","","","","","","","","","","",""
"pit-instructions","106","763191","0.0-2.0-21.0-1.0","battery-v0.2","","""event"",""trial"",""time""
""fullscreenenter"",""1"",""1197""
""fullscreenexit"",""36"",""349950""
""blur"",""36"",""349964""
""focus"",""36"",""352999""
""blur"",""36"",""355498""
""focus"",""36"",""359508""
","""event"",""trial"",""time""
""blur"",""36"",""349964""
""blur"",""36"",""355498""
","""event"",""trial"",""time""
""focus"",""36"",""352999""
""focus"",""36"",""359508""
","""event"",""trial"",""time""
""fullscreenenter"",""1"",""1197""
","""event"",""trial"",""time""
""fullscreenexit"",""36"",""349950""
","","[{""page_index"":0,""viewing_time"":1669}]","1669.4000000953674","","","","","","","","","","","","","","","","","","","","","","","",""
"pit-comprehension","107","769697","0.0-2.0-22.0-0.0","battery-v0.2","","""event"",""trial"",""time""
""fullscreenenter"",""1"",""1197""
""fullscreenexit"",""36"",""349950""
""blur"",""36"",""349964""
""focus"",""36"",""352999""
""blur"",""36"",""355498""
""focus"",""36"",""359508""
","""event"",""trial"",""time""
""blur"",""36"",""349964""
""blur"",""36"",""355498""
","""event"",""trial"",""time""
""focus"",""36"",""352999""
""focus"",""36"",""359508""
","""event"",""trial"",""time""
""fullscreenenter"",""1"",""1197""
","""event"",""trial"",""time""
""fullscreenexit"",""36"",""349950""
","","","6503","[""0""]","0","13","7685","3772","","","","","","","","","","","","","","","","","","",""
"pit-instructions","108","771189","0.0-2.0-22.0-1.0","battery-v0.2","","""event"",""trial"",""time""
""fullscreenenter"",""1"",""1197""
""fullscreenexit"",""36"",""349950""
""blur"",""36"",""349964""
""focus"",""36"",""352999""
""blur"",""36"",""355498""
""focus"",""36"",""359508""
","""event"",""trial"",""time""
""blur"",""36"",""349964""
""blur"",""36"",""355498""
","""event"",""trial"",""time""
""focus"",""36"",""352999""
""focus"",""36"",""359508""
","""event"",""trial"",""time""
""fullscreenenter"",""1"",""1197""
","""event"",""trial"",""time""
""fullscreenexit"",""36"",""349950""
","","[{""page_index"":0,""viewing_time"":1448.9000000953674}]","1449.3000000715256","","","","","","","","","","","","","","","","","","","","","","","",""
"pit-comprehension","109","783011","0.0-2.0-23.0-0.0","battery-v0.2","","""event"",""trial"",""time""
""fullscreenenter"",""1"",""1197""
""fullscreenexit"",""36"",""349950""
""blur"",""36"",""349964""
""focus"",""36"",""352999""
""blur"",""36"",""355498""
""focus"",""36"",""359508""
","""event"",""trial"",""time""
""blur"",""36"",""349964""
""blur"",""36"",""355498""
","""event"",""trial"",""time""
""focus"",""36"",""352999""
""focus"",""36"",""359508""
","""event"",""trial"",""time""
""fullscreenenter"",""1"",""1197""
","""event"",""trial"",""time""
""fullscreenexit"",""36"",""349950""
","","","11818.5","[""True""]","0","13","7685","3772","","","","","","","","","","","","","","","","","","",""
"pit-instructions","110","784224","0.0-2.0-23.0-1.0","battery-v0.2","","""event"",""trial"",""time""
""fullscreenenter"",""1"",""1197""
""fullscreenexit"",""36"",""349950""
""blur"",""36"",""349964""
""focus"",""36"",""352999""
""blur"",""36"",""355498""
""focus"",""36"",""359508""
","""event"",""trial"",""time""
""blur"",""36"",""349964""
""blur"",""36"",""355498""
","""event"",""trial"",""time""
""focus"",""36"",""352999""
""focus"",""36"",""359508""
","""event"",""trial"",""time""
""fullscreenenter"",""1"",""1197""
","""event"",""trial"",""time""
""fullscreenexit"",""36"",""349950""
","","[{""page_index"":0,""viewing_time"":1174.6000000238419}]","1174.8000000715256","","","","","","","","","","","","","","","","","","","","","","","",""
"pit-comprehension","111","794518","0.0-2.0-24.0-0.0","battery-v0.2","","""event"",""trial"",""time""
""fullscreenenter"",""1"",""1197""
""fullscreenexit"",""36"",""349950""
""blur"",""36"",""349964""
""focus"",""36"",""352999""
""blur"",""36"",""355498""
""focus"",""36"",""359508""
","""event"",""trial"",""time""
""blur"",""36"",""349964""
""blur"",""36"",""355498""
","""event"",""trial"",""time""
""focus"",""36"",""352999""
""focus"",""36"",""359508""
","""event"",""trial"",""time""
""fullscreenenter"",""1"",""1197""
","""event"",""trial"",""time""
""fullscreenexit"",""36"",""349950""
","","","10292","[""True""]","0","13","7685","3772","","","","","","","","","","","","","","","","","","",""
"pit-instructions","112","795936","0.0-2.0-24.0-1.0","battery-v0.2","","""event"",""trial"",""time""
""fullscreenenter"",""1"",""1197""
""fullscreenexit"",""36"",""349950""
""blur"",""36"",""349964""
""focus"",""36"",""352999""
""blur"",""36"",""355498""
""focus"",""36"",""359508""
","""event"",""trial"",""time""
""blur"",""36"",""349964""
""blur"",""36"",""355498""
","""event"",""trial"",""time""
""focus"",""36"",""352999""
""focus"",""36"",""359508""
","""event"",""trial"",""time""
""fullscreenenter"",""1"",""1197""
","""event"",""trial"",""time""
""fullscreenexit"",""36"",""349950""
","","[{""page_index"":0,""viewing_time"":1378}]","1378.2999999523163","","","","","","","","","","","","","","","","","","","","","","","",""
"pit-comprehension","113","802186","0.0-2.0-25.0-0.0","battery-v0.2","","""event"",""trial"",""time""
""fullscreenenter"",""1"",""1197""
""fullscreenexit"",""36"",""349950""
""blur"",""36"",""349964""
""focus"",""36"",""352999""
""blur"",""36"",""355498""
""focus"",""36"",""359508""
","""event"",""trial"",""time""
""blur"",""36"",""349964""
""blur"",""36"",""355498""
","""event"",""trial"",""time""
""focus"",""36"",""352999""
""focus"",""36"",""359508""
","""event"",""trial"",""time""
""fullscreenenter"",""1"",""1197""
","""event"",""trial"",""time""
""fullscreenexit"",""36"",""349950""
","","","6247.199999928474","[""True""]","0","13","7685","3772","","","","","","","","","","","","","","","","","","",""
"pit-instructions","114","803468","0.0-2.0-25.0-1.0","battery-v0.2","","""event"",""trial"",""time""
""fullscreenenter"",""1"",""1197""
""fullscreenexit"",""36"",""349950""
""blur"",""36"",""349964""
""focus"",""36"",""352999""
""blur"",""36"",""355498""
""focus"",""36"",""359508""
","""event"",""trial"",""time""
""blur"",""36"",""349964""
""blur"",""36"",""355498""
","""event"",""trial"",""time""
""focus"",""36"",""352999""
""focus"",""36"",""359508""
","""event"",""trial"",""time""
""fullscreenenter"",""1"",""1197""
","""event"",""trial"",""time""
""fullscreenexit"",""36"",""349950""
","","[{""page_index"":0,""viewing_time"":1243.9000000953674}]","1244.3000000715256","","","","","","","","","","","","","","","","","","","","","","","",""
"pit-comprehension","115","815844","0.0-2.0-26.0-0.0","battery-v0.2","","""event"",""trial"",""time""
""fullscreenenter"",""1"",""1197""
""fullscreenexit"",""36"",""349950""
""blur"",""36"",""349964""
""focus"",""36"",""352999""
""blur"",""36"",""355498""
""focus"",""36"",""359508""
","""event"",""trial"",""time""
""blur"",""36"",""349964""
""blur"",""36"",""355498""
","""event"",""trial"",""time""
""focus"",""36"",""352999""
""focus"",""36"",""359508""
","""event"",""trial"",""time""
""fullscreenenter"",""1"",""1197""
","""event"",""trial"",""time""
""fullscreenexit"",""36"",""349950""
","","","12373.199999928474","[""False""]","0","13","7685","3772","","","","","","","","","","","","","","","","","","",""
"pit-instructions","116","817085","0.0-2.0-26.0-1.0","battery-v0.2","","""event"",""trial"",""time""
""fullscreenenter"",""1"",""1197""
""fullscreenexit"",""36"",""349950""
""blur"",""36"",""349964""
""focus"",""36"",""352999""
""blur"",""36"",""355498""
""focus"",""36"",""359508""
","""event"",""trial"",""time""
""blur"",""36"",""349964""
""blur"",""36"",""355498""
","""event"",""trial"",""time""
""focus"",""36"",""352999""
""focus"",""36"",""359508""
","""event"",""trial"",""time""
""fullscreenenter"",""1"",""1197""
","""event"",""trial"",""time""
""fullscreenexit"",""36"",""349950""
","","[{""page_index"":0,""viewing_time"":1200.6000000238419}]","1201","","","","","","","","","","","","","","","","","","","","","","","",""
"pit-instructions","117","849448","0.0-3.0","battery-v0.2","","""event"",""trial"",""time""
""fullscreenenter"",""1"",""1197""
""fullscreenexit"",""36"",""349950""
""blur"",""36"",""349964""
""focus"",""36"",""352999""
""blur"",""36"",""355498""
""focus"",""36"",""359508""
","""event"",""trial"",""time""
""blur"",""36"",""349964""
""blur"",""36"",""355498""
","""event"",""trial"",""time""
""focus"",""36"",""352999""
""focus"",""36"",""359508""
","""event"",""trial"",""time""
""fullscreenenter"",""1"",""1197""
","""event"",""trial"",""time""
""fullscreenexit"",""36"",""349950""
","","[{""page_index"":0,""viewing_time"":19549.899999976158},{""page_index"":1,""viewing_time"":5229.200000047684},{""page_index"":2,""viewing_time"":7581.299999952316}]","32360.799999952316","","","","","","","","","","","","","","","","","","","","","","","",""
"pit-trial","118","853016","0.0-4.0","battery-v0.2","","""event"",""trial"",""time""
""fullscreenenter"",""1"",""1197""
""fullscreenexit"",""36"",""349950""
""blur"",""36"",""349964""
""focus"",""36"",""352999""
""blur"",""36"",""355498""
""focus"",""36"",""359508""
","""event"",""trial"",""time""
""blur"",""36"",""349964""
""blur"",""36"",""355498""
","""event"",""trial"",""time""
""focus"",""36"",""352999""
""focus"",""36"",""359508""
","""event"",""trial"",""time""
""fullscreenenter"",""1"",""1197""
","""event"",""trial"",""time""
""fullscreenexit"",""36"",""349950""
","","","690.5","","","13","7685","3772","&#9733;","elianto","#3366ff99","-1"," ","0","0","[1542.8000000715256,2930.100000023842]","2","1","","","7685","1","2","2","win","no-go","0"
"pit-trial","119","856736","0.0-5.0","battery-v0.2","","""event"",""trial"",""time""
""fullscreenenter"",""1"",""1197""
""fullscreenexit"",""36"",""349950""
""blur"",""36"",""349964""
""focus"",""36"",""352999""
""blur"",""36"",""355498""
""focus"",""36"",""359508""
","""event"",""trial"",""time""
""blur"",""36"",""349964""
""blur"",""36"",""355498""
","""event"",""trial"",""time""
""focus"",""36"",""352999""
""focus"",""36"",""359508""
","""event"",""trial"",""time""
""fullscreenenter"",""1"",""1197""
","""event"",""trial"",""time""
""fullscreenexit"",""36"",""349950""
","","","860.7000000476837","","","13","7685","3772","&#9752;","elianto","#f73b6a7A"," "," ","1","0","[1711.5]","1","1","","","7685","2","3","3","lose","go","0"
"pit-trial","120","861626","0.0-6.0","battery-v0.2","","""event"",""trial"",""time""
""fullscreenenter"",""1"",""1197""
""fullscreenexit"",""36"",""349950""
""blur"",""36"",""349964""
""focus"",""36"",""352999""
""blur"",""36"",""355498""
""focus"",""36"",""359508""
","""event"",""trial"",""time""
""blur"",""36"",""349964""
""blur"",""36"",""355498""
","""event"",""trial"",""time""
""focus"",""36"",""352999""
""focus"",""36"",""359508""
","""event"",""trial"",""time""
""fullscreenenter"",""1"",""1197""
","""event"",""trial"",""time""
""fullscreenexit"",""36"",""349950""
","","","-1","","","13","7685","3772","&#9728;","elianto","#f73b6a7A","-1","-1","1","0","[]","0","1","","","7685","3","0","4","lose","no-go","0"
"pit-trial","121","865246","0.0-7.0","battery-v0.2","","""event"",""trial"",""time""
""fullscreenenter"",""1"",""1197""
""fullscreenexit"",""36"",""349950""
""blur"",""36"",""349964""
""focus"",""36"",""352999""
""blur"",""36"",""355498""
""focus"",""36"",""359508""
","""event"",""trial"",""time""
""blur"",""36"",""349964""
""blur"",""36"",""355498""
","""event"",""trial"",""time""
""focus"",""36"",""352999""
""focus"",""36"",""359508""
","""event"",""trial"",""time""
""fullscreenenter"",""1"",""1197""
","""event"",""trial"",""time""
""fullscreenexit"",""36"",""349950""
","","","748.3000000715256","","","13","7685","3772","&#9730;","elianto","#3366ff99"," "," ","1","+10","[1605.5]","1","1","","","7685","4","1","1","win","go","0"
"pit-trial","122","869276","0.0-8.0","battery-v0.2","","""event"",""trial"",""time""
""fullscreenenter"",""1"",""1197""
""fullscreenexit"",""36"",""349950""
""blur"",""36"",""349964""
""focus"",""36"",""352999""
""blur"",""36"",""355498""
""focus"",""36"",""359508""
","""event"",""trial"",""time""
""blur"",""36"",""349964""
""blur"",""36"",""355498""
","""event"",""trial"",""time""
""focus"",""36"",""352999""
""focus"",""36"",""359508""
","""event"",""trial"",""time""
""fullscreenenter"",""1"",""1197""
","""event"",""trial"",""time""
""fullscreenexit"",""36"",""349950""
","","","1167.3999999761581","","","13","7685","3772","&#9733;","elianto","#3366ff99","-1"," ","0","0","[2021.5]","1","1","","","7685","5","2","2","win","no-go","0"
"pit-trial","123","873826","0.0-9.0","battery-v0.2","","""event"",""trial"",""time""
""fullscreenenter"",""1"",""1197""
""fullscreenexit"",""36"",""349950""
""blur"",""36"",""349964""
""focus"",""36"",""352999""
""blur"",""36"",""355498""
""focus"",""36"",""359508""
","""event"",""trial"",""time""
""blur"",""36"",""349964""
""blur"",""36"",""355498""
","""event"",""trial"",""time""
""focus"",""36"",""352999""
""focus"",""36"",""359508""
","""event"",""trial"",""time""
""fullscreenenter"",""1"",""1197""
","""event"",""trial"",""time""
""fullscreenexit"",""36"",""349950""
","","","1675.2999999523163","","","13","7685","3772","&#9728;","elianto","#f73b6a7A","-1"," ","0","-10","[2532.600000023842]","1","1","","","7685","6","0","4","lose","no-go","0"
"pit-trial","124","878176","0.0-10.0","battery-v0.2","","""event"",""trial"",""time""
""fullscreenenter"",""1"",""1197""
""fullscreenexit"",""36"",""349950""
""blur"",""36"",""349964""
""focus"",""36"",""352999""
""blur"",""36"",""355498""
""focus"",""36"",""359508""
","""event"",""trial"",""time""
""blur"",""36"",""349964""
""blur"",""36"",""355498""
","""event"",""trial"",""time""
""focus"",""36"",""352999""
""focus"",""36"",""359508""
","""event"",""trial"",""time""
""fullscreenenter"",""1"",""1197""
","""event"",""trial"",""time""
""fullscreenexit"",""36"",""349950""
","","","1472.5","","","13","7685","3772","&#9730;","elianto","#3366ff99"," "," ","1","+10","[2329.7000000476837]","1","1","","","7685","7","1","1","win","go","0"
"pit-trial","125","882923","0.0-11.0","battery-v0.2","","""event"",""trial"",""time""
""fullscreenenter"",""1"",""1197""
""fullscreenexit"",""36"",""349950""
""blur"",""36"",""349964""
""focus"",""36"",""352999""
""blur"",""36"",""355498""
""focus"",""36"",""359508""
","""event"",""trial"",""time""
""blur"",""36"",""349964""
""blur"",""36"",""355498""
","""event"",""trial"",""time""
""focus"",""36"",""352999""
""focus"",""36"",""359508""
","""event"",""trial"",""time""
""fullscreenenter"",""1"",""1197""
","""event"",""trial"",""time""
""fullscreenexit"",""36"",""349950""
","","","1887.2999999523163","","","13","7685","3772","&#9752;","elianto","#f73b6a7A"," "," ","1","0","[2744.399999976158]","1","1","","","7685","8","3","3","lose","go","0"
"pit-trial","126","887776","0.0-12.0","battery-v0.2","","""event"",""trial"",""time""
""fullscreenenter"",""1"",""1197""
""fullscreenexit"",""36"",""349950""
""blur"",""36"",""349964""
""focus"",""36"",""352999""
""blur"",""36"",""355498""
""focus"",""36"",""359508""
","""event"",""trial"",""time""
""blur"",""36"",""349964""
""blur"",""36"",""355498""
","""event"",""trial"",""time""
""focus"",""36"",""352999""
""focus"",""36"",""359508""
","""event"",""trial"",""time""
""fullscreenenter"",""1"",""1197""
","""event"",""trial"",""time""
""fullscreenexit"",""36"",""349950""
","","","-1","","","13","7685","3772","&#9728;","elianto","#f73b6a7A","-1","-1","1","-10","[]","0","1","","","7685","9","0","4","lose","no-go","1"
"pit-trial","127","891749","0.0-13.0","battery-v0.2","","""event"",""trial"",""time""
""fullscreenenter"",""1"",""1197""
""fullscreenexit"",""36"",""349950""
""blur"",""36"",""349964""
""focus"",""36"",""352999""
""blur"",""36"",""355498""
""focus"",""36"",""359508""
","""event"",""trial"",""time""
""blur"",""36"",""349964""
""blur"",""36"",""355498""
","""event"",""trial"",""time""
""focus"",""36"",""352999""
""focus"",""36"",""359508""
","""event"",""trial"",""time""
""fullscreenenter"",""1"",""1197""
","""event"",""trial"",""time""
""fullscreenexit"",""36"",""349950""
","","","1119.8999999761581","","","13","7685","3772","&#9752;","elianto","#f73b6a7A"," "," ","1","0","[1970.2999999523163]","1","1","","","7685","10","3","3","lose","go","0"
"pit-trial","128","895726","0.0-14.0","battery-v0.2","","""event"",""trial"",""time""
""fullscreenenter"",""1"",""1197""
""fullscreenexit"",""36"",""349950""
""blur"",""36"",""349964""
""focus"",""36"",""352999""
""blur"",""36"",""355498""
""focus"",""36"",""359508""
","""event"",""trial"",""time""
""blur"",""36"",""349964""
""blur"",""36"",""355498""
","""event"",""trial"",""time""
""focus"",""36"",""352999""
""focus"",""36"",""359508""
","""event"",""trial"",""time""
""fullscreenenter"",""1"",""1197""
","""event"",""trial"",""time""
""fullscreenexit"",""36"",""349950""
","","","1123.6999999284744","","","13","7685","3772","&#9733;","elianto","#3366ff99","-1"," ","0","+10","[1973.8999999761581]","1","1","","","7685","11","2","2","win","no-go","1"
"pit-trial","129","899163","0.0-15.0","battery-v0.2","","""event"",""trial"",""time""
""fullscreenenter"",""1"",""1197""
""fullscreenexit"",""36"",""349950""
""blur"",""36"",""349964""
""focus"",""36"",""352999""
""blur"",""36"",""355498""
""focus"",""36"",""359508""
","""event"",""trial"",""time""
""blur"",""36"",""349964""
""blur"",""36"",""355498""
","""event"",""trial"",""time""
""focus"",""36"",""352999""
""focus"",""36"",""359508""
","""event"",""trial"",""time""
""fullscreenenter"",""1"",""1197""
","""event"",""trial"",""time""
""fullscreenexit"",""36"",""349950""
","","","584.1999999284744","","","13","7685","3772","&#9730;","elianto","#3366ff99"," "," ","1","+10","[1434.6000000238419]","1","1","","","7685","12","1","1","win","go","0"
"pit-trial","130","902891","0.0-16.0","battery-v0.2","","""event"",""trial"",""time""
""fullscreenenter"",""1"",""1197""
""fullscreenexit"",""36"",""349950""
""blur"",""36"",""349964""
""focus"",""36"",""352999""
""blur"",""36"",""355498""
""focus"",""36"",""359508""
","""event"",""trial"",""time""
""blur"",""36"",""349964""
""blur"",""36"",""355498""
","""event"",""trial"",""time""
""focus"",""36"",""352999""
""focus"",""36"",""359508""
","""event"",""trial"",""time""
""fullscreenenter"",""1"",""1197""
","""event"",""trial"",""time""
""fullscreenexit"",""36"",""349950""
","","","874.2999999523163","","","13","7685","3772","&#9730;","elianto","#3366ff99"," "," ","1","+10","[1724.9000000953674]","1","1","","","7685","13","1","1","win","go","0"
"pit-trial","131","906991","0.0-17.0","battery-v0.2","","""event"",""trial"",""time""
""fullscreenenter"",""1"",""1197""
""fullscreenexit"",""36"",""349950""
""blur"",""36"",""349964""
""focus"",""36"",""352999""
""blur"",""36"",""355498""
""focus"",""36"",""359508""
","""event"",""trial"",""time""
""blur"",""36"",""349964""
""blur"",""36"",""355498""
","""event"",""trial"",""time""
""focus"",""36"",""352999""
""focus"",""36"",""359508""
","""event"",""trial"",""time""
""fullscreenenter"",""1"",""1197""
","""event"",""trial"",""time""
""fullscreenexit"",""36"",""349950""
","","","1247","","","13","7685","3772","&#9752;","elianto","#f73b6a7A"," "," ","1","0","[2097.399999976158]","1","1","","","7685","14","3","3","lose","go","0"
"pit-trial","132","910840","0.0-18.0","battery-v0.2","","""event"",""trial"",""time""
""fullscreenenter"",""1"",""1197""
""fullscreenexit"",""36"",""349950""
""blur"",""36"",""349964""
""focus"",""36"",""352999""
""blur"",""36"",""355498""
""focus"",""36"",""359508""
","""event"",""trial"",""time""
""blur"",""36"",""349964""
""blur"",""36"",""355498""
","""event"",""trial"",""time""
""focus"",""36"",""352999""
""focus"",""36"",""359508""
","""event"",""trial"",""time""
""fullscreenenter"",""1"",""1197""
","""event"",""trial"",""time""
""fullscreenexit"",""36"",""349950""
","","","996.1999999284744","","","13","7685","3772","&#9733;","elianto","#3366ff99","-1"," ","0","0","[1846.5]","1","1","","","7685","15","2","2","win","no-go","0"
"pit-trial","133","914503","0.0-19.0","battery-v0.2","","""event"",""trial"",""time""
""fullscreenenter"",""1"",""1197""
""fullscreenexit"",""36"",""349950""
""blur"",""36"",""349964""
""focus"",""36"",""352999""
""blur"",""36"",""355498""
""focus"",""36"",""359508""
","""event"",""trial"",""time""
""blur"",""36"",""349964""
""blur"",""36"",""355498""
","""event"",""trial"",""time""
""focus"",""36"",""352999""
""focus"",""36"",""359508""
","""event"",""trial"",""time""
""fullscreenenter"",""1"",""1197""
","""event"",""trial"",""time""
""fullscreenexit"",""36"",""349950""
","","","809.6000000238419","","","13","7685","3772","&#9728;","elianto","#f73b6a7A","-1"," ","0","-10","[1660.2999999523163]","1","1","","","7685","16","0","4","lose","no-go","0"
"pit-trial","134","918480","0.0-20.0","battery-v0.2","","""event"",""trial"",""time""
""fullscreenenter"",""1"",""1197""
""fullscreenexit"",""36"",""349950""
""blur"",""36"",""349964""
""focus"",""36"",""352999""
""blur"",""36"",""355498""
""focus"",""36"",""359508""
","""event"",""trial"",""time""
""blur"",""36"",""349964""
""blur"",""36"",""355498""
","""event"",""trial"",""time""
""focus"",""36"",""352999""
""focus"",""36"",""359508""
","""event"",""trial"",""time""
""fullscreenenter"",""1"",""1197""
","""event"",""trial"",""time""
""fullscreenexit"",""36"",""349950""
","","","1122.3999999761581","","","13","7685","3772","&#9730;","elianto","#3366ff99"," "," ","1","+10","[1973]","1","1","","","7685","17","1","1","win","go","0"
"pit-trial","135","922398","0.0-21.0","battery-v0.2","","""event"",""trial"",""time""
""fullscreenenter"",""1"",""1197""
""fullscreenexit"",""36"",""349950""
""blur"",""36"",""349964""
""focus"",""36"",""352999""
""blur"",""36"",""355498""
""focus"",""36"",""359508""
","""event"",""trial"",""time""
""blur"",""36"",""349964""
""blur"",""36"",""355498""
","""event"",""trial"",""time""
""focus"",""36"",""352999""
""focus"",""36"",""359508""
","""event"",""trial"",""time""
""fullscreenenter"",""1"",""1197""
","""event"",""trial"",""time""
""fullscreenexit"",""36"",""349950""
","","","1064.6999999284744","","","13","7685","3772","&#9752;","elianto","#f73b6a7A"," "," ","1","-10","[1915.2999999523163]","1","1","","","7685","18","3","3","lose","go","1"
"pit-trial","136","927252","0.0-22.0","battery-v0.2","","""event"",""trial"",""time""
""fullscreenenter"",""1"",""1197""
""fullscreenexit"",""36"",""349950""
""blur"",""36"",""349964""
""focus"",""36"",""352999""
""blur"",""36"",""355498""
""focus"",""36"",""359508""
","""event"",""trial"",""time""
""blur"",""36"",""349964""
""blur"",""36"",""355498""
","""event"",""trial"",""time""
""focus"",""36"",""352999""
""focus"",""36"",""359508""
","""event"",""trial"",""time""
""fullscreenenter"",""1"",""1197""
","""event"",""trial"",""time""
""fullscreenexit"",""36"",""349950""
","","","-1","","","13","7685","3772","&#9728;","elianto","#f73b6a7A","-1","-1","1","0","[]","0","1","","","7685","19","0","4","lose","no-go","0"
"pit-trial","137","930857","0.0-23.0","battery-v0.2","","""event"",""trial"",""time""
""fullscreenenter"",""1"",""1197""
""fullscreenexit"",""36"",""349950""
""blur"",""36"",""349964""
""focus"",""36"",""352999""
""blur"",""36"",""355498""
""focus"",""36"",""359508""
","""event"",""trial"",""time""
""blur"",""36"",""349964""
""blur"",""36"",""355498""
","""event"",""trial"",""time""
""focus"",""36"",""352999""
""focus"",""36"",""359508""
","""event"",""trial"",""time""
""fullscreenenter"",""1"",""1197""
","""event"",""trial"",""time""
""fullscreenexit"",""36"",""349950""
","","","751","","","13","7685","3772","&#9733;","elianto","#3366ff99","-1"," ","0","0","[1601.6000000238419]","1","1","","","7685","20","2","2","win","no-go","0"
"pit-instructions","138","943024","0.0-24.0","battery-v0.2","","""event"",""trial"",""time""
""fullscreenenter"",""1"",""1197""
""fullscreenexit"",""36"",""349950""
""blur"",""36"",""349964""
""focus"",""36"",""352999""
""blur"",""36"",""355498""
""focus"",""36"",""359508""
","""event"",""trial"",""time""
""blur"",""36"",""349964""
""blur"",""36"",""355498""
","""event"",""trial"",""time""
""focus"",""36"",""352999""
""focus"",""36"",""359508""
","""event"",""trial"",""time""
""fullscreenenter"",""1"",""1197""
","""event"",""trial"",""time""
""fullscreenexit"",""36"",""349950""
","","[{""page_index"":0,""viewing_time"":5436.700000047684},{""page_index"":1,""viewing_time"":6728.199999928474}]","12165.200000047684","","","","","","","","","","","","","","","","","","","","","","","",""
"pit-trial","139","947423","0.0-25.0","battery-v0.2","","""event"",""trial"",""time""
""fullscreenenter"",""1"",""1197""
""fullscreenexit"",""36"",""349950""
""blur"",""36"",""349964""
""focus"",""36"",""352999""
""blur"",""36"",""355498""
""focus"",""36"",""359508""
","""event"",""trial"",""time""
""blur"",""36"",""349964""
""blur"",""36"",""355498""
","""event"",""trial"",""time""
""focus"",""36"",""352999""
""focus"",""36"",""359508""
","""event"",""trial"",""time""
""fullscreenenter"",""1"",""1197""
","""event"",""trial"",""time""
""fullscreenexit"",""36"",""349950""
","","","1522","","","13","7685","3772","g","elianto","#f73b6a7A","-1"," ","0","-10","[2379.3000000715256]","1","2","","","7685","21","3","4","lose","no-go","0"
"pit-trial","140","951283","0.0-26.0","battery-v0.2","","""event"",""trial"",""time""
""fullscreenenter"",""1"",""1197""
""fullscreenexit"",""36"",""349950""
""blur"",""36"",""349964""
""focus"",""36"",""352999""
""blur"",""36"",""355498""
""focus"",""36"",""359508""
","""event"",""trial"",""time""
""blur"",""36"",""349964""
""blur"",""36"",""355498""
","""event"",""trial"",""time""
""focus"",""36"",""352999""
""focus"",""36"",""359508""
","""event"",""trial"",""time""
""fullscreenenter"",""1"",""1197""
","""event"",""trial"",""time""
""fullscreenexit"",""36"",""349950""
","","","988.1000000238419","","","13","7685","3772","l","elianto","#3366ff99","-1"," ","0","0","[1846.3999999761581]","1","2","","","7685","22","1","2","win","no-go","0"
"pit-trial","141","955673","0.0-27.0","battery-v0.2","","""event"",""trial"",""time""
""fullscreenenter"",""1"",""1197""
""fullscreenexit"",""36"",""349950""
""blur"",""36"",""349964""
""focus"",""36"",""352999""
""blur"",""36"",""355498""
""focus"",""36"",""359508""
","""event"",""trial"",""time""
""blur"",""36"",""349964""
""blur"",""36"",""355498""
","""event"",""trial"",""time""
""focus"",""36"",""352999""
""focus"",""36"",""359508""
","""event"",""trial"",""time""
""fullscreenenter"",""1"",""1197""
","""event"",""trial"",""time""
""fullscreenexit"",""36"",""349950""
","","","1524.8999999761581","","","13","7685","3772","u","elianto","#f73b6a7A"," "," ","1","-10","[2375.2999999523163]","1","2","","","7685","23","0","3","lose","go","1"
"pit-trial","142","960343","0.0-28.0","battery-v0.2","","""event"",""trial"",""time""
""fullscreenenter"",""1"",""1197""
""fullscreenexit"",""36"",""349950""
""blur"",""36"",""349964""
""focus"",""36"",""352999""
""blur"",""36"",""355498""
""focus"",""36"",""359508""
","""event"",""trial"",""time""
""blur"",""36"",""349964""
""blur"",""36"",""355498""
","""event"",""trial"",""time""
""focus"",""36"",""352999""
""focus"",""36"",""359508""
","""event"",""trial"",""time""
""fullscreenenter"",""1"",""1197""
","""event"",""trial"",""time""
""fullscreenexit"",""36"",""349950""
","","","1800.7999999523163","","","13","7685","3772","a","elianto","#f73b6a7A"," "," ","1","0","[2658.600000023842]","1","2","","","7685","24","2","3","lose","go","0"
"pit-trial","143","965213","0.0-29.0","battery-v0.2","","""event"",""trial"",""time""
""fullscreenenter"",""1"",""1197""
""fullscreenexit"",""36"",""349950""
""blur"",""36"",""349964""
""focus"",""36"",""352999""
""blur"",""36"",""355498""
""focus"",""36"",""359508""
","""event"",""trial"",""time""
""blur"",""36"",""349964""
""blur"",""36"",""355498""
","""event"",""trial"",""time""
""focus"",""36"",""352999""
""focus"",""36"",""359508""
","""event"",""trial"",""time""
""fullscreenenter"",""1"",""1197""
","""event"",""trial"",""time""
""fullscreenexit"",""36"",""349950""
","","","-1","","","13","7685","3772","u","elianto","#f73b6a7A"," ","-1","0","-10","[]","0","2","","","7685","25","0","3","lose","go","0"
"pit-trial","144","968873","0.0-30.0","battery-v0.2","","""event"",""trial"",""time""
""fullscreenenter"",""1"",""1197""
""fullscreenexit"",""36"",""349950""
""blur"",""36"",""349964""
""focus"",""36"",""352999""
""blur"",""36"",""355498""
""focus"",""36"",""359508""
","""event"",""trial"",""time""
""blur"",""36"",""349964""
""blur"",""36"",""355498""
","""event"",""trial"",""time""
""focus"",""36"",""352999""
""focus"",""36"",""359508""
","""event"",""trial"",""time""
""fullscreenenter"",""1"",""1197""
","""event"",""trial"",""time""
""fullscreenexit"",""36"",""349950""
","","","798.8000000715256","","","13","7685","3772","l","elianto","#3366ff99","-1"," ","0","0","[1650,3249.7999999523163]","2","2","","","7685","26","1","2","win","no-go","0"
"pit-trial","145","973743","0.0-31.0","battery-v0.2","","""event"",""trial"",""time""
""fullscreenenter"",""1"",""1197""
""fullscreenexit"",""36"",""349950""
""blur"",""36"",""349964""
""focus"",""36"",""352999""
""blur"",""36"",""355498""
""focus"",""36"",""359508""
","""event"",""trial"",""time""
""blur"",""36"",""349964""
""blur"",""36"",""355498""
","""event"",""trial"",""time""
""focus"",""36"",""352999""
""focus"",""36"",""359508""
","""event"",""trial"",""time""
""fullscreenenter"",""1"",""1197""
","""event"",""trial"",""time""
""fullscreenexit"",""36"",""349950""
","","","-1","","","13","7685","3772","g","elianto","#f73b6a7A","-1","-1","1","0","[]","0","2","","","7685","27","3","4","lose","no-go","0"
"pit-trial","146","977780","0.0-32.0","battery-v0.2","","""event"",""trial"",""time""
""fullscreenenter"",""1"",""1197""
""fullscreenexit"",""36"",""349950""
""blur"",""36"",""349964""
""focus"",""36"",""352999""
""blur"",""36"",""355498""
""focus"",""36"",""359508""
","""event"",""trial"",""time""
