"trial_type","trial_index","time_elapsed","internal_node_id","task_version","subject_id","interactions","blur_events","focus_events","fullscreenenter_events","fullscreenexit_events","success","view_history","rt","responses","num_errors","age","subject","participantId","rune","rune_set","hex","correct","choice","accuracy","outcome","keys","total_keys","block","practice","value","sub","trial","stimulus","robot","valence","action","sham"
"pavlovia","0","16","0.0-0.0","battery-v0.2","","""event"",""trial"",""time""
""fullscreenenter"",""1"",""115514""
","
","
","""event"",""trial"",""time""
""fullscreenenter"",""1"",""115514""
","
","","","","","","","","","","","","","","","","","","","","","","","","","","",""
"fullscreen","1","116484","0.0-1.0","battery-v0.2","","""event"",""trial"",""time""
""fullscreenenter"",""1"",""115514""
","
","
","""event"",""trial"",""time""
""fullscreenenter"",""1"",""115514""
","
","true","","","","","","","","","","","","","","","","","","","","","","","","","",""
"pit-instructions","2","122558","0.0-2.0-0.0","battery-v0.2","","""event"",""trial"",""time""
""fullscreenenter"",""1"",""115514""
","
","
","""event"",""trial"",""time""
""fullscreenenter"",""1"",""115514""
","
","","[{""page_index"":0,""viewing_time"":6059.70000000298}]","6060.4000000059605","","","","","","","","","","","","","","","","","","","","","","","",""
"pit-comprehension","3","126926","0.0-2.0-1.0-0.0","battery-v0.2","","""event"",""trial"",""time""
""fullscreenenter"",""1"",""115514""
","
","
","""event"",""trial"",""time""
""fullscreenenter"",""1"",""115514""
","
","","","4360.0999999940395","[""shark""]","0","26","5658","1721","","","","","","","","","","","","","","","","","","",""
"pit-instructions","4","128884","0.0-2.0-1.0-1.0","battery-v0.2","","""event"",""trial"",""time""
""fullscreenenter"",""1"",""115514""
","
","
","""event"",""trial"",""time""
""fullscreenenter"",""1"",""115514""
","
","","[{""page_index"":0,""viewing_time"":1925}]","1925.4000000059605","","","","","","","","","","","","","","","","","","","","","","","",""
"pit-comprehension","5","136986","0.0-2.0-2.0-0.0","battery-v0.2","","""event"",""trial"",""time""
""fullscreenenter"",""1"",""115514""
","
","
","""event"",""trial"",""time""
""fullscreenenter"",""1"",""115514""
","
","","","8096.399999991059","[""tiger""]","0","26","5658","1721","","","","","","","","","","","","","","","","","","",""
"pit-instructions","6","139568","0.0-2.0-2.0-1.0","battery-v0.2","","""event"",""trial"",""time""
""fullscreenenter"",""1"",""115514""
","
","
","""event"",""trial"",""time""
""fullscreenenter"",""1"",""115514""
","
","","[{""page_index"":0,""viewing_time"":2571.0999999940395}]","2572.5999999940395","","","","","","","","","","","","","","","","","","","","","","","",""
"pit-instructions","7","250628","0.0-2.0-3.0","battery-v0.2","","""event"",""trial"",""time""
""fullscreenenter"",""1"",""115514""
","
","
","""event"",""trial"",""time""
""fullscreenenter"",""1"",""115514""
","
","","[{""page_index"":0,""viewing_time"":8267.79999999702},{""page_index"":1,""viewing_time"":9482.70000000298},{""page_index"":2,""viewing_time"":8080.899999991059},{""page_index"":3,""viewing_time"":8746.90000000596},{""page_index"":4,""viewing_time"":5953.0999999940395},{""page_index"":5,""viewing_time"":6953.800000011921},{""page_index"":6,""viewing_time"":8608.59999999404},{""page_index"":7,""viewing_time"":12148.29999999702},{""page_index"":8,""viewing_time"":6732.4000000059605},{""page_index"":9,""viewing_time"":8581.59999999404},{""page_index"":10,""viewing_time"":7147.20000000298},{""page_index"":11,""viewing_time"":4993.5},{""page_index"":12,""viewing_time"":11196.09999999404},{""page_index"":13,""viewing_time"":4163.9000000059605}]","111057.5","","","","","","","","","","","","","","","","","","","","","","","",""
"pit-trial","8","254276","0.0-2.0-4.0-0.0","battery-v0.2","","""event"",""trial"",""time""
""fullscreenenter"",""1"",""115514""
","
","
","""event"",""trial"",""time""
""fullscreenenter"",""1"",""115514""
","
","","","761.4000000059605","","","26","5658","1721","&#9784;","elianto","#FFFFF080"," "," ","1","&#10004","[1626]","1","0","0","","","","","","","",""
"pit-trial","9","258053","0.0-2.0-4.1-0.1","battery-v0.2","","""event"",""trial"",""time""
""fullscreenenter"",""1"",""115514""
","
","
","""event"",""trial"",""time""
""fullscreenenter"",""1"",""115514""
","
","","","898.5","","","26","5658","1721","&#9784;","elianto","#FFFFF080"," "," ","1","&#10004","[1758.2000000029802]","1","0","0","","","","","","","",""
"pit-trial","10","261506","0.0-2.0-4.2-0.2","battery-v0.2","","""event"",""trial"",""time""
""fullscreenenter"",""1"",""115514""
","
","
","""event"",""trial"",""time""
""fullscreenenter"",""1"",""115514""
","
","","","589.8000000119209","","","26","5658","1721","&#9784;","elianto","#FFFFF080"," "," ","1","&#10004","[1439.7999999970198]","1","0","0","","","","","","","",""
"pit-trial","11","264954","0.0-2.0-4.3-0.3","battery-v0.2","","""event"",""trial"",""time""
""fullscreenenter"",""1"",""115514""
","
","
","""event"",""trial"",""time""
""fullscreenenter"",""1"",""115514""
","
","","","579.2000000029802","","","26","5658","1721","&#9784;","elianto","#FFFFF080"," "," ","1","&#10004","[1429.5]","1","0","0","","","","","","","",""
"pit-trial","12","268375","0.0-2.0-4.4-0.4","battery-v0.2","","""event"",""trial"",""time""
""fullscreenenter"",""1"",""115514""
","
","
","""event"",""trial"",""time""
""fullscreenenter"",""1"",""115514""
","
","","","541.7000000029802","","","26","5658","1721","&#9784;","elianto","#FFFFF080"," "," ","1","&#10004","[1395.7999999970198]","1","0","0","","","","","","","",""
"pit-instructions","13","296155","0.0-2.0-5.0","battery-v0.2","","""event"",""trial"",""time""
""fullscreenenter"",""1"",""115514""
","
","
","""event"",""trial"",""time""
""fullscreenenter"",""1"",""115514""
","
","","[{""page_index"":0,""viewing_time"":7447.899999991059},{""page_index"":1,""viewing_time"":7292.4000000059605},{""page_index"":2,""viewing_time"":7075.5999999940395},{""page_index"":3,""viewing_time"":5956}]","27773.29999999702","","","","","","","","","","","","","","","","","","","","","","","",""
"pit-trial","14","301032","0.0-2.0-6.0-0.0","battery-v0.2","","""event"",""trial"",""time""
""fullscreenenter"",""1"",""115514""
","
","
","""event"",""trial"",""time""
""fullscreenenter"",""1"",""115514""
","
","","","-1","","","26","5658","1721","&#9854;","elianto","#FFFFF080","-1","-1","1","&#10004","[]","0","0","1","","","","","","","",""
"pit-trial","15","305921","0.0-2.0-6.1-0.1","battery-v0.2","","""event"",""trial"",""time""
""fullscreenenter"",""1"",""115514""
","
","
","""event"",""trial"",""time""
""fullscreenenter"",""1"",""115514""
","
","","","-1","","","26","5658","1721","&#9854;","elianto","#FFFFF080","-1","-1","1","&#10004","[]","0","0","1","","","","","","","",""
"pit-trial","16","310801","0.0-2.0-6.2-0.2","battery-v0.2","","""event"",""trial"",""time""
""fullscreenenter"",""1"",""115514""
","
","
","""event"",""trial"",""time""
""fullscreenenter"",""1"",""115514""
","
","","","-1","","","26","5658","1721","&#9854;","elianto","#FFFFF080","-1","-1","1","&#10004","[]","0","0","1","","","","","","","",""
"pit-trial","17","315699","0.0-2.0-6.3-0.3","battery-v0.2","","""event"",""trial"",""time""
""fullscreenenter"",""1"",""115514""
","
","
","""event"",""trial"",""time""
""fullscreenenter"",""1"",""115514""
","
","","","-1","","","26","5658","1721","&#9854;","elianto","#FFFFF080","-1","-1","1","&#10004","[]","0","0","1","","","","","","","",""
"pit-trial","18","320575","0.0-2.0-6.4-0.4","battery-v0.2","","""event"",""trial"",""time""
""fullscreenenter"",""1"",""115514""
","
","
","""event"",""trial"",""time""
""fullscreenenter"",""1"",""115514""
","
","","","-1","","","26","5658","1721","&#9854;","elianto","#FFFFF080","-1","-1","1","&#10004","[]","0","0","1","","","","","","","",""
"pit-instructions","19","449786","0.0-2.0-7.0","battery-v0.2","","""event"",""trial"",""time""
""fullscreenenter"",""1"",""115514""
","
","
","""event"",""trial"",""time""
""fullscreenenter"",""1"",""115514""
","
","","[{""page_index"":0,""viewing_time"":5763.79999999702},{""page_index"":1,""viewing_time"":6521.5},{""page_index"":2,""viewing_time"":6651.0999999940395},{""page_index"":3,""viewing_time"":6485.100000008941},{""page_index"":4,""viewing_time"":7294.0999999940395},{""page_index"":5,""viewing_time"":6388.5},{""page_index"":6,""viewing_time"":5281.100000008941},{""page_index"":7,""viewing_time"":10251.59999999404},{""page_index"":8,""viewing_time"":6092.79999999702},{""page_index"":9,""viewing_time"":8025.70000000298},{""page_index"":10,""viewing_time"":9860.79999999702},{""page_index"":11,""viewing_time"":5399.5},{""page_index"":12,""viewing_time"":8054.79999999702},{""page_index"":13,""viewing_time"":7330.70000000298},{""page_index"":14,""viewing_time"":6848.9000000059605},{""page_index"":15,""viewing_time"":6024.70000000298},{""page_index"":16,""viewing_time"":8824.79999999702},{""page_index"":17,""viewing_time"":8105.899999991059}]","129206.29999999702","","","","","","","","","","","","","","","","","","","","","","","",""
"pit-trial","20","453281","0.0-2.0-8.0-0.0","battery-v0.2","","""event"",""trial"",""time""
""fullscreenenter"",""1"",""115514""
","
","
","""event"",""trial"",""time""
""fullscreenenter"",""1"",""115514""
","
","","","634.2999999970198","","","26","5658","1721","&#9776;","elianto","#3366ff99"," "," ","1","+10","[1484.7999999970198]","1","0","1","","","","","","","",""
"pit-trial","21","456778","0.0-2.0-8.0-1.0","battery-v0.2","","""event"",""trial"",""time""
""fullscreenenter"",""1"",""115514""
","
","
","""event"",""trial"",""time""
""fullscreenenter"",""1"",""115514""
","
","","","618","","","26","5658","1721","&#9776;","elianto","#3366ff99"," "," ","1","+10","[1473.9000000059605]","1","0","1","","","","","","","",""
"pit-trial","22","461651","0.0-2.0-8.0-2.0","battery-v0.2","","""event"",""trial"",""time""
""fullscreenenter"",""1"",""115514""
","
","
","""event"",""trial"",""time""
""fullscreenenter"",""1"",""115514""
","
","","","-1","","","26","5658","1721","&#9776;","elianto","#3366ff99"," ","-1","0","0","[]","0","0","1","","","","","","","",""
"pit-trial","23","465069","0.0-2.0-8.0-3.0","battery-v0.2","","""event"",""trial"",""time""
""fullscreenenter"",""1"",""115514""
","
","
","""event"",""trial"",""time""
""fullscreenenter"",""1"",""115514""
","
","","","548","","","26","5658","1721","&#9776;","elianto","#3366ff99"," "," ","1","0","[1400.2999999970198]","1","0","1","","","","","","","",""
"pit-trial","24","469306","0.0-2.0-8.0-4.0","battery-v0.2","","""event"",""trial"",""time""
""fullscreenenter"",""1"",""115514""
","
","
","""event"",""trial"",""time""
""fullscreenenter"",""1"",""115514""
","
","","","1364.7000000029802","","","26","5658","1721","&#9776;","elianto","#3366ff99"," "," ","1","+10","[2216.3999999910593]","1","0","1","","","","","","","",""
"pit-trial","25","472484","0.0-2.0-8.1-0.1","battery-v0.2","","""event"",""trial"",""time""
""fullscreenenter"",""1"",""115514""
","
","
","""event"",""trial"",""time""
""fullscreenenter"",""1"",""115514""
","
","","","309.3999999910593","","","26","5658","1721","&#9776;","elianto","#3366ff99"," "," ","1","+10","[1160.4000000059605]","1","0","1","","","","","","","",""
"pit-trial","26","475597","0.0-2.0-8.1-1.1","battery-v0.2","","""event"",""trial"",""time""
""fullscreenenter"",""1"",""115514""
","
","
","""event"",""trial"",""time""
""fullscreenenter"",""1"",""115514""
","
","","","250.20000000298023","","","26","5658","1721","&#9776;","elianto","#3366ff99"," "," ","1","+10","[1102.9000000059605]","1","0","1","","","","","","","",""
"pit-trial","27","478732","0.0-2.0-8.1-2.1","battery-v0.2","","""event"",""trial"",""time""
""fullscreenenter"",""1"",""115514""
","
","
","""event"",""trial"",""time""
""fullscreenenter"",""1"",""115514""
","
","","","266.09999999403954","","","26","5658","1721","&#9776;","elianto","#3366ff99"," "," ","1","+10","[1123.2000000029802]","1","0","1","","","","","","","",""
"pit-trial","28","481898","0.0-2.0-8.1-3.1","battery-v0.2","","""event"",""trial"",""time""
""fullscreenenter"",""1"",""115514""
","
","
","""event"",""trial"",""time""
""fullscreenenter"",""1"",""115514""
","
","","","298.40000000596046","","","26","5658","1721","&#9776;","elianto","#3366ff99"," "," ","1","0","[1152]","1","0","1","","","","","","","",""
"pit-trial","29","484957","0.0-2.0-8.1-4.1","battery-v0.2","","""event"",""trial"",""time""
""fullscreenenter"",""1"",""115514""
","
","
","""event"",""trial"",""time""
""fullscreenenter"",""1"",""115514""
","
","","","190","","","26","5658","1721","&#9776;","elianto","#3366ff99"," "," ","1","+10","[1044.7000000029802]","1","0","1","","","","","","","",""
"pit-trial","30","489824","0.0-2.0-8.2-0.2","battery-v0.2","","""event"",""trial"",""time""
""fullscreenenter"",""1"",""115514""
","
","
","""event"",""trial"",""time""
""fullscreenenter"",""1"",""115514""
","
","","","-1","","","26","5658","1721","&#9776;","elianto","#3366ff99"," ","-1","0","0","[2982.1000000089407]","1","0","1","","","","","","","",""
"pit-trial","31","493119","0.0-2.0-8.2-1.2","battery-v0.2","","""event"",""trial"",""time""
""fullscreenenter"",""1"",""115514""
","
","
","""event"",""trial"",""time""
""fullscreenenter"",""1"",""115514""
","
","","","425.70000000298023","","","26","5658","1721","&#9776;","elianto","#3366ff99"," "," ","1","+10","[1285.2000000029802]","1","0","1","","","","","","","",""
"pit-trial","32","496354","0.0-2.0-8.2-2.2","battery-v0.2","","""event"",""trial"",""time""
""fullscreenenter"",""1"",""115514""
","
","
","""event"",""trial"",""time""
""fullscreenenter"",""1"",""115514""
","
","","","365.20000000298023","","","26","5658","1721","&#9776;","elianto","#3366ff99"," "," ","1","+10","[1219]","1","0","1","","","","","","","",""
"pit-trial","33","499602","0.0-2.0-8.2-3.2","battery-v0.2","","""event"",""trial"",""time""
""fullscreenenter"",""1"",""115514""
","
","
","""event"",""trial"",""time""
""fullscreenenter"",""1"",""115514""
","
","","","381.59999999403954","","","26","5658","1721","&#9776;","elianto","#3366ff99"," "," ","1","0","[1233.0999999940395]","1","0","1","","","","","","","",""
"pit-trial","34","502861","0.0-2.0-8.2-4.2","battery-v0.2","","""event"",""trial"",""time""
""fullscreenenter"",""1"",""115514""
","
","
","""event"",""trial"",""time""
""fullscreenenter"",""1"",""115514""
","
","","","392.80000001192093","","","26","5658","1721","&#9776;","elianto","#3366ff99"," "," ","1","+10","[1248.1000000089407]","1","0","1","","","","","","","",""
"call-function","35","502863","0.0-2.0-9.0","battery-v0.2","","""event"",""trial"",""time""
""fullscreenenter"",""1"",""115514""
","
","
","""event"",""trial"",""time""
""fullscreenenter"",""1"",""115514""
","
","","","","","","","","","","","","","","","","","","","","","","","","","","",""
"pit-instructions","36","544514","0.0-2.0-10.0","battery-v0.2","","""event"",""trial"",""time""
""fullscreenenter"",""1"",""115514""
","
","
","""event"",""trial"",""time""
""fullscreenenter"",""1"",""115514""
","
","","[{""page_index"":0,""viewing_time"":7150.800000011921},{""page_index"":1,""viewing_time"":6479.199999988079},{""page_index"":2,""viewing_time"":9500.40000000596},{""page_index"":3,""viewing_time"":8061.20000000298},{""page_index"":4,""viewing_time"":10456.5}]","41649.20000000298","","","","","","","","","","","","","","","","","","","","","","","",""
"pit-trial","37","549400","0.0-2.0-11.0-0.0","battery-v0.2","","""event"",""trial"",""time""
""fullscreenenter"",""1"",""115514""
","
","
","""event"",""trial"",""time""
""fullscreenenter"",""1"",""115514""
","
","","","-1","","","26","5658","1721","&#9761;","elianto","#3366ff99","-1","-1","1","+10","[]","0","0","2","","","","","","","",""
"pit-trial","38","554271","0.0-2.0-11.0-1.0","battery-v0.2","","""event"",""trial"",""time""
""fullscreenenter"",""1"",""115514""
","
","
","""event"",""trial"",""time""
""fullscreenenter"",""1"",""115514""
","
","","","-1","","","26","5658","1721","&#9761;","elianto","#3366ff99","-1","-1","1","+10","[]","0","0","2","","","","","","","",""
"pit-trial","39","559152","0.0-2.0-11.0-2.0","battery-v0.2","","""event"",""trial"",""time""
""fullscreenenter"",""1"",""115514""
","
","
","""event"",""trial"",""time""
""fullscreenenter"",""1"",""115514""
","
","","","-1","","","26","5658","1721","&#9761;","elianto","#3366ff99","-1","-1","1","+10","[]","0","0","2","","","","","","","",""
"pit-trial","40","564045","0.0-2.0-11.0-3.0","battery-v0.2","","""event"",""trial"",""time""
""fullscreenenter"",""1"",""115514""
","
","
","""event"",""trial"",""time""
""fullscreenenter"",""1"",""115514""
","
","","","-1","","","26","5658","1721","&#9761;","elianto","#3366ff99","-1","-1","1","0","[]","0","0","2","","","","","","","",""
"pit-trial","41","568933","0.0-2.0-11.0-4.0","battery-v0.2","","""event"",""trial"",""time""
""fullscreenenter"",""1"",""115514""
","
","
","""event"",""trial"",""time""
""fullscreenenter"",""1"",""115514""
","
","","","-1","","","26","5658","1721","&#9761;","elianto","#3366ff99","-1","-1","1","+10","[]","0","0","2","","","","","","","",""
"pit-trial","42","573804","0.0-2.0-11.1-0.1","battery-v0.2","","""event"",""trial"",""time""
""fullscreenenter"",""1"",""115514""
","
","
","""event"",""trial"",""time""
""fullscreenenter"",""1"",""115514""
","
","","","-1","","","26","5658","1721","&#9761;","elianto","#3366ff99","-1","-1","1","+10","[]","0","0","2","","","","","","","",""
"pit-trial","43","578672","0.0-2.0-11.1-1.1","battery-v0.2","","""event"",""trial"",""time""
""fullscreenenter"",""1"",""115514""
","
","
","""event"",""trial"",""time""
""fullscreenenter"",""1"",""115514""
","
","","","-1","","","26","5658","1721","&#9761;","elianto","#3366ff99","-1","-1","1","+10","[]","0","0","2","","","","","","","",""
"pit-trial","44","583546","0.0-2.0-11.1-2.1","battery-v0.2","","""event"",""trial"",""time""
""fullscreenenter"",""1"",""115514""
","
","
","""event"",""trial"",""time""
""fullscreenenter"",""1"",""115514""
","
","","","-1","","","26","5658","1721","&#9761;","elianto","#3366ff99","-1","-1","1","+10","[]","0","0","2","","","","","","","",""
"pit-trial","45","588415","0.0-2.0-11.1-3.1","battery-v0.2","","""event"",""trial"",""time""
""fullscreenenter"",""1"",""115514""
","
","
","""event"",""trial"",""time""
""fullscreenenter"",""1"",""115514""
","
","","","-1","","","26","5658","1721","&#9761;","elianto","#3366ff99","-1","-1","1","0","[]","0","0","2","","","","","","","",""
"pit-trial","46","593288","0.0-2.0-11.1-4.1","battery-v0.2","","""event"",""trial"",""time""
""fullscreenenter"",""1"",""115514""
","
","
","""event"",""trial"",""time""
""fullscreenenter"",""1"",""115514""
","
","","","-1","","","26","5658","1721","&#9761;","elianto","#3366ff99","-1","-1","1","+10","[]","0","0","2","","","","","","","",""
"pit-trial","47","598164","0.0-2.0-11.2-0.2","battery-v0.2","","""event"",""trial"",""time""
""fullscreenenter"",""1"",""115514""
","
","
","""event"",""trial"",""time""
""fullscreenenter"",""1"",""115514""
","
","","","-1","","","26","5658","1721","&#9761;","elianto","#3366ff99","-1","-1","1","+10","[]","0","0","2","","","","","","","",""
"pit-trial","48","603039","0.0-2.0-11.2-1.2","battery-v0.2","","""event"",""trial"",""time""
""fullscreenenter"",""1"",""115514""
","
","
","""event"",""trial"",""time""
""fullscreenenter"",""1"",""115514""
","
","","","-1","","","26","5658","1721","&#9761;","elianto","#3366ff99","-1","-1","1","+10","[]","0","0","2","","","","","","","",""
"pit-trial","49","607910","0.0-2.0-11.2-2.2","battery-v0.2","","""event"",""trial"",""time""
""fullscreenenter"",""1"",""115514""
","
","
","""event"",""trial"",""time""
""fullscreenenter"",""1"",""115514""
","
","","","-1","","","26","5658","1721","&#9761;","elianto","#3366ff99","-1","-1","1","+10","[]","0","0","2","","","","","","","",""
"pit-trial","50","612773","0.0-2.0-11.2-3.2","battery-v0.2","","""event"",""trial"",""time""
""fullscreenenter"",""1"",""115514""
","
","
","""event"",""trial"",""time""
""fullscreenenter"",""1"",""115514""
","
","","","-1","","","26","5658","1721","&#9761;","elianto","#3366ff99","-1","-1","1","0","[]","0","0","2","","","","","","","",""
"pit-trial","51","617645","0.0-2.0-11.2-4.2","battery-v0.2","","""event"",""trial"",""time""
""fullscreenenter"",""1"",""115514""
","
","
","""event"",""trial"",""time""
""fullscreenenter"",""1"",""115514""
","
","","","-1","","","26","5658","1721","&#9761;","elianto","#3366ff99","-1","-1","1","+10","[]","0","0","2","","","","","","","",""
"pit-trial","52","622512","0.0-2.0-11.3-0.3","battery-v0.2","","""event"",""trial"",""time""
""fullscreenenter"",""1"",""115514""
","
","
","""event"",""trial"",""time""
""fullscreenenter"",""1"",""115514""
","
","","","-1","","","26","5658","1721","&#9761;","elianto","#3366ff99","-1","-1","1","+10","[]","0","0","2","","","","","","","",""
"pit-trial","53","627387","0.0-2.0-11.3-1.3","battery-v0.2","","""event"",""trial"",""time""
""fullscreenenter"",""1"",""115514""
","
","
","""event"",""trial"",""time""
""fullscreenenter"",""1"",""115514""
","
","","","-1","","","26","5658","1721","&#9761;","elianto","#3366ff99","-1","-1","1","+10","[]","0","0","2","","","","","","","",""
"pit-trial","54","632260","0.0-2.0-11.3-2.3","battery-v0.2","","""event"",""trial"",""time""
""fullscreenenter"",""1"",""115514""
","
","
","""event"",""trial"",""time""
""fullscreenenter"",""1"",""115514""
","
","","","-1","","","26","5658","1721","&#9761;","elianto","#3366ff99","-1","-1","1","+10","[]","0","0","2","","","","","","","",""
"pit-trial","55","637123","0.0-2.0-11.3-3.3","battery-v0.2","","""event"",""trial"",""time""
""fullscreenenter"",""1"",""115514""
","
","
","""event"",""trial"",""time""
""fullscreenenter"",""1"",""115514""
","
","","","-1","","","26","5658","1721","&#9761;","elianto","#3366ff99","-1","-1","1","0","[]","0","0","2","","","","","","","",""
"pit-trial","56","641990","0.0-2.0-11.3-4.3","battery-v0.2","","""event"",""trial"",""time""
""fullscreenenter"",""1"",""115514""
","
","
","""event"",""trial"",""time""
""fullscreenenter"",""1"",""115514""
","
","","","-1","","","26","5658","1721","&#9761;","elianto","#3366ff99","-1","-1","1","+10","[]","0","0","2","","","","","","","",""
"call-function","57","641992","0.0-2.0-12.0","battery-v0.2","","""event"",""trial"",""time""
""fullscreenenter"",""1"",""115514""
","
","
","""event"",""trial"",""time""
""fullscreenenter"",""1"",""115514""
","
","","","","","","","","","","","","","","","","","","","","","","","","","","",""
"pit-instructions","58","691854","0.0-2.0-13.0","battery-v0.2","","""event"",""trial"",""time""
""fullscreenenter"",""1"",""115514""
","
","
","""event"",""trial"",""time""
""fullscreenenter"",""1"",""115514""
","
","","[{""page_index"":0,""viewing_time"":11620.09999999404},{""page_index"":1,""viewing_time"":12128.5},{""page_index"":2,""viewing_time"":4479.5},{""page_index"":3,""viewing_time"":12471.90000000596},{""page_index"":4,""viewing_time"":9159.5}]","49860.29999999702","","","","","","","","","","","","","","","","","","","","","","","",""
"pit-trial","59","696734","0.0-2.0-14.0-0.0","battery-v0.2","","""event"",""trial"",""time""
""fullscreenenter"",""1"",""115514""
","
","
","""event"",""trial"",""time""
""fullscreenenter"",""1"",""115514""
","
","","","-1","","","26","5658","1721","&#9826;","elianto","#f73b6a7A","-1","-1","1","0","[]","0","0","3","","","","","","","",""
"pit-trial","60","700566","0.0-2.0-14.0-1.0","battery-v0.2","","""event"",""trial"",""time""
""fullscreenenter"",""1"",""115514""
","
","
","""event"",""trial"",""time""
""fullscreenenter"",""1"",""115514""
","
","","","960.7999999970198","","","26","5658","1721","&#9826;","elianto","#f73b6a7A","-1"," ","0","-10","[1814.5999999940395]","1","0","3","","","","","","","",""
"pit-trial","61","703870","0.0-2.0-14.0-2.0","battery-v0.2","","""event"",""trial"",""time""
""fullscreenenter"",""1"",""115514""
","
","
","""event"",""trial"",""time""
""fullscreenenter"",""1"",""115514""
","
","","","434.20000000298023","","","26","5658","1721","&#9826;","elianto","#f73b6a7A","-1"," ","0","-10","[1285.6000000089407]","1","0","3","","","","","","","",""
"pit-trial","62","708754","0.0-2.0-14.0-3.0","battery-v0.2","","""event"",""trial"",""time""
""fullscreenenter"",""1"",""115514""
","
","
","""event"",""trial"",""time""
""fullscreenenter"",""1"",""115514""
","
","","","-1","","","26","5658","1721","&#9826;","elianto","#f73b6a7A","-1","-1","1","-10","[]","0","0","3","","","","","","","",""
"pit-trial","63","713632","0.0-2.0-14.0-4.0","battery-v0.2","","""event"",""trial"",""time""
""fullscreenenter"",""1"",""115514""
","
","
","""event"",""trial"",""time""
""fullscreenenter"",""1"",""115514""
","
","","","-1","","","26","5658","1721","&#9826;","elianto","#f73b6a7A","-1","-1","1","0","[]","0","0","3","","","","","","","",""
"pit-trial","64","718514","0.0-2.0-14.1-0.1","battery-v0.2","","""event"",""trial"",""time""
""fullscreenenter"",""1"",""115514""
","
","
","""event"",""trial"",""time""
""fullscreenenter"",""1"",""115514""
","
","","","-1","","","26","5658","1721","&#9826;","elianto","#f73b6a7A","-1","-1","1","0","[]","0","0","3","","","","","","","",""
"pit-trial","65","723393","0.0-2.0-14.1-1.1","battery-v0.2","","""event"",""trial"",""time""
""fullscreenenter"",""1"",""115514""
","
","
","""event"",""trial"",""time""
""fullscreenenter"",""1"",""115514""
","
","","","-1","","","26","5658","1721","&#9826;","elianto","#f73b6a7A","-1","-1","1","0","[]","0","0","3","","","","","","","",""
"pit-trial","66","728262","0.0-2.0-14.1-2.1","battery-v0.2","","""event"",""trial"",""time""
""fullscreenenter"",""1"",""115514""
","
","
","""event"",""trial"",""time""
""fullscreenenter"",""1"",""115514""
","
","","","-1","","","26","5658","1721","&#9826;","elianto","#f73b6a7A","-1","-1","1","0","[]","0","0","3","","","","","","","",""
"pit-trial","67","733129","0.0-2.0-14.1-3.1","battery-v0.2","","""event"",""trial"",""time""
""fullscreenenter"",""1"",""115514""
","
","
","""event"",""trial"",""time""
""fullscreenenter"",""1"",""115514""
","
","","","-1","","","26","5658","1721","&#9826;","elianto","#f73b6a7A","-1","-1","1","-10","[]","0","0","3","","","","","","","",""
"pit-trial","68","738013","0.0-2.0-14.1-4.1","battery-v0.2","","""event"",""trial"",""time""
""fullscreenenter"",""1"",""115514""
","
","
","""event"",""trial"",""time""
""fullscreenenter"",""1"",""115514""
","
","","","-1","","","26","5658","1721","&#9826;","elianto","#f73b6a7A","-1","-1","1","0","[]","0","0","3","","","","","","","",""
"pit-trial","69","742881","0.0-2.0-14.2-0.2","battery-v0.2","","""event"",""trial"",""time""
""fullscreenenter"",""1"",""115514""
","
","
","""event"",""trial"",""time""
""fullscreenenter"",""1"",""115514""
","
","","","-1","","","26","5658","1721","&#9826;","elianto","#f73b6a7A","-1","-1","1","0","[]","0","0","3","","","","","","","",""
"pit-trial","70","747755","0.0-2.0-14.2-1.2","battery-v0.2","","""event"",""trial"",""time""
""fullscreenenter"",""1"",""115514""
","
","
","""event"",""trial"",""time""
""fullscreenenter"",""1"",""115514""
","
","","","-1","","","26","5658","1721","&#9826;","elianto","#f73b6a7A","-1","-1","1","0","[]","0","0","3","","","","","","","",""
"pit-trial","71","752631","0.0-2.0-14.2-2.2","battery-v0.2","","""event"",""trial"",""time""
""fullscreenenter"",""1"",""115514""
","
","
","""event"",""trial"",""time""
""fullscreenenter"",""1"",""115514""
","
","","","-1","","","26","5658","1721","&#9826;","elianto","#f73b6a7A","-1","-1","1","0","[]","0","0","3","","","","","","","",""
"pit-trial","72","757495","0.0-2.0-14.2-3.2","battery-v0.2","","""event"",""trial"",""time""
""fullscreenenter"",""1"",""115514""
","
","
","""event"",""trial"",""time""
""fullscreenenter"",""1"",""115514""
","
","","","-1","","","26","5658","1721","&#9826;","elianto","#f73b6a7A","-1","-1","1","-10","[]","0","0","3","","","","","","","",""
"pit-trial","73","762361","0.0-2.0-14.2-4.2","battery-v0.2","","""event"",""trial"",""time""
""fullscreenenter"",""1"",""115514""
","
","
","""event"",""trial"",""time""
""fullscreenenter"",""1"",""115514""
","
","","","-1","","","26","5658","1721","&#9826;","elianto","#f73b6a7A","-1","-1","1","0","[]","0","0","3","","","","","","","",""
"pit-trial","74","767237","0.0-2.0-14.3-0.3","battery-v0.2","","""event"",""trial"",""time""
""fullscreenenter"",""1"",""115514""
","
","
","""event"",""trial"",""time""
""fullscreenenter"",""1"",""115514""
","
","","","-1","","","26","5658","1721","&#9826;","elianto","#f73b6a7A","-1","-1","1","0","[]","0","0","3","","","","","","","",""
"pit-trial","75","772107","0.0-2.0-14.3-1.3","battery-v0.2","","""event"",""trial"",""time""
""fullscreenenter"",""1"",""115514""
","
","
","""event"",""trial"",""time""
""fullscreenenter"",""1"",""115514""
","
","","","-1","","","26","5658","1721","&#9826;","elianto","#f73b6a7A","-1","-1","1","0","[]","0","0","3","","","","","","","",""
"pit-trial","76","776976","0.0-2.0-14.3-2.3","battery-v0.2","","""event"",""trial"",""time""
""fullscreenenter"",""1"",""115514""
","
","
","""event"",""trial"",""time""
""fullscreenenter"",""1"",""115514""
","
","","","-1","","","26","5658","1721","&#9826;","elianto","#f73b6a7A","-1","-1","1","0","[]","0","0","3","","","","","","","",""
"pit-trial","77","781844","0.0-2.0-14.3-3.3","battery-v0.2","","""event"",""trial"",""time""
""fullscreenenter"",""1"",""115514""
","
","
","""event"",""trial"",""time""
""fullscreenenter"",""1"",""115514""
","
","","","-1","","","26","5658","1721","&#9826;","elianto","#f73b6a7A","-1","-1","1","-10","[]","0","0","3","","","","","","","",""
"pit-trial","78","786714","0.0-2.0-14.3-4.3","battery-v0.2","","""event"",""trial"",""time""
""fullscreenenter"",""1"",""115514""
","
","
","""event"",""trial"",""time""
""fullscreenenter"",""1"",""115514""
","
","","","-1","","","26","5658","1721","&#9826;","elianto","#f73b6a7A","-1","-1","1","0","[]","0","0","3","","","","","","","",""
"call-function","79","786716","0.0-2.0-15.0","battery-v0.2","","""event"",""trial"",""time""
""fullscreenenter"",""1"",""115514""
","
","
","""event"",""trial"",""time""
""fullscreenenter"",""1"",""115514""
","
","","","","","","","","","","","","","","","","","","","","","","","","","","",""
"pit-instructions","80","834271","0.0-2.0-16.0","battery-v0.2","","""event"",""trial"",""time""
""fullscreenenter"",""1"",""115514""
","
","
","""event"",""trial"",""time""
""fullscreenenter"",""1"",""115514""
","
","","[{""page_index"":0,""viewing_time"":7690.5999999940395},{""page_index"":1,""viewing_time"":8501.09999999404},{""page_index"":2,""viewing_time"":7751},{""page_index"":3,""viewing_time"":23610.20000000298}]","47553.89999999106","","","","","","","","","","","","","","","","","","","","","","","",""
"pit-trial","81","838770","0.0-2.0-17.0-0.0","battery-v0.2","","""event"",""trial"",""time""
""fullscreenenter"",""1"",""115514""
","
","
","""event"",""trial"",""time""
""fullscreenenter"",""1"",""115514""
","
","","","1619.4000000059605","","","26","5658","1721","&#9789;","elianto","#f73b6a7A"," "," ","1","0","[2477.5]","1","0","4","","","","","","","",""
"pit-trial","82","841802","0.0-2.0-17.0-1.0","battery-v0.2","","""event"",""trial"",""time""
""fullscreenenter"",""1"",""115514""
","
","
","""event"",""trial"",""time""
""fullscreenenter"",""1"",""115514""
","
","","","166.20000000298023","","","26","5658","1721","&#9789;","elianto","#f73b6a7A"," "," ","1","0","[1023.2999999970198]","1","0","4","","","","","","","",""
"pit-trial","83","845895","0.0-2.0-17.0-2.0","battery-v0.2","","""event"",""trial"",""time""
""fullscreenenter"",""1"",""115514""
","
","
","""event"",""trial"",""time""
""fullscreenenter"",""1"",""115514""
","
","","","1221.2999999970198","","","26","5658","1721","&#9789;","elianto","#f73b6a7A"," "," ","1","0","[2080.4000000059605]","1","0","4","","","","","","","",""
"pit-trial","84","848962","0.0-2.0-17.0-3.0","battery-v0.2","","""event"",""trial"",""time""
""fullscreenenter"",""1"",""115514""
","
","
","""event"",""trial"",""time""
""fullscreenenter"",""1"",""115514""
","
","","","213.29999999701977","","","26","5658","1721","&#9789;","elianto","#f73b6a7A"," "," ","1","-10","[1065.2999999970198]","1","0","4","","","","","","","",""
"pit-trial","85","852004","0.0-2.0-17.0-4.0","battery-v0.2","","""event"",""trial"",""time""
""fullscreenenter"",""1"",""115514""
","
","
","""event"",""trial"",""time""
""fullscreenenter"",""1"",""115514""
","
","","","186","","","26","5658","1721","&#9789;","elianto","#f73b6a7A"," "," ","1","0","[1037.800000011921]","1","0","4","","","","","","","",""
"pit-trial","86","855295","0.0-2.0-17.1-0.1","battery-v0.2","","""event"",""trial"",""time""
""fullscreenenter"",""1"",""115514""
","
","
","""event"",""trial"",""time""
""fullscreenenter"",""1"",""115514""
","
","","","424.09999999403954","","","26","5658","1721","&#9789;","elianto","#f73b6a7A"," "," ","1","0","[1279.2000000029802]","1","0","4","","","","","","","",""
"pit-trial","87","858364","0.0-2.0-17.1-1.1","battery-v0.2","","""event"",""trial"",""time""
""fullscreenenter"",""1"",""115514""
","
","
","""event"",""trial"",""time""
""fullscreenenter"",""1"",""115514""
","
","","","208.79999999701977","","","26","5658","1721","&#9789;","elianto","#f73b6a7A"," "," ","1","0","[1062.2000000029802]","1","0","4","","","","","","","",""
"pit-trial","88","861558","0.0-2.0-17.1-2.1","battery-v0.2","","""event"",""trial"",""time""
""fullscreenenter"",""1"",""115514""
","
","
","""event"",""trial"",""time""
""fullscreenenter"",""1"",""115514""
","
","","","331.09999999403954","","","26","5658","1721","&#9789;","elianto","#f73b6a7A"," "," ","1","0","[1182.1000000089407]","1","0","4","","","","","","","",""
"pit-trial","89","864496","0.0-2.0-17.1-3.1","battery-v0.2","","""event"",""trial"",""time""
""fullscreenenter"",""1"",""115514""
","
","
","""event"",""trial"",""time""
""fullscreenenter"",""1"",""115514""
","
","","","74","","","26","5658","1721","&#9789;","elianto","#f73b6a7A"," "," ","1","-10","[926.5]","1","0","4","","","","","","","",""
"pit-trial","90","867724","0.0-2.0-17.1-4.1","battery-v0.2","","""event"",""trial"",""time""
""fullscreenenter"",""1"",""115514""
","
","
","""event"",""trial"",""time""
""fullscreenenter"",""1"",""115514""
","
","","","365","","","26","5658","1721","&#9789;","elianto","#f73b6a7A"," "," ","1","0","[1217.2000000029802]","1","0","4","","","","","","","",""
"pit-trial","91","870692","0.0-2.0-17.2-0.2","battery-v0.2","","""event"",""trial"",""time""
""fullscreenenter"",""1"",""115514""
","
","
","""event"",""trial"",""time""
""fullscreenenter"",""1"",""115514""
","
","","","106.09999999403954","","","26","5658","1721","&#9789;","elianto","#f73b6a7A"," "," ","1","0","[958.3999999910593]","1","0","4","","","","","","","",""
"pit-trial","92","873698","0.0-2.0-17.2-1.2","battery-v0.2","","""event"",""trial"",""time""
""fullscreenenter"",""1"",""115514""
","
","
","""event"",""trial"",""time""
""fullscreenenter"",""1"",""115514""
","
","","","139","","","26","5658","1721","&#9789;","elianto","#f73b6a7A"," "," ","1","0","[990.8999999910593]","1","0","4","","","","","","","",""
"pit-trial","93","876891","0.0-2.0-17.2-2.2","battery-v0.2","","""event"",""trial"",""time""
""fullscreenenter"",""1"",""115514""
","
","
","""event"",""trial"",""time""
""fullscreenenter"",""1"",""115514""
","
","","","314.5","","","26","5658","1721","&#9789;","elianto","#f73b6a7A"," "," ","1","0","[1175]","1","0","4","","","","","","","",""
"pit-trial","94","880272","0.0-2.0-17.2-3.2","battery-v0.2","","""event"",""trial"",""time""
""fullscreenenter"",""1"",""115514""
","
","
","""event"",""trial"",""time""
""fullscreenenter"",""1"",""115514""
","
","","","514","","","26","5658","1721","&#9789;","elianto","#f73b6a7A"," "," ","1","-10","[1366.6000000089407]","1","0","4","","","","","","","",""
"pit-trial","95","883486","0.0-2.0-17.2-4.2","battery-v0.2","","""event"",""trial"",""time""
""fullscreenenter"",""1"",""115514""
","
","
","""event"",""trial"",""time""
""fullscreenenter"",""1"",""115514""
","
","","","345.20000000298023","","","26","5658","1721","&#9789;","elianto","#f73b6a7A"," "," ","1","0","[1204.5]","1","0","4","","","","","","","",""
"pit-trial","96","887754","0.0-2.0-17.3-0.3","battery-v0.2","","""event"",""trial"",""time""
""fullscreenenter"",""1"",""115514""
","
","
","""event"",""trial"",""time""
""fullscreenenter"",""1"",""115514""
","
","","","1401.7999999970198","","","26","5658","1721","&#9789;","elianto","#f73b6a7A"," "," ","1","0","[2257.7999999970198]","1","0","4","","","","","","","",""
"pit-trial","97","890826","0.0-2.0-17.3-1.3","battery-v0.2","","""event"",""trial"",""time""
""fullscreenenter"",""1"",""115514""
","
","
","""event"",""trial"",""time""
""fullscreenenter"",""1"",""115514""
","
","","","204","","","26","5658","1721","&#9789;","elianto","#f73b6a7A"," "," ","1","0","[1064.5]","1","0","4","","","","","","","",""
"pit-trial","98","893939","0.0-2.0-17.3-2.3","battery-v0.2","","""event"",""trial"",""time""
""fullscreenenter"",""1"",""115514""
","
","
","""event"",""trial"",""time""
""fullscreenenter"",""1"",""115514""
","
","","","254.59999999403954","","","26","5658","1721","&#9789;","elianto","#f73b6a7A"," "," ","1","0","[1105.9000000059605]","1","0","4","","","","","","","",""
"pit-trial","99","897137","0.0-2.0-17.3-3.3","battery-v0.2","","""event"",""trial"",""time""
""fullscreenenter"",""1"",""115514""
","
","
","""event"",""trial"",""time""
""fullscreenenter"",""1"",""115514""
","
","","","318","","","26","5658","1721","&#9789;","elianto","#f73b6a7A"," "," ","1","-10","[1170.7999999970198]","1","0","4","","","","","","","",""
"pit-trial","100","900377","0.0-2.0-17.3-4.3","battery-v0.2","","""event"",""trial"",""time""
""fullscreenenter"",""1"",""115514""
","
","
","""event"",""trial"",""time""
""fullscreenenter"",""1"",""115514""
","
","","","377.40000000596046","","","26","5658","1721","&#9789;","elianto","#f73b6a7A"," "," ","1","0","[1231]","1","0","4","","","","","","","",""
"call-function","101","900380","0.0-2.0-18.0","battery-v0.2","","""event"",""trial"",""time""
""fullscreenenter"",""1"",""115514""
","
","
","""event"",""trial"",""time""
""fullscreenenter"",""1"",""115514""
","
","","","","","","","","","","","","","","","","","","","","","","","","","","",""
"pit-instructions","102","1485997","0.0-2.0-19.0","battery-v0.2","","""event"",""trial"",""time""
""fullscreenenter"",""1"",""115514""
","
","
","""event"",""trial"",""time""
""fullscreenenter"",""1"",""115514""
","
","","[{""page_index"":0,""viewing_time"":13554.59999999404},{""page_index"":1,""viewing_time"":8003.79999999702},{""page_index"":2,""viewing_time"":19195.40000000596},{""page_index"":3,""viewing_time"":493074.59999999404},{""page_index"":4,""viewing_time"":14903.10000000894},{""page_index"":5,""viewing_time"":23461.70000000298},{""page_index"":6,""viewing_time"":4269.699999988079},{""page_index"":7,""viewing_time"":5217.600000008941},{""page_index"":8,""viewing_time"":3934}]","585616.099999994","","","","","","","","","","","","","","","","","","","","","","","",""
"pit-comprehension","103","1492683","0.0-2.0-20.0-0.0","battery-v0.2","","""event"",""trial"",""time""
""fullscreenenter"",""1"",""115514""
","
","
","""event"",""trial"",""time""
""fullscreenenter"",""1"",""115514""
","
","","","6675","[""SPACE""]","0","26","5658","1721","","","","","","","","","","","","","","","","","","",""
"pit-instructions","104","1498430","0.0-2.0-20.0-1.0","battery-v0.2","","""event"",""trial"",""time""
""fullscreenenter"",""1"",""115514""
","
","
","""event"",""trial"",""time""
""fullscreenenter"",""1"",""115514""
","
","","[{""page_index"":0,""viewing_time"":5647.29999999702}]","5648.70000000298","","","","","","","","","","","","","","","","","","","","","","","",""
"pit-comprehension","105","1510384","0.0-2.0-21.0-0.0","battery-v0.2","","""event"",""trial"",""time""
""fullscreenenter"",""1"",""115514""
","
","
","""event"",""trial"",""time""
""fullscreenenter"",""1"",""115514""
","
","","","11940.40000000596","[""10""]","0","26","5658","1721","","","","","","","","","","","","","","","","","","",""
"pit-instructions","106","1524911","0.0-2.0-21.0-1.0","battery-v0.2","","""event"",""trial"",""time""
""fullscreenenter"",""1"",""115514""
","
","
","""event"",""trial"",""time""
""fullscreenenter"",""1"",""115514""
","
","","[{""page_index"":0,""viewing_time"":14421.5}]","14422.29999999702","","","","","","","","","","","","","","","","","","","","","","","",""
"pit-comprehension","107","1531654","0.0-2.0-22.0-0.0","battery-v0.2","","""event"",""trial"",""time""
""fullscreenenter"",""1"",""115514""
","
","
","""event"",""trial"",""time""
""fullscreenenter"",""1"",""115514""
","
","","","6732.399999991059","[""0""]","0","26","5658","1721","","","","","","","","","","","","","","","","","","",""
"pit-instructions","108","1545948","0.0-2.0-22.0-1.0","battery-v0.2","","""event"",""trial"",""time""
""fullscreenenter"",""1"",""115514""
","
","
","""event"",""trial"",""time""
""fullscreenenter"",""1"",""115514""
","
","","[{""page_index"":0,""viewing_time"":14233.90000000596}]","14234.79999999702","","","","","","","","","","","","","","","","","","","","","","","",""
"pit-comprehension","109","1578269","0.0-2.0-23.0-0.0","battery-v0.2","","""event"",""trial"",""time""
""fullscreenenter"",""1"",""115514""
","
","
","""event"",""trial"",""time""
""fullscreenenter"",""1"",""115514""
","
","","","32310.5","[""False""]","1","26","5658","1721","","","","","","","","","","","","","","","","","","",""
"pit-instructions","110","1582117","0.0-2.0-23.0-1.0","battery-v0.2","","""event"",""trial"",""time""
""fullscreenenter"",""1"",""115514""
","
","
","""event"",""trial"",""time""
""fullscreenenter"",""1"",""115514""
","
","","[{""page_index"":0,""viewing_time"":3765.6000000089407}]","3766.7000000029802","","","","","","","","","","","","","","","","","","","","","","","",""
"pit-instructions","111","1583364","0.0-2.0-23.0-2.0-0.0","battery-v0.2","","""event"",""trial"",""time""
""fullscreenenter"",""1"",""115514""
","
","
","""event"",""trial"",""time""
""fullscreenenter"",""1"",""115514""
","
","","[{""page_index"":0,""viewing_time"":1241.5}]","1242.2999999970198","","","","","","","","","","","","","","","","","","","","","","","",""
"pit-comprehension","112","1591965","0.0-2.0-23.1-0.1","battery-v0.2","","""event"",""trial"",""time""
""fullscreenenter"",""1"",""115514""
","
","
","""event"",""trial"",""time""
""fullscreenenter"",""1"",""115514""
","
","","","8598.20000000298","[""True""]","0","26","5658","1721","","","","","","","","","","","","","","","","","","",""
"pit-instructions","113","1594158","0.0-2.0-23.1-1.1","battery-v0.2","","""event"",""trial"",""time""
""fullscreenenter"",""1"",""115514""
","
","
","""event"",""trial"",""time""
""fullscreenenter"",""1"",""115514""
","
","","[{""page_index"":0,""viewing_time"":2112.6000000089407}]","2113.300000011921","","","","","","","","","","","","","","","","","","","","","","","",""
"pit-comprehension","114","1601768","0.0-2.0-24.0-0.0","battery-v0.2","","""event"",""trial"",""time""
""fullscreenenter"",""1"",""115514""
","
","
","""event"",""trial"",""time""
""fullscreenenter"",""1"",""115514""
","
","","","7604.9000000059605","[""True""]","0","26","5658","1721","","","","","","","","","","","","","","","","","","",""
"pit-instructions","115","1605863","0.0-2.0-24.0-1.0","battery-v0.2","","""event"",""trial"",""time""
""fullscreenenter"",""1"",""115514""
","
","
","""event"",""trial"",""time""
""fullscreenenter"",""1"",""115514""
","
","","[{""page_index"":0,""viewing_time"":4007.7000000029802}]","4008.9000000059605","","","","","","","","","","","","","","","","","","","","","","","",""
"pit-comprehension","116","1612332","0.0-2.0-25.0-0.0","battery-v0.2","","""event"",""trial"",""time""
""fullscreenenter"",""1"",""115514""
","
","
","""event"",""trial"",""time""
""fullscreenenter"",""1"",""115514""
","
","","","6462.5999999940395","[""True""]","0","26","5658","1721","","","","","","","","","","","","","","","","","","",""
"pit-instructions","117","1616615","0.0-2.0-25.0-1.0","battery-v0.2","","""event"",""trial"",""time""
""fullscreenenter"",""1"",""115514""
","
","
","""event"",""trial"",""time""
""fullscreenenter"",""1"",""115514""
","
","","[{""page_index"":0,""viewing_time"":4187.5}]","4188.0999999940395","","","","","","","","","","","","","","","","","","","","","","","",""
"pit-comprehension","118","1621629","0.0-2.0-26.0-0.0","battery-v0.2","","""event"",""trial"",""time""
""fullscreenenter"",""1"",""115514""
","
","
","""event"",""trial"",""time""
""fullscreenenter"",""1"",""115514""
","
","","","5006.79999999702","[""False""]","0","26","5658","1721","","","","","","","","","","","","","","","","","","",""
"pit-instructions","119","1623942","0.0-2.0-26.0-1.0","battery-v0.2","","""event"",""trial"",""time""
""fullscreenenter"",""1"",""115514""
","
","
","""event"",""trial"",""time""
""fullscreenenter"",""1"",""115514""
","
","","[{""page_index"":0,""viewing_time"":2238.7000000029802}]","2239.4000000059605","","","","","","","","","","","","","","","","","","","","","","","",""
"pit-instructions","120","1665325","0.0-3.0","battery-v0.2","","""event"",""trial"",""time""
""fullscreenenter"",""1"",""115514""
","
","
","""event"",""trial"",""time""
""fullscreenenter"",""1"",""115514""
","
","","[{""page_index"":0,""viewing_time"":4284.79999999702},{""page_index"":1,""viewing_time"":8126.600000008941},{""page_index"":2,""viewing_time"":28967.59999999404}]","41379.70000000298","","","","","","","","","","","","","","","","","","","","","","","",""
"pit-trial","121","1669102","0.0-4.0","battery-v0.2","","""event"",""trial"",""time""
""fullscreenenter"",""1"",""115514""
","
","
","""event"",""trial"",""time""
""fullscreenenter"",""1"",""115514""
","
","","","883.9000000059605","","","26","5658","1721","&#9728;","elianto","#f73b6a7A","-1"," ","0","-10","[1740.699999988079]","1","1","","","5658","1","0","4","lose","no-go","0"
"pit-trial","122","1673153","0.0-5.0","battery-v0.2","","""event"",""trial"",""time""
""fullscreenenter"",""1"",""115514""
","
","
","""event"",""trial"",""time""
""fullscreenenter"",""1"",""115514""
","
","","","1183.4000000059605","","","26","5658","1721","&#9752;","elianto","#f73b6a7A"," "," ","1","0","[2033.8999999910593]","1","1","","","5658","2","3","3","lose","go","0"
"pit-trial","123","1677319","0.0-6.0","battery-v0.2","","""event"",""trial"",""time""
""fullscreenenter"",""1"",""115514""
","
","
","""event"",""trial"",""time""
""fullscreenenter"",""1"",""115514""
","
","","","1304.8999999910593","","","26","5658","1721","&#9733;","elianto","#3366ff99","-1"," ","0","0","[2155.9000000059605]","1","1","","","5658","3","2","2","win","no-go","0"
"pit-trial","124","1681198","0.0-7.0","battery-v0.2","","""event"",""trial"",""time""
""fullscreenenter"",""1"",""115514""
","
","
","""event"",""trial"",""time""
""fullscreenenter"",""1"",""115514""
","
","","","1010.3999999910593","","","26","5658","1721","&#9730;","elianto","#3366ff99"," "," ","1","+10","[1861.3999999910593]","1","1","","","5658","4","1","1","win","go","0"
"pit-trial","125","1684937","0.0-8.0","battery-v0.2","","""event"",""trial"",""time""
""fullscreenenter"",""1"",""115514""
","
","
","""event"",""trial"",""time""
""fullscreenenter"",""1"",""115514""
","
","","","878.8999999910593","","","26","5658","1721","&#9730;","elianto","#3366ff99"," "," ","1","+10","[1730.5999999940395]","1","1","","","5658","5","1","1","win","go","0"
"pit-trial","126","1688786","0.0-9.0","battery-v0.2","","""event"",""trial"",""time""
""fullscreenenter"",""1"",""115514""
","
","
","""event"",""trial"",""time""
""fullscreenenter"",""1"",""115514""
","
","","","983.7000000029802","","","26","5658","1721","&#9733;","elianto","#3366ff99","-1"," ","0","0","[1834.5]","1","1","","","5658","6","2","2","win","no-go","0"
"pit-trial","127","1693069","0.0-10.0","battery-v0.2","","""event"",""trial"",""time""
""fullscreenenter"",""1"",""115514""
","
","
","""event"",""trial"",""time""
""fullscreenenter"",""1"",""115514""
","
","","","1426.699999988079","","","26","5658","1721","&#9728;","elianto","#f73b6a7A","-1"," ","0","-10","[2276.9000000059605]","1","1","","","5658","7","0","4","lose","no-go","0"
"pit-trial","128","1696999","0.0-11.0","battery-v0.2","","""event"",""trial"",""time""
""fullscreenenter"",""1"",""115514""
","
","
","""event"",""trial"",""time""
""fullscreenenter"",""1"",""115514""
","
","","","1071.3999999910593","","","26","5658","1721","&#9752;","elianto","#f73b6a7A"," "," ","1","0","[1921.5999999940395]","1","1","","","5658","8","3","3","lose","go","0"
"pit-trial","129","1700930","0.0-12.0","battery-v0.2","","""event"",""trial"",""time""
""fullscreenenter"",""1"",""115514""
","
","
","""event"",""trial"",""time""
""fullscreenenter"",""1"",""115514""
","
","","","1062.4000000059605","","","26","5658","1721","&#9730;","elianto","#3366ff99"," "," ","1","+10","[1916.5]","1","1","","","5658","9","1","1","win","go","0"
"pit-trial","130","1705806","0.0-13.0","battery-v0.2","","""event"",""trial"",""time""
""fullscreenenter"",""1"",""115514""
","
","
","""event"",""trial"",""time""
""fullscreenenter"",""1"",""115514""
","
","","","-1","","","26","5658","1721","&#9733;","elianto","#3366ff99","-1","-1","1","+10","[]","0","1","","","5658","10","2","2","win","no-go","0"
"pit-trial","131","1709588","0.0-14.0","battery-v0.2","","""event"",""trial"",""time""
""fullscreenenter"",""1"",""115514""
","
","
","""event"",""trial"",""time""
""fullscreenenter"",""1"",""115514""
","
","","","910","","","26","5658","1721","&#9752;","elianto","#f73b6a7A"," "," ","1","0","[1764]","1","1","","","5658","11","3","3","lose","go","0"
"pit-trial","132","1714461","0.0-15.0","battery-v0.2","","""event"",""trial"",""time""
""fullscreenenter"",""1"",""115514""
","
","
","""event"",""trial"",""time""
""fullscreenenter"",""1"",""115514""
","
","","","-1","","","26","5658","1721","&#9728;","elianto","#f73b6a7A","-1","-1","1","0","[]","0","1","","","5658","12","0","4","lose","no-go","0"
"pit-trial","133","1718104","0.0-16.0","battery-v0.2","","""event"",""trial"",""time""
""fullscreenenter"",""1"",""115514""
","
","
","""event"",""trial"",""time""
""fullscreenenter"",""1"",""115514""
","
","","","779","","","26","5658","1721","&#9730;","elianto","#3366ff99"," "," ","1","+10","[1634.2999999970198]","1","1","","","5658","13","1","1","win","go","0"
"pit-trial","134","1722869","0.0-17.0","battery-v0.2","","""event"",""trial"",""time""
""fullscreenenter"",""1"",""115514""
","
","
","""event"",""trial"",""time""
""fullscreenenter"",""1"",""115514""
","
","","","1888.8999999910593","","","26","5658","1721","&#9752;","elianto","#f73b6a7A"," "," ","1","0","[2748.7000000029802]","1","1","","","5658","14","3","3","lose","go","0"
"pit-trial","135","1727739","0.0-18.0","battery-v0.2","","""event"",""trial"",""time""
""fullscreenenter"",""1"",""115514""
","
","
","""event"",""trial"",""time""
""fullscreenenter"",""1"",""115514""
","
","","","-1","","","26","5658","1721","&#9733;","elianto","#3366ff99","-1","-1","1","+10","[]","0","1","","","5658","15","2","2","win","no-go","0"
"pit-trial","136","1732609","0.0-19.0","battery-v0.2","","""event"",""trial"",""time""
""fullscreenenter"",""1"",""115514""
","
","
","""event"",""trial"",""time""
""fullscreenenter"",""1"",""115514""
","
","","","-1","","","26","5658","1721","&#9728;","elianto","#f73b6a7A","-1","-1","1","0","[]","0","1","","","5658","16","0","4","lose","no-go","0"
"pit-trial","137","1737485","0.0-20.0","battery-v0.2","","""event"",""trial"",""time""
""fullscreenenter"",""1"",""115514""
","
","
","""event"",""trial"",""time""
""fullscreenenter"",""1"",""115514""
","
","","","-1","","","26","5658","1721","&#9728;","elianto","#f73b6a7A","-1","-1","1","0","[]","0","1","","","5658","17","0","4","lose","no-go","0"
"pit-trial","138","1741379","0.0-21.0","battery-v0.2","","""event"",""trial"",""time""
""fullscreenenter"",""1"",""115514""
","
","
","""event"",""trial"",""time""
""fullscreenenter"",""1"",""115514""
","
","","","1027.0999999940395","","","26","5658","1721","&#9752;","elianto","#f73b6a7A"," "," ","1","0","[1878.0999999940395]","1","1","","","5658","18","3","3","lose","go","0"
"pit-trial","139","1744946","0.0-22.0","battery-v0.2","","""event"",""trial"",""time""
""fullscreenenter"",""1"",""115514""
","
","
","""event"",""trial"",""time""
""fullscreenenter"",""1"",""115514""
","
","","","697.5","","","26","5658","1721","&#9730;","elianto","#3366ff99"," "," ","1","+10","[1551]","1","1","","","5658","19","1","1","win","go","0"
"pit-trial","140","1749819","0.0-23.0","battery-v0.2","","""event"",""trial"",""time""
""fullscreenenter"",""1"",""115514""
","
","
","""event"",""trial"",""time""
""fullscreenenter"",""1"",""115514""
","
","","","-1","","","26","5658","1721","&#9733;","elianto","#3366ff99","-1","-1","1","+10","[]","0","1","","","5658","20","2","2","win","no-go","0"
"pit-instructions","141","1807950","0.0-24.0","battery-v0.2","","""event"",""trial"",""time""
""fullscreenenter"",""1"",""115514""
","
","
","""event"",""trial"",""time""
""fullscreenenter"",""1"",""115514""
","
","","[{""page_index"":0,""viewing_time"":51085.70000000298},{""page_index"":1,""viewing_time"":7047.5}]","58134.09999999404","","","","","","","","","","","","","","","","","","","","","","","",""
"pit-trial","142","1812108","0.0-25.0","battery-v0.2","","""event"",""trial"",""time""
""fullscreenenter"",""1"",""115514""
","
","
","""event"",""trial"",""time""
""fullscreenenter"",""1"",""115514""
","
","","","1290","","","26","5658","1721","e","elianto","#f73b6a7A"," "," ","1","0","[2146.800000011921]","1","2","","","5658","21","2","3","lose","go","0"
"pit-trial","143","1816984","0.0-26.0","battery-v0.2","","""event"",""trial"",""time""
""fullscreenenter"",""1"",""115514""
","
","
","""event"",""trial"",""time""
""fullscreenenter"",""1"",""115514""
","
","","","-1","","","26","5658","1721","j","elianto","#f73b6a7A"," ","-1","0","-10","[]","0","2","","","5658","22","0","3","lose","go","0"
"pit-trial","144","1820753","0.0-27.0","battery-v0.2","","""event"",""trial"",""time""
""fullscreenenter"",""1"",""115514""
","
","
","""event"",""trial"",""time""
""fullscreenenter"",""1"",""115514""
","
","","","893.2999999970198","","","26","5658","1721","w","elianto","#f73b6a7A","-1"," ","0","-10","[1750.2000000029802]","1","2","","","5658","23","3","4","lose","no-go","0"
"pit-trial","145","1824654","0.0-28.0","battery-v0.2","","""event"",""trial"",""time""
""fullscreenenter"",""1"",""115514""
","
","
","""event"",""trial"",""time""
""fullscreenenter"",""1"",""115514""
","
","","","1025.2000000029802","","","26","5658","1721","d","elianto","#3366ff99","-1"," ","0","0","[1877.5999999940395]","1","2","","","5658","24","1","2","win","no-go","0"
"pit-trial","146","1829523","0.0-29.0","battery-v0.2","","""event"",""trial"",""time""
""fullscreenenter"",""1"",""115514""
","
","
","""event"",""trial"",""time""
""fullscreenenter"",""1"",""115514""
","
","","","-1","","","26","5658","1721","d","elianto","#3366ff99","-1","-1","1","+10","[]","0","2","","","5658","25","1","2","win","no-go","0"
"pit-trial","147","1833870","0.0-30.0","battery-v0.2","","""event"",""trial"",""time""
""fullscreenenter"",""1"",""115514""
","
","
","""event"",""trial"",""time""
""fullscreenenter"",""1"",""115514""
","
","","","1475.5","","","26","5658","1721","e","elianto","#f73b6a7A"," "," ","1","0","[2328]","1","2","","","5658","26","2","3","lose","go","0"
"pit-trial","148","1838753","0.0-31.0","battery-v0.2","","""event"",""trial"",""time""
""fullscreenenter"",""1"",""115514""
","
","
","""event"",""trial"",""time""
""fullscreenenter"",""1"",""115514""
","
","","","-1","","","26","5658","1721","w","elianto","#f73b6a7A","-1","-1","1","0","[]","0","2","","","5658","27","3","4","lose","no-go","0"
"pit-trial","149","1842229","0.0-32.0","battery-v0.2","","""event"",""trial"",""time""
""fullscreenenter"",""1"",""115514""
","
","
","""event"",""trial"",""time""
""fullscreenenter"",""1"",""115514""
","
","","","604.8999999910593","","","26","5658","1721","j","elianto","#f73b6a7A"," "," ","1","0","[1458.1000000089407]","1","2","","","5658","28","0","3","lose","go","0"
"pit-trial","150","1845986","0.0-33.0","battery-v0.2","","""event"",""trial"",""time""
""fullscreenenter"",""1"",""115514""
","
","
","""event"",""trial"",""time""
""fullscreenenter"",""1"",""115514""
","
","","","887.6000000089407","","","26","5658","1721","j","elianto","#f73b6a7A"," "," ","1","0","[1742]","1","2","","","5658","29","0","3","lose","go","0"
"pit-trial","151","1849952","0.0-34.0","battery-v0.2","","""event"",""trial"",""time""
""fullscreenenter"",""1"",""115514""
","
","
","""event"",""trial"",""time""
""fullscreenenter"",""1"",""115514""
","
","","","1103.800000011921","","","26","5658","1721","d","elianto","#3366ff99","-1"," ","0","0","[1959.0999999940395]","1","2","","","5658","30","1","2","win","no-go","0"
"pit-trial","152","1853803","0.0-35.0","battery-v0.2","","""event"",""trial"",""time""
""fullscreenenter"",""1"",""115514""
","
","
","""event"",""trial"",""time""
""fullscreenenter"",""1"",""115514""
","
","","","986","","","26","5658","1721","e","elianto","#f73b6a7A"," "," ","1","0","[1840.4000000059605]","1","2","","","5658","31","2","3","lose","go","0"
"pit-trial","153","1858674","0.0-36.0","battery-v0.2","","""event"",""trial"",""time""
""fullscreenenter"",""1"",""115514""
","
","
","""event"",""trial"",""time""
""fullscreenenter"",""1"",""115514""
","
","","","-1","","","26","5658","1721","w","elianto","#f73b6a7A","-1","-1","1","0","[]","0","2","","","5658","32","3","4","lose","no-go","0"
"pit-trial","154","1862724","0.0-37.0","battery-v0.2","","""event"",""trial"",""time""
""fullscreenenter"",""1"",""115514""
","
","
","""event"",""trial"",""time""
""fullscreenenter"",""1"",""115514""
","
","","","1177","","","26","5658","1721","j","elianto","#f73b6a7A"," "," ","1","0","[2028]","1","2","","","5658","33","0","3","lose","go","0"
"pit-trial","155","1867590","0.0-38.0","battery-v0.2","","""event"",""trial"",""time""
""fullscreenenter"",""1"",""115514""
","
","
","""event"",""trial"",""time""
""fullscreenenter"",""1"",""115514""
","
","","","-1","","","26","5658","1721","d","elianto","#3366ff99","-1","-1","1","+10","[]","0","2","","","5658","34","1","2","win","no-go","0"
"pit-trial","156","1872456","0.0-39.0","battery-v0.2","","""event"",""trial"",""time""
""fullscreenenter"",""1"",""115514""
","
","
","""event"",""trial"",""time""
""fullscreenenter"",""1"",""115514""
","
","","","-1","","","26","5658","1721","w","elianto","#f73b6a7A","-1","-1","1","0","[]","0","2","","","5658","35","3","4","lose","no-go","0"
"pit-trial","157","1875906","0.0-40.0","battery-v0.2","","""event"",""trial"",""time""
""fullscreenenter"",""1"",""115514""
","
","
","""event"",""trial"",""time""
""fullscreenenter"",""1"",""115514""
","
","","","580.6000000089407","","","26","5658","1721","e","elianto","#f73b6a7A"," "," ","1","-10","[1436.7000000029802]","1","2","","","5658","36","2","3","lose","go","1"
"pit-trial","158","1880773","0.0-41.0","battery-v0.2","","""event"",""trial"",""time""
""fullscreenenter"",""1"",""115514""
","
","
","""event"",""trial"",""time""
""fullscreenenter"",""1"",""115514""
","
","","","-1","","","26","5658","1721","d","elianto","#3366ff99","-1","-1","1","+10","[]","0","2","","","5658","37","1","2","win","no-go","0"
"pit-trial","159","1885650","0.0-42.0","battery-v0.2","","""event"",""trial"",""time""
""fullscreenenter"",""1"",""115514""
","
","
","""event"",""trial"",""time""
""fullscreenenter"",""1"",""115514""
","
","","","-1","","","26","5658","1721","w","elianto","#f73b6a7A","-1","-1","1","-10","[]","0","2","","","5658","38","3","4","lose","no-go","1"
"pit-trial","160","1889244","0.0-43.0","battery-v0.2","","""event"",""trial"",""time""
""fullscreenenter"",""1"",""115514""
","
","
","""event"",""trial"",""time""
""fullscreenenter"",""1"",""115514""
","
","","","715.1000000089407","","","26","5658","1721","j","elianto","#f73b6a7A"," "," ","1","0","[1574.5]","1","2","","","5658","39","0","3","lose","go","0"
"pit-trial","161","1892757","0.0-44.0","battery-v0.2","","""event"",""trial"",""time""
""fullscreenenter"",""1"",""115514""
","
","
","""event"",""trial"",""time""
""fullscreenenter"",""1"",""115514""
","
","","","656.4000000059605","","","26","5658","1721","e","elianto","#f73b6a7A"," "," ","1","0","[1508]","1","2","","","5658","40","2","3","lose","go","0"
"pit-trial","162","1897635","0.0-45.0","battery-v0.2","","""event"",""trial"",""time""
""fullscreenenter"",""1"",""115514""
","
","
","""event"",""trial"",""time""
""fullscreenenter"",""1"",""115514""
","
","","","-1","","","26","5658","1721","w","elianto","#f73b6a7A","-1","-1","1","0","[]","0","2","","","5658","41","3","4","lose","no-go","0"
"pit-trial","163","1901402","0.0-46.0","battery-v0.2","","""event"",""trial"",""time""
""fullscreenenter"",""1"",""115514""
","
","
","""event"",""trial"",""time""
""fullscreenenter"",""1"",""115514""
","
","","","888.7999999970198","","","26","5658","1721","e","elianto","#f73b6a7A"," "," ","1","0","[1752.7999999970198]","1","2","","","5658","42","2","3","lose","go","0"
"pit-trial","164","1904865","0.0-47.0","battery-v0.2","","""event"",""trial"",""time""
""fullscreenenter"",""1"",""115514""
","
","
","""event"",""trial"",""time""
""fullscreenenter"",""1"",""115514""
","
","","","579.5999999940395","","","26","5658","1721","j","elianto","#f73b6a7A"," "," ","1","0","[1438.2000000029802]","1","2","","","5658","43","0","3","lose","go","0"
"pit-trial","165","1909749","0.0-48.0","battery-v0.2","","""event"",""trial"",""time""
""fullscreenenter"",""1"",""115514""
","
","
","""event"",""trial"",""time""
""fullscreenenter"",""1"",""115514""
","
","","","-1","","","26","5658","1721","d","elianto","#3366ff99","-1","-1","1","0","[]","0","2","","","5658","44","1","2","win","no-go","1"
"pit-trial","166","1913457","0.0-49.0","battery-v0.2","","""event"",""trial"",""time""
""fullscreenenter"",""1"",""115514""
","
","
","""event"",""trial"",""time""
""fullscreenenter"",""1"",""115514""
","
","","","833.9000000059605","","","26","5658","1721","e","elianto","#f73b6a7A"," "," ","1","0","[1690.5999999940395]","1","2","","","5658","45","2","3","lose","go","0"
"pit-trial","167","1918324","0.0-50.0","battery-v0.2","","""event"",""trial"",""time""
""fullscreenenter"",""1"",""115514""
","
","
","""event"",""trial"",""time""
""fullscreenenter"",""1"",""115514""
","
","","","-1","","","26","5658","1721","w","elianto","#f73b6a7A","-1","-1","1","-10","[]","0","2","","","5658","46","3","4","lose","no-go","1"
"pit-trial","168","1923194","0.0-51.0","battery-v0.2","","""event"",""trial"",""time""
""fullscreenenter"",""1"",""115514""
","
","
","""event"",""trial"",""time""
""fullscreenenter"",""1"",""115514""
","
","","","-1","","","26","5658","1721","d","elianto","#3366ff99","-1","-1","1","+10","[]","0","2","","","5658","47","1","2","win","no-go","0"
"pit-trial","169","1927195","0.0-52.0","battery-v0.2","","""event"",""trial"",""time""
""fullscreenenter"",""1"",""115514""
","
","
","""event"",""trial"",""time""
""fullscreenenter"",""1"",""115514""
","
","","","1131.6000000089407","","","26","5658","1721","j","elianto","#f73b6a7A"," "," ","1","0","[1986.2000000029802]","1","2","","","5658","48","0","3","lose","go","0"
"pit-trial","170","1932068","0.0-53.0","battery-v0.2","","""event"",""trial"",""time""
""fullscreenenter"",""1"",""115514""
","
","
","""event"",""trial"",""time""
""fullscreenenter"",""1"",""115514""
","
","","","-1","","","26","5658","1721","w","elianto","#f73b6a7A","-1","-1","1","0","[]","0","2","","","5658","49","3","4","lose","no-go","0"
"pit-trial","171","1935606","0.0-54.0","battery-v0.2","","""event"",""trial"",""time""
""fullscreenenter"",""1"",""115514""
","
","
","""event"",""trial"",""time""
""fullscreenenter"",""1"",""115514""
","
","","","672","","","26","5658","1721","j","elianto","#f73b6a7A"," "," ","1","0","[1530.800000011921]","1","2","","","5658","50","0","3","lose","go","0"
"pit-trial","172","1939254","0.0-55.0","battery-v0.2","","""event"",""trial"",""time""
""fullscreenenter"",""1"",""115514""
","
","
","""event"",""trial"",""time""
""fullscreenenter"",""1"",""115514""
","
","","","787.0999999940395","","","26","5658","1721","e","elianto","#f73b6a7A"," "," ","1","0","[1642.2999999970198]","1","2","","","5658","51","2","3","lose","go","0"
"pit-trial","173","1944122","0.0-56.0","battery-v0.2","","""event"",""trial"",""time""
""fullscreenenter"",""1"",""115514""
","
","
","""event"",""trial"",""time""
""fullscreenenter"",""1"",""115514""
","
","","","-1","","","26","5658","1721","d","elianto","#3366ff99","-1","-1","1","+10","[]","0","2","","","5658","52","1","2","win","no-go","0"
"pit-trial","174","1948998","0.0-57.0","battery-v0.2","","""event"",""trial"",""time""
""fullscreenenter"",""1"",""115514""
","
","
","""event"",""trial"",""time""
""fullscreenenter"",""1"",""115514""
","
","","","-1","","","26","5658","1721","w","elianto","#f73b6a7A","-1","-1","1","0","[]","0","2","","","5658","53","3","4","lose","no-go","0"
"pit-trial","175","1953883","0.0-58.0","battery-v0.2","","""event"",""trial"",""time""
""fullscreenenter"",""1"",""115514""
","
","
","""event"",""trial"",""time""
""fullscreenenter"",""1"",""115514""
","
","","","-1","","","26","5658","1721","d","elianto","#3366ff99","-1","-1","1","+10","[]","0","2","","","5658","54","1","2","win","no-go","0"
"pit-trial","176","1957779","0.0-59.0","battery-v0.2","","""event"",""trial"",""time""
""fullscreenenter"",""1"",""115514""
","
","
","""event"",""trial"",""time""
""fullscreenenter"",""1"",""115514""
","
","","","1031.7000000029802","","","26","5658","1721","j","elianto","#f73b6a7A"," "," ","1","0","[1882.4000000059605]","1","2","","","5658","55","0","3","lose","go","0"
"pit-trial","177","1961955","0.0-60.0","battery-v0.2","","""event"",""trial"",""time""
""fullscreenenter"",""1"",""115514""
","
","
","""event"",""trial"",""time""
""fullscreenenter"",""1"",""115514""
","
","","","1304.8999999910593","","","26","5658","1721","e","elianto","#f73b6a7A"," "," ","1","0","[2157.2000000029802]","1","2","","","5658","56","2","3","lose","go","0"
"pit-trial","178","1966822","0.0-61.0","battery-v0.2","","""event"",""trial"",""time""
""fullscreenenter"",""1"",""115514""
","
","
","""event"",""trial"",""time""
""fullscreenenter"",""1"",""115514""
","
","","","-1","","","26","5658","1721","w","elianto","#f73b6a7A","-1","-1","1","0","[]","0","2","","","5658","57","3","4","lose","no-go","0"
"pit-trial","179","1971085","0.0-62.0","battery-v0.2","","""event"",""trial"",""time""
""fullscreenenter"",""1"",""115514""
","
","
","""event"",""trial"",""time""
""fullscreenenter"",""1"",""115514""
","
","","","1400.2999999970198","","","26","5658","1721","s","elianto","#3366ff99"," "," ","1","+10","[2254.2999999970198]","1","2","","","5658","58","4","1","win","go","0"
"pit-trial","180","1975000","0.0-63.0","battery-v0.2","","""event"",""trial"",""time""
""fullscreenenter"",""1"",""115514""
","
","
","""event"",""trial"",""time""
""fullscreenenter"",""1"",""115514""
","
","","","1040.5999999940395","","","26","5658","1721","j","elianto","#f73b6a7A"," "," ","1","0","[1899.3999999910593]","1","2","","","5658","59","0","3","lose","go","0"
"pit-trial","181","1979628","0.0-64.0","battery-v0.2","","""event"",""trial"",""time""
""fullscreenenter"",""1"",""115514""
","
","
","""event"",""trial"",""time""
""fullscreenenter"",""1"",""115514""
","
","","","1753.2000000029802","","","26","5658","1721","e","elianto","#f73b6a7A"," "," ","1","0","[2611.5999999940395]","1","2","","","5658","60","2","3","lose","go","0"
"pit-trial","182","1983320","0.0-65.0","battery-v0.2","","""event"",""trial"",""time""
""fullscreenenter"",""1"",""115514""
","
","
","""event"",""trial"",""time""
""fullscreenenter"",""1"",""115514""
","
","","","824","","","26","5658","1721","e","elianto","#f73b6a7A"," "," ","1","0","[1677.5]","1","2","","","5658","61","2","3","lose","go","0"
"pit-trial","183","1987222","0.0-66.0","battery-v0.2","","""event"",""trial"",""time""
""fullscreenenter"",""1"",""115514""
","
","
","""event"",""trial"",""time""
""fullscreenenter"",""1"",""115514""
","
","","","1035.2999999970198","","","26","5658","1721","s","elianto","#3366ff99"," "," ","1","+10","[1893]","1","2","","","5658","62","4","1","win","go","0"
"pit-trial","184","1992091","0.0-67.0","battery-v0.2","","""event"",""trial"",""time""
""fullscreenenter"",""1"",""115514""
","
","
","""event"",""trial"",""time""
""fullscreenenter"",""1"",""115514""
","
","","","-1","","","26","5658","1721","d","elianto","#3366ff99","-1","-1","1","+10","[]","0","2","","","5658","63","1","2","win","no-go","0"
"pit-trial","185","1996971","0.0-68.0","battery-v0.2","","""event"",""trial"",""time""
""fullscreenenter"",""1"",""115514""
","
","
","""event"",""trial"",""time""
""fullscreenenter"",""1"",""115514""
","
","","","-1","","","26","5658","1721","w","elianto","#f73b6a7A","-1","-1","1","0","[]","0","2","","","5658","64","3","4","lose","no-go","0"
"pit-trial","186","2001848","0.0-69.0","battery-v0.2","","""event"",""trial"",""time""
""fullscreenenter"",""1"",""115514""
","
","
","""event"",""trial"",""time""
""fullscreenenter"",""1"",""115514""
","
","","","-1","","","26","5658","1721","d","elianto","#3366ff99","-1","-1","1","0","[]","0","2","","","5658","65","1","2","win","no-go","1"
"pit-trial","187","2005538","0.0-70.0","battery-v0.2","","""event"",""trial"",""time""
""fullscreenenter"",""1"",""115514""
","
","
","""event"",""trial"",""time""
""fullscreenenter"",""1"",""115514""
","
","","","812.0999999940395","","","26","5658","1721","s","elianto","#3366ff99"," "," ","1","+10","[1673.5]","1","2","","","5658","66","4","1","win","go","0"
"pit-trial","188","2009565","0.0-71.0","battery-v0.2","","""event"",""trial"",""time""
""fullscreenenter"",""1"",""115514""
","
","
","""event"",""trial"",""time""
""fullscreenenter"",""1"",""115514""
","
","","","1165.2000000029802","","","26","5658","1721","p","elianto","#3366ff99","-1"," ","0","0","[2020.2999999970198]","1","2","","","5658","67","5","2","win","no-go","0"
"pit-trial","189","2014433","0.0-72.0","battery-v0.2","","""event"",""trial"",""time""
""fullscreenenter"",""1"",""115514""
","
","
","""event"",""trial"",""time""
""fullscreenenter"",""1"",""115514""
","
","","","-1","","","26","5658","1721","w","elianto","#f73b6a7A","-1","-1","1","0","[]","0","2","","","5658","68","3","4","lose","no-go","0"
"pit-trial","190","2018264","0.0-73.0","battery-v0.2","","""event"",""trial"",""time""
""fullscreenenter"",""1"",""115514""
","
","
","""event"",""trial"",""time""
""fullscreenenter"",""1"",""115514""
","
","","","956","","","26","5658","1721","s","elianto","#3366ff99"," "," ","1","+10","[1815.7999999970198]","1","2","","","5658","69","4","1","win","go","0"
"pit-trial","191","2023143","0.0-74.0","battery-v0.2","","""event"",""trial"",""time""
""fullscreenenter"",""1"",""115514""
","
","
","""event"",""trial"",""time""
""fullscreenenter"",""1"",""115514""
","
","","","-1","","","26","5658","1721","d","elianto","#3366ff99","-1","-1","1","+10","[]","0","2","","","5658","70","1","2","win","no-go","0"
"pit-trial","192","2028021","0.0-75.0","battery-v0.2","","""event"",""trial"",""time""
""fullscreenenter"",""1"",""115514""
","
","
","""event"",""trial"",""time""
""fullscreenenter"",""1"",""115514""
","
","","","-1","","","26","5658","1721","p","elianto","#3366ff99","-1","-1","1","+10","[]","0","2","","","5658","71","5","2","win","no-go","0"
"pit-trial","193","2032076","0.0-76.0","battery-v0.2","","""event"",""trial"",""time""
""fullscreenenter"",""1"",""115514""
","
","
","""event"",""trial"",""time""
""fullscreenenter"",""1"",""115514""
","
","","","1181.6000000089407","","","26","5658","1721","e","elianto","#f73b6a7A"," "," ","1","0","[2038.2999999970198]","1","2","","","5658","72","2","3","lose","go","0"
"pit-trial","194","2035781","0.0-77.0","battery-v0.2","","""event"",""trial"",""time""
""fullscreenenter"",""1"",""115514""
","
","
","""event"",""trial"",""time""
""fullscreenenter"",""1"",""115514""
","
","","","842.2999999970198","","","26","5658","1721","s","elianto","#3366ff99"," "," ","1","+10","[1695.4000000059605]","1","2","","","5658","73","4","1","win","go","0"
"pit-trial","195","2040647","0.0-78.0","battery-v0.2","","""event"",""trial"",""time""
""fullscreenenter"",""1"",""115514""
","
","
","""event"",""trial"",""time""
""fullscreenenter"",""1"",""115514""
","
","","","-1","","","26","5658","1721","w","elianto","#f73b6a7A","-1","-1","1","0","[]","0","2","","","5658","74","3","4","lose","no-go","0"
"pit-trial","196","2045517","0.0-79.0","battery-v0.2","","""event"",""trial"",""time""
""fullscreenenter"",""1"",""115514""
","
","
","""event"",""trial"",""time""
""fullscreenenter"",""1"",""115514""
","
","","","-1","","","26","5658","1721","p","elianto","#3366ff99","-1","-1","1","0","[]","0","2","","","5658","75","5","2","win","no-go","1"
"pit-trial","197","2050397","0.0-80.0","battery-v0.2","","""event"",""trial"",""time""
""fullscreenenter"",""1"",""115514""
","
","
","""event"",""trial"",""time""
""fullscreenenter"",""1"",""115514""
","
","","","-1","","","26","5658","1721","d","elianto","#3366ff99","-1","-1","1","0","[]","0","2","","","5658","76","1","2","win","no-go","1"
"pit-trial","198","2054332","0.0-81.0","battery-v0.2","","""event"",""trial"",""time""
""fullscreenenter"",""1"",""115514""
","
","
","""event"",""trial"",""time""
""fullscreenenter"",""1"",""115514""
","
","","","1068.5","","","26","5658","1721","s","elianto","#3366ff99"," "," ","1","+10","[1927.7000000029802]","1","2","","","5658","77","4","1","win","go","0"
"pit-trial","199","2059217","0.0-82.0","battery-v0.2","","""event"",""trial"",""time""
""fullscreenenter"",""1"",""115514""
","
","
","""event"",""trial"",""time""
""fullscreenenter"",""1"",""115514""
","
","","","-1","","","26","5658","1721","p","elianto","#3366ff99","-1","-1","1","+10","[]","0","2","","","5658","78","5","2","win","no-go","0"
"pit-trial","200","2064094","0.0-83.0","battery-v0.2","","""event"",""trial"",""time""
""fullscreenenter"",""1"",""115514""
","
","
","""event"",""trial"",""time""
""fullscreenenter"",""1"",""115514""
","
","","","-1","","","26","5658","1721","w","elianto","#f73b6a7A","-1","-1","1","-10","[]","0","2","","","5658","79","3","4","lose","no-go","1"
"pit-trial","201","2068276","0.0-84.0","battery-v0.2","","""event"",""trial"",""time""
""fullscreenenter"",""1"",""115514""
","
","
","""event"",""trial"",""time""
""fullscreenenter"",""1"",""115514""
","
","","","1313.5","","","26","5658","1721","s","elianto","#3366ff99"," "," ","1","+10","[2172.0999999940395]","1","2","","","5658","80","4","1","win","go","0"
"pit-trial","202","2073151","0.0-85.0","battery-v0.2","","""event"",""trial"",""time""
""fullscreenenter"",""1"",""115514""
","
","
","""event"",""trial"",""time""
""fullscreenenter"",""1"",""115514""
","
","","","-1","","","26","5658","1721","w","elianto","#f73b6a7A","-1","-1","1","0","[]","0","2","","","5658","81","3","4","lose","no-go","0"
"pit-trial","203","2078025","0.0-86.0","battery-v0.2","","""event"",""trial"",""time""
""fullscreenenter"",""1"",""115514""
","
","
","""event"",""trial"",""time""
""fullscreenenter"",""1"",""115514""
","
","","","-1","","","26","5658","1721","p","elianto","#3366ff99","-1","-1","1","0","[]","0","2","","","5658","82","5","2","win","no-go","1"
"pit-trial","204","2082225","0.0-87.0","battery-v0.2","","""event"",""trial"",""time""
""fullscreenenter"",""1"",""115514""
","
","
","""event"",""trial"",""time""
""fullscreenenter"",""1"",""115514""
","
","","","1335.2000000029802","","","26","5658","1721","a","elianto","#f73b6a7A","-1"," ","0","-10","[2185.2999999970198]","1","2","","","5658","83","7","4","lose","no-go","0"
"pit-trial","205","2086047","0.0-88.0","battery-v0.2","","""event"",""trial"",""time""
""fullscreenenter"",""1"",""115514""
","
","
","""event"",""trial"",""time""
""fullscreenenter"",""1"",""115514""
","
","","","954.2999999970198","","","26","5658","1721","s","elianto","#3366ff99"," "," ","1","+10","[1805.5]","1","2","","","5658","84","4","1","win","go","0"
"pit-trial","206","2089848","0.0-89.0","battery-v0.2","","""event"",""trial"",""time""
""fullscreenenter"",""1"",""115514""
","
","
","""event"",""trial"",""time""
""fullscreenenter"",""1"",""115514""
","
","","","929","","","26","5658","1721","s","elianto","#3366ff99"," "," ","1","+10","[1786.6000000089407]","1","2","","","5658","85","4","1","win","go","0"
"pit-trial","207","2094728","0.0-90.0","battery-v0.2","","""event"",""trial"",""time""
""fullscreenenter"",""1"",""115514""
","
","
","""event"",""trial"",""time""
""fullscreenenter"",""1"",""115514""
","
","","","-1","","","26","5658","1721","a","elianto","#f73b6a7A","-1","-1","1","0","[]","0","2","","","5658","86","7","4","lose","no-go","0"
"pit-trial","208","2099056","0.0-91.0","battery-v0.2","","""event"",""trial"",""time""
""fullscreenenter"",""1"",""115514""
","
","
","""event"",""trial"",""time""
""fullscreenenter"",""1"",""115514""
","
","","","1452.2999999970198","","","26","5658","1721","g","elianto","#f73b6a7A"," "," ","1","-10","[2311.2000000029802]","1","2","","","5658","87","6","3","lose","go","1"
"pit-trial","209","2103926","0.0-92.0","battery-v0.2","","""event"",""trial"",""time""
""fullscreenenter"",""1"",""115514""
","
","
","""event"",""trial"",""time""
""fullscreenenter"",""1"",""115514""
","
","","","-1","","","26","5658","1721","p","elianto","#3366ff99","-1","-1","1","+10","[]","0","2","","","5658","88","5","2","win","no-go","0"
"pit-trial","210","2108795","0.0-93.0","battery-v0.2","","""event"",""trial"",""time""
""fullscreenenter"",""1"",""115514""
","
","
","""event"",""trial"",""time""
""fullscreenenter"",""1"",""115514""
","
","","","-1","","","26","5658","1721","p","elianto","#3366ff99","-1","-1","1","+10","[]","0","2","","","5658","89","5","2","win","no-go","0"
"pit-trial","211","2113669","0.0-94.0","battery-v0.2","","""event"",""trial"",""time""
""fullscreenenter"",""1"",""115514""
","
","
","""event"",""trial"",""time""
""fullscreenenter"",""1"",""115514""
","
","","","-1","","","26","5658","1721","g","elianto","#f73b6a7A"," ","-1","0","0","[]","0","2","","","5658","90","6","3","lose","go","1"
"pit-trial","212","2117253","0.0-95.0","battery-v0.2","","""event"",""trial"",""time""
""fullscreenenter"",""1"",""115514""
","
","
","""event"",""trial"",""time""
""fullscreenenter"",""1"",""115514""
","
","","","720.7999999970198","","","26","5658","1721","s","elianto","#3366ff99"," "," ","1","+10","[1576.6000000089407]","1","2","","","5658","91","4","1","win","go","0"
"pit-trial","213","2122121","0.0-96.0","battery-v0.2","","""event"",""trial"",""time""
""fullscreenenter"",""1"",""115514""
","
","
","""event"",""trial"",""time""
""fullscreenenter"",""1"",""115514""
","
","","","-1","","","26","5658","1721","a","elianto","#f73b6a7A","-1","-1","1","0","[]","0","2","","","5658","92","7","4","lose","no-go","0"
"pit-trial","214","2126164","0.0-97.0","battery-v0.2","","""event"",""trial"",""time""
""fullscreenenter"",""1"",""115514""
","
","
","""event"",""trial"",""time""
""fullscreenenter"",""1"",""115514""
","
","","","1171.1000000089407","","","26","5658","1721","l","elianto","#3366ff99"," "," ","1","0","[2025.800000011921]","1","2","","","5658","93","8","1","win","go","1"
"pit-trial","215","2131036","0.0-98.0","battery-v0.2","","""event"",""trial"",""time""
""fullscreenenter"",""1"",""115514""
","
","
","""event"",""trial"",""time""
""fullscreenenter"",""1"",""115514""
","
","","","-1","","","26","5658","1721","a","elianto","#f73b6a7A","-1","-1","1","-10","[]","0","2","","","5658","94","7","4","lose","no-go","1"
"pit-trial","216","2135903","0.0-99.0","battery-v0.2","","""event"",""trial"",""time""
""fullscreenenter"",""1"",""115514""
","
","
","""event"",""trial"",""time""
""fullscreenenter"",""1"",""115514""
","
","","","-1","","","26","5658","1721","g","elianto","#f73b6a7A"," ","-1","0","-10","[]","0","2","","","5658","95","6","3","lose","go","0"
"pit-trial","217","2140770","0.0-100.0","battery-v0.2","","""event"",""trial"",""time""
""fullscreenenter"",""1"",""115514""
","
","
","""event"",""trial"",""time""
""fullscreenenter"",""1"",""115514""
","
","","","-1","","","26","5658","1721","p","elianto","#3366ff99","-1","-1","1","+10","[]","0","2","","","5658","96","5","2","win","no-go","0"
"pit-trial","218","2145649","0.0-101.0","battery-v0.2","","""event"",""trial"",""time""
""fullscreenenter"",""1"",""115514""
","
","
","""event"",""trial"",""time""
""fullscreenenter"",""1"",""115514""
","
","","","-1","","","26","5658","1721","a","elianto","#f73b6a7A","-1","-1","1","0","[]","0","2","","","5658","97","7","4","lose","no-go","0"
"pit-trial","219","2150535","0.0-102.0","battery-v0.2","","""event"",""trial"",""time""
""fullscreenenter"",""1"",""115514""
","
","
","""event"",""trial"",""time""
""fullscreenenter"",""1"",""115514""
","
","","","-1","","","26","5658","1721","p","elianto","#3366ff99","-1","-1","1","+10","[]","0","2","","","5658","98","5","2","win","no-go","0"
"pit-trial","220","2155404","0.0-103.0","battery-v0.2","","""event"",""trial"",""time""
""fullscreenenter"",""1"",""115514""
","
","
","""event"",""trial"",""time""
""fullscreenenter"",""1"",""115514""
","
","","","-1","","","26","5658","1721","g","elianto","#f73b6a7A"," ","-1","0","0","[]","0","2","","","5658","99","6","3","lose","go","1"
"pit-trial","221","2160270","0.0-104.0","battery-v0.2","","""event"",""trial"",""time""
""fullscreenenter"",""1"",""115514""
","
","
","""event"",""trial"",""time""
""fullscreenenter"",""1"",""115514""
","
","","","-1","","","26","5658","1721","l","elianto","#3366ff99"," ","-1","0","+10","[]","0","2","","","5658","100","8","1","win","go","1"
"pit-trial","222","2165138","0.0-105.0","battery-v0.2","","""event"",""trial"",""time""
""fullscreenenter"",""1"",""115514""
","
","
","""event"",""trial"",""time""
""fullscreenenter"",""1"",""115514""
","
","","","-1","","","26","5658","1721","p","elianto","#3366ff99","-1","-1","1","+10","[]","0","2","","","5658","101","5","2","win","no-go","0"
"pit-trial","223","2170019","0.0-106.0","battery-v0.2","","""event"",""trial"",""time""
""fullscreenenter"",""1"",""115514""
","
","
","""event"",""trial"",""time""
""fullscreenenter"",""1"",""115514""
","
","","","-1","","","26","5658","1721","l","elianto","#3366ff99"," ","-1","0","0","[]","0","2","","","5658","102","8","1","win","go","0"
"pit-trial","224","2174512","0.0-107.0","battery-v0.2","","""event"",""trial"",""time""
""fullscreenenter"",""1"",""115514""
","
","
","""event"",""trial"",""time""
""fullscreenenter"",""1"",""115514""
","
","","","1625.5","","","26","5658","1721","u","elianto","#3366ff99"," "," ","1","0","[2479.199999988079]","1","2","","","5658","103","9","1","win","go","1"
"pit-trial","225","2179385","0.0-108.0","battery-v0.2","","""event"",""trial"",""time""
""fullscreenenter"",""1"",""115514""
","
","
","""event"",""trial"",""time""
""fullscreenenter"",""1"",""115514""
","
","","","-1","","","26","5658","1721","a","elianto","#f73b6a7A","-1","-1","1","-10","[]","0","2","","","5658","104","7","4","lose","no-go","1"
"pit-trial","226","2184260","0.0-109.0","battery-v0.2","","""event"",""trial"",""time""
""fullscreenenter"",""1"",""115514""
","
","
","""event"",""trial"",""time""
""fullscreenenter"",""1"",""115514""
","
","","","-1","","","26","5658","1721","g","elianto","#f73b6a7A"," ","-1","0","-10","[]","0","2","","","5658","105","6","3","lose","go","0"
"pit-trial","227","2188264","0.0-110.0","battery-v0.2","","""event"",""trial"",""time""
""fullscreenenter"",""1"",""115514""
","
","
","""event"",""trial"",""time""
""fullscreenenter"",""1"",""115514""
","
","","","1137.7000000029802","","","26","5658","1721","u","elianto","#3366ff99"," "," ","1","+10","[1988.5]","1","2","","","5658","106","9","1","win","go","0"
"pit-trial","228","2192421","0.0-111.0","battery-v0.2","","""event"",""trial"",""time""
""fullscreenenter"",""1"",""115514""
","
","
","""event"",""trial"",""time""
""fullscreenenter"",""1"",""115514""
","
","","","1289.0999999940395","","","26","5658","1721","s","elianto","#3366ff99"," "," ","1","+10","[2148.2000000029802]","1","2","","","5658","107","4","1","win","go","0"
"pit-trial","229","2197297","0.0-112.0","battery-v0.2","","""event"",""trial"",""time""
""fullscreenenter"",""1"",""115514""
","
","
","""event"",""trial"",""time""
""fullscreenenter"",""1"",""115514""
","
","","","-1","","","26","5658","1721","l","elianto","#3366ff99"," ","-1","0","0","[]","0","2","","","5658","108","8","1","win","go","0"
"pit-trial","230","2202176","0.0-113.0","battery-v0.2","","""event"",""trial"",""time""
""fullscreenenter"",""1"",""115514""
","
","
","""event"",""trial"",""time""
""fullscreenenter"",""1"",""115514""
","
","","","-1","","","26","5658","1721","l","elianto","#3366ff99"," ","-1","0","0","[]","0","2","","","5658","109","8","1","win","go","0"
"pit-trial","231","2206388","0.0-114.0","battery-v0.2","","""event"",""trial"",""time""
""fullscreenenter"",""1"",""115514""
","
","
","""event"",""trial"",""time""
""fullscreenenter"",""1"",""115514""
","
","","","1351","","","26","5658","1721","u","elianto","#3366ff99"," "," ","1","0","[2201.7000000029802]","1","2","","","5658","110","9","1","win","go","1"
"pit-trial","232","2211259","0.0-115.0","battery-v0.2","","""event"",""trial"",""time""
""fullscreenenter"",""1"",""115514""
","
","
","""event"",""trial"",""time""
""fullscreenenter"",""1"",""115514""
","
","","","-1","","","26","5658","1721","p","elianto","#3366ff99","-1","-1","1","+10","[]","0","2","","","5658","111","5","2","win","no-go","0"
"pit-trial","233","2216127","0.0-116.0","battery-v0.2","","""event"",""trial"",""time""
""fullscreenenter"",""1"",""115514""
","
","
","""event"",""trial"",""time""
""fullscreenenter"",""1"",""115514""
","
","","","-1","","","26","5658","1721","g","elianto","#f73b6a7A"," ","-1","0","-10","[]","0","2","","","5658","112","6","3","lose","go","0"
"pit-trial","234","2220998","0.0-117.0","battery-v0.2","","""event"",""trial"",""time""
""fullscreenenter"",""1"",""115514""
","
","
","""event"",""trial"",""time""
""fullscreenenter"",""1"",""115514""
","
","","","-1","","","26","5658","1721","p","elianto","#3366ff99","-1","-1","1","0","[]","0","2","","","5658","113","5","2","win","no-go","1"
"pit-trial","235","2225874","0.0-118.0","battery-v0.2","","""event"",""trial"",""time""
""fullscreenenter"",""1"",""115514""
","
","
","""event"",""trial"",""time""
""fullscreenenter"",""1"",""115514""
","
","","","-1","","","26","5658","1721","u","elianto","#3366ff99"," ","-1","0","0","[]","0","2","","","5658","114","9","1","win","go","0"
"pit-trial","236","2230744","0.0-119.0","battery-v0.2","","""event"",""trial"",""time""
""fullscreenenter"",""1"",""115514""
","
","
","""event"",""trial"",""time""
""fullscreenenter"",""1"",""115514""
","
","","","-1","","","26","5658","1721","g","elianto","#f73b6a7A"," ","-1","0","0","[]","0","2","","","5658","115","6","3","lose","go","1"
"pit-trial","237","2234296","0.0-120.0","battery-v0.2","","""event"",""trial"",""time""
""fullscreenenter"",""1"",""115514""
","
","
","""event"",""trial"",""time""
""fullscreenenter"",""1"",""115514""
","
","","","689.7000000029802","","","26","5658","1721","l","elianto","#3366ff99"," "," ","1","+10","[1540.7000000029802]","1","2","","","5658","116","8","1","win","go","0"
"pit-trial","238","2237797","0.0-121.0","battery-v0.2","","""event"",""trial"",""time""
""fullscreenenter"",""1"",""115514""
","
","
","""event"",""trial"",""time""
""fullscreenenter"",""1"",""115514""
","
","","","630.2000000029802","","","26","5658","1721","l","elianto","#3366ff99"," "," ","1","+10","[1488.2999999970198]","1","2","","","5658","117","8","1","win","go","0"
"pit-trial","239","2242676","0.0-122.0","battery-v0.2","","""event"",""trial"",""time""
""fullscreenenter"",""1"",""115514""
","
","
","""event"",""trial"",""time""
""fullscreenenter"",""1"",""115514""
","
","","","-1","","","26","5658","1721","g","elianto","#f73b6a7A"," ","-1","0","-10","[]","0","2","","","5658","118","6","3","lose","go","0"
"pit-trial","240","2246827","0.0-123.0","battery-v0.2","","""event"",""trial"",""time""
""fullscreenenter"",""1"",""115514""
","
","
","""event"",""trial"",""time""
""fullscreenenter"",""1"",""115514""
","
","","","1282.7000000029802","","","26","5658","1721","u","elianto","#3366ff99"," "," ","1","+10","[2133.2000000029802]","1","2","","","5658","119","9","1","win","go","0"
"pit-trial","241","2251697","0.0-124.0","battery-v0.2","","""event"",""trial"",""time""
""fullscreenenter"",""1"",""115514""
","
","
","""event"",""trial"",""time""
""fullscreenenter"",""1"",""115514""
","
","","","-1","","","26","5658","1721","p","elianto","#3366ff99","-1","-1","1","+10","[]","0","2","","","5658","120","5","2","win","no-go","0"
"pit-trial","242","2255277","0.0-125.0","battery-v0.2","","""event"",""trial"",""time""
""fullscreenenter"",""1"",""115514""
","
","
","""event"",""trial"",""time""
""fullscreenenter"",""1"",""115514""
","
","","","700.3000000119209","","","26","5658","1721","g","elianto","#f73b6a7A"," "," ","1","0","[1566.0999999940395]","1","2","","","5658","121","6","3","lose","go","0"
"pit-trial","243","2259218","0.0-126.0","battery-v0.2","","""event"",""trial"",""time""
""fullscreenenter"",""1"",""115514""
","
","
","""event"",""trial"",""time""
""fullscreenenter"",""1"",""115514""
","
","","","1074.0999999940395","","","26","5658","1721","u","elianto","#3366ff99"," "," ","1","0","[1924.300000011921]","1","2","","","5658","122","9","1","win","go","1"
"pit-trial","244","2262801","0.0-127.0","battery-v0.2","","""event"",""trial"",""time""
""fullscreenenter"",""1"",""115514""
","
","
","""event"",""trial"",""time""
""fullscreenenter"",""1"",""115514""
","
","","","715.7000000029802","","","26","5658","1721","l","elianto","#3366ff99"," "," ","1","+10","[1571]","1","2","","","5658","123","8","1","win","go","0"
"pit-trial","245","2267684","0.0-128.0","battery-v0.2","","""event"",""trial"",""time""
""fullscreenenter"",""1"",""115514""
","
","
","""event"",""trial"",""time""
""fullscreenenter"",""1"",""115514""
","
","","","-1","","","26","5658","1721","a","elianto","#f73b6a7A","-1","-1","1","0","[]","0","2","","","5658","124","7","4","lose","no-go","0"
"pit-trial","246","2272418","0.0-129.0","battery-v0.2","","""event"",""trial"",""time""
""fullscreenenter"",""1"",""115514""
","
","
","""event"",""trial"",""time""
""fullscreenenter"",""1"",""115514""
","
","","","1870.0999999940395","","","26","5658","1721","g","elianto","#f73b6a7A"," "," ","1","0","[2724.2000000029802]","1","2","","","5658","125","6","3","lose","go","0"
"pit-trial","247","2276287","0.0-130.0","battery-v0.2","","""event"",""trial"",""time""
""fullscreenenter"",""1"",""115514""
","
","
","""event"",""trial"",""time""
""fullscreenenter"",""1"",""115514""
","
","","","1006.7999999970198","","","26","5658","1721","l","elianto","#3366ff99"," "," ","1","+10","[1861.5999999940395]","1","2","","","5658","126","8","1","win","go","0"
"pit-trial","248","2281160","0.0-131.0","battery-v0.2","","""event"",""trial"",""time""
""fullscreenenter"",""1"",""115514""
","
","
","""event"",""trial"",""time""
""fullscreenenter"",""1"",""115514""
","
","","","-1","","","26","5658","1721","a","elianto","#f73b6a7A","-1","-1","1","0","[]","0","2","","","5658","127","7","4","lose","no-go","0"
"pit-trial","249","2284827","0.0-132.0","battery-v0.2","","""event"",""trial"",""time""
""fullscreenenter"",""1"",""115514""
","
","
","""event"",""trial"",""time""
""fullscreenenter"",""1"",""115514""
","
","","","792","","","26","5658","1721","u","elianto","#3366ff99"," "," ","1","+10","[1653.300000011921]","1","2","","","5658","128","9","1","win","go","0"
"pit-trial","250","2289708","0.0-133.0","battery-v0.2","","""event"",""trial"",""time""
""fullscreenenter"",""1"",""115514""
","
","
","""event"",""trial"",""time""
""fullscreenenter"",""1"",""115514""
","
","","","-1","","","26","5658","1721","g","elianto","#f73b6a7A"," ","-1","0","-10","[3143.6000000089407]","1","2","","","5658","129","6","3","lose","go","0"
"pit-trial","251","2294572","0.0-134.0","battery-v0.2","","""event"",""trial"",""time""
""fullscreenenter"",""1"",""115514""
","
","
","""event"",""trial"",""time""
""fullscreenenter"",""1"",""115514""
","
","","","-1","","","26","5658","1721","a","elianto","#f73b6a7A","-1","-1","1","-10","[]","0","2","","","5658","130","7","4","lose","no-go","1"
"pit-trial","252","2298331","0.0-135.0","battery-v0.2","","""event"",""trial"",""time""
""fullscreenenter"",""1"",""115514""
","
","
","""event"",""trial"",""time""
""fullscreenenter"",""1"",""115514""
","
","","","900.6000000089407","","","26","5658","1721","l","elianto","#3366ff99"," "," ","1","0","[1751.2000000029802]","1","2","","","5658","131","8","1","win","go","1"
"pit-trial","253","2301832","0.0-136.0","battery-v0.2","","""event"",""trial"",""time""
""fullscreenenter"",""1"",""115514""
","
","
","""event"",""trial"",""time""
""fullscreenenter"",""1"",""115514""
","
","","","634.8000000119209","","","26","5658","1721","u","elianto","#3366ff99"," "," ","1","+10","[1491]","1","2","","","5658","132","9","1","win","go","0"
"pit-trial","254","2305365","0.0-137.0","battery-v0.2","","""event"",""trial"",""time""
""fullscreenenter"",""1"",""115514""
","
","
","""event"",""trial"",""time""
""fullscreenenter"",""1"",""115514""
","
","","","663.2999999970198","","","26","5658","1721","g","elianto","#f73b6a7A"," "," ","1","0","[1522.7999999970198]","1","2","","","5658","133","6","3","lose","go","0"
"pit-trial","255","2308932","0.0-138.0","battery-v0.2","","""event"",""trial"",""time""
""fullscreenenter"",""1"",""115514""
","
","
","""event"",""trial"",""time""
""fullscreenenter"",""1"",""115514""
","
","","","703","","","26","5658","1721","u","elianto","#3366ff99"," "," ","1","0","[1557.5]","1","2","","","5658","134","9","1","win","go","1"
"pit-trial","256","2313798","0.0-139.0","battery-v0.2","","""event"",""trial"",""time""
""fullscreenenter"",""1"",""115514""
","
","
","""event"",""trial"",""time""
""fullscreenenter"",""1"",""115514""
","
","","","-1","","","26","5658","1721","a","elianto","#f73b6a7A","-1","-1","1","0","[]","0","2","","","5658","135","7","4","lose","no-go","0"
"pit-trial","257","2317793","0.0-140.0","battery-v0.2","","""event"",""trial"",""time""
""fullscreenenter"",""1"",""115514""
","
","
","""event"",""trial"",""time""
""fullscreenenter"",""1"",""115514""
","
","","","1122.6000000089407","","","26","5658","1721","l","elianto","#3366ff99"," "," ","1","+10","[1978.2999999970198]","1","2","","","5658","136","8","1","win","go","0"
"pit-trial","258","2322665","0.0-141.0","battery-v0.2","","""event"",""trial"",""time""
""fullscreenenter"",""1"",""115514""
","
","
","""event"",""trial"",""time""
""fullscreenenter"",""1"",""115514""
","
","","","-1","","","26","5658","1721","a","elianto","#f73b6a7A","-1","-1","1","0","[]","0","2","","","5658","137","7","4","lose","no-go","0"
"pit-trial","259","2326174","0.0-142.0","battery-v0.2","","""event"",""trial"",""time""
""fullscreenenter"",""1"",""115514""
","
","
","""event"",""trial"",""time""
""fullscreenenter"",""1"",""115514""
","
","","","646.5","","","26","5658","1721","l","elianto","#3366ff99"," "," ","1","0","[1502]","1","2","","","5658","138","8","1","win","go","1"
"pit-trial","260","2330001","0.0-143.0","battery-v0.2","","""event"",""trial"",""time""
""fullscreenenter"",""1"",""115514""
","
","
","""event"",""trial"",""time""
""fullscreenenter"",""1"",""115514""
","
","","","952.8999999910593","","","26","5658","1721","u","elianto","#3366ff99"," "," ","1","+10","[1814.2000000029802]","1","2","","","5658","139","9","1","win","go","0"
"pit-trial","261","2333431","0.0-144.0","battery-v0.2","","""event"",""trial"",""time""
""fullscreenenter"",""1"",""115514""
","
","
","""event"",""trial"",""time""
""fullscreenenter"",""1"",""115514""
","
","","","563.6999999880791","","","26","5658","1721","g","elianto","#f73b6a7A"," "," ","1","0","[1416.2000000029802]","1","2","","","5658","140","6","3","lose","go","0"
"pit-instructions","262","2362678","0.0-145.0","battery-v0.2","","""event"",""trial"",""time""
""fullscreenenter"",""1"",""115514""
","
","
","""event"",""trial"",""time""
""fullscreenenter"",""1"",""115514""
","
","","[{""page_index"":0,""viewing_time"":10694.39999999106},{""page_index"":1,""viewing_time"":18546.5}]","29242","","","","","","","","","","","","","","","","","","","","","","","",""
"pit-trial","263","2367556","0.0-146.0","battery-v0.2","","""event"",""trial"",""time""
""fullscreenenter"",""1"",""115514""
","
","
","""event"",""trial"",""time""
""fullscreenenter"",""1"",""115514""
","
","","","-1","","","26","5658","1721","y","elianto","#f73b6a7A","-1","-1","1","0","[]","0","3","","","5658","141","2","4","lose","no-go","0"
"pit-trial","264","2372430","0.0-147.0","battery-v0.2","","""event"",""trial"",""time""
""fullscreenenter"",""1"",""115514""
","
","
","""event"",""trial"",""time""
""fullscreenenter"",""1"",""115514""
","
","","","-1","","","26","5658","1721","h","elianto","#f73b6a7A"," ","-1","0","-10","[]","0","3","","","5658","142","3","3","lose","go","0"
"pit-trial","265","2376306","0.0-148.0","battery-v0.2","","""event"",""trial"",""time""
""fullscreenenter"",""1"",""115514""
","
","
","""event"",""trial"",""time""
""fullscreenenter"",""1"",""115514""
","
","","","1005.2000000029802","","","26","5658","1721","m","elianto","#f73b6a7A","-1"," ","0","-10","[1860.9000000059605]","1","3","","","5658","143","0","4","lose","no-go","0"
"pit-trial","266","2379958","0.0-149.0","battery-v0.2","","""event"",""trial"",""time""
