"trial_type","trial_index","time_elapsed","internal_node_id","task_version","subject_id","interactions","blur_events","focus_events","fullscreenenter_events","fullscreenexit_events","success","view_history","rt","responses","num_errors","age","subject","participantId","rune","rune_set","hex","correct","choice","accuracy","outcome","keys","total_keys","block","practice","value","sub","trial","stimulus","robot","valence","action","sham"
"pavlovia","0","9","0.0-0.0","battery-v0.2","","""event"",""trial"",""time""
""fullscreenenter"",""1"",""11292""
","
","
","""event"",""trial"",""time""
""fullscreenenter"",""1"",""11292""
","
","","","","","","","","","","","","","","","","","","","","","","","","","","",""
"fullscreen","1","12259","0.0-1.0","battery-v0.2","","""event"",""trial"",""time""
""fullscreenenter"",""1"",""11292""
""blur"",""2"",""69900""
""focus"",""2"",""72009""
","""event"",""trial"",""time""
""blur"",""2"",""69900""
","""event"",""trial"",""time""
""focus"",""2"",""72009""
","""event"",""trial"",""time""
""fullscreenenter"",""1"",""11292""
","
","true","","","","","","","","","","","","","","","","","","","","","","","","","",""
"pit-instructions","2","72858","0.0-2.0-0.0","battery-v0.2","","""event"",""trial"",""time""
""fullscreenenter"",""1"",""11292""
""blur"",""2"",""69900""
""focus"",""2"",""72009""
","""event"",""trial"",""time""
""blur"",""2"",""69900""
","""event"",""trial"",""time""
""focus"",""2"",""72009""
","""event"",""trial"",""time""
""fullscreenenter"",""1"",""11292""
","
","","[{""page_index"":0,""viewing_time"":60593}]","60594","","","","","","","","","","","","","","","","","","","","","","","",""
"pit-comprehension","3","78627","0.0-2.0-1.0-0.0","battery-v0.2","","""event"",""trial"",""time""
""fullscreenenter"",""1"",""11292""
""blur"",""2"",""69900""
""focus"",""2"",""72009""
","""event"",""trial"",""time""
""blur"",""2"",""69900""
","""event"",""trial"",""time""
""focus"",""2"",""72009""
","""event"",""trial"",""time""
""fullscreenenter"",""1"",""11292""
","
","","","5720.000000000015","[""shark""]","0","11","3164","1851","","","","","","","","","","","","","","","","","","",""
"pit-instructions","4","79689","0.0-2.0-1.0-1.0","battery-v0.2","","""event"",""trial"",""time""
""fullscreenenter"",""1"",""11292""
""blur"",""2"",""69900""
""focus"",""2"",""72009""
","""event"",""trial"",""time""
""blur"",""2"",""69900""
","""event"",""trial"",""time""
""focus"",""2"",""72009""
","""event"",""trial"",""time""
""fullscreenenter"",""1"",""11292""
","
","","[{""page_index"":0,""viewing_time"":1051.9999999999854}]","1052.9999999999854","","","","","","","","","","","","","","","","","","","","","","","",""
"pit-comprehension","5","88829","0.0-2.0-2.0-0.0","battery-v0.2","","""event"",""trial"",""time""
""fullscreenenter"",""1"",""11292""
""blur"",""2"",""69900""
""focus"",""2"",""72009""
","""event"",""trial"",""time""
""blur"",""2"",""69900""
","""event"",""trial"",""time""
""focus"",""2"",""72009""
","""event"",""trial"",""time""
""fullscreenenter"",""1"",""11292""
","
","","","9135","[""tiger""]","0","11","3164","1851","","","","","","","","","","","","","","","","","","",""
"pit-instructions","6","90640","0.0-2.0-2.0-1.0","battery-v0.2","","""event"",""trial"",""time""
""fullscreenenter"",""1"",""11292""
""blur"",""2"",""69900""
""focus"",""2"",""72009""
","""event"",""trial"",""time""
""blur"",""2"",""69900""
","""event"",""trial"",""time""
""focus"",""2"",""72009""
","""event"",""trial"",""time""
""fullscreenenter"",""1"",""11292""
","
","","[{""page_index"":0,""viewing_time"":1806}]","1806","","","","","","","","","","","","","","","","","","","","","","","",""
"pit-instructions","7","195584","0.0-2.0-3.0","battery-v0.2","","""event"",""trial"",""time""
""fullscreenenter"",""1"",""11292""
""blur"",""2"",""69900""
""focus"",""2"",""72009""
","""event"",""trial"",""time""
""blur"",""2"",""69900""
","""event"",""trial"",""time""
""focus"",""2"",""72009""
","""event"",""trial"",""time""
""fullscreenenter"",""1"",""11292""
","
","","[{""page_index"":0,""viewing_time"":16408.999999999985},{""page_index"":1,""viewing_time"":6649},{""page_index"":2,""viewing_time"":6479},{""page_index"":3,""viewing_time"":6786.999999999985},{""page_index"":4,""viewing_time"":5989.000000000015},{""page_index"":5,""viewing_time"":6376},{""page_index"":6,""viewing_time"":6985.000000000029},{""page_index"":7,""viewing_time"":6961.999999999971},{""page_index"":8,""viewing_time"":6776},{""page_index"":9,""viewing_time"":8369},{""page_index"":10,""viewing_time"":7482},{""page_index"":11,""viewing_time"":7452},{""page_index"":12,""viewing_time"":7155},{""page_index"":13,""viewing_time"":5073}]","104942.99999999999","","","","","","","","","","","","","","","","","","","","","","","",""
"pit-trial","8","199151","0.0-2.0-4.0-0.0","battery-v0.2","","""event"",""trial"",""time""
""fullscreenenter"",""1"",""11292""
""blur"",""2"",""69900""
""focus"",""2"",""72009""
","""event"",""trial"",""time""
""blur"",""2"",""69900""
","""event"",""trial"",""time""
""focus"",""2"",""72009""
","""event"",""trial"",""time""
""fullscreenenter"",""1"",""11292""
","
","","","709","","","11","3164","1851","&#9784;","elianto","#FFFFF080"," "," ","1","&#10004","[1561.000000000029]","1","0","0","","","","","","","",""
"pit-trial","9","202796","0.0-2.0-4.1-0.1","battery-v0.2","","""event"",""trial"",""time""
""fullscreenenter"",""1"",""11292""
""blur"",""2"",""69900""
""focus"",""2"",""72009""
","""event"",""trial"",""time""
""blur"",""2"",""69900""
","""event"",""trial"",""time""
""focus"",""2"",""72009""
","""event"",""trial"",""time""
""fullscreenenter"",""1"",""11292""
","
","","","787","","","11","3164","1851","&#9784;","elianto","#FFFFF080"," "," ","1","&#10004","[1637]","1","0","0","","","","","","","",""
"pit-trial","10","206066","0.0-2.0-4.2-0.2","battery-v0.2","","""event"",""trial"",""time""
""fullscreenenter"",""1"",""11292""
""blur"",""2"",""69900""
""focus"",""2"",""72009""
","""event"",""trial"",""time""
""blur"",""2"",""69900""
","""event"",""trial"",""time""
""focus"",""2"",""72009""
","""event"",""trial"",""time""
""fullscreenenter"",""1"",""11292""
","
","","","412","","","11","3164","1851","&#9784;","elianto","#FFFFF080"," "," ","1","&#10004","[1263]","1","0","0","","","","","","","",""
"pit-trial","11","209341","0.0-2.0-4.3-0.3","battery-v0.2","","""event"",""trial"",""time""
""fullscreenenter"",""1"",""11292""
""blur"",""2"",""69900""
""focus"",""2"",""72009""
","""event"",""trial"",""time""
""blur"",""2"",""69900""
","""event"",""trial"",""time""
""focus"",""2"",""72009""
","""event"",""trial"",""time""
""fullscreenenter"",""1"",""11292""
","
","","","419","","","11","3164","1851","&#9784;","elianto","#FFFFF080"," "," ","1","&#10004","[1269.999999999971]","1","0","0","","","","","","","",""
"pit-trial","12","213300","0.0-2.0-4.4-0.4","battery-v0.2","","""event"",""trial"",""time""
""fullscreenenter"",""1"",""11292""
""blur"",""2"",""69900""
""focus"",""2"",""72009""
","""event"",""trial"",""time""
""blur"",""2"",""69900""
","""event"",""trial"",""time""
""focus"",""2"",""72009""
","""event"",""trial"",""time""
""fullscreenenter"",""1"",""11292""
","
","","","1104","","","11","3164","1851","&#9784;","elianto","#FFFFF080"," "," ","1","&#10004","[1953.999999999971]","1","0","0","","","","","","","",""
"pit-instructions","13","236247","0.0-2.0-5.0","battery-v0.2","","""event"",""trial"",""time""
""fullscreenenter"",""1"",""11292""
""blur"",""2"",""69900""
""focus"",""2"",""72009""
","""event"",""trial"",""time""
""blur"",""2"",""69900""
","""event"",""trial"",""time""
""focus"",""2"",""72009""
","""event"",""trial"",""time""
""fullscreenenter"",""1"",""11292""
","
","","[{""page_index"":0,""viewing_time"":5359},{""page_index"":1,""viewing_time"":5042},{""page_index"":2,""viewing_time"":5404},{""page_index"":3,""viewing_time"":7138}]","22944.00000000003","","","","","","","","","","","","","","","","","","","","","","","",""
"pit-trial","14","241104","0.0-2.0-6.0-0.0","battery-v0.2","","""event"",""trial"",""time""
""fullscreenenter"",""1"",""11292""
""blur"",""2"",""69900""
""focus"",""2"",""72009""
","""event"",""trial"",""time""
""blur"",""2"",""69900""
","""event"",""trial"",""time""
""focus"",""2"",""72009""
","""event"",""trial"",""time""
""fullscreenenter"",""1"",""11292""
","
","","","-1","","","11","3164","1851","&#9854;","elianto","#FFFFF080","-1","-1","1","&#10004","[]","0","0","1","","","","","","","",""
"pit-trial","15","245966","0.0-2.0-6.1-0.1","battery-v0.2","","""event"",""trial"",""time""
""fullscreenenter"",""1"",""11292""
""blur"",""2"",""69900""
""focus"",""2"",""72009""
","""event"",""trial"",""time""
""blur"",""2"",""69900""
","""event"",""trial"",""time""
""focus"",""2"",""72009""
","""event"",""trial"",""time""
""fullscreenenter"",""1"",""11292""
","
","","","-1","","","11","3164","1851","&#9854;","elianto","#FFFFF080","-1","-1","1","&#10004","[]","0","0","1","","","","","","","",""
"pit-trial","16","250823","0.0-2.0-6.2-0.2","battery-v0.2","","""event"",""trial"",""time""
""fullscreenenter"",""1"",""11292""
""blur"",""2"",""69900""
""focus"",""2"",""72009""
","""event"",""trial"",""time""
""blur"",""2"",""69900""
","""event"",""trial"",""time""
""focus"",""2"",""72009""
","""event"",""trial"",""time""
""fullscreenenter"",""1"",""11292""
","
","","","-1","","","11","3164","1851","&#9854;","elianto","#FFFFF080","-1","-1","1","&#10004","[]","0","0","1","","","","","","","",""
"pit-trial","17","255681","0.0-2.0-6.3-0.3","battery-v0.2","","""event"",""trial"",""time""
""fullscreenenter"",""1"",""11292""
""blur"",""2"",""69900""
""focus"",""2"",""72009""
","""event"",""trial"",""time""
""blur"",""2"",""69900""
","""event"",""trial"",""time""
""focus"",""2"",""72009""
","""event"",""trial"",""time""
""fullscreenenter"",""1"",""11292""
","
","","","-1","","","11","3164","1851","&#9854;","elianto","#FFFFF080","-1","-1","1","&#10004","[]","0","0","1","","","","","","","",""
"pit-trial","18","260538","0.0-2.0-6.4-0.4","battery-v0.2","","""event"",""trial"",""time""
""fullscreenenter"",""1"",""11292""
""blur"",""2"",""69900""
""focus"",""2"",""72009""
","""event"",""trial"",""time""
""blur"",""2"",""69900""
","""event"",""trial"",""time""
""focus"",""2"",""72009""
","""event"",""trial"",""time""
""fullscreenenter"",""1"",""11292""
","
","","","-1","","","11","3164","1851","&#9854;","elianto","#FFFFF080","-1","-1","1","&#10004","[]","0","0","1","","","","","","","",""
"pit-instructions","19","383956","0.0-2.0-7.0","battery-v0.2","","""event"",""trial"",""time""
""fullscreenenter"",""1"",""11292""
""blur"",""2"",""69900""
""focus"",""2"",""72009""
","""event"",""trial"",""time""
""blur"",""2"",""69900""
","""event"",""trial"",""time""
""focus"",""2"",""72009""
","""event"",""trial"",""time""
""fullscreenenter"",""1"",""11292""
","
","","[{""page_index"":0,""viewing_time"":5473},{""page_index"":1,""viewing_time"":6633},{""page_index"":2,""viewing_time"":6488},{""page_index"":3,""viewing_time"":8066},{""page_index"":4,""viewing_time"":5676},{""page_index"":5,""viewing_time"":5388},{""page_index"":6,""viewing_time"":6905},{""page_index"":7,""viewing_time"":7618},{""page_index"":8,""viewing_time"":6919},{""page_index"":9,""viewing_time"":5603},{""page_index"":10,""viewing_time"":6079},{""page_index"":11,""viewing_time"":4200},{""page_index"":12,""viewing_time"":8258.000000000058},{""page_index"":13,""viewing_time"":7017},{""page_index"":14,""viewing_time"":6774.999999999942},{""page_index"":15,""viewing_time"":6905},{""page_index"":16,""viewing_time"":10697},{""page_index"":17,""viewing_time"":8691}]","123392","","","","","","","","","","","","","","","","","","","","","","","",""
"pit-trial","20","388820","0.0-2.0-8.0-0.0","battery-v0.2","","""event"",""trial"",""time""
""fullscreenenter"",""1"",""11292""
""blur"",""2"",""69900""
""focus"",""2"",""72009""
","""event"",""trial"",""time""
""blur"",""2"",""69900""
","""event"",""trial"",""time""
""focus"",""2"",""72009""
","""event"",""trial"",""time""
""fullscreenenter"",""1"",""11292""
","
","","","-1","","","11","3164","1851","&#9776;","elianto","#3366ff99"," ","-1","0","0","[]","0","0","1","","","","","","","",""
"pit-trial","21","392112","0.0-2.0-8.0-1.0","battery-v0.2","","""event"",""trial"",""time""
""fullscreenenter"",""1"",""11292""
""blur"",""2"",""69900""
""focus"",""2"",""72009""
","""event"",""trial"",""time""
""blur"",""2"",""69900""
","""event"",""trial"",""time""
""focus"",""2"",""72009""
","""event"",""trial"",""time""
""fullscreenenter"",""1"",""11292""
","
","","","432.0000000000582","","","11","3164","1851","&#9776;","elianto","#3366ff99"," "," ","1","+10","[1282]","1","0","1","","","","","","","",""
"pit-trial","22","395367","0.0-2.0-8.0-2.0","battery-v0.2","","""event"",""trial"",""time""
""fullscreenenter"",""1"",""11292""
""blur"",""2"",""69900""
""focus"",""2"",""72009""
","""event"",""trial"",""time""
""blur"",""2"",""69900""
","""event"",""trial"",""time""
""focus"",""2"",""72009""
","""event"",""trial"",""time""
""fullscreenenter"",""1"",""11292""
","
","","","394","","","11","3164","1851","&#9776;","elianto","#3366ff99"," "," ","1","+10","[1245]","1","0","1","","","","","","","",""
"pit-trial","23","398674","0.0-2.0-8.0-3.0","battery-v0.2","","""event"",""trial"",""time""
""fullscreenenter"",""1"",""11292""
""blur"",""2"",""69900""
""focus"",""2"",""72009""
","""event"",""trial"",""time""
""blur"",""2"",""69900""
","""event"",""trial"",""time""
""focus"",""2"",""72009""
","""event"",""trial"",""time""
""fullscreenenter"",""1"",""11292""
","
","","","447","","","11","3164","1851","&#9776;","elianto","#3366ff99"," "," ","1","0","[1298]","1","0","1","","","","","","","",""
"pit-trial","24","402031","0.0-2.0-8.0-4.0","battery-v0.2","","""event"",""trial"",""time""
""fullscreenenter"",""1"",""11292""
""blur"",""2"",""69900""
""focus"",""2"",""72009""
","""event"",""trial"",""time""
""blur"",""2"",""69900""
","""event"",""trial"",""time""
""focus"",""2"",""72009""
","""event"",""trial"",""time""
""fullscreenenter"",""1"",""11292""
","
","","","498","","","11","3164","1851","&#9776;","elianto","#3366ff99"," "," ","1","+10","[1349]","1","0","1","","","","","","","",""
"call-function","25","402036","0.0-2.0-9.0","battery-v0.2","","""event"",""trial"",""time""
""fullscreenenter"",""1"",""11292""
""blur"",""2"",""69900""
""focus"",""2"",""72009""
","""event"",""trial"",""time""
""blur"",""2"",""69900""
","""event"",""trial"",""time""
""focus"",""2"",""72009""
","""event"",""trial"",""time""
""fullscreenenter"",""1"",""11292""
","
","","","","","","","","","","","","","","","","","","","","","","","","","","",""
"pit-instructions","26","441679","0.0-2.0-10.0","battery-v0.2","","""event"",""trial"",""time""
""fullscreenenter"",""1"",""11292""
""blur"",""2"",""69900""
""focus"",""2"",""72009""
","""event"",""trial"",""time""
""blur"",""2"",""69900""
","""event"",""trial"",""time""
""focus"",""2"",""72009""
","""event"",""trial"",""time""
""fullscreenenter"",""1"",""11292""
","
","","[{""page_index"":0,""viewing_time"":5749},{""page_index"":1,""viewing_time"":6864},{""page_index"":2,""viewing_time"":9201},{""page_index"":3,""viewing_time"":8674},{""page_index"":4,""viewing_time"":9148}]","39637","","","","","","","","","","","","","","","","","","","","","","","",""
"pit-trial","27","444804","0.0-2.0-11.0-0.0","battery-v0.2","","""event"",""trial"",""time""
""fullscreenenter"",""1"",""11292""
""blur"",""2"",""69900""
""focus"",""2"",""72009""
","""event"",""trial"",""time""
""blur"",""2"",""69900""
","""event"",""trial"",""time""
""focus"",""2"",""72009""
","""event"",""trial"",""time""
""fullscreenenter"",""1"",""11292""
","
","","","267.0000000000582","","","11","3164","1851","&#9761;","elianto","#3366ff99","-1"," ","0","0","[1118.0000000000582]","1","0","2","","","","","","","",""
"pit-trial","28","447796","0.0-2.0-11.0-1.0","battery-v0.2","","""event"",""trial"",""time""
""fullscreenenter"",""1"",""11292""
""blur"",""2"",""69900""
""focus"",""2"",""72009""
","""event"",""trial"",""time""
""blur"",""2"",""69900""
","""event"",""trial"",""time""
""focus"",""2"",""72009""
","""event"",""trial"",""time""
""fullscreenenter"",""1"",""11292""
","
","","","135","","","11","3164","1851","&#9761;","elianto","#3366ff99","-1"," ","0","0","[986]","1","0","2","","","","","","","",""
"pit-trial","29","452653","0.0-2.0-11.0-2.0","battery-v0.2","","""event"",""trial"",""time""
""fullscreenenter"",""1"",""11292""
""blur"",""2"",""69900""
""focus"",""2"",""72009""
","""event"",""trial"",""time""
""blur"",""2"",""69900""
","""event"",""trial"",""time""
""focus"",""2"",""72009""
","""event"",""trial"",""time""
""fullscreenenter"",""1"",""11292""
","
","","","-1","","","11","3164","1851","&#9761;","elianto","#3366ff99","-1","-1","1","+10","[]","0","0","2","","","","","","","",""
"pit-trial","30","455705","0.0-2.0-11.0-3.0","battery-v0.2","","""event"",""trial"",""time""
""fullscreenenter"",""1"",""11292""
""blur"",""2"",""69900""
""focus"",""2"",""72009""
","""event"",""trial"",""time""
""blur"",""2"",""69900""
","""event"",""trial"",""time""
""focus"",""2"",""72009""
","""event"",""trial"",""time""
""fullscreenenter"",""1"",""11292""
","
","","","196","","","11","3164","1851","&#9761;","elianto","#3366ff99","-1"," ","0","+10","[1046]","1","0","2","","","","","","","",""
"pit-trial","31","458769","0.0-2.0-11.0-4.0","battery-v0.2","","""event"",""trial"",""time""
""fullscreenenter"",""1"",""11292""
""blur"",""2"",""69900""
""focus"",""2"",""72009""
","""event"",""trial"",""time""
""blur"",""2"",""69900""
","""event"",""trial"",""time""
""focus"",""2"",""72009""
","""event"",""trial"",""time""
""fullscreenenter"",""1"",""11292""
","
","","","208","","","11","3164","1851","&#9761;","elianto","#3366ff99","-1"," ","0","0","[1058]","1","0","2","","","","","","","",""
"pit-trial","32","461802","0.0-2.0-11.1-0.1","battery-v0.2","","""event"",""trial"",""time""
""fullscreenenter"",""1"",""11292""
""blur"",""2"",""69900""
""focus"",""2"",""72009""
","""event"",""trial"",""time""
""blur"",""2"",""69900""
","""event"",""trial"",""time""
""focus"",""2"",""72009""
","""event"",""trial"",""time""
""fullscreenenter"",""1"",""11292""
","
","","","175","","","11","3164","1851","&#9761;","elianto","#3366ff99","-1"," ","0","0","[1025]","1","0","2","","","","","","","",""
"pit-trial","33","464800","0.0-2.0-11.1-1.1","battery-v0.2","","""event"",""trial"",""time""
""fullscreenenter"",""1"",""11292""
""blur"",""2"",""69900""
""focus"",""2"",""72009""
","""event"",""trial"",""time""
""blur"",""2"",""69900""
","""event"",""trial"",""time""
""focus"",""2"",""72009""
","""event"",""trial"",""time""
""fullscreenenter"",""1"",""11292""
","
","","","141","","","11","3164","1851","&#9761;","elianto","#3366ff99","-1"," ","0","0","[990.9999999999418]","1","0","2","","","","","","","",""
"pit-trial","34","467777","0.0-2.0-11.1-2.1","battery-v0.2","","""event"",""trial"",""time""
""fullscreenenter"",""1"",""11292""
""blur"",""2"",""69900""
""focus"",""2"",""72009""
","""event"",""trial"",""time""
""blur"",""2"",""69900""
","""event"",""trial"",""time""
""focus"",""2"",""72009""
","""event"",""trial"",""time""
""fullscreenenter"",""1"",""11292""
","
","","","120","","","11","3164","1851","&#9761;","elianto","#3366ff99","-1"," ","0","0","[971]","1","0","2","","","","","","","",""
"pit-trial","35","470997","0.0-2.0-11.1-3.1","battery-v0.2","","""event"",""trial"",""time""
""fullscreenenter"",""1"",""11292""
""blur"",""2"",""69900""
""focus"",""2"",""72009""
","""event"",""trial"",""time""
""blur"",""2"",""69900""
","""event"",""trial"",""time""
""focus"",""2"",""72009""
","""event"",""trial"",""time""
""fullscreenenter"",""1"",""11292""
","
","","","363","","","11","3164","1851","&#9761;","elianto","#3366ff99","-1"," ","0","+10","[1213]","1","0","2","","","","","","","",""
"pit-trial","36","475238","0.0-2.0-11.1-4.1","battery-v0.2","","""event"",""trial"",""time""
""fullscreenenter"",""1"",""11292""
""blur"",""2"",""69900""
""focus"",""2"",""72009""
","""event"",""trial"",""time""
""blur"",""2"",""69900""
","""event"",""trial"",""time""
""focus"",""2"",""72009""
","""event"",""trial"",""time""
""fullscreenenter"",""1"",""11292""
","
","","","1385","","","11","3164","1851","&#9761;","elianto","#3366ff99","-1"," ","0","0","[2235]","1","0","2","","","","","","","",""
"pit-trial","37","480096","0.0-2.0-11.2-0.2","battery-v0.2","","""event"",""trial"",""time""
""fullscreenenter"",""1"",""11292""
""blur"",""2"",""69900""
""focus"",""2"",""72009""
","""event"",""trial"",""time""
""blur"",""2"",""69900""
","""event"",""trial"",""time""
""focus"",""2"",""72009""
","""event"",""trial"",""time""
""fullscreenenter"",""1"",""11292""
","
","","","-1","","","11","3164","1851","&#9761;","elianto","#3366ff99","-1","-1","1","+10","[]","0","0","2","","","","","","","",""
"pit-trial","38","484956","0.0-2.0-11.2-1.2","battery-v0.2","","""event"",""trial"",""time""
""fullscreenenter"",""1"",""11292""
""blur"",""2"",""69900""
""focus"",""2"",""72009""
","""event"",""trial"",""time""
""blur"",""2"",""69900""
","""event"",""trial"",""time""
""focus"",""2"",""72009""
","""event"",""trial"",""time""
""fullscreenenter"",""1"",""11292""
","
","","","-1","","","11","3164","1851","&#9761;","elianto","#3366ff99","-1","-1","1","+10","[]","0","0","2","","","","","","","",""
"pit-trial","39","488312","0.0-2.0-11.2-2.2","battery-v0.2","","""event"",""trial"",""time""
""fullscreenenter"",""1"",""11292""
""blur"",""2"",""69900""
""focus"",""2"",""72009""
","""event"",""trial"",""time""
""blur"",""2"",""69900""
","""event"",""trial"",""time""
""focus"",""2"",""72009""
","""event"",""trial"",""time""
""fullscreenenter"",""1"",""11292""
","
","","","499","","","11","3164","1851","&#9761;","elianto","#3366ff99","-1"," ","0","0","[1350]","1","0","2","","","","","","","",""
"pit-trial","40","491284","0.0-2.0-11.2-3.2","battery-v0.2","","""event"",""trial"",""time""
""fullscreenenter"",""1"",""11292""
""blur"",""2"",""69900""
""focus"",""2"",""72009""
","""event"",""trial"",""time""
""blur"",""2"",""69900""
","""event"",""trial"",""time""
""focus"",""2"",""72009""
","""event"",""trial"",""time""
""fullscreenenter"",""1"",""11292""
","
","","","114.00000000005821","","","11","3164","1851","&#9761;","elianto","#3366ff99","-1"," ","0","+10","[965.0000000000582]","1","0","2","","","","","","","",""
"pit-trial","41","494252","0.0-2.0-11.2-4.2","battery-v0.2","","""event"",""trial"",""time""
""fullscreenenter"",""1"",""11292""
""blur"",""2"",""69900""
""focus"",""2"",""72009""
","""event"",""trial"",""time""
""blur"",""2"",""69900""
","""event"",""trial"",""time""
""focus"",""2"",""72009""
","""event"",""trial"",""time""
""fullscreenenter"",""1"",""11292""
","
","","","112","","","11","3164","1851","&#9761;","elianto","#3366ff99","-1"," ","0","0","[961.9999999999418]","1","0","2","","","","","","","",""
"pit-trial","42","497225","0.0-2.0-11.3-0.3","battery-v0.2","","""event"",""trial"",""time""
""fullscreenenter"",""1"",""11292""
""blur"",""2"",""69900""
""focus"",""2"",""72009""
","""event"",""trial"",""time""
""blur"",""2"",""69900""
","""event"",""trial"",""time""
""focus"",""2"",""72009""
","""event"",""trial"",""time""
""fullscreenenter"",""1"",""11292""
","
","","","116.00000000005821","","","11","3164","1851","&#9761;","elianto","#3366ff99","-1"," ","0","0","[966]","1","0","2","","","","","","","",""
"pit-trial","43","500222","0.0-2.0-11.3-1.3","battery-v0.2","","""event"",""trial"",""time""
""fullscreenenter"",""1"",""11292""
""blur"",""2"",""69900""
""focus"",""2"",""72009""
","""event"",""trial"",""time""
""blur"",""2"",""69900""
","""event"",""trial"",""time""
""focus"",""2"",""72009""
","""event"",""trial"",""time""
""fullscreenenter"",""1"",""11292""
","
","","","139","","","11","3164","1851","&#9761;","elianto","#3366ff99","-1"," ","0","0","[990]","1","0","2","","","","","","","",""
"pit-trial","44","503698","0.0-2.0-11.3-2.3","battery-v0.2","","""event"",""trial"",""time""
""fullscreenenter"",""1"",""11292""
""blur"",""2"",""69900""
""focus"",""2"",""72009""
","""event"",""trial"",""time""
""blur"",""2"",""69900""
","""event"",""trial"",""time""
""focus"",""2"",""72009""
","""event"",""trial"",""time""
""fullscreenenter"",""1"",""11292""
","
","","","619","","","11","3164","1851","&#9761;","elianto","#3366ff99","-1"," ","0","0","[1470]","1","0","2","","","","","","","",""
"pit-trial","45","508531","0.0-2.0-11.3-3.3","battery-v0.2","","""event"",""trial"",""time""
""fullscreenenter"",""1"",""11292""
""blur"",""2"",""69900""
""focus"",""2"",""72009""
","""event"",""trial"",""time""
""blur"",""2"",""69900""
","""event"",""trial"",""time""
""focus"",""2"",""72009""
","""event"",""trial"",""time""
""fullscreenenter"",""1"",""11292""
","
","","","1975","","","11","3164","1851","&#9761;","elianto","#3366ff99","-1"," ","0","+10","[2827]","1","0","2","","","","","","","",""
"pit-trial","46","511984","0.0-2.0-11.3-4.3","battery-v0.2","","""event"",""trial"",""time""
""fullscreenenter"",""1"",""11292""
""blur"",""2"",""69900""
""focus"",""2"",""72009""
","""event"",""trial"",""time""
""blur"",""2"",""69900""
","""event"",""trial"",""time""
""focus"",""2"",""72009""
","""event"",""trial"",""time""
""fullscreenenter"",""1"",""11292""
","
","","","596","","","11","3164","1851","&#9761;","elianto","#3366ff99","-1"," ","0","0","[1447]","1","0","2","","","","","","","",""
"pit-trial","47","516840","0.0-2.0-11.4-0.4","battery-v0.2","","""event"",""trial"",""time""
""fullscreenenter"",""1"",""11292""
""blur"",""2"",""69900""
""focus"",""2"",""72009""
","""event"",""trial"",""time""
""blur"",""2"",""69900""
","""event"",""trial"",""time""
""focus"",""2"",""72009""
","""event"",""trial"",""time""
""fullscreenenter"",""1"",""11292""
","
","","","-1","","","11","3164","1851","&#9761;","elianto","#3366ff99","-1","-1","1","+10","[]","0","0","2","","","","","","","",""
"pit-trial","48","520419","0.0-2.0-11.4-1.4","battery-v0.2","","""event"",""trial"",""time""
""fullscreenenter"",""1"",""11292""
""blur"",""2"",""69900""
""focus"",""2"",""72009""
","""event"",""trial"",""time""
""blur"",""2"",""69900""
","""event"",""trial"",""time""
""focus"",""2"",""72009""
","""event"",""trial"",""time""
""fullscreenenter"",""1"",""11292""
","
","","","722.0000000001164","","","11","3164","1851","&#9761;","elianto","#3366ff99","-1"," ","0","0","[1572]","1","0","2","","","","","","","",""
"pit-trial","49","525276","0.0-2.0-11.4-2.4","battery-v0.2","","""event"",""trial"",""time""
""fullscreenenter"",""1"",""11292""
""blur"",""2"",""69900""
""focus"",""2"",""72009""
","""event"",""trial"",""time""
""blur"",""2"",""69900""
","""event"",""trial"",""time""
""focus"",""2"",""72009""
","""event"",""trial"",""time""
""fullscreenenter"",""1"",""11292""
","
","","","-1","","","11","3164","1851","&#9761;","elianto","#3366ff99","-1","-1","1","+10","[]","0","0","2","","","","","","","",""
"pit-trial","50","530133","0.0-2.0-11.4-3.4","battery-v0.2","","""event"",""trial"",""time""
""fullscreenenter"",""1"",""11292""
""blur"",""2"",""69900""
""focus"",""2"",""72009""
","""event"",""trial"",""time""
""blur"",""2"",""69900""
","""event"",""trial"",""time""
""focus"",""2"",""72009""
","""event"",""trial"",""time""
""fullscreenenter"",""1"",""11292""
","
","","","-1","","","11","3164","1851","&#9761;","elianto","#3366ff99","-1","-1","1","0","[]","0","0","2","","","","","","","",""
"pit-trial","51","533286","0.0-2.0-11.4-4.4","battery-v0.2","","""event"",""trial"",""time""
""fullscreenenter"",""1"",""11292""
""blur"",""2"",""69900""
""focus"",""2"",""72009""
","""event"",""trial"",""time""
""blur"",""2"",""69900""
","""event"",""trial"",""time""
""focus"",""2"",""72009""
","""event"",""trial"",""time""
""fullscreenenter"",""1"",""11292""
","
","","","297","","","11","3164","1851","&#9761;","elianto","#3366ff99","-1"," ","0","0","[1147.9999999998836]","1","0","2","","","","","","","",""
"pit-instructions","52","642958","0.0-2.0-11.4-5.4-0.4","battery-v0.2","","""event"",""trial"",""time""
""fullscreenenter"",""1"",""11292""
""blur"",""2"",""69900""
""focus"",""2"",""72009""
","""event"",""trial"",""time""
""blur"",""2"",""69900""
","""event"",""trial"",""time""
""focus"",""2"",""72009""
","""event"",""trial"",""time""
""fullscreenenter"",""1"",""11292""
","
","","[{""page_index"":0,""viewing_time"":13070},{""page_index"":1,""viewing_time"":6251},{""page_index"":2,""viewing_time"":52475},{""page_index"":1,""viewing_time"":16934},{""page_index"":0,""viewing_time"":6319},{""page_index"":1,""viewing_time"":5596.000000000116},{""page_index"":2,""viewing_time"":9026.999999999884}]","109673","","","","","","","","","","","","","","","","","","","","","","","",""
"pit-trial","53","647816","0.0-2.0-11.5-0.5","battery-v0.2","","""event"",""trial"",""time""
""fullscreenenter"",""1"",""11292""
""blur"",""2"",""69900""
""focus"",""2"",""72009""
","""event"",""trial"",""time""
""blur"",""2"",""69900""
","""event"",""trial"",""time""
""focus"",""2"",""72009""
","""event"",""trial"",""time""
""fullscreenenter"",""1"",""11292""
","
","","","-1","","","11","3164","1851","&#9761;","elianto","#3366ff99","-1","-1","1","+10","[]","0","0","2","","","","","","","",""
"pit-trial","54","652673","0.0-2.0-11.5-1.5","battery-v0.2","","""event"",""trial"",""time""
""fullscreenenter"",""1"",""11292""
""blur"",""2"",""69900""
""focus"",""2"",""72009""
","""event"",""trial"",""time""
""blur"",""2"",""69900""
","""event"",""trial"",""time""
""focus"",""2"",""72009""
","""event"",""trial"",""time""
""fullscreenenter"",""1"",""11292""
","
","","","-1","","","11","3164","1851","&#9761;","elianto","#3366ff99","-1","-1","1","+10","[]","0","0","2","","","","","","","",""
"pit-trial","55","657530","0.0-2.0-11.5-2.5","battery-v0.2","","""event"",""trial"",""time""
""fullscreenenter"",""1"",""11292""
""blur"",""2"",""69900""
""focus"",""2"",""72009""
","""event"",""trial"",""time""
""blur"",""2"",""69900""
","""event"",""trial"",""time""
""focus"",""2"",""72009""
","""event"",""trial"",""time""
""fullscreenenter"",""1"",""11292""
","
","","","-1","","","11","3164","1851","&#9761;","elianto","#3366ff99","-1","-1","1","+10","[]","0","0","2","","","","","","","",""
"pit-trial","56","662388","0.0-2.0-11.5-3.5","battery-v0.2","","""event"",""trial"",""time""
""fullscreenenter"",""1"",""11292""
""blur"",""2"",""69900""
""focus"",""2"",""72009""
","""event"",""trial"",""time""
""blur"",""2"",""69900""
","""event"",""trial"",""time""
""focus"",""2"",""72009""
","""event"",""trial"",""time""
""fullscreenenter"",""1"",""11292""
","
","","","-1","","","11","3164","1851","&#9761;","elianto","#3366ff99","-1","-1","1","0","[]","0","0","2","","","","","","","",""
"pit-trial","57","666132","0.0-2.0-11.5-4.5","battery-v0.2","","""event"",""trial"",""time""
""fullscreenenter"",""1"",""11292""
""blur"",""2"",""69900""
""focus"",""2"",""72009""
","""event"",""trial"",""time""
""blur"",""2"",""69900""
","""event"",""trial"",""time""
""focus"",""2"",""72009""
","""event"",""trial"",""time""
""fullscreenenter"",""1"",""11292""
","
","","","889","","","11","3164","1851","&#9761;","elianto","#3366ff99","-1"," ","0","0","[1739]","1","0","2","","","","","","","",""
"pit-trial","58","670759","0.0-2.0-11.6-0.6","battery-v0.2","","""event"",""trial"",""time""
""fullscreenenter"",""1"",""11292""
""blur"",""2"",""69900""
""focus"",""2"",""72009""
","""event"",""trial"",""time""
""blur"",""2"",""69900""
","""event"",""trial"",""time""
""focus"",""2"",""72009""
","""event"",""trial"",""time""
""fullscreenenter"",""1"",""11292""
","
","","","1770","","","11","3164","1851","&#9761;","elianto","#3366ff99","-1"," ","0","0","[2620]","1","0","2","","","","","","","",""
"pit-trial","59","675074","0.0-2.0-11.6-1.6","battery-v0.2","","""event"",""trial"",""time""
""fullscreenenter"",""1"",""11292""
""blur"",""2"",""69900""
""focus"",""2"",""72009""
","""event"",""trial"",""time""
""blur"",""2"",""69900""
","""event"",""trial"",""time""
""focus"",""2"",""72009""
","""event"",""trial"",""time""
""fullscreenenter"",""1"",""11292""
","
","","","1459.0000000001164","","","11","3164","1851","&#9761;","elianto","#3366ff99","-1"," ","0","0","[2309,2647]","2","0","2","","","","","","","",""
"pit-trial","60","679932","0.0-2.0-11.6-2.6","battery-v0.2","","""event"",""trial"",""time""
""fullscreenenter"",""1"",""11292""
""blur"",""2"",""69900""
""focus"",""2"",""72009""
","""event"",""trial"",""time""
""blur"",""2"",""69900""
","""event"",""trial"",""time""
""focus"",""2"",""72009""
","""event"",""trial"",""time""
""fullscreenenter"",""1"",""11292""
","
","","","-1","","","11","3164","1851","&#9761;","elianto","#3366ff99","-1","-1","1","+10","[]","0","0","2","","","","","","","",""
"pit-trial","61","684789","0.0-2.0-11.6-3.6","battery-v0.2","","""event"",""trial"",""time""
""fullscreenenter"",""1"",""11292""
""blur"",""2"",""69900""
""focus"",""2"",""72009""
","""event"",""trial"",""time""
""blur"",""2"",""69900""
","""event"",""trial"",""time""
""focus"",""2"",""72009""
","""event"",""trial"",""time""
""fullscreenenter"",""1"",""11292""
","
","","","-1","","","11","3164","1851","&#9761;","elianto","#3366ff99","-1","-1","1","0","[]","0","0","2","","","","","","","",""
"pit-trial","62","689433","0.0-2.0-11.6-4.6","battery-v0.2","","""event"",""trial"",""time""
""fullscreenenter"",""1"",""11292""
""blur"",""2"",""69900""
""focus"",""2"",""72009""
","""event"",""trial"",""time""
""blur"",""2"",""69900""
","""event"",""trial"",""time""
""focus"",""2"",""72009""
","""event"",""trial"",""time""
""fullscreenenter"",""1"",""11292""
","
","","","1788","","","11","3164","1851","&#9761;","elianto","#3366ff99","-1"," ","0","0","[2639]","1","0","2","","","","","","","",""
"pit-trial","63","694291","0.0-2.0-11.7-0.7","battery-v0.2","","""event"",""trial"",""time""
""fullscreenenter"",""1"",""11292""
""blur"",""2"",""69900""
""focus"",""2"",""72009""
","""event"",""trial"",""time""
""blur"",""2"",""69900""
","""event"",""trial"",""time""
""focus"",""2"",""72009""
","""event"",""trial"",""time""
""fullscreenenter"",""1"",""11292""
","
","","","-1","","","11","3164","1851","&#9761;","elianto","#3366ff99","-1","-1","1","+10","[]","0","0","2","","","","","","","",""
"pit-trial","64","699148","0.0-2.0-11.7-1.7","battery-v0.2","","""event"",""trial"",""time""
""fullscreenenter"",""1"",""11292""
""blur"",""2"",""69900""
""focus"",""2"",""72009""
","""event"",""trial"",""time""
""blur"",""2"",""69900""
","""event"",""trial"",""time""
""focus"",""2"",""72009""
","""event"",""trial"",""time""
""fullscreenenter"",""1"",""11292""
","
","","","-1","","","11","3164","1851","&#9761;","elianto","#3366ff99","-1","-1","1","+10","[]","0","0","2","","","","","","","",""
"pit-trial","65","704005","0.0-2.0-11.7-2.7","battery-v0.2","","""event"",""trial"",""time""
""fullscreenenter"",""1"",""11292""
""blur"",""2"",""69900""
""focus"",""2"",""72009""
","""event"",""trial"",""time""
""blur"",""2"",""69900""
","""event"",""trial"",""time""
""focus"",""2"",""72009""
","""event"",""trial"",""time""
""fullscreenenter"",""1"",""11292""
","
","","","-1","","","11","3164","1851","&#9761;","elianto","#3366ff99","-1","-1","1","+10","[]","0","0","2","","","","","","","",""
"pit-trial","66","708861","0.0-2.0-11.7-3.7","battery-v0.2","","""event"",""trial"",""time""
""fullscreenenter"",""1"",""11292""
""blur"",""2"",""69900""
""focus"",""2"",""72009""
","""event"",""trial"",""time""
""blur"",""2"",""69900""
","""event"",""trial"",""time""
""focus"",""2"",""72009""
","""event"",""trial"",""time""
""fullscreenenter"",""1"",""11292""
","
","","","-1","","","11","3164","1851","&#9761;","elianto","#3366ff99","-1","-1","1","0","[]","0","0","2","","","","","","","",""
"pit-trial","67","713718","0.0-2.0-11.7-4.7","battery-v0.2","","""event"",""trial"",""time""
""fullscreenenter"",""1"",""11292""
""blur"",""2"",""69900""
""focus"",""2"",""72009""
","""event"",""trial"",""time""
""blur"",""2"",""69900""
","""event"",""trial"",""time""
""focus"",""2"",""72009""
","""event"",""trial"",""time""
""fullscreenenter"",""1"",""11292""
","
","","","-1","","","11","3164","1851","&#9761;","elianto","#3366ff99","-1","-1","1","+10","[3572]","1","0","2","","","","","","","",""
"call-function","68","713722","0.0-2.0-12.0","battery-v0.2","","""event"",""trial"",""time""
""fullscreenenter"",""1"",""11292""
""blur"",""2"",""69900""
""focus"",""2"",""72009""
","""event"",""trial"",""time""
""blur"",""2"",""69900""
","""event"",""trial"",""time""
""focus"",""2"",""72009""
","""event"",""trial"",""time""
""fullscreenenter"",""1"",""11292""
","
","","","","","","","","","","","","","","","","","","","","","","","","","","",""
"pit-instructions","69","759235","0.0-2.0-13.0","battery-v0.2","","""event"",""trial"",""time""
""fullscreenenter"",""1"",""11292""
""blur"",""2"",""69900""
""focus"",""2"",""72009""
","""event"",""trial"",""time""
""blur"",""2"",""69900""
","""event"",""trial"",""time""
""focus"",""2"",""72009""
","""event"",""trial"",""time""
""fullscreenenter"",""1"",""11292""
","
","","[{""page_index"":0,""viewing_time"":5718},{""page_index"":1,""viewing_time"":10154},{""page_index"":2,""viewing_time"":6133},{""page_index"":3,""viewing_time"":18915},{""page_index"":4,""viewing_time"":4595}]","45515","","","","","","","","","","","","","","","","","","","","","","","",""
"pit-trial","70","762595","0.0-2.0-14.0-0.0","battery-v0.2","","""event"",""trial"",""time""
""fullscreenenter"",""1"",""11292""
""blur"",""2"",""69900""
""focus"",""2"",""72009""
","""event"",""trial"",""time""
""blur"",""2"",""69900""
","""event"",""trial"",""time""
""focus"",""2"",""72009""
","""event"",""trial"",""time""
""fullscreenenter"",""1"",""11292""
","
","","","503.0000000001164","","","11","3164","1851","&#9826;","elianto","#f73b6a7A","-1"," ","0","-10","[1354.0000000001164]","1","0","3","","","","","","","",""
"pit-trial","71","765685","0.0-2.0-14.0-1.0","battery-v0.2","","""event"",""trial"",""time""
""fullscreenenter"",""1"",""11292""
""blur"",""2"",""69900""
""focus"",""2"",""72009""
","""event"",""trial"",""time""
""blur"",""2"",""69900""
","""event"",""trial"",""time""
""focus"",""2"",""72009""
","""event"",""trial"",""time""
""fullscreenenter"",""1"",""11292""
","
","","","234","","","11","3164","1851","&#9826;","elianto","#f73b6a7A","-1"," ","0","-10","[1085]","1","0","3","","","","","","","",""
"pit-trial","72","768770","0.0-2.0-14.0-2.0","battery-v0.2","","""event"",""trial"",""time""
""fullscreenenter"",""1"",""11292""
""blur"",""2"",""69900""
""focus"",""2"",""72009""
","""event"",""trial"",""time""
""blur"",""2"",""69900""
","""event"",""trial"",""time""
""focus"",""2"",""72009""
","""event"",""trial"",""time""
""fullscreenenter"",""1"",""11292""
","
","","","228.99999999988358","","","11","3164","1851","&#9826;","elianto","#f73b6a7A","-1"," ","0","-10","[1079]","1","0","3","","","","","","","",""
"pit-trial","73","773626","0.0-2.0-14.0-3.0","battery-v0.2","","""event"",""trial"",""time""
""fullscreenenter"",""1"",""11292""
""blur"",""2"",""69900""
""focus"",""2"",""72009""
","""event"",""trial"",""time""
""blur"",""2"",""69900""
","""event"",""trial"",""time""
""focus"",""2"",""72009""
","""event"",""trial"",""time""
""fullscreenenter"",""1"",""11292""
","
","","","-1","","","11","3164","1851","&#9826;","elianto","#f73b6a7A","-1","-1","1","-10","[]","0","0","3","","","","","","","",""
"pit-trial","74","778484","0.0-2.0-14.0-4.0","battery-v0.2","","""event"",""trial"",""time""
""fullscreenenter"",""1"",""11292""
""blur"",""2"",""69900""
""focus"",""2"",""72009""
","""event"",""trial"",""time""
""blur"",""2"",""69900""
","""event"",""trial"",""time""
""focus"",""2"",""72009""
","""event"",""trial"",""time""
""fullscreenenter"",""1"",""11292""
","
","","","-1","","","11","3164","1851","&#9826;","elianto","#f73b6a7A","-1","-1","1","0","[]","0","0","3","","","","","","","",""
"pit-trial","75","783342","0.0-2.0-14.1-0.1","battery-v0.2","","""event"",""trial"",""time""
""fullscreenenter"",""1"",""11292""
""blur"",""2"",""69900""
""focus"",""2"",""72009""
","""event"",""trial"",""time""
""blur"",""2"",""69900""
","""event"",""trial"",""time""
""focus"",""2"",""72009""
","""event"",""trial"",""time""
""fullscreenenter"",""1"",""11292""
","
","","","-1","","","11","3164","1851","&#9826;","elianto","#f73b6a7A","-1","-1","1","0","[]","0","0","3","","","","","","","",""
"pit-trial","76","788199","0.0-2.0-14.1-1.1","battery-v0.2","","""event"",""trial"",""time""
""fullscreenenter"",""1"",""11292""
""blur"",""2"",""69900""
""focus"",""2"",""72009""
","""event"",""trial"",""time""
""blur"",""2"",""69900""
","""event"",""trial"",""time""
""focus"",""2"",""72009""
","""event"",""trial"",""time""
""fullscreenenter"",""1"",""11292""
","
","","","-1","","","11","3164","1851","&#9826;","elianto","#f73b6a7A","-1","-1","1","0","[]","0","0","3","","","","","","","",""
"pit-trial","77","793056","0.0-2.0-14.1-2.1","battery-v0.2","","""event"",""trial"",""time""
""fullscreenenter"",""1"",""11292""
""blur"",""2"",""69900""
""focus"",""2"",""72009""
","""event"",""trial"",""time""
""blur"",""2"",""69900""
","""event"",""trial"",""time""
""focus"",""2"",""72009""
","""event"",""trial"",""time""
""fullscreenenter"",""1"",""11292""
","
","","","-1","","","11","3164","1851","&#9826;","elianto","#f73b6a7A","-1","-1","1","0","[]","0","0","3","","","","","","","",""
"pit-trial","78","797912","0.0-2.0-14.1-3.1","battery-v0.2","","""event"",""trial"",""time""
""fullscreenenter"",""1"",""11292""
""blur"",""2"",""69900""
""focus"",""2"",""72009""
","""event"",""trial"",""time""
""blur"",""2"",""69900""
","""event"",""trial"",""time""
""focus"",""2"",""72009""
","""event"",""trial"",""time""
""fullscreenenter"",""1"",""11292""
","
","","","-1","","","11","3164","1851","&#9826;","elianto","#f73b6a7A","-1","-1","1","-10","[]","0","0","3","","","","","","","",""
"pit-trial","79","802769","0.0-2.0-14.1-4.1","battery-v0.2","","""event"",""trial"",""time""
""fullscreenenter"",""1"",""11292""
""blur"",""2"",""69900""
""focus"",""2"",""72009""
","""event"",""trial"",""time""
""blur"",""2"",""69900""
","""event"",""trial"",""time""
""focus"",""2"",""72009""
","""event"",""trial"",""time""
""fullscreenenter"",""1"",""11292""
","
","","","-1","","","11","3164","1851","&#9826;","elianto","#f73b6a7A","-1","-1","1","0","[]","0","0","3","","","","","","","",""
"call-function","80","802772","0.0-2.0-15.0","battery-v0.2","","""event"",""trial"",""time""
""fullscreenenter"",""1"",""11292""
""blur"",""2"",""69900""
""focus"",""2"",""72009""
","""event"",""trial"",""time""
""blur"",""2"",""69900""
","""event"",""trial"",""time""
""focus"",""2"",""72009""
","""event"",""trial"",""time""
""fullscreenenter"",""1"",""11292""
","
","","","","","","","","","","","","","","","","","","","","","","","","","","",""
"pit-instructions","81","831123","0.0-2.0-16.0","battery-v0.2","","""event"",""trial"",""time""
""fullscreenenter"",""1"",""11292""
""blur"",""2"",""69900""
""focus"",""2"",""72009""
","""event"",""trial"",""time""
""blur"",""2"",""69900""
","""event"",""trial"",""time""
""focus"",""2"",""72009""
","""event"",""trial"",""time""
""fullscreenenter"",""1"",""11292""
","
","","[{""page_index"":0,""viewing_time"":8982},{""page_index"":1,""viewing_time"":8331.000000000116},{""page_index"":2,""viewing_time"":5262.999999999884},{""page_index"":3,""viewing_time"":5774}]","28351","","","","","","","","","","","","","","","","","","","","","","","",""
"pit-trial","82","835596","0.0-2.0-17.0-0.0","battery-v0.2","","""event"",""trial"",""time""
""fullscreenenter"",""1"",""11292""
""blur"",""2"",""69900""
""focus"",""2"",""72009""
","""event"",""trial"",""time""
""blur"",""2"",""69900""
","""event"",""trial"",""time""
""focus"",""2"",""72009""
","""event"",""trial"",""time""
""fullscreenenter"",""1"",""11292""
","
","","","1616","","","11","3164","1851","&#9789;","elianto","#f73b6a7A"," "," ","1","0","[2467]","1","0","4","","","","","","","",""
"pit-trial","83","839010","0.0-2.0-17.0-1.0","battery-v0.2","","""event"",""trial"",""time""
""fullscreenenter"",""1"",""11292""
""blur"",""2"",""69900""
""focus"",""2"",""72009""
","""event"",""trial"",""time""
""blur"",""2"",""69900""
","""event"",""trial"",""time""
""focus"",""2"",""72009""
","""event"",""trial"",""time""
""fullscreenenter"",""1"",""11292""
","
","","","556","","","11","3164","1851","&#9789;","elianto","#f73b6a7A"," "," ","1","0","[1408]","1","0","4","","","","","","","",""
"pit-trial","84","842066","0.0-2.0-17.0-2.0","battery-v0.2","","""event"",""trial"",""time""
""fullscreenenter"",""1"",""11292""
""blur"",""2"",""69900""
""focus"",""2"",""72009""
","""event"",""trial"",""time""
""blur"",""2"",""69900""
","""event"",""trial"",""time""
""focus"",""2"",""72009""
","""event"",""trial"",""time""
""fullscreenenter"",""1"",""11292""
","
","","","200","","","11","3164","1851","&#9789;","elianto","#f73b6a7A"," "," ","1","0","[1050]","1","0","4","","","","","","","",""
"pit-trial","85","845122","0.0-2.0-17.0-3.0","battery-v0.2","","""event"",""trial"",""time""
""fullscreenenter"",""1"",""11292""
""blur"",""2"",""69900""
""focus"",""2"",""72009""
","""event"",""trial"",""time""
""blur"",""2"",""69900""
","""event"",""trial"",""time""
""focus"",""2"",""72009""
","""event"",""trial"",""time""
""fullscreenenter"",""1"",""11292""
","
","","","200","","","11","3164","1851","&#9789;","elianto","#f73b6a7A"," "," ","1","-10","[1050]","1","0","4","","","","","","","",""
"pit-trial","86","848189","0.0-2.0-17.0-4.0","battery-v0.2","","""event"",""trial"",""time""
""fullscreenenter"",""1"",""11292""
""blur"",""2"",""69900""
""focus"",""2"",""72009""
","""event"",""trial"",""time""
""blur"",""2"",""69900""
","""event"",""trial"",""time""
""focus"",""2"",""72009""
","""event"",""trial"",""time""
""fullscreenenter"",""1"",""11292""
","
","","","211","","","11","3164","1851","&#9789;","elianto","#f73b6a7A"," "," ","1","0","[1061]","1","0","4","","","","","","","",""
"call-function","87","848193","0.0-2.0-18.0","battery-v0.2","","""event"",""trial"",""time""
""fullscreenenter"",""1"",""11292""
""blur"",""2"",""69900""
""focus"",""2"",""72009""
","""event"",""trial"",""time""
""blur"",""2"",""69900""
","""event"",""trial"",""time""
""focus"",""2"",""72009""
","""event"",""trial"",""time""
""fullscreenenter"",""1"",""11292""
","
","","","","","","","","","","","","","","","","","","","","","","","","","","",""
"pit-instructions","88","924521","0.0-2.0-19.0","battery-v0.2","","""event"",""trial"",""time""
""fullscreenenter"",""1"",""11292""
""blur"",""2"",""69900""
""focus"",""2"",""72009""
","""event"",""trial"",""time""
""blur"",""2"",""69900""
","""event"",""trial"",""time""
""focus"",""2"",""72009""
","""event"",""trial"",""time""
""fullscreenenter"",""1"",""11292""
","
","","[{""page_index"":0,""viewing_time"":6582},{""page_index"":1,""viewing_time"":6490},{""page_index"":2,""viewing_time"":17080},{""page_index"":3,""viewing_time"":7888},{""page_index"":4,""viewing_time"":8514.000000000116},{""page_index"":5,""viewing_time"":9990.999999999884},{""page_index"":6,""viewing_time"":8828},{""page_index"":7,""viewing_time"":6682},{""page_index"":8,""viewing_time"":4274}]","76330","","","","","","","","","","","","","","","","","","","","","","","",""
"pit-comprehension","89","930593","0.0-2.0-20.0-0.0","battery-v0.2","","""event"",""trial"",""time""
""fullscreenenter"",""1"",""11292""
""blur"",""2"",""69900""
""focus"",""2"",""72009""
","""event"",""trial"",""time""
""blur"",""2"",""69900""
","""event"",""trial"",""time""
""focus"",""2"",""72009""
","""event"",""trial"",""time""
""fullscreenenter"",""1"",""11292""
","
","","","6066","[""SPACE""]","0","11","3164","1851","","","","","","","","","","","","","","","","","","",""
"pit-instructions","90","933681","0.0-2.0-20.0-1.0","battery-v0.2","","""event"",""trial"",""time""
""fullscreenenter"",""1"",""11292""
""blur"",""2"",""69900""
""focus"",""2"",""72009""
","""event"",""trial"",""time""
""blur"",""2"",""69900""
","""event"",""trial"",""time""
""focus"",""2"",""72009""
","""event"",""trial"",""time""
""fullscreenenter"",""1"",""11292""
","
","","[{""page_index"":0,""viewing_time"":3061}]","3062","","","","","","","","","","","","","","","","","","","","","","","",""
"pit-comprehension","91","944641","0.0-2.0-21.0-0.0","battery-v0.2","","""event"",""trial"",""time""
""fullscreenenter"",""1"",""11292""
""blur"",""2"",""69900""
""focus"",""2"",""72009""
","""event"",""trial"",""time""
""blur"",""2"",""69900""
","""event"",""trial"",""time""
""focus"",""2"",""72009""
","""event"",""trial"",""time""
""fullscreenenter"",""1"",""11292""
","
","","","10953","[""10""]","0","11","3164","1851","","","","","","","","","","","","","","","","","","",""
"pit-instructions","92","947112","0.0-2.0-21.0-1.0","battery-v0.2","","""event"",""trial"",""time""
""fullscreenenter"",""1"",""11292""
""blur"",""2"",""69900""
""focus"",""2"",""72009""
","""event"",""trial"",""time""
""blur"",""2"",""69900""
","""event"",""trial"",""time""
""focus"",""2"",""72009""
","""event"",""trial"",""time""
""fullscreenenter"",""1"",""11292""
","
","","[{""page_index"":0,""viewing_time"":2439}]","2440","","","","","","","","","","","","","","","","","","","","","","","",""
"pit-comprehension","93","955264","0.0-2.0-22.0-0.0","battery-v0.2","","""event"",""trial"",""time""
""fullscreenenter"",""1"",""11292""
""blur"",""2"",""69900""
""focus"",""2"",""72009""
","""event"",""trial"",""time""
""blur"",""2"",""69900""
","""event"",""trial"",""time""
""focus"",""2"",""72009""
","""event"",""trial"",""time""
""fullscreenenter"",""1"",""11292""
","
","","","8148.000000000116","[""0""]","0","11","3164","1851","","","","","","","","","","","","","","","","","","",""
"pit-instructions","94","958834","0.0-2.0-22.0-1.0","battery-v0.2","","""event"",""trial"",""time""
""fullscreenenter"",""1"",""11292""
""blur"",""2"",""69900""
""focus"",""2"",""72009""
","""event"",""trial"",""time""
""blur"",""2"",""69900""
","""event"",""trial"",""time""
""focus"",""2"",""72009""
","""event"",""trial"",""time""
""fullscreenenter"",""1"",""11292""
","
","","[{""page_index"":0,""viewing_time"":3540}]","3540","","","","","","","","","","","","","","","","","","","","","","","",""
"pit-comprehension","95","970582","0.0-2.0-23.0-0.0","battery-v0.2","","""event"",""trial"",""time""
""fullscreenenter"",""1"",""11292""
""blur"",""2"",""69900""
""focus"",""2"",""72009""
","""event"",""trial"",""time""
""blur"",""2"",""69900""
","""event"",""trial"",""time""
""focus"",""2"",""72009""
","""event"",""trial"",""time""
""fullscreenenter"",""1"",""11292""
","
","","","11741.999999999884","[""True""]","0","11","3164","1851","","","","","","","","","","","","","","","","","","",""
"pit-instructions","96","972809","0.0-2.0-23.0-1.0","battery-v0.2","","""event"",""trial"",""time""
""fullscreenenter"",""1"",""11292""
""blur"",""2"",""69900""
""focus"",""2"",""72009""
","""event"",""trial"",""time""
""blur"",""2"",""69900""
","""event"",""trial"",""time""
""focus"",""2"",""72009""
","""event"",""trial"",""time""
""fullscreenenter"",""1"",""11292""
","
","","[{""page_index"":0,""viewing_time"":2199}]","2199","","","","","","","","","","","","","","","","","","","","","","","",""
"pit-comprehension","97","981365","0.0-2.0-24.0-0.0","battery-v0.2","","""event"",""trial"",""time""
""fullscreenenter"",""1"",""11292""
""blur"",""2"",""69900""
""focus"",""2"",""72009""
","""event"",""trial"",""time""
""blur"",""2"",""69900""
","""event"",""trial"",""time""
""focus"",""2"",""72009""
","""event"",""trial"",""time""
""fullscreenenter"",""1"",""11292""
","
","","","8549.999999999884","[""True""]","0","11","3164","1851","","","","","","","","","","","","","","","","","","",""
"pit-instructions","98","983064","0.0-2.0-24.0-1.0","battery-v0.2","","""event"",""trial"",""time""
""fullscreenenter"",""1"",""11292""
""blur"",""2"",""69900""
""focus"",""2"",""72009""
","""event"",""trial"",""time""
""blur"",""2"",""69900""
","""event"",""trial"",""time""
""focus"",""2"",""72009""
","""event"",""trial"",""time""
""fullscreenenter"",""1"",""11292""
","
","","[{""page_index"":0,""viewing_time"":1669}]","1670","","","","","","","","","","","","","","","","","","","","","","","",""
"pit-comprehension","99","991873","0.0-2.0-25.0-0.0","battery-v0.2","","""event"",""trial"",""time""
""fullscreenenter"",""1"",""11292""
""blur"",""2"",""69900""
""focus"",""2"",""72009""
","""event"",""trial"",""time""
""blur"",""2"",""69900""
","""event"",""trial"",""time""
""focus"",""2"",""72009""
","""event"",""trial"",""time""
""fullscreenenter"",""1"",""11292""
","
","","","8800","[""True""]","0","11","3164","1851","","","","","","","","","","","","","","","","","","",""
"pit-instructions","100","994062","0.0-2.0-25.0-1.0","battery-v0.2","","""event"",""trial"",""time""
""fullscreenenter"",""1"",""11292""
""blur"",""2"",""69900""
""focus"",""2"",""72009""
","""event"",""trial"",""time""
""blur"",""2"",""69900""
","""event"",""trial"",""time""
""focus"",""2"",""72009""
","""event"",""trial"",""time""
""fullscreenenter"",""1"",""11292""
","
","","[{""page_index"":0,""viewing_time"":2155.9999999998836}]","2156.9999999998836","","","","","","","","","","","","","","","","","","","","","","","",""
"pit-comprehension","101","1003253","0.0-2.0-26.0-0.0","battery-v0.2","","""event"",""trial"",""time""
""fullscreenenter"",""1"",""11292""
""blur"",""2"",""69900""
""focus"",""2"",""72009""
","""event"",""trial"",""time""
""blur"",""2"",""69900""
","""event"",""trial"",""time""
""focus"",""2"",""72009""
","""event"",""trial"",""time""
""fullscreenenter"",""1"",""11292""
","
","","","9184","[""False""]","0","11","3164","1851","","","","","","","","","","","","","","","","","","",""
"pit-instructions","102","1004928","0.0-2.0-26.0-1.0","battery-v0.2","","""event"",""trial"",""time""
""fullscreenenter"",""1"",""11292""
""blur"",""2"",""69900""
""focus"",""2"",""72009""
","""event"",""trial"",""time""
""blur"",""2"",""69900""
","""event"",""trial"",""time""
""focus"",""2"",""72009""
","""event"",""trial"",""time""
""fullscreenenter"",""1"",""11292""
","
","","[{""page_index"":0,""viewing_time"":1645}]","1645","","","","","","","","","","","","","","","","","","","","","","","",""
"pit-instructions","103","1025242","0.0-3.0","battery-v0.2","","""event"",""trial"",""time""
""fullscreenenter"",""1"",""11292""
""blur"",""2"",""69900""
""focus"",""2"",""72009""
","""event"",""trial"",""time""
""blur"",""2"",""69900""
","""event"",""trial"",""time""
""focus"",""2"",""72009""
","""event"",""trial"",""time""
""fullscreenenter"",""1"",""11292""
","
","","[{""page_index"":0,""viewing_time"":5871.999999999884},{""page_index"":1,""viewing_time"":6113},{""page_index"":2,""viewing_time"":8323.999999999884}]","20308.999999999767","","","","","","","","","","","","","","","","","","","","","","","",""
"pit-trial","104","1028732","0.0-4.0","battery-v0.2","","""event"",""trial"",""time""
""fullscreenenter"",""1"",""11292""
""blur"",""2"",""69900""
""focus"",""2"",""72009""
","""event"",""trial"",""time""
""blur"",""2"",""69900""
","""event"",""trial"",""time""
""focus"",""2"",""72009""
","""event"",""trial"",""time""
""fullscreenenter"",""1"",""11292""
","
","","","628","","","11","3164","1851","&#9730;","elianto","#3366ff99"," "," ","1","+10","[1479.0000000001164]","1","1","","","3164","1","1","1","win","go","0"
"pit-trial","105","1032239","0.0-5.0","battery-v0.2","","""event"",""trial"",""time""
""fullscreenenter"",""1"",""11292""
""blur"",""2"",""69900""
""focus"",""2"",""72009""
","""event"",""trial"",""time""
""blur"",""2"",""69900""
","""event"",""trial"",""time""
""focus"",""2"",""72009""
","""event"",""trial"",""time""
""fullscreenenter"",""1"",""11292""
","
","","","647","","","11","3164","1851","&#9728;","elianto","#f73b6a7A","-1"," ","0","-10","[1497.0000000001164]","1","1","","","3164","2","0","4","lose","no-go","0"
"pit-trial","106","1036073","0.0-6.0","battery-v0.2","","""event"",""trial"",""time""
""fullscreenenter"",""1"",""11292""
""blur"",""2"",""69900""
""focus"",""2"",""72009""
","""event"",""trial"",""time""
""blur"",""2"",""69900""
","""event"",""trial"",""time""
""focus"",""2"",""72009""
","""event"",""trial"",""time""
""fullscreenenter"",""1"",""11292""
","
","","","976.0000000001164","","","11","3164","1851","&#9733;","elianto","#3366ff99","-1"," ","0","0","[1826]","1","1","","","3164","3","2","2","win","no-go","0"
"pit-trial","107","1040200","0.0-7.0","battery-v0.2","","""event"",""trial"",""time""
""fullscreenenter"",""1"",""11292""
""blur"",""2"",""69900""
""focus"",""2"",""72009""
","""event"",""trial"",""time""
""blur"",""2"",""69900""
","""event"",""trial"",""time""
""focus"",""2"",""72009""
","""event"",""trial"",""time""
""fullscreenenter"",""1"",""11292""
","
","","","1266","","","11","3164","1851","&#9752;","elianto","#f73b6a7A"," "," ","1","0","[2117.9999999998836]","1","1","","","3164","4","3","3","lose","go","0"
"pit-trial","108","1044013","0.0-8.0","battery-v0.2","","""event"",""trial"",""time""
""fullscreenenter"",""1"",""11292""
""blur"",""2"",""69900""
""focus"",""2"",""72009""
","""event"",""trial"",""time""
""blur"",""2"",""69900""
","""event"",""trial"",""time""
""focus"",""2"",""72009""
","""event"",""trial"",""time""
""fullscreenenter"",""1"",""11292""
","
","","","954.9999999998836","","","11","3164","1851","&#9730;","elianto","#3366ff99"," "," ","1","0","[1805.9999999997672]","1","1","","","3164","5","1","1","win","go","1"
"pit-trial","109","1048871","0.0-9.0","battery-v0.2","","""event"",""trial"",""time""
""fullscreenenter"",""1"",""11292""
""blur"",""2"",""69900""
""focus"",""2"",""72009""
","""event"",""trial"",""time""
""blur"",""2"",""69900""
","""event"",""trial"",""time""
""focus"",""2"",""72009""
","""event"",""trial"",""time""
""fullscreenenter"",""1"",""11292""
","
","","","-1","","","11","3164","1851","&#9728;","elianto","#f73b6a7A","-1","-1","1","0","[]","0","1","","","3164","6","0","4","lose","no-go","0"
"pit-trial","110","1053730","0.0-10.0","battery-v0.2","","""event"",""trial"",""time""
""fullscreenenter"",""1"",""11292""
""blur"",""2"",""69900""
""focus"",""2"",""72009""
","""event"",""trial"",""time""
""blur"",""2"",""69900""
","""event"",""trial"",""time""
""focus"",""2"",""72009""
","""event"",""trial"",""time""
""fullscreenenter"",""1"",""11292""
","
","","","-1","","","11","3164","1851","&#9752;","elianto","#f73b6a7A"," ","-1","0","-10","[]","0","1","","","3164","7","3","3","lose","go","0"
"pit-trial","111","1057737","0.0-11.0","battery-v0.2","","""event"",""trial"",""time""
""fullscreenenter"",""1"",""11292""
""blur"",""2"",""69900""
""focus"",""2"",""72009""
","""event"",""trial"",""time""
""blur"",""2"",""69900""
","""event"",""trial"",""time""
""focus"",""2"",""72009""
","""event"",""trial"",""time""
""fullscreenenter"",""1"",""11292""
","
","","","1148","","","11","3164","1851","&#9733;","elianto","#3366ff99","-1"," ","0","0","[1998]","1","1","","","3164","8","2","2","win","no-go","0"
"pit-trial","112","1062596","0.0-12.0","battery-v0.2","","""event"",""trial"",""time""
""fullscreenenter"",""1"",""11292""
""blur"",""2"",""69900""
""focus"",""2"",""72009""
","""event"",""trial"",""time""
""blur"",""2"",""69900""
","""event"",""trial"",""time""
""focus"",""2"",""72009""
","""event"",""trial"",""time""
""fullscreenenter"",""1"",""11292""
","
","","","-1","","","11","3164","1851","&#9752;","elianto","#f73b6a7A"," ","-1","0","-10","[]","0","1","","","3164","9","3","3","lose","go","0"
"pit-trial","113","1067455","0.0-13.0","battery-v0.2","","""event"",""trial"",""time""
""fullscreenenter"",""1"",""11292""
""blur"",""2"",""69900""
""focus"",""2"",""72009""
","""event"",""trial"",""time""
""blur"",""2"",""69900""
","""event"",""trial"",""time""
""focus"",""2"",""72009""
","""event"",""trial"",""time""
""fullscreenenter"",""1"",""11292""
","
","","","-1","","","11","3164","1851","&#9728;","elianto","#f73b6a7A","-1","-1","1","0","[]","0","1","","","3164","10","0","4","lose","no-go","0"
"pit-trial","114","1071394","0.0-14.0","battery-v0.2","","""event"",""trial"",""time""
""fullscreenenter"",""1"",""11292""
""blur"",""2"",""69900""
""focus"",""2"",""72009""
","""event"",""trial"",""time""
""blur"",""2"",""69900""
","""event"",""trial"",""time""
""focus"",""2"",""72009""
","""event"",""trial"",""time""
""fullscreenenter"",""1"",""11292""
","
","","","1080","","","11","3164","1851","&#9733;","elianto","#3366ff99","-1"," ","0","0","[1931]","1","1","","","3164","11","2","2","win","no-go","0"
"pit-trial","115","1075268","0.0-15.0","battery-v0.2","","""event"",""trial"",""time""
""fullscreenenter"",""1"",""11292""
""blur"",""2"",""69900""
""focus"",""2"",""72009""
","""event"",""trial"",""time""
""blur"",""2"",""69900""
","""event"",""trial"",""time""
""focus"",""2"",""72009""
","""event"",""trial"",""time""
""fullscreenenter"",""1"",""11292""
","
","","","1014","","","11","3164","1851","&#9730;","elianto","#3366ff99"," "," ","1","+10","[1865]","1","1","","","3164","12","1","1","win","go","0"
"pit-trial","116","1079183","0.0-16.0","battery-v0.2","","""event"",""trial"",""time""
""fullscreenenter"",""1"",""11292""
""blur"",""2"",""69900""
""focus"",""2"",""72009""
","""event"",""trial"",""time""
""blur"",""2"",""69900""
","""event"",""trial"",""time""
""focus"",""2"",""72009""
","""event"",""trial"",""time""
""fullscreenenter"",""1"",""11292""
","
","","","1058","","","11","3164","1851","&#9752;","elianto","#f73b6a7A"," "," ","1","0","[1908]","1","1","","","3164","13","3","3","lose","go","0"
"pit-trial","117","1083213","0.0-17.0","battery-v0.2","","""event"",""trial"",""time""
""fullscreenenter"",""1"",""11292""
""blur"",""2"",""69900""
""focus"",""2"",""72009""
","""event"",""trial"",""time""
""blur"",""2"",""69900""
","""event"",""trial"",""time""
""focus"",""2"",""72009""
","""event"",""trial"",""time""
""fullscreenenter"",""1"",""11292""
","
","","","1171.9999999997672","","","11","3164","1851","&#9730;","elianto","#3366ff99"," "," ","1","+10","[2022]","1","1","","","3164","14","1","1","win","go","0"
"pit-trial","118","1087828","0.0-18.0","battery-v0.2","","""event"",""trial"",""time""
""fullscreenenter"",""1"",""11292""
""blur"",""2"",""69900""
""focus"",""2"",""72009""
","""event"",""trial"",""time""
""blur"",""2"",""69900""
","""event"",""trial"",""time""
""focus"",""2"",""72009""
","""event"",""trial"",""time""
""fullscreenenter"",""1"",""11292""
","
","","","1757","","","11","3164","1851","&#9733;","elianto","#3366ff99","-1"," ","0","0","[2607]","1","1","","","3164","15","2","2","win","no-go","0"
"pit-trial","119","1092686","0.0-19.0","battery-v0.2","","""event"",""trial"",""time""
""fullscreenenter"",""1"",""11292""
""blur"",""2"",""69900""
""focus"",""2"",""72009""
","""event"",""trial"",""time""
""blur"",""2"",""69900""
","""event"",""trial"",""time""
""focus"",""2"",""72009""
","""event"",""trial"",""time""
""fullscreenenter"",""1"",""11292""
","
","","","-1","","","11","3164","1851","&#9728;","elianto","#f73b6a7A","-1","-1","1","0","[]","0","1","","","3164","16","0","4","lose","no-go","0"
"pit-trial","120","1096434","0.0-20.0","battery-v0.2","","""event"",""trial"",""time""
""fullscreenenter"",""1"",""11292""
""blur"",""2"",""69900""
""focus"",""2"",""72009""
","""event"",""trial"",""time""
""blur"",""2"",""69900""
","""event"",""trial"",""time""
""focus"",""2"",""72009""
","""event"",""trial"",""time""
""fullscreenenter"",""1"",""11292""
","
","","","888.0000000002328","","","11","3164","1851","&#9730;","elianto","#3366ff99"," "," ","1","+10","[1738]","1","1","","","3164","17","1","1","win","go","0"
"pit-trial","121","1100664","0.0-21.0","battery-v0.2","","""event"",""trial"",""time""
""fullscreenenter"",""1"",""11292""
""blur"",""2"",""69900""
""focus"",""2"",""72009""
","""event"",""trial"",""time""
""blur"",""2"",""69900""
","""event"",""trial"",""time""
""focus"",""2"",""72009""
","""event"",""trial"",""time""
""fullscreenenter"",""1"",""11292""
","
","","","1372","","","11","3164","1851","&#9752;","elianto","#f73b6a7A"," "," ","1","0","[2223]","1","1","","","3164","18","3","3","lose","go","0"
"pit-trial","122","1105522","0.0-22.0","battery-v0.2","","""event"",""trial"",""time""
""fullscreenenter"",""1"",""11292""
""blur"",""2"",""69900""
""focus"",""2"",""72009""
","""event"",""trial"",""time""
""blur"",""2"",""69900""
","""event"",""trial"",""time""
""focus"",""2"",""72009""
","""event"",""trial"",""time""
""fullscreenenter"",""1"",""11292""
","
","","","-1","","","11","3164","1851","&#9728;","elianto","#f73b6a7A","-1","-1","1","0","[]","0","1","","","3164","19","0","4","lose","no-go","0"
"pit-trial","123","1110380","0.0-23.0","battery-v0.2","","""event"",""trial"",""time""
""fullscreenenter"",""1"",""11292""
""blur"",""2"",""69900""
""focus"",""2"",""72009""
","""event"",""trial"",""time""
""blur"",""2"",""69900""
","""event"",""trial"",""time""
""focus"",""2"",""72009""
","""event"",""trial"",""time""
""fullscreenenter"",""1"",""11292""
","
","","","-1","","","11","3164","1851","&#9733;","elianto","#3366ff99","-1","-1","1","+10","[]","0","1","","","3164","20","2","2","win","no-go","0"
"pit-instructions","124","1123915","0.0-24.0","battery-v0.2","","""event"",""trial"",""time""
""fullscreenenter"",""1"",""11292""
""blur"",""2"",""69900""
""focus"",""2"",""72009""
","""event"",""trial"",""time""
""blur"",""2"",""69900""
","""event"",""trial"",""time""
""focus"",""2"",""72009""
","""event"",""trial"",""time""
""fullscreenenter"",""1"",""11292""
","
","","[{""page_index"":0,""viewing_time"":6245},{""page_index"":1,""viewing_time"":7283}]","13529","","","","","","","","","","","","","","","","","","","","","","","",""
"pit-trial","125","1127227","0.0-25.0","battery-v0.2","","""event"",""trial"",""time""
""fullscreenenter"",""1"",""11292""
""blur"",""2"",""69900""
""focus"",""2"",""72009""
","""event"",""trial"",""time""
""blur"",""2"",""69900""
","""event"",""trial"",""time""
""focus"",""2"",""72009""
","""event"",""trial"",""time""
""fullscreenenter"",""1"",""11292""
","
","","","453","","","11","3164","1851","j","elianto","#f73b6a7A","-1"," ","0","0","[1303.9999999997672]","1","2","","","3164","21","0","4","lose","no-go","1"
"pit-trial","126","1131131","0.0-26.0","battery-v0.2","","""event"",""trial"",""time""
""fullscreenenter"",""1"",""11292""
""blur"",""2"",""69900""
""focus"",""2"",""72009""
","""event"",""trial"",""time""
""blur"",""2"",""69900""
","""event"",""trial"",""time""
""focus"",""2"",""72009""
","""event"",""trial"",""time""
""fullscreenenter"",""1"",""11292""
","
","","","1043.9999999997672","","","11","3164","1851","e","elianto","#f73b6a7A","-1"," ","0","-10","[1896]","1","2","","","3164","22","2","4","lose","no-go","0"
"pit-trial","127","1135020","0.0-27.0","battery-v0.2","","""event"",""trial"",""time""
""fullscreenenter"",""1"",""11292""
""blur"",""2"",""69900""
""focus"",""2"",""72009""
","""event"",""trial"",""time""
""blur"",""2"",""69900""
","""event"",""trial"",""time""
""focus"",""2"",""72009""
","""event"",""trial"",""time""
""fullscreenenter"",""1"",""11292""
","
","","","1032","","","11","3164","1851","w","elianto","#f73b6a7A"," "," ","1","0","[1881.0000000002328]","1","2","","","3164","23","3","3","lose","go","0"
"pit-trial","128","1138771","0.0-28.0","battery-v0.2","","""event"",""trial"",""time""
""fullscreenenter"",""1"",""11292""
""blur"",""2"",""69900""
""focus"",""2"",""72009""
","""event"",""trial"",""time""
""blur"",""2"",""69900""
","""event"",""trial"",""time""
""focus"",""2"",""72009""
","""event"",""trial"",""time""
""fullscreenenter"",""1"",""11292""
","
","","","892","","","11","3164","1851","d","elianto","#3366ff99"," "," ","1","+10","[1742.9999999997672]","1","2","","","3164","24","1","1","win","go","0"
"pit-trial","129","1142579","0.0-29.0","battery-v0.2","","""event"",""trial"",""time""
""fullscreenenter"",""1"",""11292""
""blur"",""2"",""69900""
""focus"",""2"",""72009""
","""event"",""trial"",""time""
""blur"",""2"",""69900""
","""event"",""trial"",""time""
""focus"",""2"",""72009""
","""event"",""trial"",""time""
""fullscreenenter"",""1"",""11292""
","
","","","948","","","11","3164","1851","d","elianto","#3366ff99"," "," ","1","+10","[1800]","1","2","","","3164","25","1","1","win","go","0"
"pit-trial","130","1147439","0.0-30.0","battery-v0.2","","""event"",""trial"",""time""
""fullscreenenter"",""1"",""11292""
""blur"",""2"",""69900""
""focus"",""2"",""72009""
","""event"",""trial"",""time""
""blur"",""2"",""69900""
","""event"",""trial"",""time""
""focus"",""2"",""72009""
","""event"",""trial"",""time""
""fullscreenenter"",""1"",""11292""
","
","","","-1","","","11","3164","1851","w","elianto","#f73b6a7A"," ","-1","0","0","[]","0","2","","","3164","26","3","3","lose","go","1"
"pit-trial","131","1151246","0.0-31.0","battery-v0.2","","""event"",""trial"",""time""
""fullscreenenter"",""1"",""11292""
""blur"",""2"",""69900""
""focus"",""2"",""72009""
","""event"",""trial"",""time""
""blur"",""2"",""69900""
","""event"",""trial"",""time""
""focus"",""2"",""72009""
","""event"",""trial"",""time""
""fullscreenenter"",""1"",""11292""
","
","","","947","","","11","3164","1851","j","elianto","#f73b6a7A","-1"," ","0","-10","[1798]","1","2","","","3164","27","0","4","lose","no-go","0"
"pit-trial","132","1156103","0.0-32.0","battery-v0.2","","""event"",""trial"",""time""
""fullscreenenter"",""1"",""11292""
""blur"",""2"",""69900""
""focus"",""2"",""72009""
","""event"",""trial"",""time""
""blur"",""2"",""69900""
","""event"",""trial"",""time""
""focus"",""2"",""72009""
","""event"",""trial"",""time""
""fullscreenenter"",""1"",""11292""
","
","","","-1","","","11","3164","1851","e","elianto","#f73b6a7A","-1","-1","1","0","[2869]","1","2","","","3164","28","2","4","lose","no-go","0"
"pit-trial","133","1160961","0.0-33.0","battery-v0.2","","""event"",""trial"",""time""
""fullscreenenter"",""1"",""11292""
""blur"",""2"",""69900""
""focus"",""2"",""72009""
","""event"",""trial"",""time""
""blur"",""2"",""69900""
","""event"",""trial"",""time""
""focus"",""2"",""72009""
","""event"",""trial"",""time""
""fullscreenenter"",""1"",""11292""
","
","","","-1","","","11","3164","1851","w","elianto","#f73b6a7A"," ","-1","0","-10","[]","0","2","","","3164","29","3","3","lose","go","0"
"pit-trial","134","1165036","0.0-34.0","battery-v0.2","","""event"",""trial"",""time""
""fullscreenenter"",""1"",""11292""
""blur"",""2"",""69900""
""focus"",""2"",""72009""
","""event"",""trial"",""time""
""blur"",""2"",""69900""
","""event"",""trial"",""time""
""focus"",""2"",""72009""
","""event"",""trial"",""time""
""fullscreenenter"",""1"",""11292""
","
","","","1217","","","11","3164","1851","d","elianto","#3366ff99"," "," ","1","0","[2067]","1","2","","","3164","30","1","1","win","go","1"
"pit-trial","135","1168872","0.0-35.0","battery-v0.2","","""event"",""trial"",""time""
""fullscreenenter"",""1"",""11292""
""blur"",""2"",""69900""
""focus"",""2"",""72009""
","""event"",""trial"",""time""
""blur"",""2"",""69900""
","""event"",""trial"",""time""
""focus"",""2"",""72009""
","""event"",""trial"",""time""
""fullscreenenter"",""1"",""11292""
","
","","","978","","","11","3164","1851","j","elianto","#f73b6a7A","-1"," ","0","-10","[1829]","1","2","","","3164","31","0","4","lose","no-go","0"
"pit-trial","136","1173329","0.0-36.0","battery-v0.2","","""event"",""trial"",""time""
""fullscreenenter"",""1"",""11292""
""blur"",""2"",""69900""
""focus"",""2"",""72009""
","""event"",""trial"",""time""
""blur"",""2"",""69900""
","""event"",""trial"",""time""
""focus"",""2"",""72009""
","""event"",""trial"",""time""
""fullscreenenter"",""1"",""11292""
","
","","","1598","","","11","3164","1851","e","elianto","#f73b6a7A","-1"," ","0","-10","[2449]","1","2","","","3164","32","2","4","lose","no-go","0"
"pit-trial","137","1178188","0.0-37.0","battery-v0.2","","""event"",""trial"",""time""
""fullscreenenter"",""1"",""11292""
""blur"",""2"",""69900""
""focus"",""2"",""72009""
","""event"",""trial"",""time""
""blur"",""2"",""69900""
","""event"",""trial"",""time""
""focus"",""2"",""72009""
","""event"",""trial"",""time""
""fullscreenenter"",""1"",""11292""
","
","","","-1","","","11","3164","1851","w","elianto","#f73b6a7A"," ","-1","0","0","[2914]","1","2","","","3164","33","3","3","lose","go","1"
"pit-trial","138","1183046","0.0-38.0","battery-v0.2","","""event"",""trial"",""time""
""fullscreenenter"",""1"",""11292""
""blur"",""2"",""69900""
""focus"",""2"",""72009""
","""event"",""trial"",""time""
""blur"",""2"",""69900""
","""event"",""trial"",""time""
""focus"",""2"",""72009""
","""event"",""trial"",""time""
""fullscreenenter"",""1"",""11292""
","
","","","-1","","","11","3164","1851","j","elianto","#f73b6a7A","-1","-1","1","-10","[]","0","2","","","3164","34","0","4","lose","no-go","1"
"pit-trial","139","1187232","0.0-39.0","battery-v0.2","","""event"",""trial"",""time""
""fullscreenenter"",""1"",""11292""
""blur"",""2"",""69900""
""focus"",""2"",""72009""
","""event"",""trial"",""time""
""blur"",""2"",""69900""
","""event"",""trial"",""time""
""focus"",""2"",""72009""
","""event"",""trial"",""time""
""fullscreenenter"",""1"",""11292""
","
","","","1328","","","11","3164","1851","d","elianto","#3366ff99"," "," ","1","+10","[2178]","1","2","","","3164","35","1","1","win","go","0"
"pit-trial","140","1191232","0.0-40.0","battery-v0.2","","""event"",""trial"",""time""
""fullscreenenter"",""1"",""11292""
""blur"",""2"",""69900""
""focus"",""2"",""72009""
","""event"",""trial"",""time""
""blur"",""2"",""69900""
","""event"",""trial"",""time""
""focus"",""2"",""72009""
","""event"",""trial"",""time""
""fullscreenenter"",""1"",""11292""
","
","","","1142","","","11","3164","1851","e","elianto","#f73b6a7A","-1"," ","0","0","[1992]","1","2","","","3164","36","2","4","lose","no-go","1"
"pit-trial","141","1195269","0.0-41.0","battery-v0.2","","""event"",""trial"",""time""
""fullscreenenter"",""1"",""11292""
""blur"",""2"",""69900""
""focus"",""2"",""72009""
","""event"",""trial"",""time""
""blur"",""2"",""69900""
","""event"",""trial"",""time""
""focus"",""2"",""72009""
","""event"",""trial"",""time""
""fullscreenenter"",""1"",""11292""
","
","","","1179","","","11","3164","1851","w","elianto","#f73b6a7A"," "," ","1","0","[2030]","1","2","","","3164","37","3","3","lose","go","0"
"pit-trial","142","1200128","0.0-42.0","battery-v0.2","","""event"",""trial"",""time""
""fullscreenenter"",""1"",""11292""
""blur"",""2"",""69900""
""focus"",""2"",""72009""
","""event"",""trial"",""time""
""blur"",""2"",""69900""
","""event"",""trial"",""time""
""focus"",""2"",""72009""
","""event"",""trial"",""time""
""fullscreenenter"",""1"",""11292""
","
","","","-1","","","11","3164","1851","j","elianto","#f73b6a7A","-1","-1","1","0","[]","0","2","","","3164","38","0","4","lose","no-go","0"
"pit-trial","143","1203755","0.0-43.0","battery-v0.2","","""event"",""trial"",""time""
""fullscreenenter"",""1"",""11292""
""blur"",""2"",""69900""
""focus"",""2"",""72009""
","""event"",""trial"",""time""
""blur"",""2"",""69900""
","""event"",""trial"",""time""
""focus"",""2"",""72009""
","""event"",""trial"",""time""
""fullscreenenter"",""1"",""11292""
","
","","","768","","","11","3164","1851","d","elianto","#3366ff99"," "," ","1","+10","[1618]","1","2","","","3164","39","1","1","win","go","0"
"pit-trial","144","1207649","0.0-44.0","battery-v0.2","","""event"",""trial"",""time""
""fullscreenenter"",""1"",""11292""
""blur"",""2"",""69900""
""focus"",""2"",""72009""
","""event"",""trial"",""time""
""blur"",""2"",""69900""
","""event"",""trial"",""time""
""focus"",""2"",""72009""
","""event"",""trial"",""time""
""fullscreenenter"",""1"",""11292""
","
","","","1036","","","11","3164","1851","e","elianto","#f73b6a7A","-1"," ","0","-10","[1887]","1","2","","","3164","40","2","4","lose","no-go","0"
"pit-trial","145","1211181","0.0-45.0","battery-v0.2","","""event"",""trial"",""time""
""fullscreenenter"",""1"",""11292""
""blur"",""2"",""69900""
""focus"",""2"",""72009""
","""event"",""trial"",""time""
""blur"",""2"",""69900""
","""event"",""trial"",""time""
""focus"",""2"",""72009""
","""event"",""trial"",""time""
""fullscreenenter"",""1"",""11292""
","
","","","674.9999999997672","","","11","3164","1851","w","elianto","#f73b6a7A"," "," ","1","0","[1525]","1","2","","","3164","41","3","3","lose","go","0"
"pit-trial","146","1215585","0.0-46.0","battery-v0.2","","""event"",""trial"",""time""
""fullscreenenter"",""1"",""11292""
""blur"",""2"",""69900""
""focus"",""2"",""72009""
","""event"",""trial"",""time""
""blur"",""2"",""69900""
","""event"",""trial"",""time""
""focus"",""2"",""72009""
","""event"",""trial"",""time""
""fullscreenenter"",""1"",""11292""
","
","","","1545","","","11","3164","1851","e","elianto","#f73b6a7A","-1"," ","0","-10","[2394.999999999767]","1","2","","","3164","42","2","4","lose","no-go","0"
"pit-trial","147","1219107","0.0-47.0","battery-v0.2","","""event"",""trial"",""time""
""fullscreenenter"",""1"",""11292""
""blur"",""2"",""69900""
""focus"",""2"",""72009""
","""event"",""trial"",""time""
""blur"",""2"",""69900""
","""event"",""trial"",""time""
""focus"",""2"",""72009""
","""event"",""trial"",""time""
""fullscreenenter"",""1"",""11292""
","
","","","665","","","11","3164","1851","d","elianto","#3366ff99"," "," ","1","+10","[1515]","1","2","","","3164","43","1","1","win","go","0"
"pit-trial","148","1223965","0.0-48.0","battery-v0.2","","""event"",""trial"",""time""
""fullscreenenter"",""1"",""11292""
""blur"",""2"",""69900""
""focus"",""2"",""72009""
","""event"",""trial"",""time""
""blur"",""2"",""69900""
","""event"",""trial"",""time""
""focus"",""2"",""72009""
","""event"",""trial"",""time""
""fullscreenenter"",""1"",""11292""
","
","","","-1","","","11","3164","1851","j","elianto","#f73b6a7A","-1","-1","1","-10","[]","0","2","","","3164","44","0","4","lose","no-go","1"
"pit-trial","149","1228825","0.0-49.0","battery-v0.2","","""event"",""trial"",""time""
""fullscreenenter"",""1"",""11292""
""blur"",""2"",""69900""
""focus"",""2"",""72009""
","""event"",""trial"",""time""
""blur"",""2"",""69900""
","""event"",""trial"",""time""
""focus"",""2"",""72009""
","""event"",""trial"",""time""
""fullscreenenter"",""1"",""11292""
","
","","","-1","","","11","3164","1851","j","elianto","#f73b6a7A","-1","-1","1","0","[]","0","2","","","3164","45","0","4","lose","no-go","0"
"pit-trial","150","1232362","0.0-50.0","battery-v0.2","","""event"",""trial"",""time""
""fullscreenenter"",""1"",""11292""
""blur"",""2"",""69900""
""focus"",""2"",""72009""
","""event"",""trial"",""time""
""blur"",""2"",""69900""
","""event"",""trial"",""time""
""focus"",""2"",""72009""
","""event"",""trial"",""time""
""fullscreenenter"",""1"",""11292""
","
","","","679","","","11","3164","1851","e","elianto","#f73b6a7A","-1"," ","0","-10","[1529.9999999997672]","1","2","","","3164","46","2","4","lose","no-go","0"
"pit-trial","151","1235856","0.0-51.0","battery-v0.2","","""event"",""trial"",""time""
""fullscreenenter"",""1"",""11292""
""blur"",""2"",""69900""
""focus"",""2"",""72009""
","""event"",""trial"",""time""
""blur"",""2"",""69900""
","""event"",""trial"",""time""
""focus"",""2"",""72009""
","""event"",""trial"",""time""
""fullscreenenter"",""1"",""11292""
","
","","","637","","","11","3164","1851","w","elianto","#f73b6a7A"," "," ","1","0","[1487]","1","2","","","3164","47","3","3","lose","go","0"
"pit-trial","152","1239880","0.0-52.0","battery-v0.2","","""event"",""trial"",""time""
""fullscreenenter"",""1"",""11292""
""blur"",""2"",""69900""
""focus"",""2"",""72009""
","""event"",""trial"",""time""
""blur"",""2"",""69900""
","""event"",""trial"",""time""
""focus"",""2"",""72009""
","""event"",""trial"",""time""
""fullscreenenter"",""1"",""11292""
","
","","","1164.0000000002328","","","11","3164","1851","s","elianto","#3366ff99","-1"," ","0","0","[2015.0000000002328]","1","2","","","3164","48","4","2","win","no-go","0"
"pit-trial","153","1244739","0.0-53.0","battery-v0.2","","""event"",""trial"",""time""
""fullscreenenter"",""1"",""11292""
""blur"",""2"",""69900""
""focus"",""2"",""72009""
","""event"",""trial"",""time""
""blur"",""2"",""69900""
","""event"",""trial"",""time""
""focus"",""2"",""72009""
","""event"",""trial"",""time""
""fullscreenenter"",""1"",""11292""
","
","","","-1","","","11","3164","1851","j","elianto","#f73b6a7A","-1","-1","1","0","[]","0","2","","","3164","49","0","4","lose","no-go","0"
"pit-trial","154","1248586","0.0-54.0","battery-v0.2","","""event"",""trial"",""time""
""fullscreenenter"",""1"",""11292""
""blur"",""2"",""69900""
""focus"",""2"",""72009""
","""event"",""trial"",""time""
""blur"",""2"",""69900""
","""event"",""trial"",""time""
""focus"",""2"",""72009""
","""event"",""trial"",""time""
""fullscreenenter"",""1"",""11292""
","
","","","990","","","11","3164","1851","w","elianto","#f73b6a7A"," "," ","1","0","[1841]","1","2","","","3164","50","3","3","lose","go","0"
"pit-trial","155","1252165","0.0-55.0","battery-v0.2","","""event"",""trial"",""time""
""fullscreenenter"",""1"",""11292""
""blur"",""2"",""69900""
""focus"",""2"",""72009""
","""event"",""trial"",""time""
""blur"",""2"",""69900""
","""event"",""trial"",""time""
""focus"",""2"",""72009""
","""event"",""trial"",""time""
""fullscreenenter"",""1"",""11292""
","
","","","720","","","11","3164","1851","d","elianto","#3366ff99"," "," ","1","+10","[1571]","1","2","","","3164","51","1","1","win","go","0"
"pit-trial","156","1256675","0.0-56.0","battery-v0.2","","""event"",""trial"",""time""
""fullscreenenter"",""1"",""11292""
""blur"",""2"",""69900""
""focus"",""2"",""72009""
","""event"",""trial"",""time""
""blur"",""2"",""69900""
","""event"",""trial"",""time""
""focus"",""2"",""72009""
","""event"",""trial"",""time""
""fullscreenenter"",""1"",""11292""
","
","","","1651.9999999997672","","","11","3164","1851","s","elianto","#3366ff99","-1"," ","0","0","[2502]","1","2","","","3164","52","4","2","win","no-go","0"
"pit-trial","157","1261533","0.0-57.0","battery-v0.2","","""event"",""trial"",""time""
""fullscreenenter"",""1"",""11292""
""blur"",""2"",""69900""
""focus"",""2"",""72009""
","""event"",""trial"",""time""
""blur"",""2"",""69900""
","""event"",""trial"",""time""
""focus"",""2"",""72009""
","""event"",""trial"",""time""
""fullscreenenter"",""1"",""11292""
","
","","","-1","","","11","3164","1851","j","elianto","#f73b6a7A","-1","-1","1","0","[]","0","2","","","3164","53","0","4","lose","no-go","0"
"pit-trial","158","1265644","0.0-58.0","battery-v0.2","","""event"",""trial"",""time""
""fullscreenenter"",""1"",""11292""
""blur"",""2"",""69900""
""focus"",""2"",""72009""
","""event"",""trial"",""time""
""blur"",""2"",""69900""
","""event"",""trial"",""time""
""focus"",""2"",""72009""
","""event"",""trial"",""time""
""fullscreenenter"",""1"",""11292""
","
","","","1252","","","11","3164","1851","e","elianto","#f73b6a7A","-1"," ","0","0","[2103]","1","2","","","3164","54","2","4","lose","no-go","1"
"pit-trial","159","1269555","0.0-59.0","battery-v0.2","","""event"",""trial"",""time""
""fullscreenenter"",""1"",""11292""
""blur"",""2"",""69900""
""focus"",""2"",""72009""
","""event"",""trial"",""time""
""blur"",""2"",""69900""
","""event"",""trial"",""time""
""focus"",""2"",""72009""
","""event"",""trial"",""time""
""fullscreenenter"",""1"",""11292""
","
","","","1052","","","11","3164","1851","d","elianto","#3366ff99"," "," ","1","+10","[1903]","1","2","","","3164","55","1","1","win","go","0"
"pit-trial","160","1274414","0.0-60.0","battery-v0.2","","""event"",""trial"",""time""
""fullscreenenter"",""1"",""11292""
""blur"",""2"",""69900""
""focus"",""2"",""72009""
","""event"",""trial"",""time""
""blur"",""2"",""69900""
","""event"",""trial"",""time""
""focus"",""2"",""72009""
","""event"",""trial"",""time""
""fullscreenenter"",""1"",""11292""
","
","","","-1","","","11","3164","1851","s","elianto","#3366ff99","-1","-1","1","+10","[]","0","2","","","3164","56","4","2","win","no-go","0"
"pit-trial","161","1278411","0.0-61.0","battery-v0.2","","""event"",""trial"",""time""
""fullscreenenter"",""1"",""11292""
""blur"",""2"",""69900""
""focus"",""2"",""72009""
","""event"",""trial"",""time""
""blur"",""2"",""69900""
","""event"",""trial"",""time""
""focus"",""2"",""72009""
","""event"",""trial"",""time""
""fullscreenenter"",""1"",""11292""
","
","","","1137.9999999997672","","","11","3164","1851","d","elianto","#3366ff99"," "," ","1","+10","[1989]","1","2","","","3164","57","1","1","win","go","0"
"pit-trial","162","1283269","0.0-62.0","battery-v0.2","","""event"",""trial"",""time""
""fullscreenenter"",""1"",""11292""
""blur"",""2"",""69900""
""focus"",""2"",""72009""
","""event"",""trial"",""time""
""blur"",""2"",""69900""
","""event"",""trial"",""time""
""focus"",""2"",""72009""
","""event"",""trial"",""time""
""fullscreenenter"",""1"",""11292""
","
","","","-1","","","11","3164","1851","j","elianto","#f73b6a7A","-1","-1","1","-10","[]","0","2","","","3164","58","0","4","lose","no-go","1"
"pit-trial","163","1287698","0.0-63.0","battery-v0.2","","""event"",""trial"",""time""
""fullscreenenter"",""1"",""11292""
""blur"",""2"",""69900""
""focus"",""2"",""72009""
","""event"",""trial"",""time""
""blur"",""2"",""69900""
","""event"",""trial"",""time""
""focus"",""2"",""72009""
","""event"",""trial"",""time""
""fullscreenenter"",""1"",""11292""
","
","","","1571","","","11","3164","1851","w","elianto","#f73b6a7A"," "," ","1","0","[2422]","1","2","","","3164","59","3","3","lose","go","0"
"pit-trial","164","1292556","0.0-64.0","battery-v0.2","","""event"",""trial"",""time""
""fullscreenenter"",""1"",""11292""
""blur"",""2"",""69900""
""focus"",""2"",""72009""
","""event"",""trial"",""time""
""blur"",""2"",""69900""
","""event"",""trial"",""time""
""focus"",""2"",""72009""
","""event"",""trial"",""time""
""fullscreenenter"",""1"",""11292""
","
","","","-1","","","11","3164","1851","s","elianto","#3366ff99","-1","-1","1","0","[]","0","2","","","3164","60","4","2","win","no-go","1"
"pit-trial","165","1296142","0.0-65.0","battery-v0.2","","""event"",""trial"",""time""
""fullscreenenter"",""1"",""11292""
""blur"",""2"",""69900""
""focus"",""2"",""72009""
","""event"",""trial"",""time""
""blur"",""2"",""69900""
","""event"",""trial"",""time""
""focus"",""2"",""72009""
","""event"",""trial"",""time""
""fullscreenenter"",""1"",""11292""
","
","","","727","","","11","3164","1851","d","elianto","#3366ff99"," "," ","1","+10","[1578]","1","2","","","3164","61","1","1","win","go","0"
"pit-trial","166","1301001","0.0-66.0","battery-v0.2","","""event"",""trial"",""time""
""fullscreenenter"",""1"",""11292""
""blur"",""2"",""69900""
""focus"",""2"",""72009""
","""event"",""trial"",""time""
""blur"",""2"",""69900""
","""event"",""trial"",""time""
""focus"",""2"",""72009""
","""event"",""trial"",""time""
""fullscreenenter"",""1"",""11292""
","
","","","-1","","","11","3164","1851","e","elianto","#f73b6a7A","-1","-1","1","0","[]","0","2","","","3164","62","2","4","lose","no-go","0"
"pit-trial","167","1305860","0.0-67.0","battery-v0.2","","""event"",""trial"",""time""
""fullscreenenter"",""1"",""11292""
""blur"",""2"",""69900""
""focus"",""2"",""72009""
","""event"",""trial"",""time""
""blur"",""2"",""69900""
","""event"",""trial"",""time""
""focus"",""2"",""72009""
","""event"",""trial"",""time""
""fullscreenenter"",""1"",""11292""
","
","","","-1","","","11","3164","1851","s","elianto","#3366ff99","-1","-1","1","+10","[]","0","2","","","3164","63","4","2","win","no-go","0"
"pit-trial","168","1309551","0.0-68.0","battery-v0.2","","""event"",""trial"",""time""
""fullscreenenter"",""1"",""11292""
""blur"",""2"",""69900""
""focus"",""2"",""72009""
","""event"",""trial"",""time""
""blur"",""2"",""69900""
","""event"",""trial"",""time""
""focus"",""2"",""72009""
","""event"",""trial"",""time""
""fullscreenenter"",""1"",""11292""
","
","","","832","","","11","3164","1851","w","elianto","#f73b6a7A"," "," ","1","0","[1683]","1","2","","","3164","64","3","3","lose","go","0"
"pit-trial","169","1314410","0.0-69.0","battery-v0.2","","""event"",""trial"",""time""
""fullscreenenter"",""1"",""11292""
""blur"",""2"",""69900""
""focus"",""2"",""72009""
","""event"",""trial"",""time""
""blur"",""2"",""69900""
","""event"",""trial"",""time""
""focus"",""2"",""72009""
","""event"",""trial"",""time""
""fullscreenenter"",""1"",""11292""
","
","","","-1","","","11","3164","1851","e","elianto","#f73b6a7A","-1","-1","1","0","[]","0","2","","","3164","65","2","4","lose","no-go","0"
"pit-trial","170","1318224","0.0-70.0","battery-v0.2","","""event"",""trial"",""time""
""fullscreenenter"",""1"",""11292""
""blur"",""2"",""69900""
""focus"",""2"",""72009""
","""event"",""trial"",""time""
""blur"",""2"",""69900""
","""event"",""trial"",""time""
""focus"",""2"",""72009""
","""event"",""trial"",""time""
""fullscreenenter"",""1"",""11292""
","
","","","955","","","11","3164","1851","w","elianto","#f73b6a7A"," "," ","1","0","[1806]","1","2","","","3164","66","3","3","lose","go","0"
"pit-trial","171","1321877","0.0-71.0","battery-v0.2","","""event"",""trial"",""time""
""fullscreenenter"",""1"",""11292""
""blur"",""2"",""69900""
""focus"",""2"",""72009""
","""event"",""trial"",""time""
""blur"",""2"",""69900""
","""event"",""trial"",""time""
""focus"",""2"",""72009""
","""event"",""trial"",""time""
""fullscreenenter"",""1"",""11292""
","
","","","795","","","11","3164","1851","d","elianto","#3366ff99"," "," ","1","0","[1646]","1","2","","","3164","67","1","1","win","go","1"
"pit-trial","172","1326736","0.0-72.0","battery-v0.2","","""event"",""trial"",""time""
""fullscreenenter"",""1"",""11292""
""blur"",""2"",""69900""
""focus"",""2"",""72009""
","""event"",""trial"",""time""
""blur"",""2"",""69900""
","""event"",""trial"",""time""
""focus"",""2"",""72009""
","""event"",""trial"",""time""
""fullscreenenter"",""1"",""11292""
","
","","","-1","","","11","3164","1851","s","elianto","#3366ff99","-1","-1","1","+10","[]","0","2","","","3164","68","4","2","win","no-go","0"
"pit-trial","173","1331594","0.0-73.0","battery-v0.2","","""event"",""trial"",""time""
""fullscreenenter"",""1"",""11292""
""blur"",""2"",""69900""
""focus"",""2"",""72009""
","""event"",""trial"",""time""
""blur"",""2"",""69900""
","""event"",""trial"",""time""
""focus"",""2"",""72009""
","""event"",""trial"",""time""
""fullscreenenter"",""1"",""11292""
","
","","","-1","","","11","3164","1851","s","elianto","#3366ff99","-1","-1","1","+10","[]","0","2","","","3164","69","4","2","win","no-go","0"
"pit-trial","174","1335152","0.0-74.0","battery-v0.2","","""event"",""trial"",""time""
""fullscreenenter"",""1"",""11292""
""blur"",""2"",""69900""
""focus"",""2"",""72009""
","""event"",""trial"",""time""
""blur"",""2"",""69900""
","""event"",""trial"",""time""
""focus"",""2"",""72009""
","""event"",""trial"",""time""
""fullscreenenter"",""1"",""11292""
","
","","","698.9999999997672","","","11","3164","1851","d","elianto","#3366ff99"," "," ","1","+10","[1551]","1","2","","","3164","70","1","1","win","go","0"
"pit-trial","175","1339408","0.0-75.0","battery-v0.2","","""event"",""trial"",""time""
""fullscreenenter"",""1"",""11292""
""blur"",""2"",""69900""
""focus"",""2"",""72009""
","""event"",""trial"",""time""
""blur"",""2"",""69900""
","""event"",""trial"",""time""
""focus"",""2"",""72009""
","""event"",""trial"",""time""
""fullscreenenter"",""1"",""11292""
","
","","","1396.9999999997672","","","11","3164","1851","p","elianto","#3366ff99"," "," ","1","+10","[2248]","1","2","","","3164","71","5","1","win","go","0"
"pit-trial","176","1343103","0.0-76.0","battery-v0.2","","""event"",""trial"",""time""
""fullscreenenter"",""1"",""11292""
""blur"",""2"",""69900""
""focus"",""2"",""72009""
","""event"",""trial"",""time""
""blur"",""2"",""69900""
","""event"",""trial"",""time""
""focus"",""2"",""72009""
","""event"",""trial"",""time""
""fullscreenenter"",""1"",""11292""
","
","","","833.9999999997672","","","11","3164","1851","w","elianto","#f73b6a7A"," "," ","1","0","[1688]","1","2","","","3164","72","3","3","lose","go","0"
"pit-trial","177","1346551","0.0-77.0","battery-v0.2","","""event"",""trial"",""time""
""fullscreenenter"",""1"",""11292""
""blur"",""2"",""69900""
""focus"",""2"",""72009""
","""event"",""trial"",""time""
""blur"",""2"",""69900""
","""event"",""trial"",""time""
""focus"",""2"",""72009""
","""event"",""trial"",""time""
""fullscreenenter"",""1"",""11292""
","
","","","589","","","11","3164","1851","d","elianto","#3366ff99"," "," ","1","+10","[1440]","1","2","","","3164","73","1","1","win","go","0"
"pit-trial","178","1350263","0.0-78.0","battery-v0.2","","""event"",""trial"",""time""
""fullscreenenter"",""1"",""11292""
""blur"",""2"",""69900""
""focus"",""2"",""72009""
","""event"",""trial"",""time""
""blur"",""2"",""69900""
","""event"",""trial"",""time""
""focus"",""2"",""72009""
","""event"",""trial"",""time""
""fullscreenenter"",""1"",""11292""
","
","","","854","","","11","3164","1851","w","elianto","#f73b6a7A"," "," ","1","0","[1704.9999999997672]","1","2","","","3164","74","3","3","lose","go","0"
"pit-trial","179","1355121","0.0-79.0","battery-v0.2","","""event"",""trial"",""time""
""fullscreenenter"",""1"",""11292""
""blur"",""2"",""69900""
""focus"",""2"",""72009""
","""event"",""trial"",""time""
""blur"",""2"",""69900""
","""event"",""trial"",""time""
""focus"",""2"",""72009""
","""event"",""trial"",""time""
""fullscreenenter"",""1"",""11292""
","
","","","-1","","","11","3164","1851","s","elianto","#3366ff99","-1","-1","1","+10","[]","0","2","","","3164","75","4","2","win","no-go","0"
"pit-trial","180","1358607","0.0-80.0","battery-v0.2","","""event"",""trial"",""time""
""fullscreenenter"",""1"",""11292""
""blur"",""2"",""69900""
""focus"",""2"",""72009""
","""event"",""trial"",""time""
""blur"",""2"",""69900""
","""event"",""trial"",""time""
""focus"",""2"",""72009""
","""event"",""trial"",""time""
""fullscreenenter"",""1"",""11292""
","
","","","627","","","11","3164","1851","p","elianto","#3366ff99"," "," ","1","+10","[1478]","1","2","","","3164","76","5","1","win","go","0"
"pit-trial","181","1362543","0.0-81.0","battery-v0.2","","""event"",""trial"",""time""
""fullscreenenter"",""1"",""11292""
""blur"",""2"",""69900""
""focus"",""2"",""72009""
","""event"",""trial"",""time""
""blur"",""2"",""69900""
","""event"",""trial"",""time""
""focus"",""2"",""72009""
","""event"",""trial"",""time""
""fullscreenenter"",""1"",""11292""
","
","","","1078","","","11","3164","1851","p","elianto","#3366ff99"," "," ","1","0","[1928.9999999997672]","1","2","","","3164","77","5","1","win","go","1"
"pit-trial","182","1367402","0.0-82.0","battery-v0.2","","""event"",""trial"",""time""
""fullscreenenter"",""1"",""11292""
""blur"",""2"",""69900""
""focus"",""2"",""72009""
","""event"",""trial"",""time""
""blur"",""2"",""69900""
","""event"",""trial"",""time""
""focus"",""2"",""72009""
","""event"",""trial"",""time""
""fullscreenenter"",""1"",""11292""
","
","","","-1","","","11","3164","1851","s","elianto","#3366ff99","-1","-1","1","+10","[]","0","2","","","3164","78","4","2","win","no-go","0"
"pit-trial","183","1371906","0.0-83.0","battery-v0.2","","""event"",""trial"",""time""
""fullscreenenter"",""1"",""11292""
""blur"",""2"",""69900""
""focus"",""2"",""72009""
","""event"",""trial"",""time""
""blur"",""2"",""69900""
","""event"",""trial"",""time""
""focus"",""2"",""72009""
","""event"",""trial"",""time""
""fullscreenenter"",""1"",""11292""
","
","","","1645","","","11","3164","1851","w","elianto","#f73b6a7A"," "," ","1","0","[2496]","1","2","","","3164","79","3","3","lose","go","0"
"pit-trial","184","1376165","0.0-84.0","battery-v0.2","","""event"",""trial"",""time""
""fullscreenenter"",""1"",""11292""
""blur"",""2"",""69900""
""focus"",""2"",""72009""
","""event"",""trial"",""time""
""blur"",""2"",""69900""
","""event"",""trial"",""time""
""focus"",""2"",""72009""
","""event"",""trial"",""time""
""fullscreenenter"",""1"",""11292""
","
","","","1400","","","11","3164","1851","g","elianto","#f73b6a7A","-1"," ","0","-10","[2251]","1","2","","","3164","80","6","4","lose","no-go","0"
"pit-trial","185","1381022","0.0-85.0","battery-v0.2","","""event"",""trial"",""time""
""fullscreenenter"",""1"",""11292""
""blur"",""2"",""69900""
""focus"",""2"",""72009""
","""event"",""trial"",""time""
""blur"",""2"",""69900""
","""event"",""trial"",""time""
""focus"",""2"",""72009""
","""event"",""trial"",""time""
""fullscreenenter"",""1"",""11292""
","
","","","-1","","","11","3164","1851","s","elianto","#3366ff99","-1","-1","1","0","[]","0","2","","","3164","81","4","2","win","no-go","1"
"pit-trial","186","1384856","0.0-86.0","battery-v0.2","","""event"",""trial"",""time""
""fullscreenenter"",""1"",""11292""
""blur"",""2"",""69900""
""focus"",""2"",""72009""
","""event"",""trial"",""time""
""blur"",""2"",""69900""
","""event"",""trial"",""time""
""focus"",""2"",""72009""
","""event"",""trial"",""time""
""fullscreenenter"",""1"",""11292""
","
","","","975","","","11","3164","1851","p","elianto","#3366ff99"," "," ","1","+10","[1826]","1","2","","","3164","82","5","1","win","go","0"
"pit-trial","187","1389715","0.0-87.0","battery-v0.2","","""event"",""trial"",""time""
""fullscreenenter"",""1"",""11292""
""blur"",""2"",""69900""
""focus"",""2"",""72009""
","""event"",""trial"",""time""
""blur"",""2"",""69900""
","""event"",""trial"",""time""
""focus"",""2"",""72009""
","""event"",""trial"",""time""
""fullscreenenter"",""1"",""11292""
","
","","","-1","","","11","3164","1851","g","elianto","#f73b6a7A","-1","-1","1","0","[]","0","2","","","3164","83","6","4","lose","no-go","0"
"pit-trial","188","1393439","0.0-88.0","battery-v0.2","","""event"",""trial"",""time""
""fullscreenenter"",""1"",""11292""
""blur"",""2"",""69900""
""focus"",""2"",""72009""
