"trial_type","trial_index","time_elapsed","internal_node_id","task_version","subject_id","interactions","blur_events","focus_events","fullscreenenter_events","fullscreenexit_events","success","view_history","rt","responses","num_errors","age","subject","participantId","rune","rune_set","hex","correct","choice","accuracy","outcome","keys","total_keys","block","practice","value"
"pavlovia","0","7","0.0-0.0","battery-v0.2","","""event"",""trial"",""time""
""fullscreenenter"",""1"",""3540""
","
","
","""event"",""trial"",""time""
""fullscreenenter"",""1"",""3540""
","
","","","","","","","","","","","","","","","","","","","",""
"fullscreen","1","4521","0.0-1.0","battery-v0.2","","""event"",""trial"",""time""
""fullscreenenter"",""1"",""3540""
","
","
","""event"",""trial"",""time""
""fullscreenenter"",""1"",""3540""
","
","true","","","","","","","","","","","","","","","","","","",""
"pit-instructions","2","8301","0.0-2.0-0.0","battery-v0.2","","""event"",""trial"",""time""
""fullscreenenter"",""1"",""3540""
","
","
","""event"",""trial"",""time""
""fullscreenenter"",""1"",""3540""
","
","","[{""page_index"":0,""viewing_time"":3779}]","3779.2000000001863","","","","","","","","","","","","","","","","",""
"pit-comprehension","3","12307","0.0-2.0-1.0-0.0","battery-v0.2","","""event"",""trial"",""time""
""fullscreenenter"",""1"",""3540""
","
","
","""event"",""trial"",""time""
""fullscreenenter"",""1"",""3540""
","
","","","4004.2000000001863","[""shark""]","0","13","10097","4854","","","","","","","","","","","",""
"pit-instructions","4","13760","0.0-2.0-1.0-1.0","battery-v0.2","","""event"",""trial"",""time""
""fullscreenenter"",""1"",""3540""
","
","
","""event"",""trial"",""time""
""fullscreenenter"",""1"",""3540""
","
","","[{""page_index"":0,""viewing_time"":1446.5999999996275}]","1446.7000000001863","","","","","","","","","","","","","","","","",""
"pit-comprehension","5","17623","0.0-2.0-2.0-0.0","battery-v0.2","","""event"",""trial"",""time""
""fullscreenenter"",""1"",""3540""
","
","
","""event"",""trial"",""time""
""fullscreenenter"",""1"",""3540""
","
","","","3861.4000000003725","[""tiger""]","0","13","10097","4854","","","","","","","","","","","",""
"pit-instructions","6","18660","0.0-2.0-2.0-1.0","battery-v0.2","","""event"",""trial"",""time""
""fullscreenenter"",""1"",""3540""
""blur"",""7"",""26513""
""focus"",""7"",""64498""
""blur"",""7"",""97004""
""focus"",""7"",""102206""
","""event"",""trial"",""time""
""blur"",""7"",""26513""
""blur"",""7"",""97004""
","""event"",""trial"",""time""
""focus"",""7"",""64498""
""focus"",""7"",""102206""
","""event"",""trial"",""time""
""fullscreenenter"",""1"",""3540""
","
","","[{""page_index"":0,""viewing_time"":1035}]","1035.2000000001863","","","","","","","","","","","","","","","","",""
"pit-instructions","7","201078","0.0-2.0-3.0","battery-v0.2","","""event"",""trial"",""time""
""fullscreenenter"",""1"",""3540""
""blur"",""7"",""26513""
""focus"",""7"",""64498""
""blur"",""7"",""97004""
""focus"",""7"",""102206""
","""event"",""trial"",""time""
""blur"",""7"",""26513""
""blur"",""7"",""97004""
","""event"",""trial"",""time""
""focus"",""7"",""64498""
""focus"",""7"",""102206""
","""event"",""trial"",""time""
""fullscreenenter"",""1"",""3540""
","
","","[{""page_index"":0,""viewing_time"":45921.299999999814},{""page_index"":1,""viewing_time"":5190.799999999814},{""page_index"":2,""viewing_time"":13263.400000000373},{""page_index"":3,""viewing_time"":5369.299999999814},{""page_index"":4,""viewing_time"":13924.399999999441},{""page_index"":5,""viewing_time"":5948.800000000745},{""page_index"":6,""viewing_time"":6822.699999999255},{""page_index"":5,""viewing_time"":2214.9000000003725},{""page_index"":6,""viewing_time"":11963.799999999814},{""page_index"":7,""viewing_time"":6225.600000000559},{""page_index"":8,""viewing_time"":7255},{""page_index"":9,""viewing_time"":21970.299999999814},{""page_index"":10,""viewing_time"":7030.700000000186},{""page_index"":11,""viewing_time"":17193.299999999814},{""page_index"":12,""viewing_time"":6774},{""page_index"":13,""viewing_time"":5348.700000000186}]","182417.19999999925","","","","","","","","","","","","","","","","",""
"pit-trial","8","205939","0.0-2.0-4.0-0.0","battery-v0.2","","""event"",""trial"",""time""
""fullscreenenter"",""1"",""3540""
""blur"",""7"",""26513""
""focus"",""7"",""64498""
""blur"",""7"",""97004""
""focus"",""7"",""102206""
","""event"",""trial"",""time""
""blur"",""7"",""26513""
""blur"",""7"",""97004""
","""event"",""trial"",""time""
""focus"",""7"",""64498""
""focus"",""7"",""102206""
","""event"",""trial"",""time""
""fullscreenenter"",""1"",""3540""
","
","","","-1","","","13","10097","4854","&#9784;","elianto","#FFFFF080"," ","-1","0","&#10060","[]","0","0","0",""
"pit-trial","9","209617","0.0-2.0-4.1-0.1","battery-v0.2","","""event"",""trial"",""time""
""fullscreenenter"",""1"",""3540""
""blur"",""7"",""26513""
""focus"",""7"",""64498""
""blur"",""7"",""97004""
""focus"",""7"",""102206""
","""event"",""trial"",""time""
""blur"",""7"",""26513""
""blur"",""7"",""97004""
","""event"",""trial"",""time""
""focus"",""7"",""64498""
""focus"",""7"",""102206""
","""event"",""trial"",""time""
""fullscreenenter"",""1"",""3540""
","
","","","815.8999999994412","","","13","10097","4854","&#9784;","elianto","#FFFFF080"," "," ","1","&#10004","[1671.6000000005588]","1","0","0",""
"pit-trial","10","212988","0.0-2.0-4.2-0.2","battery-v0.2","","""event"",""trial"",""time""
""fullscreenenter"",""1"",""3540""
""blur"",""7"",""26513""
""focus"",""7"",""64498""
""blur"",""7"",""97004""
""focus"",""7"",""102206""
","""event"",""trial"",""time""
""blur"",""7"",""26513""
""blur"",""7"",""97004""
","""event"",""trial"",""time""
""focus"",""7"",""64498""
""focus"",""7"",""102206""
","""event"",""trial"",""time""
""fullscreenenter"",""1"",""3540""
","
","","","508.80000000074506","","","13","10097","4854","&#9784;","elianto","#FFFFF080"," "," ","1","&#10004","[1360.5]","1","0","0",""
"pit-trial","11","216135","0.0-2.0-4.3-0.3","battery-v0.2","","""event"",""trial"",""time""
""fullscreenenter"",""1"",""3540""
""blur"",""7"",""26513""
""focus"",""7"",""64498""
""blur"",""7"",""97004""
""focus"",""7"",""102206""
","""event"",""trial"",""time""
""blur"",""7"",""26513""
""blur"",""7"",""97004""
","""event"",""trial"",""time""
""focus"",""7"",""64498""
""focus"",""7"",""102206""
","""event"",""trial"",""time""
""fullscreenenter"",""1"",""3540""
","
","","","276.79999999981374","","","13","10097","4854","&#9784;","elianto","#FFFFF080"," "," ","1","&#10004","[1132.2999999998137]","1","0","0",""
"pit-trial","12","219435","0.0-2.0-4.4-0.4","battery-v0.2","","""event"",""trial"",""time""
""fullscreenenter"",""1"",""3540""
""blur"",""7"",""26513""
""focus"",""7"",""64498""
""blur"",""7"",""97004""
""focus"",""7"",""102206""
","""event"",""trial"",""time""
""blur"",""7"",""26513""
""blur"",""7"",""97004""
","""event"",""trial"",""time""
""focus"",""7"",""64498""
""focus"",""7"",""102206""
","""event"",""trial"",""time""
""fullscreenenter"",""1"",""3540""
","
","","","444.09999999962747","","","13","10097","4854","&#9784;","elianto","#FFFFF080"," "," ","1","&#10004","[1295]","1","0","0",""
"pit-instructions","13","284947","0.0-2.0-5.0","battery-v0.2","","""event"",""trial"",""time""
""fullscreenenter"",""1"",""3540""
""blur"",""7"",""26513""
""focus"",""7"",""64498""
""blur"",""7"",""97004""
""focus"",""7"",""102206""
","""event"",""trial"",""time""
""blur"",""7"",""26513""
""blur"",""7"",""97004""
","""event"",""trial"",""time""
""focus"",""7"",""64498""
""focus"",""7"",""102206""
","""event"",""trial"",""time""
""fullscreenenter"",""1"",""3540""
","
","","[{""page_index"":0,""viewing_time"":9916.300000000745},{""page_index"":1,""viewing_time"":32135},{""page_index"":2,""viewing_time"":17056.599999999627},{""page_index"":3,""viewing_time"":6402.799999999814}]","65510.800000000745","","","","","","","","","","","","","","","","",""
"pit-trial","14","289821","0.0-2.0-6.0-0.0","battery-v0.2","","""event"",""trial"",""time""
""fullscreenenter"",""1"",""3540""
""blur"",""7"",""26513""
""focus"",""7"",""64498""
""blur"",""7"",""97004""
""focus"",""7"",""102206""
","""event"",""trial"",""time""
""blur"",""7"",""26513""
""blur"",""7"",""97004""
","""event"",""trial"",""time""
""focus"",""7"",""64498""
""focus"",""7"",""102206""
","""event"",""trial"",""time""
""fullscreenenter"",""1"",""3540""
","
","","","-1","","","13","10097","4854","&#9854;","elianto","#FFFFF080","-1","-1","1","&#10004","[]","0","0","1",""
"pit-trial","15","294686","0.0-2.0-6.1-0.1","battery-v0.2","","""event"",""trial"",""time""
""fullscreenenter"",""1"",""3540""
""blur"",""7"",""26513""
""focus"",""7"",""64498""
""blur"",""7"",""97004""
""focus"",""7"",""102206""
","""event"",""trial"",""time""
""blur"",""7"",""26513""
""blur"",""7"",""97004""
","""event"",""trial"",""time""
""focus"",""7"",""64498""
""focus"",""7"",""102206""
","""event"",""trial"",""time""
""fullscreenenter"",""1"",""3540""
","
","","","-1","","","13","10097","4854","&#9854;","elianto","#FFFFF080","-1","-1","1","&#10004","[]","0","0","1",""
"pit-trial","16","299547","0.0-2.0-6.2-0.2","battery-v0.2","","""event"",""trial"",""time""
""fullscreenenter"",""1"",""3540""
""blur"",""7"",""26513""
""focus"",""7"",""64498""
""blur"",""7"",""97004""
""focus"",""7"",""102206""
","""event"",""trial"",""time""
""blur"",""7"",""26513""
""blur"",""7"",""97004""
","""event"",""trial"",""time""
""focus"",""7"",""64498""
""focus"",""7"",""102206""
","""event"",""trial"",""time""
""fullscreenenter"",""1"",""3540""
","
","","","-1","","","13","10097","4854","&#9854;","elianto","#FFFFF080","-1","-1","1","&#10004","[]","0","0","1",""
"pit-trial","17","304407","0.0-2.0-6.3-0.3","battery-v0.2","","""event"",""trial"",""time""
""fullscreenenter"",""1"",""3540""
""blur"",""7"",""26513""
""focus"",""7"",""64498""
""blur"",""7"",""97004""
""focus"",""7"",""102206""
","""event"",""trial"",""time""
""blur"",""7"",""26513""
""blur"",""7"",""97004""
","""event"",""trial"",""time""
""focus"",""7"",""64498""
""focus"",""7"",""102206""
","""event"",""trial"",""time""
""fullscreenenter"",""1"",""3540""
","
","","","-1","","","13","10097","4854","&#9854;","elianto","#FFFFF080","-1","-1","1","&#10004","[]","0","0","1",""
"pit-trial","18","309281","0.0-2.0-6.4-0.4","battery-v0.2","","""event"",""trial"",""time""
""fullscreenenter"",""1"",""3540""
""blur"",""7"",""26513""
""focus"",""7"",""64498""
""blur"",""7"",""97004""
""focus"",""7"",""102206""
","""event"",""trial"",""time""
""blur"",""7"",""26513""
""blur"",""7"",""97004""
","""event"",""trial"",""time""
""focus"",""7"",""64498""
""focus"",""7"",""102206""
","""event"",""trial"",""time""
""fullscreenenter"",""1"",""3540""
","
","","","-1","","","13","10097","4854","&#9854;","elianto","#FFFFF080","-1","-1","1","&#10004","[]","0","0","1",""
"pit-instructions","19","641960","0.0-2.0-7.0","battery-v0.2","","""event"",""trial"",""time""
""fullscreenenter"",""1"",""3540""
""blur"",""7"",""26513""
""focus"",""7"",""64498""
""blur"",""7"",""97004""
""focus"",""7"",""102206""
","""event"",""trial"",""time""
""blur"",""7"",""26513""
""blur"",""7"",""97004""
","""event"",""trial"",""time""
""focus"",""7"",""64498""
""focus"",""7"",""102206""
","""event"",""trial"",""time""
""fullscreenenter"",""1"",""3540""
","
","","[{""page_index"":0,""viewing_time"":8167.4000000003725},{""page_index"":1,""viewing_time"":6447.700000000186},{""page_index"":2,""viewing_time"":10272},{""page_index"":3,""viewing_time"":8539.5},{""page_index"":4,""viewing_time"":7730.0999999996275},{""page_index"":5,""viewing_time"":5482.799999999814},{""page_index"":6,""viewing_time"":13628.5},{""page_index"":7,""viewing_time"":7810.5},{""page_index"":8,""viewing_time"":15612.400000000373},{""page_index"":9,""viewing_time"":115728.59999999963},{""page_index"":10,""viewing_time"":8619.600000000559},{""page_index"":11,""viewing_time"":30745},{""page_index"":12,""viewing_time"":6086.799999999814},{""page_index"":13,""viewing_time"":10749.099999999627},{""page_index"":14,""viewing_time"":37393.40000000037},{""page_index"":15,""viewing_time"":18644.39999999944},{""page_index"":16,""viewing_time"":10316.700000000186},{""page_index"":17,""viewing_time"":10702.600000000559}]","332677.2999999998","","","","","","","","","","","","","","","","",""
"pit-trial","20","646829","0.0-2.0-8.0-0.0","battery-v0.2","","""event"",""trial"",""time""
""fullscreenenter"",""1"",""3540""
""blur"",""7"",""26513""
""focus"",""7"",""64498""
""blur"",""7"",""97004""
""focus"",""7"",""102206""
","""event"",""trial"",""time""
""blur"",""7"",""26513""
""blur"",""7"",""97004""
","""event"",""trial"",""time""
""focus"",""7"",""64498""
""focus"",""7"",""102206""
","""event"",""trial"",""time""
""fullscreenenter"",""1"",""3540""
","
","","","-1","","","13","10097","4854","&#9776;","elianto","#3366ff99"," ","-1","0","0","[]","0","0","1",""
"pit-trial","21","650424","0.0-2.0-8.0-1.0","battery-v0.2","","""event"",""trial"",""time""
""fullscreenenter"",""1"",""3540""
""blur"",""7"",""26513""
""focus"",""7"",""64498""
""blur"",""7"",""97004""
""focus"",""7"",""102206""
","""event"",""trial"",""time""
""blur"",""7"",""26513""
""blur"",""7"",""97004""
","""event"",""trial"",""time""
""focus"",""7"",""64498""
""focus"",""7"",""102206""
","""event"",""trial"",""time""
""fullscreenenter"",""1"",""3540""
","
","","","731.7000000001863","","","13","10097","4854","&#9776;","elianto","#3366ff99"," "," ","1","+10","[1582.7999999998137]","1","0","1",""
"pit-trial","22","653863","0.0-2.0-8.0-2.0","battery-v0.2","","""event"",""trial"",""time""
""fullscreenenter"",""1"",""3540""
""blur"",""7"",""26513""
""focus"",""7"",""64498""
""blur"",""7"",""97004""
""focus"",""7"",""102206""
","""event"",""trial"",""time""
""blur"",""7"",""26513""
""blur"",""7"",""97004""
","""event"",""trial"",""time""
""focus"",""7"",""64498""
""focus"",""7"",""102206""
","""event"",""trial"",""time""
""fullscreenenter"",""1"",""3540""
","
","","","574.3999999994412","","","13","10097","4854","&#9776;","elianto","#3366ff99"," "," ","1","+10","[1427.7000000001863]","1","0","1",""
"pit-trial","23","657270","0.0-2.0-8.0-3.0","battery-v0.2","","""event"",""trial"",""time""
""fullscreenenter"",""1"",""3540""
""blur"",""7"",""26513""
""focus"",""7"",""64498""
""blur"",""7"",""97004""
""focus"",""7"",""102206""
","""event"",""trial"",""time""
""blur"",""7"",""26513""
""blur"",""7"",""97004""
","""event"",""trial"",""time""
""focus"",""7"",""64498""
""focus"",""7"",""102206""
","""event"",""trial"",""time""
""fullscreenenter"",""1"",""3540""
","
","","","543.5","","","13","10097","4854","&#9776;","elianto","#3366ff99"," "," ","1","0","[1395.8999999994412]","1","0","1",""
"pit-trial","24","660481","0.0-2.0-8.0-4.0","battery-v0.2","","""event"",""trial"",""time""
""fullscreenenter"",""1"",""3540""
""blur"",""7"",""26513""
""focus"",""7"",""64498""
""blur"",""7"",""97004""
""focus"",""7"",""102206""
","""event"",""trial"",""time""
""blur"",""7"",""26513""
""blur"",""7"",""97004""
","""event"",""trial"",""time""
""focus"",""7"",""64498""
""focus"",""7"",""102206""
","""event"",""trial"",""time""
""fullscreenenter"",""1"",""3540""
","
","","","341.90000000037253","","","13","10097","4854","&#9776;","elianto","#3366ff99"," "," ","1","+10","[1196.7000000001863]","1","0","1",""
"pit-trial","25","663825","0.0-2.0-8.1-0.1","battery-v0.2","","""event"",""trial"",""time""
""fullscreenenter"",""1"",""3540""
""blur"",""7"",""26513""
""focus"",""7"",""64498""
""blur"",""7"",""97004""
""focus"",""7"",""102206""
","""event"",""trial"",""time""
""blur"",""7"",""26513""
""blur"",""7"",""97004""
","""event"",""trial"",""time""
""focus"",""7"",""64498""
""focus"",""7"",""102206""
","""event"",""trial"",""time""
""fullscreenenter"",""1"",""3540""
","
","","","478.6000000005588","","","13","10097","4854","&#9776;","elianto","#3366ff99"," "," ","1","+10","[1329.9000000003725]","1","0","1",""
"pit-trial","26","667081","0.0-2.0-8.1-1.1","battery-v0.2","","""event"",""trial"",""time""
""fullscreenenter"",""1"",""3540""
""blur"",""7"",""26513""
""focus"",""7"",""64498""
""blur"",""7"",""97004""
""focus"",""7"",""102206""
","""event"",""trial"",""time""
""blur"",""7"",""26513""
""blur"",""7"",""97004""
","""event"",""trial"",""time""
""focus"",""7"",""64498""
""focus"",""7"",""102206""
","""event"",""trial"",""time""
""fullscreenenter"",""1"",""3540""
","
","","","387.90000000037253","","","13","10097","4854","&#9776;","elianto","#3366ff99"," "," ","1","+10","[1239.9000000003725]","1","0","1",""
"pit-trial","27","670434","0.0-2.0-8.1-2.1","battery-v0.2","","""event"",""trial"",""time""
""fullscreenenter"",""1"",""3540""
""blur"",""7"",""26513""
""focus"",""7"",""64498""
""blur"",""7"",""97004""
""focus"",""7"",""102206""
","""event"",""trial"",""time""
""blur"",""7"",""26513""
""blur"",""7"",""97004""
","""event"",""trial"",""time""
""focus"",""7"",""64498""
""focus"",""7"",""102206""
","""event"",""trial"",""time""
""fullscreenenter"",""1"",""3540""
","
","","","501.5","","","13","10097","4854","&#9776;","elianto","#3366ff99"," "," ","1","+10","[1351.5]","1","0","1",""
"pit-trial","28","673362","0.0-2.0-8.1-3.1","battery-v0.2","","""event"",""trial"",""time""
""fullscreenenter"",""1"",""3540""
""blur"",""7"",""26513""
""focus"",""7"",""64498""
""blur"",""7"",""97004""
""focus"",""7"",""102206""
","""event"",""trial"",""time""
""blur"",""7"",""26513""
""blur"",""7"",""97004""
","""event"",""trial"",""time""
""focus"",""7"",""64498""
""focus"",""7"",""102206""
","""event"",""trial"",""time""
""fullscreenenter"",""1"",""3540""
","
","","","76.6000000005588","","","13","10097","4854","&#9776;","elianto","#3366ff99"," "," ","1","0","[926.7000000001863,1754.9000000003725]","2","0","1",""
"pit-trial","29","676574","0.0-2.0-8.1-4.1","battery-v0.2","","""event"",""trial"",""time""
""fullscreenenter"",""1"",""3540""
""blur"",""7"",""26513""
""focus"",""7"",""64498""
""blur"",""7"",""97004""
""focus"",""7"",""102206""
","""event"",""trial"",""time""
""blur"",""7"",""26513""
""blur"",""7"",""97004""
","""event"",""trial"",""time""
""focus"",""7"",""64498""
""focus"",""7"",""102206""
","""event"",""trial"",""time""
""fullscreenenter"",""1"",""3540""
","
","","","359.8999999994412","","","13","10097","4854","&#9776;","elianto","#3366ff99"," "," ","1","+10","[834.6999999992549,1210.699999999255]","2","0","1",""
"pit-trial","30","679456","0.0-2.0-8.2-0.2","battery-v0.2","","""event"",""trial"",""time""
""fullscreenenter"",""1"",""3540""
""blur"",""7"",""26513""
""focus"",""7"",""64498""
""blur"",""7"",""97004""
""focus"",""7"",""102206""
","""event"",""trial"",""time""
""blur"",""7"",""26513""
""blur"",""7"",""97004""
","""event"",""trial"",""time""
""focus"",""7"",""64498""
""focus"",""7"",""102206""
","""event"",""trial"",""time""
""fullscreenenter"",""1"",""3540""
","
","","","30.5","","","13","10097","4854","&#9776;","elianto","#3366ff99"," "," ","1","+10","[880.6000000005588]","1","0","1",""
"pit-trial","31","683007","0.0-2.0-8.2-1.2","battery-v0.2","","""event"",""trial"",""time""
""fullscreenenter"",""1"",""3540""
""blur"",""7"",""26513""
""focus"",""7"",""64498""
""blur"",""7"",""97004""
""focus"",""7"",""102206""
","""event"",""trial"",""time""
""blur"",""7"",""26513""
""blur"",""7"",""97004""
","""event"",""trial"",""time""
""focus"",""7"",""64498""
""focus"",""7"",""102206""
","""event"",""trial"",""time""
""fullscreenenter"",""1"",""3540""
","
","","","698.7000000001863","","","13","10097","4854","&#9776;","elianto","#3366ff99"," "," ","1","+10","[1548.7999999998137]","1","0","1",""
"pit-trial","32","686001","0.0-2.0-8.2-2.2","battery-v0.2","","""event"",""trial"",""time""
""fullscreenenter"",""1"",""3540""
""blur"",""7"",""26513""
""focus"",""7"",""64498""
""blur"",""7"",""97004""
""focus"",""7"",""102206""
","""event"",""trial"",""time""
""blur"",""7"",""26513""
""blur"",""7"",""97004""
","""event"",""trial"",""time""
""focus"",""7"",""64498""
""focus"",""7"",""102206""
","""event"",""trial"",""time""
""fullscreenenter"",""1"",""3540""
","
","","","142.70000000018626","","","13","10097","4854","&#9776;","elianto","#3366ff99"," "," ","1","+10","[993]","1","0","1",""
"pit-trial","33","688968","0.0-2.0-8.2-3.2","battery-v0.2","","""event"",""trial"",""time""
""fullscreenenter"",""1"",""3540""
""blur"",""7"",""26513""
""focus"",""7"",""64498""
""blur"",""7"",""97004""
""focus"",""7"",""102206""
","""event"",""trial"",""time""
""blur"",""7"",""26513""
""blur"",""7"",""97004""
","""event"",""trial"",""time""
""focus"",""7"",""64498""
""focus"",""7"",""102206""
","""event"",""trial"",""time""
""fullscreenenter"",""1"",""3540""
","
","","","114.09999999962747","","","13","10097","4854","&#9776;","elianto","#3366ff99"," "," ","1","0","[964.5]","1","0","1",""
"pit-trial","34","691971","0.0-2.0-8.2-4.2","battery-v0.2","","""event"",""trial"",""time""
""fullscreenenter"",""1"",""3540""
""blur"",""7"",""26513""
""focus"",""7"",""64498""
""blur"",""7"",""97004""
""focus"",""7"",""102206""
","""event"",""trial"",""time""
""blur"",""7"",""26513""
""blur"",""7"",""97004""
","""event"",""trial"",""time""
""focus"",""7"",""64498""
""focus"",""7"",""102206""
","""event"",""trial"",""time""
""fullscreenenter"",""1"",""3540""
","
","","","150.3999999994412","","","13","10097","4854","&#9776;","elianto","#3366ff99"," "," ","1","+10","[1001.2999999998137]","1","0","1",""
"call-function","35","691972","0.0-2.0-9.0","battery-v0.2","","""event"",""trial"",""time""
""fullscreenenter"",""1"",""3540""
""blur"",""7"",""26513""
""focus"",""7"",""64498""
""blur"",""7"",""97004""
""focus"",""7"",""102206""
","""event"",""trial"",""time""
""blur"",""7"",""26513""
""blur"",""7"",""97004""
","""event"",""trial"",""time""
""focus"",""7"",""64498""
""focus"",""7"",""102206""
","""event"",""trial"",""time""
""fullscreenenter"",""1"",""3540""
","
","","","","","","","","","","","","","","","","","","","",""
"pit-instructions","36","790047","0.0-2.0-10.0","battery-v0.2","","""event"",""trial"",""time""
""fullscreenenter"",""1"",""3540""
""blur"",""7"",""26513""
""focus"",""7"",""64498""
""blur"",""7"",""97004""
""focus"",""7"",""102206""
","""event"",""trial"",""time""
""blur"",""7"",""26513""
""blur"",""7"",""97004""
","""event"",""trial"",""time""
""focus"",""7"",""64498""
""focus"",""7"",""102206""
","""event"",""trial"",""time""
""fullscreenenter"",""1"",""3540""
","
","","[{""page_index"":0,""viewing_time"":6551.9000000003725},{""page_index"":1,""viewing_time"":35567.89999999944},{""page_index"":2,""viewing_time"":16941.300000000745},{""page_index"":3,""viewing_time"":14158.699999999255},{""page_index"":4,""viewing_time"":24855.300000000745}]","98075.29999999981","","","","","","","","","","","","","","","","",""
"pit-trial","37","794913","0.0-2.0-11.0-0.0","battery-v0.2","","""event"",""trial"",""time""
""fullscreenenter"",""1"",""3540""
""blur"",""7"",""26513""
""focus"",""7"",""64498""
""blur"",""7"",""97004""
""focus"",""7"",""102206""
","""event"",""trial"",""time""
""blur"",""7"",""26513""
""blur"",""7"",""97004""
","""event"",""trial"",""time""
""focus"",""7"",""64498""
""focus"",""7"",""102206""
","""event"",""trial"",""time""
""fullscreenenter"",""1"",""3540""
","
","","","-1","","","13","10097","4854","&#9761;","elianto","#3366ff99","-1","-1","1","+10","[3741.2000000001863]","1","0","2",""
"pit-trial","38","798452","0.0-2.0-11.0-1.0","battery-v0.2","","""event"",""trial"",""time""
""fullscreenenter"",""1"",""3540""
""blur"",""7"",""26513""
""focus"",""7"",""64498""
""blur"",""7"",""97004""
""focus"",""7"",""102206""
","""event"",""trial"",""time""
""blur"",""7"",""26513""
""blur"",""7"",""97004""
","""event"",""trial"",""time""
""focus"",""7"",""64498""
""focus"",""7"",""102206""
","""event"",""trial"",""time""
""fullscreenenter"",""1"",""3540""
","
","","","671.4000000003725","","","13","10097","4854","&#9761;","elianto","#3366ff99","-1"," ","0","0","[1521.6000000005588]","1","0","2",""
"pit-trial","39","802073","0.0-2.0-11.0-2.0","battery-v0.2","","""event"",""trial"",""time""
""fullscreenenter"",""1"",""3540""
""blur"",""7"",""26513""
""focus"",""7"",""64498""
""blur"",""7"",""97004""
""focus"",""7"",""102206""
","""event"",""trial"",""time""
""blur"",""7"",""26513""
""blur"",""7"",""97004""
","""event"",""trial"",""time""
""focus"",""7"",""64498""
""focus"",""7"",""102206""
","""event"",""trial"",""time""
""fullscreenenter"",""1"",""3540""
","
","","","755.5999999996275","","","13","10097","4854","&#9761;","elianto","#3366ff99","-1"," ","0","0","[1608.2999999998137]","1","0","2",""
"pit-trial","40","805465","0.0-2.0-11.0-3.0","battery-v0.2","","""event"",""trial"",""time""
""fullscreenenter"",""1"",""3540""
""blur"",""7"",""26513""
""focus"",""7"",""64498""
""blur"",""7"",""97004""
""focus"",""7"",""102206""
","""event"",""trial"",""time""
""blur"",""7"",""26513""
""blur"",""7"",""97004""
","""event"",""trial"",""time""
""focus"",""7"",""64498""
""focus"",""7"",""102206""
","""event"",""trial"",""time""
""fullscreenenter"",""1"",""3540""
","
","","","540.7000000001863","","","13","10097","4854","&#9761;","elianto","#3366ff99","-1"," ","0","+10","[1390.9000000003725]","1","0","2",""
"pit-trial","41","809138","0.0-2.0-11.0-4.0","battery-v0.2","","""event"",""trial"",""time""
""fullscreenenter"",""1"",""3540""
""blur"",""7"",""26513""
""focus"",""7"",""64498""
""blur"",""7"",""97004""
""focus"",""7"",""102206""
","""event"",""trial"",""time""
""blur"",""7"",""26513""
""blur"",""7"",""97004""
","""event"",""trial"",""time""
""focus"",""7"",""64498""
""focus"",""7"",""102206""
","""event"",""trial"",""time""
""fullscreenenter"",""1"",""3540""
","
","","","820.7000000001863","","","13","10097","4854","&#9761;","elianto","#3366ff99","-1"," ","0","0","[1671.1000000005588]","1","0","2",""
"pit-trial","42","813990","0.0-2.0-11.1-0.1","battery-v0.2","","""event"",""trial"",""time""
""fullscreenenter"",""1"",""3540""
""blur"",""7"",""26513""
""focus"",""7"",""64498""
""blur"",""7"",""97004""
""focus"",""7"",""102206""
","""event"",""trial"",""time""
""blur"",""7"",""26513""
""blur"",""7"",""97004""
","""event"",""trial"",""time""
""focus"",""7"",""64498""
""focus"",""7"",""102206""
","""event"",""trial"",""time""
""fullscreenenter"",""1"",""3540""
","
","","","-1","","","13","10097","4854","&#9761;","elianto","#3366ff99","-1","-1","1","+10","[]","0","0","2",""
"pit-trial","43","818842","0.0-2.0-11.1-1.1","battery-v0.2","","""event"",""trial"",""time""
""fullscreenenter"",""1"",""3540""
""blur"",""7"",""26513""
""focus"",""7"",""64498""
""blur"",""7"",""97004""
""focus"",""7"",""102206""
","""event"",""trial"",""time""
""blur"",""7"",""26513""
""blur"",""7"",""97004""
","""event"",""trial"",""time""
""focus"",""7"",""64498""
""focus"",""7"",""102206""
","""event"",""trial"",""time""
""fullscreenenter"",""1"",""3540""
","
","","","-1","","","13","10097","4854","&#9761;","elianto","#3366ff99","-1","-1","1","+10","[]","0","0","2",""
"pit-trial","44","823152","0.0-2.0-11.1-2.1","battery-v0.2","","""event"",""trial"",""time""
""fullscreenenter"",""1"",""3540""
""blur"",""7"",""26513""
""focus"",""7"",""64498""
""blur"",""7"",""97004""
""focus"",""7"",""102206""
","""event"",""trial"",""time""
""blur"",""7"",""26513""
""blur"",""7"",""97004""
","""event"",""trial"",""time""
""focus"",""7"",""64498""
""focus"",""7"",""102206""
","""event"",""trial"",""time""
""fullscreenenter"",""1"",""3540""
","
","","","1457.5","","","13","10097","4854","&#9761;","elianto","#3366ff99","-1"," ","0","0","[2308.7000000001863]","1","0","2",""
"pit-trial","45","827114","0.0-2.0-11.1-3.1","battery-v0.2","","""event"",""trial"",""time""
""fullscreenenter"",""1"",""3540""
""blur"",""7"",""26513""
""focus"",""7"",""64498""
""blur"",""7"",""97004""
""focus"",""7"",""102206""
","""event"",""trial"",""time""
""blur"",""7"",""26513""
""blur"",""7"",""97004""
","""event"",""trial"",""time""
""focus"",""7"",""64498""
""focus"",""7"",""102206""
","""event"",""trial"",""time""
""fullscreenenter"",""1"",""3540""
","
","","","1110.5","","","13","10097","4854","&#9761;","elianto","#3366ff99","-1"," ","0","+10","[1960.4000000003725]","1","0","2",""
"pit-trial","46","831967","0.0-2.0-11.1-4.1","battery-v0.2","","""event"",""trial"",""time""
""fullscreenenter"",""1"",""3540""
""blur"",""7"",""26513""
""focus"",""7"",""64498""
""blur"",""7"",""97004""
""focus"",""7"",""102206""
","""event"",""trial"",""time""
""blur"",""7"",""26513""
""blur"",""7"",""97004""
","""event"",""trial"",""time""
""focus"",""7"",""64498""
""focus"",""7"",""102206""
","""event"",""trial"",""time""
""fullscreenenter"",""1"",""3540""
","
","","","-1","","","13","10097","4854","&#9761;","elianto","#3366ff99","-1","-1","1","+10","[]","0","0","2",""
"pit-trial","47","836819","0.0-2.0-11.2-0.2","battery-v0.2","","""event"",""trial"",""time""
""fullscreenenter"",""1"",""3540""
""blur"",""7"",""26513""
""focus"",""7"",""64498""
""blur"",""7"",""97004""
""focus"",""7"",""102206""
","""event"",""trial"",""time""
""blur"",""7"",""26513""
""blur"",""7"",""97004""
","""event"",""trial"",""time""
""focus"",""7"",""64498""
""focus"",""7"",""102206""
","""event"",""trial"",""time""
""fullscreenenter"",""1"",""3540""
","
","","","-1","","","13","10097","4854","&#9761;","elianto","#3366ff99","-1","-1","1","+10","[]","0","0","2",""
"pit-trial","48","841004","0.0-2.0-11.2-1.2","battery-v0.2","","""event"",""trial"",""time""
""fullscreenenter"",""1"",""3540""
""blur"",""7"",""26513""
""focus"",""7"",""64498""
""blur"",""7"",""97004""
""focus"",""7"",""102206""
","""event"",""trial"",""time""
""blur"",""7"",""26513""
""blur"",""7"",""97004""
","""event"",""trial"",""time""
""focus"",""7"",""64498""
""focus"",""7"",""102206""
","""event"",""trial"",""time""
""fullscreenenter"",""1"",""3540""
","
","","","1333.2999999998137","","","13","10097","4854","&#9761;","elianto","#3366ff99","-1"," ","0","0","[2183.2999999998137]","1","0","2",""
"pit-trial","49","844673","0.0-2.0-11.2-2.2","battery-v0.2","","""event"",""trial"",""time""
""fullscreenenter"",""1"",""3540""
""blur"",""7"",""26513""
""focus"",""7"",""64498""
""blur"",""7"",""97004""
""focus"",""7"",""102206""
","""event"",""trial"",""time""
""blur"",""7"",""26513""
""blur"",""7"",""97004""
","""event"",""trial"",""time""
""focus"",""7"",""64498""
""focus"",""7"",""102206""
","""event"",""trial"",""time""
""fullscreenenter"",""1"",""3540""
","
","","","816.7999999998137","","","13","10097","4854","&#9761;","elianto","#3366ff99","-1"," ","0","0","[1667.2999999998137]","1","0","2",""
"pit-trial","50","849525","0.0-2.0-11.2-3.2","battery-v0.2","","""event"",""trial"",""time""
""fullscreenenter"",""1"",""3540""
""blur"",""7"",""26513""
""focus"",""7"",""64498""
""blur"",""7"",""97004""
""focus"",""7"",""102206""
","""event"",""trial"",""time""
""blur"",""7"",""26513""
""blur"",""7"",""97004""
","""event"",""trial"",""time""
""focus"",""7"",""64498""
""focus"",""7"",""102206""
","""event"",""trial"",""time""
""fullscreenenter"",""1"",""3540""
","
","","","-1","","","13","10097","4854","&#9761;","elianto","#3366ff99","-1","-1","1","0","[]","0","0","2",""
"pit-trial","51","854376","0.0-2.0-11.2-4.2","battery-v0.2","","""event"",""trial"",""time""
""fullscreenenter"",""1"",""3540""
""blur"",""7"",""26513""
""focus"",""7"",""64498""
""blur"",""7"",""97004""
""focus"",""7"",""102206""
","""event"",""trial"",""time""
""blur"",""7"",""26513""
""blur"",""7"",""97004""
","""event"",""trial"",""time""
""focus"",""7"",""64498""
""focus"",""7"",""102206""
","""event"",""trial"",""time""
""fullscreenenter"",""1"",""3540""
","
","","","-1","","","13","10097","4854","&#9761;","elianto","#3366ff99","-1","-1","1","+10","[]","0","0","2",""
"pit-trial","52","859228","0.0-2.0-11.3-0.3","battery-v0.2","","""event"",""trial"",""time""
""fullscreenenter"",""1"",""3540""
""blur"",""7"",""26513""
""focus"",""7"",""64498""
""blur"",""7"",""97004""
""focus"",""7"",""102206""
","""event"",""trial"",""time""
""blur"",""7"",""26513""
""blur"",""7"",""97004""
","""event"",""trial"",""time""
""focus"",""7"",""64498""
""focus"",""7"",""102206""
","""event"",""trial"",""time""
""fullscreenenter"",""1"",""3540""
","
","","","-1","","","13","10097","4854","&#9761;","elianto","#3366ff99","-1","-1","1","+10","[]","0","0","2",""
"pit-trial","53","864080","0.0-2.0-11.3-1.3","battery-v0.2","","""event"",""trial"",""time""
""fullscreenenter"",""1"",""3540""
""blur"",""7"",""26513""
""focus"",""7"",""64498""
""blur"",""7"",""97004""
""focus"",""7"",""102206""
","""event"",""trial"",""time""
""blur"",""7"",""26513""
""blur"",""7"",""97004""
","""event"",""trial"",""time""
""focus"",""7"",""64498""
""focus"",""7"",""102206""
","""event"",""trial"",""time""
""fullscreenenter"",""1"",""3540""
","
","","","-1","","","13","10097","4854","&#9761;","elianto","#3366ff99","-1","-1","1","+10","[]","0","0","2",""
"pit-trial","54","868933","0.0-2.0-11.3-2.3","battery-v0.2","","""event"",""trial"",""time""
""fullscreenenter"",""1"",""3540""
""blur"",""7"",""26513""
""focus"",""7"",""64498""
""blur"",""7"",""97004""
""focus"",""7"",""102206""
","""event"",""trial"",""time""
""blur"",""7"",""26513""
""blur"",""7"",""97004""
","""event"",""trial"",""time""
""focus"",""7"",""64498""
""focus"",""7"",""102206""
","""event"",""trial"",""time""
""fullscreenenter"",""1"",""3540""
","
","","","-1","","","13","10097","4854","&#9761;","elianto","#3366ff99","-1","-1","1","+10","[]","0","0","2",""
"pit-trial","55","873786","0.0-2.0-11.3-3.3","battery-v0.2","","""event"",""trial"",""time""
""fullscreenenter"",""1"",""3540""
""blur"",""7"",""26513""
""focus"",""7"",""64498""
""blur"",""7"",""97004""
""focus"",""7"",""102206""
","""event"",""trial"",""time""
""blur"",""7"",""26513""
""blur"",""7"",""97004""
","""event"",""trial"",""time""
""focus"",""7"",""64498""
""focus"",""7"",""102206""
","""event"",""trial"",""time""
""fullscreenenter"",""1"",""3540""
","
","","","-1","","","13","10097","4854","&#9761;","elianto","#3366ff99","-1","-1","1","0","[]","0","0","2",""
"pit-trial","56","878637","0.0-2.0-11.3-4.3","battery-v0.2","","""event"",""trial"",""time""
""fullscreenenter"",""1"",""3540""
""blur"",""7"",""26513""
""focus"",""7"",""64498""
""blur"",""7"",""97004""
""focus"",""7"",""102206""
","""event"",""trial"",""time""
""blur"",""7"",""26513""
""blur"",""7"",""97004""
","""event"",""trial"",""time""
""focus"",""7"",""64498""
""focus"",""7"",""102206""
","""event"",""trial"",""time""
""fullscreenenter"",""1"",""3540""
","
","","","-1","","","13","10097","4854","&#9761;","elianto","#3366ff99","-1","-1","1","+10","[]","0","0","2",""
"call-function","57","878638","0.0-2.0-12.0","battery-v0.2","","""event"",""trial"",""time""
""fullscreenenter"",""1"",""3540""
""blur"",""7"",""26513""
""focus"",""7"",""64498""
""blur"",""7"",""97004""
""focus"",""7"",""102206""
","""event"",""trial"",""time""
""blur"",""7"",""26513""
""blur"",""7"",""97004""
","""event"",""trial"",""time""
""focus"",""7"",""64498""
""focus"",""7"",""102206""
","""event"",""trial"",""time""
""fullscreenenter"",""1"",""3540""
","
","","","","","","","","","","","","","","","","","","","",""
"pit-instructions","58","938320","0.0-2.0-13.0","battery-v0.2","","""event"",""trial"",""time""
""fullscreenenter"",""1"",""3540""
""blur"",""7"",""26513""
""focus"",""7"",""64498""
""blur"",""7"",""97004""
""focus"",""7"",""102206""
","""event"",""trial"",""time""
""blur"",""7"",""26513""
""blur"",""7"",""97004""
","""event"",""trial"",""time""
""focus"",""7"",""64498""
""focus"",""7"",""102206""
","""event"",""trial"",""time""
""fullscreenenter"",""1"",""3540""
","
","","[{""page_index"":0,""viewing_time"":8396.099999999627},{""page_index"":1,""viewing_time"":15835.400000000373},{""page_index"":2,""viewing_time"":10723.700000000186},{""page_index"":3,""viewing_time"":10407.699999999255},{""page_index"":4,""viewing_time"":14319.5}]","59682.59999999963","","","","","","","","","","","","","","","","",""
"pit-trial","59","943180","0.0-2.0-14.0-0.0","battery-v0.2","","""event"",""trial"",""time""
""fullscreenenter"",""1"",""3540""
""blur"",""7"",""26513""
""focus"",""7"",""64498""
""blur"",""7"",""97004""
""focus"",""7"",""102206""
","""event"",""trial"",""time""
""blur"",""7"",""26513""
""blur"",""7"",""97004""
","""event"",""trial"",""time""
""focus"",""7"",""64498""
""focus"",""7"",""102206""
","""event"",""trial"",""time""
""fullscreenenter"",""1"",""3540""
","
","","","-1","","","13","10097","4854","&#9826;","elianto","#f73b6a7A","-1","-1","1","0","[]","0","0","3",""
"pit-trial","60","948042","0.0-2.0-14.0-1.0","battery-v0.2","","""event"",""trial"",""time""
""fullscreenenter"",""1"",""3540""
""blur"",""7"",""26513""
""focus"",""7"",""64498""
""blur"",""7"",""97004""
""focus"",""7"",""102206""
","""event"",""trial"",""time""
""blur"",""7"",""26513""
""blur"",""7"",""97004""
","""event"",""trial"",""time""
""focus"",""7"",""64498""
""focus"",""7"",""102206""
","""event"",""trial"",""time""
""fullscreenenter"",""1"",""3540""
","
","","","-1","","","13","10097","4854","&#9826;","elianto","#f73b6a7A","-1","-1","1","0","[]","0","0","3",""
"pit-trial","61","952910","0.0-2.0-14.0-2.0","battery-v0.2","","""event"",""trial"",""time""
""fullscreenenter"",""1"",""3540""
""blur"",""7"",""26513""
""focus"",""7"",""64498""
""blur"",""7"",""97004""
""focus"",""7"",""102206""
","""event"",""trial"",""time""
""blur"",""7"",""26513""
""blur"",""7"",""97004""
","""event"",""trial"",""time""
""focus"",""7"",""64498""
""focus"",""7"",""102206""
","""event"",""trial"",""time""
""fullscreenenter"",""1"",""3540""
","
","","","-1","","","13","10097","4854","&#9826;","elianto","#f73b6a7A","-1","-1","1","0","[]","0","0","3",""
"pit-trial","62","956203","0.0-2.0-14.0-3.0","battery-v0.2","","""event"",""trial"",""time""
""fullscreenenter"",""1"",""3540""
""blur"",""7"",""26513""
""focus"",""7"",""64498""
""blur"",""7"",""97004""
""focus"",""7"",""102206""
","""event"",""trial"",""time""
""blur"",""7"",""26513""
""blur"",""7"",""97004""
","""event"",""trial"",""time""
""focus"",""7"",""64498""
""focus"",""7"",""102206""
","""event"",""trial"",""time""
""fullscreenenter"",""1"",""3540""
","
","","","422.80000000074506","","","13","10097","4854","&#9826;","elianto","#f73b6a7A","-1"," ","0","0","[1277]","1","0","3",""
"pit-trial","63","961056","0.0-2.0-14.0-4.0","battery-v0.2","","""event"",""trial"",""time""
""fullscreenenter"",""1"",""3540""
""blur"",""7"",""26513""
""focus"",""7"",""64498""
""blur"",""7"",""97004""
""focus"",""7"",""102206""
","""event"",""trial"",""time""
""blur"",""7"",""26513""
""blur"",""7"",""97004""
","""event"",""trial"",""time""
""focus"",""7"",""64498""
""focus"",""7"",""102206""
","""event"",""trial"",""time""
""fullscreenenter"",""1"",""3540""
","
","","","-1","","","13","10097","4854","&#9826;","elianto","#f73b6a7A","-1","-1","1","0","[]","0","0","3",""
"pit-trial","64","965909","0.0-2.0-14.1-0.1","battery-v0.2","","""event"",""trial"",""time""
""fullscreenenter"",""1"",""3540""
""blur"",""7"",""26513""
""focus"",""7"",""64498""
""blur"",""7"",""97004""
""focus"",""7"",""102206""
","""event"",""trial"",""time""
""blur"",""7"",""26513""
""blur"",""7"",""97004""
","""event"",""trial"",""time""
""focus"",""7"",""64498""
""focus"",""7"",""102206""
","""event"",""trial"",""time""
""fullscreenenter"",""1"",""3540""
","
","","","-1","","","13","10097","4854","&#9826;","elianto","#f73b6a7A","-1","-1","1","0","[]","0","0","3",""
"pit-trial","65","970761","0.0-2.0-14.1-1.1","battery-v0.2","","""event"",""trial"",""time""
""fullscreenenter"",""1"",""3540""
""blur"",""7"",""26513""
""focus"",""7"",""64498""
""blur"",""7"",""97004""
""focus"",""7"",""102206""
","""event"",""trial"",""time""
""blur"",""7"",""26513""
""blur"",""7"",""97004""
","""event"",""trial"",""time""
""focus"",""7"",""64498""
""focus"",""7"",""102206""
","""event"",""trial"",""time""
""fullscreenenter"",""1"",""3540""
","
","","","-1","","","13","10097","4854","&#9826;","elianto","#f73b6a7A","-1","-1","1","0","[]","0","0","3",""
"pit-trial","66","974177","0.0-2.0-14.1-2.1","battery-v0.2","","""event"",""trial"",""time""
""fullscreenenter"",""1"",""3540""
""blur"",""7"",""26513""
""focus"",""7"",""64498""
""blur"",""7"",""97004""
""focus"",""7"",""102206""
","""event"",""trial"",""time""
""blur"",""7"",""26513""
""blur"",""7"",""97004""
","""event"",""trial"",""time""
""focus"",""7"",""64498""
""focus"",""7"",""102206""
","""event"",""trial"",""time""
""fullscreenenter"",""1"",""3540""
","
","","","563.9000000003725","","","13","10097","4854","&#9826;","elianto","#f73b6a7A","-1"," ","0","-10","[1414.2999999998137]","1","0","3",""
"pit-trial","67","979030","0.0-2.0-14.1-3.1","battery-v0.2","","""event"",""trial"",""time""
""fullscreenenter"",""1"",""3540""
""blur"",""7"",""26513""
""focus"",""7"",""64498""
""blur"",""7"",""97004""
""focus"",""7"",""102206""
","""event"",""trial"",""time""
""blur"",""7"",""26513""
""blur"",""7"",""97004""
","""event"",""trial"",""time""
""focus"",""7"",""64498""
""focus"",""7"",""102206""
","""event"",""trial"",""time""
""fullscreenenter"",""1"",""3540""
","
","","","-1","","","13","10097","4854","&#9826;","elianto","#f73b6a7A","-1","-1","1","-10","[]","0","0","3",""
"pit-trial","68","983883","0.0-2.0-14.1-4.1","battery-v0.2","","""event"",""trial"",""time""
""fullscreenenter"",""1"",""3540""
""blur"",""7"",""26513""
""focus"",""7"",""64498""
""blur"",""7"",""97004""
""focus"",""7"",""102206""
","""event"",""trial"",""time""
""blur"",""7"",""26513""
""blur"",""7"",""97004""
","""event"",""trial"",""time""
""focus"",""7"",""64498""
""focus"",""7"",""102206""
","""event"",""trial"",""time""
""fullscreenenter"",""1"",""3540""
","
","","","-1","","","13","10097","4854","&#9826;","elianto","#f73b6a7A","-1","-1","1","0","[]","0","0","3",""
"pit-trial","69","988736","0.0-2.0-14.2-0.2","battery-v0.2","","""event"",""trial"",""time""
""fullscreenenter"",""1"",""3540""
""blur"",""7"",""26513""
""focus"",""7"",""64498""
""blur"",""7"",""97004""
""focus"",""7"",""102206""
","""event"",""trial"",""time""
""blur"",""7"",""26513""
""blur"",""7"",""97004""
","""event"",""trial"",""time""
""focus"",""7"",""64498""
""focus"",""7"",""102206""
","""event"",""trial"",""time""
""fullscreenenter"",""1"",""3540""
","
","","","-1","","","13","10097","4854","&#9826;","elianto","#f73b6a7A","-1","-1","1","0","[]","0","0","3",""
"pit-trial","70","993588","0.0-2.0-14.2-1.2","battery-v0.2","","""event"",""trial"",""time""
""fullscreenenter"",""1"",""3540""
""blur"",""7"",""26513""
""focus"",""7"",""64498""
""blur"",""7"",""97004""
""focus"",""7"",""102206""
","""event"",""trial"",""time""
""blur"",""7"",""26513""
""blur"",""7"",""97004""
","""event"",""trial"",""time""
""focus"",""7"",""64498""
""focus"",""7"",""102206""
","""event"",""trial"",""time""
""fullscreenenter"",""1"",""3540""
","
","","","-1","","","13","10097","4854","&#9826;","elianto","#f73b6a7A","-1","-1","1","0","[3021.9000000003725]","1","0","3",""
"pit-trial","71","998441","0.0-2.0-14.2-2.2","battery-v0.2","","""event"",""trial"",""time""
""fullscreenenter"",""1"",""3540""
""blur"",""7"",""26513""
""focus"",""7"",""64498""
""blur"",""7"",""97004""
""focus"",""7"",""102206""
","""event"",""trial"",""time""
""blur"",""7"",""26513""
""blur"",""7"",""97004""
","""event"",""trial"",""time""
""focus"",""7"",""64498""
""focus"",""7"",""102206""
","""event"",""trial"",""time""
""fullscreenenter"",""1"",""3540""
","
","","","-1","","","13","10097","4854","&#9826;","elianto","#f73b6a7A","-1","-1","1","0","[]","0","0","3",""
"pit-trial","72","1003293","0.0-2.0-14.2-3.2","battery-v0.2","","""event"",""trial"",""time""
""fullscreenenter"",""1"",""3540""
""blur"",""7"",""26513""
""focus"",""7"",""64498""
""blur"",""7"",""97004""
""focus"",""7"",""102206""
","""event"",""trial"",""time""
""blur"",""7"",""26513""
""blur"",""7"",""97004""
","""event"",""trial"",""time""
""focus"",""7"",""64498""
""focus"",""7"",""102206""
","""event"",""trial"",""time""
""fullscreenenter"",""1"",""3540""
","
","","","-1","","","13","10097","4854","&#9826;","elianto","#f73b6a7A","-1","-1","1","-10","[]","0","0","3",""
"pit-trial","73","1007521","0.0-2.0-14.2-4.2","battery-v0.2","","""event"",""trial"",""time""
""fullscreenenter"",""1"",""3540""
""blur"",""7"",""26513""
""focus"",""7"",""64498""
""blur"",""7"",""97004""
""focus"",""7"",""102206""
","""event"",""trial"",""time""
""blur"",""7"",""26513""
""blur"",""7"",""97004""
","""event"",""trial"",""time""
""focus"",""7"",""64498""
""focus"",""7"",""102206""
","""event"",""trial"",""time""
""fullscreenenter"",""1"",""3540""
","
","","","1375.300000000745","","","13","10097","4854","&#9826;","elianto","#f73b6a7A","-1"," ","0","-10","[2226.800000000745]","1","0","3",""
"pit-trial","74","1012374","0.0-2.0-14.3-0.3","battery-v0.2","","""event"",""trial"",""time""
""fullscreenenter"",""1"",""3540""
""blur"",""7"",""26513""
""focus"",""7"",""64498""
""blur"",""7"",""97004""
""focus"",""7"",""102206""
","""event"",""trial"",""time""
""blur"",""7"",""26513""
""blur"",""7"",""97004""
","""event"",""trial"",""time""
""focus"",""7"",""64498""
""focus"",""7"",""102206""
","""event"",""trial"",""time""
""fullscreenenter"",""1"",""3540""
","
","","","-1","","","13","10097","4854","&#9826;","elianto","#f73b6a7A","-1","-1","1","0","[]","0","0","3",""
"pit-trial","75","1017226","0.0-2.0-14.3-1.3","battery-v0.2","","""event"",""trial"",""time""
""fullscreenenter"",""1"",""3540""
""blur"",""7"",""26513""
""focus"",""7"",""64498""
""blur"",""7"",""97004""
""focus"",""7"",""102206""
","""event"",""trial"",""time""
""blur"",""7"",""26513""
""blur"",""7"",""97004""
","""event"",""trial"",""time""
""focus"",""7"",""64498""
""focus"",""7"",""102206""
","""event"",""trial"",""time""
""fullscreenenter"",""1"",""3540""
","
","","","-1","","","13","10097","4854","&#9826;","elianto","#f73b6a7A","-1","-1","1","0","[]","0","0","3",""
"pit-trial","76","1022078","0.0-2.0-14.3-2.3","battery-v0.2","","""event"",""trial"",""time""
""fullscreenenter"",""1"",""3540""
""blur"",""7"",""26513""
""focus"",""7"",""64498""
""blur"",""7"",""97004""
""focus"",""7"",""102206""
","""event"",""trial"",""time""
""blur"",""7"",""26513""
""blur"",""7"",""97004""
","""event"",""trial"",""time""
""focus"",""7"",""64498""
""focus"",""7"",""102206""
","""event"",""trial"",""time""
""fullscreenenter"",""1"",""3540""
","
","","","-1","","","13","10097","4854","&#9826;","elianto","#f73b6a7A","-1","-1","1","0","[]","0","0","3",""
"pit-trial","77","1026161","0.0-2.0-14.3-3.3","battery-v0.2","","""event"",""trial"",""time""
""fullscreenenter"",""1"",""3540""
""blur"",""7"",""26513""
""focus"",""7"",""64498""
""blur"",""7"",""97004""
""focus"",""7"",""102206""
","""event"",""trial"",""time""
""blur"",""7"",""26513""
""blur"",""7"",""97004""
","""event"",""trial"",""time""
""focus"",""7"",""64498""
""focus"",""7"",""102206""
","""event"",""trial"",""time""
""fullscreenenter"",""1"",""3540""
","
","","","1230.2000000001863","","","13","10097","4854","&#9826;","elianto","#f73b6a7A","-1"," ","0","0","[2081]","1","0","3",""
"pit-trial","78","1031013","0.0-2.0-14.3-4.3","battery-v0.2","","""event"",""trial"",""time""
""fullscreenenter"",""1"",""3540""
""blur"",""7"",""26513""
""focus"",""7"",""64498""
""blur"",""7"",""97004""
""focus"",""7"",""102206""
","""event"",""trial"",""time""
""blur"",""7"",""26513""
""blur"",""7"",""97004""
","""event"",""trial"",""time""
""focus"",""7"",""64498""
""focus"",""7"",""102206""
","""event"",""trial"",""time""
""fullscreenenter"",""1"",""3540""
","
","","","-1","","","13","10097","4854","&#9826;","elianto","#f73b6a7A","-1","-1","1","0","[]","0","0","3",""
"call-function","79","1031014","0.0-2.0-15.0","battery-v0.2","","""event"",""trial"",""time""
""fullscreenenter"",""1"",""3540""
""blur"",""7"",""26513""
""focus"",""7"",""64498""
""blur"",""7"",""97004""
""focus"",""7"",""102206""
""blur"",""80"",""1218163""
""focus"",""80"",""1218167""
""fullscreenexit"",""80"",""1218170""
""blur"",""80"",""1221043""
","""event"",""trial"",""time""
""blur"",""7"",""26513""
""blur"",""7"",""97004""
""blur"",""80"",""1218163""
""blur"",""80"",""1221043""
","""event"",""trial"",""time""
""focus"",""7"",""64498""
""focus"",""7"",""102206""
""focus"",""80"",""1218167""
","""event"",""trial"",""time""
""fullscreenenter"",""1"",""3540""
","""event"",""trial"",""time""
""fullscreenexit"",""80"",""1218170""
","","","","","","","","","","","","","","","","","","","",""
