"trial_type","trial_index","time_elapsed","internal_node_id","task_version","subject_id","interactions","blur_events","focus_events","fullscreenenter_events","fullscreenexit_events","success","view_history","rt","responses","num_errors","age","subject","participantId","rune","rune_set","hex","correct","choice","accuracy","outcome","keys","total_keys","block","practice","value","sub","trial","stimulus","robot","valence","action","sham"
"pavlovia","0","11","0.0-0.0","battery-v0.2","","""event"",""trial"",""time""
""fullscreenenter"",""1"",""14063""
","
","
","""event"",""trial"",""time""
""fullscreenenter"",""1"",""14063""
","
","","","","","","","","","","","","","","","","","","","","","","","","","","",""
"fullscreen","1","15032","0.0-1.0","battery-v0.2","","""event"",""trial"",""time""
""fullscreenenter"",""1"",""14063""
","
","
","""event"",""trial"",""time""
""fullscreenenter"",""1"",""14063""
","
","true","","","","","","","","","","","","","","","","","","","","","","","","","",""
"pit-instructions","2","18476","0.0-2.0-0.0","battery-v0.2","","""event"",""trial"",""time""
""fullscreenenter"",""1"",""14063""
","
","
","""event"",""trial"",""time""
""fullscreenenter"",""1"",""14063""
","
","","[{""page_index"":0,""viewing_time"":3434.100000023842}]","3434.9000000059605","","","","","","","","","","","","","","","","","","","","","","","",""
"pit-comprehension","3","21896","0.0-2.0-1.0-0.0","battery-v0.2","","""event"",""trial"",""time""
""fullscreenenter"",""1"",""14063""
","
","
","""event"",""trial"",""time""
""fullscreenenter"",""1"",""14063""
","
","","","3414.899999976158","[""shark""]","0","15","17294","6631","","","","","","","","","","","","","","","","","","",""
"pit-instructions","4","25043","0.0-2.0-1.0-1.0","battery-v0.2","","""event"",""trial"",""time""
""fullscreenenter"",""1"",""14063""
","
","
","""event"",""trial"",""time""
""fullscreenenter"",""1"",""14063""
","
","","[{""page_index"":0,""viewing_time"":3125.9000000059605}]","3126.5","","","","","","","","","","","","","","","","","","","","","","","",""
"pit-comprehension","5","30279","0.0-2.0-2.0-0.0","battery-v0.2","","""event"",""trial"",""time""
""fullscreenenter"",""1"",""14063""
","
","
","""event"",""trial"",""time""
""fullscreenenter"",""1"",""14063""
","
","","","5226.200000017881","[""tiger""]","0","15","17294","6631","","","","","","","","","","","","","","","","","","",""
"pit-instructions","6","31632","0.0-2.0-2.0-1.0","battery-v0.2","","""event"",""trial"",""time""
""fullscreenenter"",""1"",""14063""
","
","
","""event"",""trial"",""time""
""fullscreenenter"",""1"",""14063""
","
","","[{""page_index"":0,""viewing_time"":1346.300000011921}]","1346.7000000178814","","","","","","","","","","","","","","","","","","","","","","","",""
"pit-instructions","7","136283","0.0-2.0-3.0","battery-v0.2","","""event"",""trial"",""time""
""fullscreenenter"",""1"",""14063""
","
","
","""event"",""trial"",""time""
""fullscreenenter"",""1"",""14063""
","
","","[{""page_index"":0,""viewing_time"":10336.59999999404},{""page_index"":1,""viewing_time"":9278.699999988079},{""page_index"":2,""viewing_time"":8404.40000000596},{""page_index"":3,""viewing_time"":5076.199999988079},{""page_index"":4,""viewing_time"":6471.4000000059605},{""page_index"":5,""viewing_time"":8976.5},{""page_index"":6,""viewing_time"":9167.800000011921},{""page_index"":7,""viewing_time"":7368.9000000059605},{""page_index"":8,""viewing_time"":6183.699999988079},{""page_index"":9,""viewing_time"":5276.699999988079},{""page_index"":10,""viewing_time"":8555.100000023842},{""page_index"":11,""viewing_time"":6750.299999982119},{""page_index"":12,""viewing_time"":6772.200000017881},{""page_index"":13,""viewing_time"":6028}]","104646.79999998212","","","","","","","","","","","","","","","","","","","","","","","",""
"pit-trial","8","139767","0.0-2.0-4.0-0.0","battery-v0.2","","""event"",""trial"",""time""
""fullscreenenter"",""1"",""14063""
","
","
","""event"",""trial"",""time""
""fullscreenenter"",""1"",""14063""
","
","","","607.7000000178814","","","15","17294","6631","&#9784;","elianto","#FFFFF080"," "," ","1","&#10004","[1468.3999999761581]","1","0","0","","","","","","","",""
"pit-trial","9","143238","0.0-2.0-4.1-0.1","battery-v0.2","","""event"",""trial"",""time""
""fullscreenenter"",""1"",""14063""
","
","
","""event"",""trial"",""time""
""fullscreenenter"",""1"",""14063""
","
","","","593.2999999821186","","","15","17294","6631","&#9784;","elianto","#FFFFF080"," "," ","1","&#10004","[1452.9000000059605]","1","0","0","","","","","","","",""
"pit-trial","10","146678","0.0-2.0-4.2-0.2","battery-v0.2","","""event"",""trial"",""time""
""fullscreenenter"",""1"",""14063""
","
","
","""event"",""trial"",""time""
""fullscreenenter"",""1"",""14063""
","
","","","564.6999999880791","","","15","17294","6631","&#9784;","elianto","#FFFFF080"," "," ","1","&#10004","[1417.5999999940395]","1","0","0","","","","","","","",""
"pit-trial","11","150150","0.0-2.0-4.3-0.3","battery-v0.2","","""event"",""trial"",""time""
""fullscreenenter"",""1"",""14063""
","
","
","""event"",""trial"",""time""
""fullscreenenter"",""1"",""14063""
","
","","","600.6999999880791","","","15","17294","6631","&#9784;","elianto","#FFFFF080"," "," ","1","&#10004","[1451.9000000059605]","1","0","0","","","","","","","",""
"pit-trial","12","153550","0.0-2.0-4.4-0.4","battery-v0.2","","""event"",""trial"",""time""
""fullscreenenter"",""1"",""14063""
","
","
","""event"",""trial"",""time""
""fullscreenenter"",""1"",""14063""
","
","","","532.6999999880791","","","15","17294","6631","&#9784;","elianto","#FFFFF080"," "," ","1","&#10004","[1390.699999988079]","1","0","0","","","","","","","",""
"pit-instructions","13","179550","0.0-2.0-5.0","battery-v0.2","","""event"",""trial"",""time""
""fullscreenenter"",""1"",""14063""
","
","
","""event"",""trial"",""time""
""fullscreenenter"",""1"",""14063""
","
","","[{""page_index"":0,""viewing_time"":6935.5},{""page_index"":1,""viewing_time"":6439.9000000059605},{""page_index"":2,""viewing_time"":6225.5999999940395},{""page_index"":3,""viewing_time"":6396.0999999940395}]","25997.5","","","","","","","","","","","","","","","","","","","","","","","",""
"pit-trial","14","184431","0.0-2.0-6.0-0.0","battery-v0.2","","""event"",""trial"",""time""
""fullscreenenter"",""1"",""14063""
","
","
","""event"",""trial"",""time""
""fullscreenenter"",""1"",""14063""
","
","","","-1","","","15","17294","6631","&#9854;","elianto","#FFFFF080","-1","-1","1","&#10004","[]","0","0","1","","","","","","","",""
"pit-trial","15","189304","0.0-2.0-6.1-0.1","battery-v0.2","","""event"",""trial"",""time""
""fullscreenenter"",""1"",""14063""
","
","
","""event"",""trial"",""time""
""fullscreenenter"",""1"",""14063""
","
","","","-1","","","15","17294","6631","&#9854;","elianto","#FFFFF080","-1","-1","1","&#10004","[]","0","0","1","","","","","","","",""
"pit-trial","16","194173","0.0-2.0-6.2-0.2","battery-v0.2","","""event"",""trial"",""time""
""fullscreenenter"",""1"",""14063""
","
","
","""event"",""trial"",""time""
""fullscreenenter"",""1"",""14063""
","
","","","-1","","","15","17294","6631","&#9854;","elianto","#FFFFF080","-1","-1","1","&#10004","[]","0","0","1","","","","","","","",""
"pit-trial","17","199050","0.0-2.0-6.3-0.3","battery-v0.2","","""event"",""trial"",""time""
""fullscreenenter"",""1"",""14063""
","
","
","""event"",""trial"",""time""
""fullscreenenter"",""1"",""14063""
","
","","","-1","","","15","17294","6631","&#9854;","elianto","#FFFFF080","-1","-1","1","&#10004","[]","0","0","1","","","","","","","",""
"pit-trial","18","203931","0.0-2.0-6.4-0.4","battery-v0.2","","""event"",""trial"",""time""
""fullscreenenter"",""1"",""14063""
","
","
","""event"",""trial"",""time""
""fullscreenenter"",""1"",""14063""
","
","","","-1","","","15","17294","6631","&#9854;","elianto","#FFFFF080","-1","-1","1","&#10004","[]","0","0","1","","","","","","","",""
"pit-instructions","19","356196","0.0-2.0-7.0","battery-v0.2","","""event"",""trial"",""time""
""fullscreenenter"",""1"",""14063""
","
","
","""event"",""trial"",""time""
""fullscreenenter"",""1"",""14063""
","
","","[{""page_index"":0,""viewing_time"":5204.700000017881},{""page_index"":1,""viewing_time"":13189.299999982119},{""page_index"":2,""viewing_time"":6741.0999999940395},{""page_index"":3,""viewing_time"":7662.9000000059605},{""page_index"":4,""viewing_time"":8494.800000011921},{""page_index"":5,""viewing_time"":6815},{""page_index"":6,""viewing_time"":6314.199999988079},{""page_index"":7,""viewing_time"":8612.300000011921},{""page_index"":8,""viewing_time"":11958},{""page_index"":9,""viewing_time"":6741.199999988079},{""page_index"":10,""viewing_time"":8596.59999999404},{""page_index"":11,""viewing_time"":10394.600000023842},{""page_index"":12,""viewing_time"":12051.5},{""page_index"":13,""viewing_time"":8449.699999988079},{""page_index"":14,""viewing_time"":8213.800000011921},{""page_index"":15,""viewing_time"":8758.5},{""page_index"":16,""viewing_time"":7992.699999988079},{""page_index"":17,""viewing_time"":6070.199999988079}]","152261.59999999404","","","","","","","","","","","","","","","","","","","","","","","",""
"pit-trial","20","360028","0.0-2.0-8.0-0.0","battery-v0.2","","""event"",""trial"",""time""
""fullscreenenter"",""1"",""14063""
","
","
","""event"",""trial"",""time""
""fullscreenenter"",""1"",""14063""
","
","","","964.5","","","15","17294","6631","&#9776;","elianto","#3366ff99"," "," ","1","+10","[1822]","1","0","1","","","","","","","",""
"pit-trial","21","363628","0.0-2.0-8.0-1.0","battery-v0.2","","""event"",""trial"",""time""
""fullscreenenter"",""1"",""14063""
","
","
","""event"",""trial"",""time""
""fullscreenenter"",""1"",""14063""
","
","","","732.7000000178814","","","15","17294","6631","&#9776;","elianto","#3366ff99"," "," ","1","+10","[1585.8999999761581]","1","0","1","","","","","","","",""
"pit-trial","22","366970","0.0-2.0-8.0-2.0","battery-v0.2","","""event"",""trial"",""time""
""fullscreenenter"",""1"",""14063""
","
","
","""event"",""trial"",""time""
""fullscreenenter"",""1"",""14063""
","
","","","467.59999999403954","","","15","17294","6631","&#9776;","elianto","#3366ff99"," "," ","1","+10","[1326.0999999940395]","1","0","1","","","","","","","",""
"pit-trial","23","371001","0.0-2.0-8.0-3.0","battery-v0.2","","""event"",""trial"",""time""
""fullscreenenter"",""1"",""14063""
","
","
","""event"",""trial"",""time""
""fullscreenenter"",""1"",""14063""
","
","","","1164","","","15","17294","6631","&#9776;","elianto","#3366ff99"," "," ","1","0","[2014.5]","1","0","1","","","","","","","",""
"pit-trial","24","374790","0.0-2.0-8.0-4.0","battery-v0.2","","""event"",""trial"",""time""
""fullscreenenter"",""1"",""14063""
","
","
","""event"",""trial"",""time""
""fullscreenenter"",""1"",""14063""
","
","","","916.6999999880791","","","15","17294","6631","&#9776;","elianto","#3366ff99"," "," ","1","+10","[1779.9000000059605]","1","0","1","","","","","","","",""
"pit-trial","25","378096","0.0-2.0-8.1-0.1","battery-v0.2","","""event"",""trial"",""time""
""fullscreenenter"",""1"",""14063""
","
","
","""event"",""trial"",""time""
""fullscreenenter"",""1"",""14063""
","
","","","432.2999999821186","","","15","17294","6631","&#9776;","elianto","#3366ff99"," "," ","1","+10","[1293.5999999940395]","1","0","1","","","","","","","",""
"pit-trial","26","381432","0.0-2.0-8.1-1.1","battery-v0.2","","""event"",""trial"",""time""
""fullscreenenter"",""1"",""14063""
","
","
","""event"",""trial"",""time""
""fullscreenenter"",""1"",""14063""
","
","","","470.09999999403954","","","15","17294","6631","&#9776;","elianto","#3366ff99"," "," ","1","+10","[1323.300000011921,2858.5999999940395,3120.7000000178814]","3","0","1","","","","","","","",""
"pit-trial","27","384346","0.0-2.0-8.1-2.1","battery-v0.2","","""event"",""trial"",""time""
""fullscreenenter"",""1"",""14063""
","
","
","""event"",""trial"",""time""
""fullscreenenter"",""1"",""14063""
","
","","","54.20000001788139","","","15","17294","6631","&#9776;","elianto","#3366ff99"," "," ","1","+10","[25.099999994039536,244.40000000596046,471.59999999403954,705.5,905.3000000119209,1151.4000000059605,1428.5,1625.5999999940395,1862.5999999940395,2083.7000000178814,2289.4000000059605,2578.800000011921]","12","0","1","","","","","","","",""
"pit-trial","28","387547","0.0-2.0-8.1-3.1","battery-v0.2","","""event"",""trial"",""time""
""fullscreenenter"",""1"",""14063""
","
","
","""event"",""trial"",""time""
""fullscreenenter"",""1"",""14063""
","
","","","340.30000001192093","","","15","17294","6631","&#9776;","elianto","#3366ff99"," "," ","1","0","[3.699999988079071,316.5,742,1194.800000011921,1436.300000011921,1657,2137.4000000059605,2654.9000000059605,2907.699999988079,3128.800000011921]","10","0","1","","","","","","","",""
"pit-trial","29","390533","0.0-2.0-8.1-4.1","battery-v0.2","","""event"",""trial"",""time""
""fullscreenenter"",""1"",""14063""
","
","
","""event"",""trial"",""time""
""fullscreenenter"",""1"",""14063""
","
","","","131.40000000596046","","","15","17294","6631","&#9776;","elianto","#3366ff99"," "," ","1","+10","[133.59999999403954,345.09999999403954,543.4000000059605,755.9000000059605,982.8000000119209,1195,1416.699999988079,1646.5]","8","0","1","","","","","","","",""
"pit-trial","30","394257","0.0-2.0-8.2-0.2","battery-v0.2","","""event"",""trial"",""time""
""fullscreenenter"",""1"",""14063""
","
","
","""event"",""trial"",""time""
""fullscreenenter"",""1"",""14063""
","
","","","865.6999999880791","","","15","17294","6631","&#9776;","elianto","#3366ff99"," "," ","1","+10","[194.30000001192093,1719.5]","2","0","1","","","","","","","",""
"pit-trial","31","398054","0.0-2.0-8.2-1.2","battery-v0.2","","""event"",""trial"",""time""
""fullscreenenter"",""1"",""14063""
","
","
","""event"",""trial"",""time""
""fullscreenenter"",""1"",""14063""
","
","","","942.9000000059605","","","15","17294","6631","&#9776;","elianto","#3366ff99"," "," ","1","+10","[1793.300000011921,2066.5,2340.5]","3","0","1","","","","","","","",""
"pit-trial","32","402909","0.0-2.0-8.2-2.2","battery-v0.2","","""event"",""trial"",""time""
""fullscreenenter"",""1"",""14063""
","
","
","""event"",""trial"",""time""
""fullscreenenter"",""1"",""14063""
","
","","","-1","","","15","17294","6631","&#9776;","elianto","#3366ff99"," ","-1","0","0","[3710]","1","0","1","","","","","","","",""
"pit-trial","33","405864","0.0-2.0-8.2-3.2","battery-v0.2","","""event"",""trial"",""time""
""fullscreenenter"",""1"",""14063""
","
","
","""event"",""trial"",""time""
""fullscreenenter"",""1"",""14063""
","
","","","102.09999999403954","","","15","17294","6631","&#9776;","elianto","#3366ff99"," "," ","1","0","[952.7000000178814]","1","0","1","","","","","","","",""
"pit-trial","34","408742","0.0-2.0-8.2-4.2","battery-v0.2","","""event"",""trial"",""time""
""fullscreenenter"",""1"",""14063""
","
","
","""event"",""trial"",""time""
""fullscreenenter"",""1"",""14063""
","
","","","23.80000001192093","","","15","17294","6631","&#9776;","elianto","#3366ff99"," "," ","1","+10","[875]","1","0","1","","","","","","","",""
"call-function","35","408745","0.0-2.0-9.0","battery-v0.2","","""event"",""trial"",""time""
""fullscreenenter"",""1"",""14063""
""fullscreenexit"",""36"",""410961""
""blur"",""36"",""412478""
""focus"",""36"",""412691""
""blur"",""36"",""413166""
""focus"",""36"",""424427""
""blur"",""36"",""442985""
""focus"",""36"",""445280""
","""event"",""trial"",""time""
""blur"",""36"",""412478""
""blur"",""36"",""413166""
""blur"",""36"",""442985""
","""event"",""trial"",""time""
""focus"",""36"",""412691""
""focus"",""36"",""424427""
""focus"",""36"",""445280""
","""event"",""trial"",""time""
""fullscreenenter"",""1"",""14063""
","""event"",""trial"",""time""
""fullscreenexit"",""36"",""410961""
","","","","","","","","","","","","","","","","","","","","","","","","","","",""
"pit-instructions","36","471426","0.0-2.0-10.0","battery-v0.2","","""event"",""trial"",""time""
""fullscreenenter"",""1"",""14063""
""fullscreenexit"",""36"",""410961""
""blur"",""36"",""412478""
""focus"",""36"",""412691""
""blur"",""36"",""413166""
""focus"",""36"",""424427""
""blur"",""36"",""442985""
""focus"",""36"",""445280""
","""event"",""trial"",""time""
""blur"",""36"",""412478""
""blur"",""36"",""413166""
""blur"",""36"",""442985""
","""event"",""trial"",""time""
""focus"",""36"",""412691""
""focus"",""36"",""424427""
""focus"",""36"",""445280""
","""event"",""trial"",""time""
""fullscreenenter"",""1"",""14063""
","""event"",""trial"",""time""
""fullscreenexit"",""36"",""410961""
","","[{""page_index"":0,""viewing_time"":17848.19999998808},{""page_index"":1,""viewing_time"":9045.800000011921},{""page_index"":2,""viewing_time"":10753.299999982119},{""page_index"":3,""viewing_time"":14538.600000023842},{""page_index"":4,""viewing_time"":10494.799999982119}]","62681","","","","","","","","","","","","","","","","","","","","","","","",""
"pit-trial","37","475174","0.0-2.0-11.0-0.0","battery-v0.2","","""event"",""trial"",""time""
""fullscreenenter"",""1"",""14063""
""fullscreenexit"",""36"",""410961""
""blur"",""36"",""412478""
""focus"",""36"",""412691""
""blur"",""36"",""413166""
""focus"",""36"",""424427""
""blur"",""36"",""442985""
""focus"",""36"",""445280""
","""event"",""trial"",""time""
""blur"",""36"",""412478""
""blur"",""36"",""413166""
""blur"",""36"",""442985""
","""event"",""trial"",""time""
""focus"",""36"",""412691""
""focus"",""36"",""424427""
""focus"",""36"",""445280""
","""event"",""trial"",""time""
""fullscreenenter"",""1"",""14063""
","""event"",""trial"",""time""
""fullscreenexit"",""36"",""410961""
","","","872.5","","","15","17294","6631","&#9761;","elianto","#3366ff99","-1"," ","0","0","[1732.9000000059605]","1","0","2","","","","","","","",""
"pit-trial","38","479663","0.0-2.0-11.0-1.0","battery-v0.2","","""event"",""trial"",""time""
""fullscreenenter"",""1"",""14063""
""fullscreenexit"",""36"",""410961""
""blur"",""36"",""412478""
""focus"",""36"",""412691""
""blur"",""36"",""413166""
""focus"",""36"",""424427""
""blur"",""36"",""442985""
""focus"",""36"",""445280""
","""event"",""trial"",""time""
""blur"",""36"",""412478""
""blur"",""36"",""413166""
""blur"",""36"",""442985""
","""event"",""trial"",""time""
""focus"",""36"",""412691""
""focus"",""36"",""424427""
""focus"",""36"",""445280""
","""event"",""trial"",""time""
""fullscreenenter"",""1"",""14063""
","""event"",""trial"",""time""
""fullscreenexit"",""36"",""410961""
","","","1619.699999988079","","","15","17294","6631","&#9761;","elianto","#3366ff99","-1"," ","0","0","[2470.4000000059605]","1","0","2","","","","","","","",""
"pit-trial","39","484531","0.0-2.0-11.0-2.0","battery-v0.2","","""event"",""trial"",""time""
""fullscreenenter"",""1"",""14063""
""fullscreenexit"",""36"",""410961""
""blur"",""36"",""412478""
""focus"",""36"",""412691""
""blur"",""36"",""413166""
""focus"",""36"",""424427""
""blur"",""36"",""442985""
""focus"",""36"",""445280""
","""event"",""trial"",""time""
""blur"",""36"",""412478""
""blur"",""36"",""413166""
""blur"",""36"",""442985""
","""event"",""trial"",""time""
""focus"",""36"",""412691""
""focus"",""36"",""424427""
""focus"",""36"",""445280""
","""event"",""trial"",""time""
""fullscreenenter"",""1"",""14063""
","""event"",""trial"",""time""
""fullscreenexit"",""36"",""410961""
","","","-1","","","15","17294","6631","&#9761;","elianto","#3366ff99","-1","-1","1","+10","[]","0","0","2","","","","","","","",""
"pit-trial","40","489391","0.0-2.0-11.0-3.0","battery-v0.2","","""event"",""trial"",""time""
""fullscreenenter"",""1"",""14063""
""fullscreenexit"",""36"",""410961""
""blur"",""36"",""412478""
""focus"",""36"",""412691""
""blur"",""36"",""413166""
""focus"",""36"",""424427""
""blur"",""36"",""442985""
""focus"",""36"",""445280""
","""event"",""trial"",""time""
""blur"",""36"",""412478""
""blur"",""36"",""413166""
""blur"",""36"",""442985""
","""event"",""trial"",""time""
""focus"",""36"",""412691""
""focus"",""36"",""424427""
""focus"",""36"",""445280""
","""event"",""trial"",""time""
""fullscreenenter"",""1"",""14063""
","""event"",""trial"",""time""
""fullscreenexit"",""36"",""410961""
","","","-1","","","15","17294","6631","&#9761;","elianto","#3366ff99","-1","-1","1","0","[]","0","0","2","","","","","","","",""
"pit-trial","41","494256","0.0-2.0-11.0-4.0","battery-v0.2","","""event"",""trial"",""time""
""fullscreenenter"",""1"",""14063""
""fullscreenexit"",""36"",""410961""
""blur"",""36"",""412478""
""focus"",""36"",""412691""
""blur"",""36"",""413166""
""focus"",""36"",""424427""
""blur"",""36"",""442985""
""focus"",""36"",""445280""
","""event"",""trial"",""time""
""blur"",""36"",""412478""
""blur"",""36"",""413166""
""blur"",""36"",""442985""
","""event"",""trial"",""time""
""focus"",""36"",""412691""
""focus"",""36"",""424427""
""focus"",""36"",""445280""
","""event"",""trial"",""time""
""fullscreenenter"",""1"",""14063""
","""event"",""trial"",""time""
""fullscreenexit"",""36"",""410961""
","","","-1","","","15","17294","6631","&#9761;","elianto","#3366ff99","-1","-1","1","+10","[]","0","0","2","","","","","","","",""
"pit-trial","42","499116","0.0-2.0-11.1-0.1","battery-v0.2","","""event"",""trial"",""time""
""fullscreenenter"",""1"",""14063""
""fullscreenexit"",""36"",""410961""
""blur"",""36"",""412478""
""focus"",""36"",""412691""
""blur"",""36"",""413166""
""focus"",""36"",""424427""
""blur"",""36"",""442985""
""focus"",""36"",""445280""
","""event"",""trial"",""time""
""blur"",""36"",""412478""
""blur"",""36"",""413166""
""blur"",""36"",""442985""
","""event"",""trial"",""time""
""focus"",""36"",""412691""
""focus"",""36"",""424427""
""focus"",""36"",""445280""
","""event"",""trial"",""time""
""fullscreenenter"",""1"",""14063""
","""event"",""trial"",""time""
""fullscreenexit"",""36"",""410961""
","","","-1","","","15","17294","6631","&#9761;","elianto","#3366ff99","-1","-1","1","+10","[]","0","0","2","","","","","","","",""
"pit-trial","43","503971","0.0-2.0-11.1-1.1","battery-v0.2","","""event"",""trial"",""time""
""fullscreenenter"",""1"",""14063""
""fullscreenexit"",""36"",""410961""
""blur"",""36"",""412478""
""focus"",""36"",""412691""
""blur"",""36"",""413166""
""focus"",""36"",""424427""
""blur"",""36"",""442985""
""focus"",""36"",""445280""
","""event"",""trial"",""time""
""blur"",""36"",""412478""
""blur"",""36"",""413166""
""blur"",""36"",""442985""
","""event"",""trial"",""time""
""focus"",""36"",""412691""
""focus"",""36"",""424427""
""focus"",""36"",""445280""
","""event"",""trial"",""time""
""fullscreenenter"",""1"",""14063""
","""event"",""trial"",""time""
""fullscreenexit"",""36"",""410961""
","","","-1","","","15","17294","6631","&#9761;","elianto","#3366ff99","-1","-1","1","+10","[]","0","0","2","","","","","","","",""
"pit-trial","44","508827","0.0-2.0-11.1-2.1","battery-v0.2","","""event"",""trial"",""time""
""fullscreenenter"",""1"",""14063""
""fullscreenexit"",""36"",""410961""
""blur"",""36"",""412478""
""focus"",""36"",""412691""
""blur"",""36"",""413166""
""focus"",""36"",""424427""
""blur"",""36"",""442985""
""focus"",""36"",""445280""
","""event"",""trial"",""time""
""blur"",""36"",""412478""
""blur"",""36"",""413166""
""blur"",""36"",""442985""
","""event"",""trial"",""time""
""focus"",""36"",""412691""
""focus"",""36"",""424427""
""focus"",""36"",""445280""
","""event"",""trial"",""time""
""fullscreenenter"",""1"",""14063""
","""event"",""trial"",""time""
""fullscreenexit"",""36"",""410961""
","","","-1","","","15","17294","6631","&#9761;","elianto","#3366ff99","-1","-1","1","+10","[]","0","0","2","","","","","","","",""
"pit-trial","45","513681","0.0-2.0-11.1-3.1","battery-v0.2","","""event"",""trial"",""time""
""fullscreenenter"",""1"",""14063""
""fullscreenexit"",""36"",""410961""
""blur"",""36"",""412478""
""focus"",""36"",""412691""
""blur"",""36"",""413166""
""focus"",""36"",""424427""
""blur"",""36"",""442985""
""focus"",""36"",""445280""
","""event"",""trial"",""time""
""blur"",""36"",""412478""
""blur"",""36"",""413166""
""blur"",""36"",""442985""
","""event"",""trial"",""time""
""focus"",""36"",""412691""
""focus"",""36"",""424427""
""focus"",""36"",""445280""
","""event"",""trial"",""time""
""fullscreenenter"",""1"",""14063""
","""event"",""trial"",""time""
""fullscreenexit"",""36"",""410961""
","","","-1","","","15","17294","6631","&#9761;","elianto","#3366ff99","-1","-1","1","0","[]","0","0","2","","","","","","","",""
"pit-trial","46","517518","0.0-2.0-11.1-4.1","battery-v0.2","","""event"",""trial"",""time""
""fullscreenenter"",""1"",""14063""
""fullscreenexit"",""36"",""410961""
""blur"",""36"",""412478""
""focus"",""36"",""412691""
""blur"",""36"",""413166""
""focus"",""36"",""424427""
""blur"",""36"",""442985""
""focus"",""36"",""445280""
","""event"",""trial"",""time""
""blur"",""36"",""412478""
""blur"",""36"",""413166""
""blur"",""36"",""442985""
","""event"",""trial"",""time""
""focus"",""36"",""412691""
""focus"",""36"",""424427""
""focus"",""36"",""445280""
","""event"",""trial"",""time""
""fullscreenenter"",""1"",""14063""
","""event"",""trial"",""time""
""fullscreenexit"",""36"",""410961""
","","","984.4000000059605","","","15","17294","6631","&#9761;","elianto","#3366ff99","-1"," ","0","0","[1835]","1","0","2","","","","","","","",""
"pit-trial","47","522374","0.0-2.0-11.2-0.2","battery-v0.2","","""event"",""trial"",""time""
""fullscreenenter"",""1"",""14063""
""fullscreenexit"",""36"",""410961""
""blur"",""36"",""412478""
""focus"",""36"",""412691""
""blur"",""36"",""413166""
""focus"",""36"",""424427""
""blur"",""36"",""442985""
""focus"",""36"",""445280""
","""event"",""trial"",""time""
""blur"",""36"",""412478""
""blur"",""36"",""413166""
""blur"",""36"",""442985""
","""event"",""trial"",""time""
""focus"",""36"",""412691""
""focus"",""36"",""424427""
""focus"",""36"",""445280""
","""event"",""trial"",""time""
""fullscreenenter"",""1"",""14063""
","""event"",""trial"",""time""
""fullscreenexit"",""36"",""410961""
","","","-1","","","15","17294","6631","&#9761;","elianto","#3366ff99","-1","-1","1","+10","[]","0","0","2","","","","","","","",""
"pit-trial","48","527229","0.0-2.0-11.2-1.2","battery-v0.2","","""event"",""trial"",""time""
""fullscreenenter"",""1"",""14063""
""fullscreenexit"",""36"",""410961""
""blur"",""36"",""412478""
""focus"",""36"",""412691""
""blur"",""36"",""413166""
""focus"",""36"",""424427""
""blur"",""36"",""442985""
""focus"",""36"",""445280""
","""event"",""trial"",""time""
""blur"",""36"",""412478""
""blur"",""36"",""413166""
""blur"",""36"",""442985""
","""event"",""trial"",""time""
""focus"",""36"",""412691""
""focus"",""36"",""424427""
""focus"",""36"",""445280""
","""event"",""trial"",""time""
""fullscreenenter"",""1"",""14063""
","""event"",""trial"",""time""
""fullscreenexit"",""36"",""410961""
","","","-1","","","15","17294","6631","&#9761;","elianto","#3366ff99","-1","-1","1","+10","[]","0","0","2","","","","","","","",""
"pit-trial","49","532083","0.0-2.0-11.2-2.2","battery-v0.2","","""event"",""trial"",""time""
""fullscreenenter"",""1"",""14063""
""fullscreenexit"",""36"",""410961""
""blur"",""36"",""412478""
""focus"",""36"",""412691""
""blur"",""36"",""413166""
""focus"",""36"",""424427""
""blur"",""36"",""442985""
""focus"",""36"",""445280""
","""event"",""trial"",""time""
""blur"",""36"",""412478""
""blur"",""36"",""413166""
""blur"",""36"",""442985""
","""event"",""trial"",""time""
""focus"",""36"",""412691""
""focus"",""36"",""424427""
""focus"",""36"",""445280""
","""event"",""trial"",""time""
""fullscreenenter"",""1"",""14063""
","""event"",""trial"",""time""
""fullscreenexit"",""36"",""410961""
","","","-1","","","15","17294","6631","&#9761;","elianto","#3366ff99","-1","-1","1","+10","[]","0","0","2","","","","","","","",""
"pit-trial","50","536937","0.0-2.0-11.2-3.2","battery-v0.2","","""event"",""trial"",""time""
""fullscreenenter"",""1"",""14063""
""fullscreenexit"",""36"",""410961""
""blur"",""36"",""412478""
""focus"",""36"",""412691""
""blur"",""36"",""413166""
""focus"",""36"",""424427""
""blur"",""36"",""442985""
""focus"",""36"",""445280""
","""event"",""trial"",""time""
""blur"",""36"",""412478""
""blur"",""36"",""413166""
""blur"",""36"",""442985""
","""event"",""trial"",""time""
""focus"",""36"",""412691""
""focus"",""36"",""424427""
""focus"",""36"",""445280""
","""event"",""trial"",""time""
""fullscreenenter"",""1"",""14063""
","""event"",""trial"",""time""
""fullscreenexit"",""36"",""410961""
","","","-1","","","15","17294","6631","&#9761;","elianto","#3366ff99","-1","-1","1","0","[]","0","0","2","","","","","","","",""
"pit-trial","51","541791","0.0-2.0-11.2-4.2","battery-v0.2","","""event"",""trial"",""time""
""fullscreenenter"",""1"",""14063""
""fullscreenexit"",""36"",""410961""
""blur"",""36"",""412478""
""focus"",""36"",""412691""
""blur"",""36"",""413166""
""focus"",""36"",""424427""
""blur"",""36"",""442985""
""focus"",""36"",""445280""
","""event"",""trial"",""time""
""blur"",""36"",""412478""
""blur"",""36"",""413166""
""blur"",""36"",""442985""
","""event"",""trial"",""time""
""focus"",""36"",""412691""
""focus"",""36"",""424427""
""focus"",""36"",""445280""
","""event"",""trial"",""time""
""fullscreenenter"",""1"",""14063""
","""event"",""trial"",""time""
""fullscreenexit"",""36"",""410961""
","","","-1","","","15","17294","6631","&#9761;","elianto","#3366ff99","-1","-1","1","+10","[]","0","0","2","","","","","","","",""
"pit-trial","52","546647","0.0-2.0-11.3-0.3","battery-v0.2","","""event"",""trial"",""time""
""fullscreenenter"",""1"",""14063""
""fullscreenexit"",""36"",""410961""
""blur"",""36"",""412478""
""focus"",""36"",""412691""
""blur"",""36"",""413166""
""focus"",""36"",""424427""
""blur"",""36"",""442985""
""focus"",""36"",""445280""
","""event"",""trial"",""time""
""blur"",""36"",""412478""
""blur"",""36"",""413166""
""blur"",""36"",""442985""
","""event"",""trial"",""time""
""focus"",""36"",""412691""
""focus"",""36"",""424427""
""focus"",""36"",""445280""
","""event"",""trial"",""time""
""fullscreenenter"",""1"",""14063""
","""event"",""trial"",""time""
""fullscreenexit"",""36"",""410961""
","","","-1","","","15","17294","6631","&#9761;","elianto","#3366ff99","-1","-1","1","+10","[]","0","0","2","","","","","","","",""
"pit-trial","53","551502","0.0-2.0-11.3-1.3","battery-v0.2","","""event"",""trial"",""time""
""fullscreenenter"",""1"",""14063""
""fullscreenexit"",""36"",""410961""
""blur"",""36"",""412478""
""focus"",""36"",""412691""
""blur"",""36"",""413166""
""focus"",""36"",""424427""
""blur"",""36"",""442985""
""focus"",""36"",""445280""
","""event"",""trial"",""time""
""blur"",""36"",""412478""
""blur"",""36"",""413166""
""blur"",""36"",""442985""
","""event"",""trial"",""time""
""focus"",""36"",""412691""
""focus"",""36"",""424427""
""focus"",""36"",""445280""
","""event"",""trial"",""time""
""fullscreenenter"",""1"",""14063""
","""event"",""trial"",""time""
""fullscreenexit"",""36"",""410961""
","","","-1","","","15","17294","6631","&#9761;","elianto","#3366ff99","-1","-1","1","+10","[]","0","0","2","","","","","","","",""
"pit-trial","54","556363","0.0-2.0-11.3-2.3","battery-v0.2","","""event"",""trial"",""time""
""fullscreenenter"",""1"",""14063""
""fullscreenexit"",""36"",""410961""
""blur"",""36"",""412478""
""focus"",""36"",""412691""
""blur"",""36"",""413166""
""focus"",""36"",""424427""
""blur"",""36"",""442985""
""focus"",""36"",""445280""
","""event"",""trial"",""time""
""blur"",""36"",""412478""
""blur"",""36"",""413166""
""blur"",""36"",""442985""
","""event"",""trial"",""time""
""focus"",""36"",""412691""
""focus"",""36"",""424427""
""focus"",""36"",""445280""
","""event"",""trial"",""time""
""fullscreenenter"",""1"",""14063""
","""event"",""trial"",""time""
""fullscreenexit"",""36"",""410961""
","","","-1","","","15","17294","6631","&#9761;","elianto","#3366ff99","-1","-1","1","+10","[]","0","0","2","","","","","","","",""
"pit-trial","55","561218","0.0-2.0-11.3-3.3","battery-v0.2","","""event"",""trial"",""time""
""fullscreenenter"",""1"",""14063""
""fullscreenexit"",""36"",""410961""
""blur"",""36"",""412478""
""focus"",""36"",""412691""
""blur"",""36"",""413166""
""focus"",""36"",""424427""
""blur"",""36"",""442985""
""focus"",""36"",""445280""
","""event"",""trial"",""time""
""blur"",""36"",""412478""
""blur"",""36"",""413166""
""blur"",""36"",""442985""
","""event"",""trial"",""time""
""focus"",""36"",""412691""
""focus"",""36"",""424427""
""focus"",""36"",""445280""
","""event"",""trial"",""time""
""fullscreenenter"",""1"",""14063""
","""event"",""trial"",""time""
""fullscreenexit"",""36"",""410961""
","","","-1","","","15","17294","6631","&#9761;","elianto","#3366ff99","-1","-1","1","0","[]","0","0","2","","","","","","","",""
"pit-trial","56","566073","0.0-2.0-11.3-4.3","battery-v0.2","","""event"",""trial"",""time""
""fullscreenenter"",""1"",""14063""
""fullscreenexit"",""36"",""410961""
""blur"",""36"",""412478""
""focus"",""36"",""412691""
""blur"",""36"",""413166""
""focus"",""36"",""424427""
""blur"",""36"",""442985""
""focus"",""36"",""445280""
","""event"",""trial"",""time""
""blur"",""36"",""412478""
""blur"",""36"",""413166""
""blur"",""36"",""442985""
","""event"",""trial"",""time""
""focus"",""36"",""412691""
""focus"",""36"",""424427""
""focus"",""36"",""445280""
","""event"",""trial"",""time""
""fullscreenenter"",""1"",""14063""
","""event"",""trial"",""time""
""fullscreenexit"",""36"",""410961""
","","","-1","","","15","17294","6631","&#9761;","elianto","#3366ff99","-1","-1","1","+10","[]","0","0","2","","","","","","","",""
"call-function","57","566076","0.0-2.0-12.0","battery-v0.2","","""event"",""trial"",""time""
""fullscreenenter"",""1"",""14063""
""fullscreenexit"",""36"",""410961""
""blur"",""36"",""412478""
""focus"",""36"",""412691""
""blur"",""36"",""413166""
""focus"",""36"",""424427""
""blur"",""36"",""442985""
""focus"",""36"",""445280""
","""event"",""trial"",""time""
""blur"",""36"",""412478""
""blur"",""36"",""413166""
""blur"",""36"",""442985""
","""event"",""trial"",""time""
""focus"",""36"",""412691""
""focus"",""36"",""424427""
""focus"",""36"",""445280""
","""event"",""trial"",""time""
""fullscreenenter"",""1"",""14063""
","""event"",""trial"",""time""
""fullscreenexit"",""36"",""410961""
","","","","","","","","","","","","","","","","","","","","","","","","","","",""
"pit-instructions","58","616166","0.0-2.0-13.0","battery-v0.2","","""event"",""trial"",""time""
""fullscreenenter"",""1"",""14063""
""fullscreenexit"",""36"",""410961""
""blur"",""36"",""412478""
""focus"",""36"",""412691""
""blur"",""36"",""413166""
""focus"",""36"",""424427""
""blur"",""36"",""442985""
""focus"",""36"",""445280""
","""event"",""trial"",""time""
""blur"",""36"",""412478""
""blur"",""36"",""413166""
""blur"",""36"",""442985""
","""event"",""trial"",""time""
""focus"",""36"",""412691""
""focus"",""36"",""424427""
""focus"",""36"",""445280""
","""event"",""trial"",""time""
""fullscreenenter"",""1"",""14063""
","""event"",""trial"",""time""
""fullscreenexit"",""36"",""410961""
","","[{""page_index"":0,""viewing_time"":6927},{""page_index"":1,""viewing_time"":15776.200000017881},{""page_index"":2,""viewing_time"":5938.5},{""page_index"":3,""viewing_time"":13147.5},{""page_index"":4,""viewing_time"":8300.299999982119}]","50090","","","","","","","","","","","","","","","","","","","","","","","",""
"pit-trial","59","620660","0.0-2.0-14.0-0.0","battery-v0.2","","""event"",""trial"",""time""
""fullscreenenter"",""1"",""14063""
""fullscreenexit"",""36"",""410961""
""blur"",""36"",""412478""
""focus"",""36"",""412691""
""blur"",""36"",""413166""
""focus"",""36"",""424427""
""blur"",""36"",""442985""
""focus"",""36"",""445280""
","""event"",""trial"",""time""
""blur"",""36"",""412478""
""blur"",""36"",""413166""
""blur"",""36"",""442985""
","""event"",""trial"",""time""
""focus"",""36"",""412691""
""focus"",""36"",""424427""
""focus"",""36"",""445280""
","""event"",""trial"",""time""
""fullscreenenter"",""1"",""14063""
","""event"",""trial"",""time""
""fullscreenexit"",""36"",""410961""
","","","1623.300000011921","","","15","17294","6631","&#9826;","elianto","#f73b6a7A","-1"," ","0","-10","[2480.4000000059605]","1","0","3","","","","","","","",""
"pit-trial","60","625528","0.0-2.0-14.0-1.0","battery-v0.2","","""event"",""trial"",""time""
""fullscreenenter"",""1"",""14063""
""fullscreenexit"",""36"",""410961""
""blur"",""36"",""412478""
""focus"",""36"",""412691""
""blur"",""36"",""413166""
""focus"",""36"",""424427""
""blur"",""36"",""442985""
""focus"",""36"",""445280""
","""event"",""trial"",""time""
""blur"",""36"",""412478""
""blur"",""36"",""413166""
""blur"",""36"",""442985""
","""event"",""trial"",""time""
""focus"",""36"",""412691""
""focus"",""36"",""424427""
""focus"",""36"",""445280""
","""event"",""trial"",""time""
""fullscreenenter"",""1"",""14063""
","""event"",""trial"",""time""
""fullscreenexit"",""36"",""410961""
","","","-1","","","15","17294","6631","&#9826;","elianto","#f73b6a7A","-1","-1","1","0","[]","0","0","3","","","","","","","",""
"pit-trial","61","630400","0.0-2.0-14.0-2.0","battery-v0.2","","""event"",""trial"",""time""
""fullscreenenter"",""1"",""14063""
""fullscreenexit"",""36"",""410961""
""blur"",""36"",""412478""
""focus"",""36"",""412691""
""blur"",""36"",""413166""
""focus"",""36"",""424427""
""blur"",""36"",""442985""
""focus"",""36"",""445280""
","""event"",""trial"",""time""
""blur"",""36"",""412478""
""blur"",""36"",""413166""
""blur"",""36"",""442985""
","""event"",""trial"",""time""
""focus"",""36"",""412691""
""focus"",""36"",""424427""
""focus"",""36"",""445280""
","""event"",""trial"",""time""
""fullscreenenter"",""1"",""14063""
","""event"",""trial"",""time""
""fullscreenexit"",""36"",""410961""
","","","-1","","","15","17294","6631","&#9826;","elianto","#f73b6a7A","-1","-1","1","0","[]","0","0","3","","","","","","","",""
"pit-trial","62","635272","0.0-2.0-14.0-3.0","battery-v0.2","","""event"",""trial"",""time""
""fullscreenenter"",""1"",""14063""
""fullscreenexit"",""36"",""410961""
""blur"",""36"",""412478""
""focus"",""36"",""412691""
""blur"",""36"",""413166""
""focus"",""36"",""424427""
""blur"",""36"",""442985""
""focus"",""36"",""445280""
","""event"",""trial"",""time""
""blur"",""36"",""412478""
""blur"",""36"",""413166""
""blur"",""36"",""442985""
","""event"",""trial"",""time""
""focus"",""36"",""412691""
""focus"",""36"",""424427""
""focus"",""36"",""445280""
","""event"",""trial"",""time""
""fullscreenenter"",""1"",""14063""
","""event"",""trial"",""time""
""fullscreenexit"",""36"",""410961""
","","","-1","","","15","17294","6631","&#9826;","elianto","#f73b6a7A","-1","-1","1","-10","[]","0","0","3","","","","","","","",""
"pit-trial","63","640141","0.0-2.0-14.0-4.0","battery-v0.2","","""event"",""trial"",""time""
""fullscreenenter"",""1"",""14063""
""fullscreenexit"",""36"",""410961""
""blur"",""36"",""412478""
""focus"",""36"",""412691""
""blur"",""36"",""413166""
""focus"",""36"",""424427""
""blur"",""36"",""442985""
""focus"",""36"",""445280""
","""event"",""trial"",""time""
""blur"",""36"",""412478""
""blur"",""36"",""413166""
""blur"",""36"",""442985""
","""event"",""trial"",""time""
""focus"",""36"",""412691""
""focus"",""36"",""424427""
""focus"",""36"",""445280""
","""event"",""trial"",""time""
""fullscreenenter"",""1"",""14063""
","""event"",""trial"",""time""
""fullscreenexit"",""36"",""410961""
","","","-1","","","15","17294","6631","&#9826;","elianto","#f73b6a7A","-1","-1","1","0","[]","0","0","3","","","","","","","",""
"pit-trial","64","644997","0.0-2.0-14.1-0.1","battery-v0.2","","""event"",""trial"",""time""
""fullscreenenter"",""1"",""14063""
""fullscreenexit"",""36"",""410961""
""blur"",""36"",""412478""
""focus"",""36"",""412691""
""blur"",""36"",""413166""
""focus"",""36"",""424427""
""blur"",""36"",""442985""
""focus"",""36"",""445280""
","""event"",""trial"",""time""
""blur"",""36"",""412478""
""blur"",""36"",""413166""
""blur"",""36"",""442985""
","""event"",""trial"",""time""
""focus"",""36"",""412691""
""focus"",""36"",""424427""
""focus"",""36"",""445280""
","""event"",""trial"",""time""
""fullscreenenter"",""1"",""14063""
","""event"",""trial"",""time""
""fullscreenexit"",""36"",""410961""
","","","-1","","","15","17294","6631","&#9826;","elianto","#f73b6a7A","-1","-1","1","0","[]","0","0","3","","","","","","","",""
"pit-trial","65","649852","0.0-2.0-14.1-1.1","battery-v0.2","","""event"",""trial"",""time""
""fullscreenenter"",""1"",""14063""
""fullscreenexit"",""36"",""410961""
""blur"",""36"",""412478""
""focus"",""36"",""412691""
""blur"",""36"",""413166""
""focus"",""36"",""424427""
""blur"",""36"",""442985""
""focus"",""36"",""445280""
","""event"",""trial"",""time""
""blur"",""36"",""412478""
""blur"",""36"",""413166""
""blur"",""36"",""442985""
","""event"",""trial"",""time""
""focus"",""36"",""412691""
""focus"",""36"",""424427""
""focus"",""36"",""445280""
","""event"",""trial"",""time""
""fullscreenenter"",""1"",""14063""
","""event"",""trial"",""time""
""fullscreenexit"",""36"",""410961""
","","","-1","","","15","17294","6631","&#9826;","elianto","#f73b6a7A","-1","-1","1","0","[]","0","0","3","","","","","","","",""
"pit-trial","66","654715","0.0-2.0-14.1-2.1","battery-v0.2","","""event"",""trial"",""time""
""fullscreenenter"",""1"",""14063""
""fullscreenexit"",""36"",""410961""
""blur"",""36"",""412478""
""focus"",""36"",""412691""
""blur"",""36"",""413166""
""focus"",""36"",""424427""
""blur"",""36"",""442985""
""focus"",""36"",""445280""
","""event"",""trial"",""time""
""blur"",""36"",""412478""
""blur"",""36"",""413166""
""blur"",""36"",""442985""
","""event"",""trial"",""time""
""focus"",""36"",""412691""
""focus"",""36"",""424427""
""focus"",""36"",""445280""
","""event"",""trial"",""time""
""fullscreenenter"",""1"",""14063""
","""event"",""trial"",""time""
""fullscreenexit"",""36"",""410961""
","","","-1","","","15","17294","6631","&#9826;","elianto","#f73b6a7A","-1","-1","1","0","[]","0","0","3","","","","","","","",""
"pit-trial","67","659569","0.0-2.0-14.1-3.1","battery-v0.2","","""event"",""trial"",""time""
""fullscreenenter"",""1"",""14063""
""fullscreenexit"",""36"",""410961""
""blur"",""36"",""412478""
""focus"",""36"",""412691""
""blur"",""36"",""413166""
""focus"",""36"",""424427""
""blur"",""36"",""442985""
""focus"",""36"",""445280""
","""event"",""trial"",""time""
""blur"",""36"",""412478""
""blur"",""36"",""413166""
""blur"",""36"",""442985""
","""event"",""trial"",""time""
""focus"",""36"",""412691""
""focus"",""36"",""424427""
""focus"",""36"",""445280""
","""event"",""trial"",""time""
""fullscreenenter"",""1"",""14063""
","""event"",""trial"",""time""
""fullscreenexit"",""36"",""410961""
","","","-1","","","15","17294","6631","&#9826;","elianto","#f73b6a7A","-1","-1","1","-10","[]","0","0","3","","","","","","","",""
"pit-trial","68","664424","0.0-2.0-14.1-4.1","battery-v0.2","","""event"",""trial"",""time""
""fullscreenenter"",""1"",""14063""
""fullscreenexit"",""36"",""410961""
""blur"",""36"",""412478""
""focus"",""36"",""412691""
""blur"",""36"",""413166""
""focus"",""36"",""424427""
""blur"",""36"",""442985""
""focus"",""36"",""445280""
","""event"",""trial"",""time""
""blur"",""36"",""412478""
""blur"",""36"",""413166""
""blur"",""36"",""442985""
","""event"",""trial"",""time""
""focus"",""36"",""412691""
""focus"",""36"",""424427""
""focus"",""36"",""445280""
","""event"",""trial"",""time""
""fullscreenenter"",""1"",""14063""
","""event"",""trial"",""time""
""fullscreenexit"",""36"",""410961""
","","","-1","","","15","17294","6631","&#9826;","elianto","#f73b6a7A","-1","-1","1","0","[]","0","0","3","","","","","","","",""
"pit-trial","69","669281","0.0-2.0-14.2-0.2","battery-v0.2","","""event"",""trial"",""time""
""fullscreenenter"",""1"",""14063""
""fullscreenexit"",""36"",""410961""
""blur"",""36"",""412478""
""focus"",""36"",""412691""
""blur"",""36"",""413166""
""focus"",""36"",""424427""
""blur"",""36"",""442985""
""focus"",""36"",""445280""
","""event"",""trial"",""time""
""blur"",""36"",""412478""
""blur"",""36"",""413166""
""blur"",""36"",""442985""
","""event"",""trial"",""time""
""focus"",""36"",""412691""
""focus"",""36"",""424427""
""focus"",""36"",""445280""
","""event"",""trial"",""time""
""fullscreenenter"",""1"",""14063""
","""event"",""trial"",""time""
""fullscreenexit"",""36"",""410961""
","","","-1","","","15","17294","6631","&#9826;","elianto","#f73b6a7A","-1","-1","1","0","[]","0","0","3","","","","","","","",""
"pit-trial","70","674135","0.0-2.0-14.2-1.2","battery-v0.2","","""event"",""trial"",""time""
""fullscreenenter"",""1"",""14063""
""fullscreenexit"",""36"",""410961""
""blur"",""36"",""412478""
""focus"",""36"",""412691""
""blur"",""36"",""413166""
""focus"",""36"",""424427""
""blur"",""36"",""442985""
""focus"",""36"",""445280""
","""event"",""trial"",""time""
""blur"",""36"",""412478""
""blur"",""36"",""413166""
""blur"",""36"",""442985""
","""event"",""trial"",""time""
""focus"",""36"",""412691""
""focus"",""36"",""424427""
""focus"",""36"",""445280""
","""event"",""trial"",""time""
""fullscreenenter"",""1"",""14063""
","""event"",""trial"",""time""
""fullscreenexit"",""36"",""410961""
","","","-1","","","15","17294","6631","&#9826;","elianto","#f73b6a7A","-1","-1","1","0","[]","0","0","3","","","","","","","",""
"pit-trial","71","678990","0.0-2.0-14.2-2.2","battery-v0.2","","""event"",""trial"",""time""
""fullscreenenter"",""1"",""14063""
""fullscreenexit"",""36"",""410961""
""blur"",""36"",""412478""
""focus"",""36"",""412691""
""blur"",""36"",""413166""
""focus"",""36"",""424427""
""blur"",""36"",""442985""
""focus"",""36"",""445280""
","""event"",""trial"",""time""
""blur"",""36"",""412478""
""blur"",""36"",""413166""
""blur"",""36"",""442985""
","""event"",""trial"",""time""
""focus"",""36"",""412691""
""focus"",""36"",""424427""
""focus"",""36"",""445280""
","""event"",""trial"",""time""
""fullscreenenter"",""1"",""14063""
","""event"",""trial"",""time""
""fullscreenexit"",""36"",""410961""
","","","-1","","","15","17294","6631","&#9826;","elianto","#f73b6a7A","-1","-1","1","0","[]","0","0","3","","","","","","","",""
"pit-trial","72","683843","0.0-2.0-14.2-3.2","battery-v0.2","","""event"",""trial"",""time""
""fullscreenenter"",""1"",""14063""
""fullscreenexit"",""36"",""410961""
""blur"",""36"",""412478""
""focus"",""36"",""412691""
""blur"",""36"",""413166""
""focus"",""36"",""424427""
""blur"",""36"",""442985""
""focus"",""36"",""445280""
","""event"",""trial"",""time""
""blur"",""36"",""412478""
""blur"",""36"",""413166""
""blur"",""36"",""442985""
","""event"",""trial"",""time""
""focus"",""36"",""412691""
""focus"",""36"",""424427""
""focus"",""36"",""445280""
","""event"",""trial"",""time""
""fullscreenenter"",""1"",""14063""
","""event"",""trial"",""time""
""fullscreenexit"",""36"",""410961""
","","","-1","","","15","17294","6631","&#9826;","elianto","#f73b6a7A","-1","-1","1","-10","[]","0","0","3","","","","","","","",""
"pit-trial","73","688697","0.0-2.0-14.2-4.2","battery-v0.2","","""event"",""trial"",""time""
""fullscreenenter"",""1"",""14063""
""fullscreenexit"",""36"",""410961""
""blur"",""36"",""412478""
""focus"",""36"",""412691""
""blur"",""36"",""413166""
""focus"",""36"",""424427""
""blur"",""36"",""442985""
""focus"",""36"",""445280""
","""event"",""trial"",""time""
""blur"",""36"",""412478""
""blur"",""36"",""413166""
""blur"",""36"",""442985""
","""event"",""trial"",""time""
""focus"",""36"",""412691""
""focus"",""36"",""424427""
""focus"",""36"",""445280""
","""event"",""trial"",""time""
""fullscreenenter"",""1"",""14063""
","""event"",""trial"",""time""
""fullscreenexit"",""36"",""410961""
","","","-1","","","15","17294","6631","&#9826;","elianto","#f73b6a7A","-1","-1","1","0","[]","0","0","3","","","","","","","",""
"pit-trial","74","693554","0.0-2.0-14.3-0.3","battery-v0.2","","""event"",""trial"",""time""
""fullscreenenter"",""1"",""14063""
""fullscreenexit"",""36"",""410961""
""blur"",""36"",""412478""
""focus"",""36"",""412691""
""blur"",""36"",""413166""
""focus"",""36"",""424427""
""blur"",""36"",""442985""
""focus"",""36"",""445280""
","""event"",""trial"",""time""
""blur"",""36"",""412478""
""blur"",""36"",""413166""
""blur"",""36"",""442985""
","""event"",""trial"",""time""
""focus"",""36"",""412691""
""focus"",""36"",""424427""
""focus"",""36"",""445280""
","""event"",""trial"",""time""
""fullscreenenter"",""1"",""14063""
","""event"",""trial"",""time""
""fullscreenexit"",""36"",""410961""
","","","-1","","","15","17294","6631","&#9826;","elianto","#f73b6a7A","-1","-1","1","0","[]","0","0","3","","","","","","","",""
"pit-trial","75","698408","0.0-2.0-14.3-1.3","battery-v0.2","","""event"",""trial"",""time""
""fullscreenenter"",""1"",""14063""
""fullscreenexit"",""36"",""410961""
""blur"",""36"",""412478""
""focus"",""36"",""412691""
""blur"",""36"",""413166""
""focus"",""36"",""424427""
""blur"",""36"",""442985""
""focus"",""36"",""445280""
","""event"",""trial"",""time""
""blur"",""36"",""412478""
""blur"",""36"",""413166""
""blur"",""36"",""442985""
","""event"",""trial"",""time""
""focus"",""36"",""412691""
""focus"",""36"",""424427""
""focus"",""36"",""445280""
","""event"",""trial"",""time""
""fullscreenenter"",""1"",""14063""
","""event"",""trial"",""time""
""fullscreenexit"",""36"",""410961""
","","","-1","","","15","17294","6631","&#9826;","elianto","#f73b6a7A","-1","-1","1","0","[]","0","0","3","","","","","","","",""
"pit-trial","76","703262","0.0-2.0-14.3-2.3","battery-v0.2","","""event"",""trial"",""time""
""fullscreenenter"",""1"",""14063""
""fullscreenexit"",""36"",""410961""
""blur"",""36"",""412478""
""focus"",""36"",""412691""
""blur"",""36"",""413166""
""focus"",""36"",""424427""
""blur"",""36"",""442985""
""focus"",""36"",""445280""
","""event"",""trial"",""time""
""blur"",""36"",""412478""
""blur"",""36"",""413166""
""blur"",""36"",""442985""
","""event"",""trial"",""time""
""focus"",""36"",""412691""
""focus"",""36"",""424427""
""focus"",""36"",""445280""
","""event"",""trial"",""time""
""fullscreenenter"",""1"",""14063""
","""event"",""trial"",""time""
""fullscreenexit"",""36"",""410961""
","","","-1","","","15","17294","6631","&#9826;","elianto","#f73b6a7A","-1","-1","1","0","[]","0","0","3","","","","","","","",""
"pit-trial","77","708119","0.0-2.0-14.3-3.3","battery-v0.2","","""event"",""trial"",""time""
""fullscreenenter"",""1"",""14063""
""fullscreenexit"",""36"",""410961""
""blur"",""36"",""412478""
""focus"",""36"",""412691""
""blur"",""36"",""413166""
""focus"",""36"",""424427""
""blur"",""36"",""442985""
""focus"",""36"",""445280""
","""event"",""trial"",""time""
""blur"",""36"",""412478""
""blur"",""36"",""413166""
""blur"",""36"",""442985""
","""event"",""trial"",""time""
""focus"",""36"",""412691""
""focus"",""36"",""424427""
""focus"",""36"",""445280""
","""event"",""trial"",""time""
""fullscreenenter"",""1"",""14063""
","""event"",""trial"",""time""
""fullscreenexit"",""36"",""410961""
","","","-1","","","15","17294","6631","&#9826;","elianto","#f73b6a7A","-1","-1","1","-10","[]","0","0","3","","","","","","","",""
"pit-trial","78","712975","0.0-2.0-14.3-4.3","battery-v0.2","","""event"",""trial"",""time""
""fullscreenenter"",""1"",""14063""
""fullscreenexit"",""36"",""410961""
""blur"",""36"",""412478""
""focus"",""36"",""412691""
""blur"",""36"",""413166""
""focus"",""36"",""424427""
""blur"",""36"",""442985""
""focus"",""36"",""445280""
","""event"",""trial"",""time""
""blur"",""36"",""412478""
""blur"",""36"",""413166""
""blur"",""36"",""442985""
","""event"",""trial"",""time""
""focus"",""36"",""412691""
""focus"",""36"",""424427""
""focus"",""36"",""445280""
","""event"",""trial"",""time""
""fullscreenenter"",""1"",""14063""
","""event"",""trial"",""time""
""fullscreenexit"",""36"",""410961""
","","","-1","","","15","17294","6631","&#9826;","elianto","#f73b6a7A","-1","-1","1","0","[]","0","0","3","","","","","","","",""
"call-function","79","712977","0.0-2.0-15.0","battery-v0.2","","""event"",""trial"",""time""
""fullscreenenter"",""1"",""14063""
""fullscreenexit"",""36"",""410961""
""blur"",""36"",""412478""
""focus"",""36"",""412691""
""blur"",""36"",""413166""
""focus"",""36"",""424427""
""blur"",""36"",""442985""
""focus"",""36"",""445280""
","""event"",""trial"",""time""
""blur"",""36"",""412478""
""blur"",""36"",""413166""
""blur"",""36"",""442985""
","""event"",""trial"",""time""
""focus"",""36"",""412691""
""focus"",""36"",""424427""
""focus"",""36"",""445280""
","""event"",""trial"",""time""
""fullscreenenter"",""1"",""14063""
","""event"",""trial"",""time""
""fullscreenexit"",""36"",""410961""
","","","","","","","","","","","","","","","","","","","","","","","","","","",""
"pit-instructions","80","751844","0.0-2.0-16.0","battery-v0.2","","""event"",""trial"",""time""
""fullscreenenter"",""1"",""14063""
""fullscreenexit"",""36"",""410961""
""blur"",""36"",""412478""
""focus"",""36"",""412691""
""blur"",""36"",""413166""
""focus"",""36"",""424427""
""blur"",""36"",""442985""
""focus"",""36"",""445280""
","""event"",""trial"",""time""
""blur"",""36"",""412478""
""blur"",""36"",""413166""
""blur"",""36"",""442985""
","""event"",""trial"",""time""
""focus"",""36"",""412691""
""focus"",""36"",""424427""
""focus"",""36"",""445280""
","""event"",""trial"",""time""
""fullscreenenter"",""1"",""14063""
","""event"",""trial"",""time""
""fullscreenexit"",""36"",""410961""
","","[{""page_index"":0,""viewing_time"":8381.899999976158},{""page_index"":1,""viewing_time"":9425},{""page_index"":2,""viewing_time"":7616.9000000059605},{""page_index"":3,""viewing_time"":13441.90000000596}]","38866.19999998808","","","","","","","","","","","","","","","","","","","","","","","",""
"pit-trial","81","756705","0.0-2.0-17.0-0.0","battery-v0.2","","""event"",""trial"",""time""
""fullscreenenter"",""1"",""14063""
""fullscreenexit"",""36"",""410961""
""blur"",""36"",""412478""
""focus"",""36"",""412691""
""blur"",""36"",""413166""
""focus"",""36"",""424427""
""blur"",""36"",""442985""
""focus"",""36"",""445280""
","""event"",""trial"",""time""
""blur"",""36"",""412478""
""blur"",""36"",""413166""
""blur"",""36"",""442985""
","""event"",""trial"",""time""
""focus"",""36"",""412691""
""focus"",""36"",""424427""
""focus"",""36"",""445280""
","""event"",""trial"",""time""
""fullscreenenter"",""1"",""14063""
","""event"",""trial"",""time""
""fullscreenexit"",""36"",""410961""
","","","-1","","","15","17294","6631","&#9789;","elianto","#f73b6a7A"," ","-1","0","-10","[]","0","0","4","","","","","","","",""
"pit-trial","82","759912","0.0-2.0-17.0-1.0","battery-v0.2","","""event"",""trial"",""time""
""fullscreenenter"",""1"",""14063""
""fullscreenexit"",""36"",""410961""
""blur"",""36"",""412478""
""focus"",""36"",""412691""
""blur"",""36"",""413166""
""focus"",""36"",""424427""
""blur"",""36"",""442985""
""focus"",""36"",""445280""
","""event"",""trial"",""time""
""blur"",""36"",""412478""
""blur"",""36"",""413166""
""blur"",""36"",""442985""
","""event"",""trial"",""time""
""focus"",""36"",""412691""
""focus"",""36"",""424427""
""focus"",""36"",""445280""
","""event"",""trial"",""time""
""fullscreenenter"",""1"",""14063""
","""event"",""trial"",""time""
""fullscreenexit"",""36"",""410961""
","","","343.90000000596046","","","15","17294","6631","&#9789;","elianto","#f73b6a7A"," "," ","1","0","[1194.1000000238419]","1","0","4","","","","","","","",""
"pit-trial","83","762910","0.0-2.0-17.0-2.0","battery-v0.2","","""event"",""trial"",""time""
""fullscreenenter"",""1"",""14063""
""fullscreenexit"",""36"",""410961""
""blur"",""36"",""412478""
""focus"",""36"",""412691""
""blur"",""36"",""413166""
""focus"",""36"",""424427""
""blur"",""36"",""442985""
""focus"",""36"",""445280""
","""event"",""trial"",""time""
""blur"",""36"",""412478""
""blur"",""36"",""413166""
""blur"",""36"",""442985""
","""event"",""trial"",""time""
""focus"",""36"",""412691""
""focus"",""36"",""424427""
""focus"",""36"",""445280""
","""event"",""trial"",""time""
""fullscreenenter"",""1"",""14063""
","""event"",""trial"",""time""
""fullscreenexit"",""36"",""410961""
","","","136.09999999403954","","","15","17294","6631","&#9789;","elianto","#f73b6a7A"," "," ","1","0","[987.4000000059605,2458.7000000178814,2658.800000011921,2827.100000023842]","4","0","4","","","","","","","",""
"pit-trial","84","765992","0.0-2.0-17.0-3.0","battery-v0.2","","""event"",""trial"",""time""
""fullscreenenter"",""1"",""14063""
""fullscreenexit"",""36"",""410961""
""blur"",""36"",""412478""
""focus"",""36"",""412691""
""blur"",""36"",""413166""
""focus"",""36"",""424427""
""blur"",""36"",""442985""
""focus"",""36"",""445280""
","""event"",""trial"",""time""
""blur"",""36"",""412478""
""blur"",""36"",""413166""
""blur"",""36"",""442985""
","""event"",""trial"",""time""
""focus"",""36"",""412691""
""focus"",""36"",""424427""
""focus"",""36"",""445280""
","""event"",""trial"",""time""
""fullscreenenter"",""1"",""14063""
","""event"",""trial"",""time""
""fullscreenexit"",""36"",""410961""
","","","211.39999997615814","","","15","17294","6631","&#9789;","elianto","#f73b6a7A"," "," ","1","-10","[9.200000017881393,197,385.60000002384186,608.3000000119209,820.6000000238419,1064,1259.800000011921,1505.2000000178814,1712.5,1890.9000000059605,2090.300000011921,2292.9000000059605,2500.5,2716.9000000059605,2903]","15","0","4","","","","","","","",""
"pit-trial","85","769063","0.0-2.0-17.0-4.0","battery-v0.2","","""event"",""trial"",""time""
""fullscreenenter"",""1"",""14063""
""fullscreenexit"",""36"",""410961""
""blur"",""36"",""412478""
""focus"",""36"",""412691""
""blur"",""36"",""413166""
""focus"",""36"",""424427""
""blur"",""36"",""442985""
""focus"",""36"",""445280""
","""event"",""trial"",""time""
""blur"",""36"",""412478""
""blur"",""36"",""413166""
""blur"",""36"",""442985""
","""event"",""trial"",""time""
""focus"",""36"",""412691""
""focus"",""36"",""424427""
""focus"",""36"",""445280""
","""event"",""trial"",""time""
""fullscreenenter"",""1"",""14063""
","""event"",""trial"",""time""
""fullscreenexit"",""36"",""410961""
","","","202.7000000178814","","","15","17294","6631","&#9789;","elianto","#f73b6a7A"," "," ","1","0","[5.5,207.09999999403954,410.19999998807907,608,820.7999999821186,1055.2999999821186,1311.699999988079,1591,1866.5999999940395,2091.0999999940395,3017.0999999940395]","11","0","4","","","","","","","",""
"pit-trial","86","772773","0.0-2.0-17.1-0.1","battery-v0.2","","""event"",""trial"",""time""
""fullscreenenter"",""1"",""14063""
""fullscreenexit"",""36"",""410961""
""blur"",""36"",""412478""
""focus"",""36"",""412691""
""blur"",""36"",""413166""
""focus"",""36"",""424427""
""blur"",""36"",""442985""
""focus"",""36"",""445280""
","""event"",""trial"",""time""
""blur"",""36"",""412478""
""blur"",""36"",""413166""
""blur"",""36"",""442985""
","""event"",""trial"",""time""
""focus"",""36"",""412691""
""focus"",""36"",""424427""
""focus"",""36"",""445280""
","""event"",""trial"",""time""
""fullscreenenter"",""1"",""14063""
","""event"",""trial"",""time""
""fullscreenexit"",""36"",""410961""
","","","851.3000000119209","","","15","17294","6631","&#9789;","elianto","#f73b6a7A"," "," ","1","0","[1702.2000000178814,1852.2000000178814,2020.0999999940395,2206.300000011921,2383.0999999940395,2566,2764.300000011921,2948.9000000059605,3155.5,3343.9000000059605,3545.7000000178814]","11","0","4","","","","","","","",""
"pit-trial","87","775760","0.0-2.0-17.1-1.1","battery-v0.2","","""event"",""trial"",""time""
""fullscreenenter"",""1"",""14063""
""fullscreenexit"",""36"",""410961""
""blur"",""36"",""412478""
""focus"",""36"",""412691""
""blur"",""36"",""413166""
""focus"",""36"",""424427""
""blur"",""36"",""442985""
""focus"",""36"",""445280""
","""event"",""trial"",""time""
""blur"",""36"",""412478""
""blur"",""36"",""413166""
""blur"",""36"",""442985""
","""event"",""trial"",""time""
""focus"",""36"",""412691""
""focus"",""36"",""424427""
""focus"",""36"",""445280""
","""event"",""trial"",""time""
""fullscreenenter"",""1"",""14063""
","""event"",""trial"",""time""
""fullscreenexit"",""36"",""410961""
","","","133.80000001192093","","","15","17294","6631","&#9789;","elianto","#f73b6a7A"," "," ","1","0","[29.799999982118607,202.09999999403954,393.7999999821186,581.5999999940395,780.5,984.5,1177.2999999821186,1396.7999999821186,1617.4000000059605,1809.199999988079,2188.4000000059605,2449.699999988079,2973.699999988079]","13","0","4","","","","","","","",""
"pit-trial","88","778859","0.0-2.0-17.1-2.1","battery-v0.2","","""event"",""trial"",""time""
""fullscreenenter"",""1"",""14063""
""fullscreenexit"",""36"",""410961""
""blur"",""36"",""412478""
""focus"",""36"",""412691""
""blur"",""36"",""413166""
""focus"",""36"",""424427""
""blur"",""36"",""442985""
""focus"",""36"",""445280""
","""event"",""trial"",""time""
""blur"",""36"",""412478""
""blur"",""36"",""413166""
""blur"",""36"",""442985""
","""event"",""trial"",""time""
""focus"",""36"",""412691""
""focus"",""36"",""424427""
""focus"",""36"",""445280""
","""event"",""trial"",""time""
""fullscreenenter"",""1"",""14063""
","""event"",""trial"",""time""
""fullscreenexit"",""36"",""410961""
","","","244.5","","","15","17294","6631","&#9789;","elianto","#f73b6a7A"," "," ","1","0","[1094.5999999940395,1285.5999999940395,1471.699999988079,1665.2999999821186,1865.199999988079,2067.699999988079,2252,2444.5,2652.199999988079,2874.199999988079,3083.5999999940395]","11","0","4","","","","","","","",""
"pit-trial","89","781790","0.0-2.0-17.1-3.1","battery-v0.2","","""event"",""trial"",""time""
""fullscreenenter"",""1"",""14063""
""fullscreenexit"",""36"",""410961""
""blur"",""36"",""412478""
""focus"",""36"",""412691""
""blur"",""36"",""413166""
""focus"",""36"",""424427""
""blur"",""36"",""442985""
""focus"",""36"",""445280""
","""event"",""trial"",""time""
""blur"",""36"",""412478""
""blur"",""36"",""413166""
""blur"",""36"",""442985""
","""event"",""trial"",""time""
""focus"",""36"",""412691""
""focus"",""36"",""424427""
""focus"",""36"",""445280""
","""event"",""trial"",""time""
""fullscreenenter"",""1"",""14063""
","""event"",""trial"",""time""
""fullscreenexit"",""36"",""410961""
","","","71.90000000596046","","","15","17294","6631","&#9789;","elianto","#f73b6a7A"," "," ","1","-10","[246.90000000596046,499.40000000596046,728.6999999880791,921.9000000059605,1545.0999999940395,1738.699999988079,1920.4000000059605,2119.9000000059605,2328.0999999940395,2500.5999999940395,2707.0999999940395]","11","0","4","","","","","","","",""
"pit-trial","90","784772","0.0-2.0-17.1-4.1","battery-v0.2","","""event"",""trial"",""time""
""fullscreenenter"",""1"",""14063""
""fullscreenexit"",""36"",""410961""
""blur"",""36"",""412478""
""focus"",""36"",""412691""
""blur"",""36"",""413166""
""focus"",""36"",""424427""
""blur"",""36"",""442985""
""focus"",""36"",""445280""
","""event"",""trial"",""time""
""blur"",""36"",""412478""
""blur"",""36"",""413166""
""blur"",""36"",""442985""
","""event"",""trial"",""time""
""focus"",""36"",""412691""
""focus"",""36"",""424427""
""focus"",""36"",""445280""
","""event"",""trial"",""time""
""fullscreenenter"",""1"",""14063""
","""event"",""trial"",""time""
""fullscreenexit"",""36"",""410961""
","","","129.7999999821186","","","15","17294","6631","&#9789;","elianto","#f73b6a7A"," "," ","1","0","[15.799999982118607,182.40000000596046,370.69999998807907,560.5,745.6999999880791,980.0999999940395,1166.699999988079,1362.0999999940395,1557.2999999821186,1733.5999999940395,1913.9000000059605,2190.9000000059605,2387.699999988079,2604.4000000059605,2814.4000000059605]","15","0","4","","","","","","","",""
"pit-trial","91","787835","0.0-2.0-17.2-0.2","battery-v0.2","","""event"",""trial"",""time""
""fullscreenenter"",""1"",""14063""
""fullscreenexit"",""36"",""410961""
""blur"",""36"",""412478""
""focus"",""36"",""412691""
""blur"",""36"",""413166""
""focus"",""36"",""424427""
""blur"",""36"",""442985""
""focus"",""36"",""445280""
","""event"",""trial"",""time""
""blur"",""36"",""412478""
""blur"",""36"",""413166""
""blur"",""36"",""442985""
","""event"",""trial"",""time""
""focus"",""36"",""412691""
""focus"",""36"",""424427""
""focus"",""36"",""445280""
","""event"",""trial"",""time""
""fullscreenenter"",""1"",""14063""
","""event"",""trial"",""time""
""fullscreenexit"",""36"",""410961""
","","","208.09999999403954","","","15","17294","6631","&#9789;","elianto","#f73b6a7A"," "," ","1","0","[40.10000002384186,236.5,430.30000001192093,639.2000000178814,793,1058.800000011921,1254.1000000238419,1421.4000000059605,1628.1000000238419,1835.800000011921,2056.300000011921,2301.9000000059605,2950.2000000178814]","13","0","4","","","","","","","",""
"pit-trial","92","790884","0.0-2.0-17.2-1.2","battery-v0.2","","""event"",""trial"",""time""
""fullscreenenter"",""1"",""14063""
""fullscreenexit"",""36"",""410961""
""blur"",""36"",""412478""
""focus"",""36"",""412691""
""blur"",""36"",""413166""
""focus"",""36"",""424427""
""blur"",""36"",""442985""
""focus"",""36"",""445280""
","""event"",""trial"",""time""
""blur"",""36"",""412478""
""blur"",""36"",""413166""
""blur"",""36"",""442985""
","""event"",""trial"",""time""
""focus"",""36"",""412691""
""focus"",""36"",""424427""
""focus"",""36"",""445280""
","""event"",""trial"",""time""
""fullscreenenter"",""1"",""14063""
","""event"",""trial"",""time""
""fullscreenexit"",""36"",""410961""
","","","194.2999999821186","","","15","17294","6631","&#9789;","elianto","#f73b6a7A"," "," ","1","0","[131.7999999821186,558.2999999821186,803.5,1046.199999988079,1275.7999999821186,1489.2999999821186,1692.5,1948.699999988079,2193.5,2421.0999999940395,2632.4000000059605,2818.5999999940395,3044.7999999821186]","13","0","4","","","","","","","",""
"pit-trial","93","793966","0.0-2.0-17.2-2.2","battery-v0.2","","""event"",""trial"",""time""
""fullscreenenter"",""1"",""14063""
""fullscreenexit"",""36"",""410961""
""blur"",""36"",""412478""
""focus"",""36"",""412691""
""blur"",""36"",""413166""
""focus"",""36"",""424427""
""blur"",""36"",""442985""
""focus"",""36"",""445280""
","""event"",""trial"",""time""
""blur"",""36"",""412478""
""blur"",""36"",""413166""
""blur"",""36"",""442985""
","""event"",""trial"",""time""
""focus"",""36"",""412691""
""focus"",""36"",""424427""
""focus"",""36"",""445280""
","""event"",""trial"",""time""
""fullscreenenter"",""1"",""14063""
","""event"",""trial"",""time""
""fullscreenexit"",""36"",""410961""
","","","226.60000002384186","","","15","17294","6631","&#9789;","elianto","#f73b6a7A"," "," ","1","0","[263.30000001192093,565.8000000119209,813,1078.199999988079,1291.300000011921,1523.699999988079,1770.199999988079,2025.300000011921,2264.9000000059605,2490.199999988079,2700.5999999940395,2923.5]","12","0","4","","","","","","","",""
"pit-trial","94","796940","0.0-2.0-17.2-3.2","battery-v0.2","","""event"",""trial"",""time""
""fullscreenenter"",""1"",""14063""
""fullscreenexit"",""36"",""410961""
""blur"",""36"",""412478""
""focus"",""36"",""412691""
""blur"",""36"",""413166""
""focus"",""36"",""424427""
""blur"",""36"",""442985""
""focus"",""36"",""445280""
","""event"",""trial"",""time""
""blur"",""36"",""412478""
""blur"",""36"",""413166""
""blur"",""36"",""442985""
","""event"",""trial"",""time""
""focus"",""36"",""412691""
""focus"",""36"",""424427""
""focus"",""36"",""445280""
","""event"",""trial"",""time""
""fullscreenenter"",""1"",""14063""
","""event"",""trial"",""time""
""fullscreenexit"",""36"",""410961""
","","","121","","","15","17294","6631","&#9789;","elianto","#f73b6a7A"," "," ","1","-10","[83.40000000596046,328.30000001192093,534.4000000059605,766.5,971.0999999940395,1176.9000000059605,1389,1616,1844.9000000059605,2067.4000000059605,2261.800000011921,2469.800000011921,2721.4000000059605,2929.5999999940395]","14","0","4","","","","","","","",""
"pit-trial","95","799903","0.0-2.0-17.2-4.2","battery-v0.2","","""event"",""trial"",""time""
""fullscreenenter"",""1"",""14063""
""fullscreenexit"",""36"",""410961""
""blur"",""36"",""412478""
""focus"",""36"",""412691""
""blur"",""36"",""413166""
""focus"",""36"",""424427""
""blur"",""36"",""442985""
""focus"",""36"",""445280""
","""event"",""trial"",""time""
""blur"",""36"",""412478""
""blur"",""36"",""413166""
""blur"",""36"",""442985""
","""event"",""trial"",""time""
""focus"",""36"",""412691""
""focus"",""36"",""424427""
""focus"",""36"",""445280""
","""event"",""trial"",""time""
""fullscreenenter"",""1"",""14063""
","""event"",""trial"",""time""
""fullscreenexit"",""36"",""410961""
","","","107.30000001192093","","","15","17294","6631","&#9789;","elianto","#f73b6a7A"," "," ","1","0","[957.5]","1","0","4","","","","","","","",""
"pit-trial","96","802873","0.0-2.0-17.3-0.3","battery-v0.2","","""event"",""trial"",""time""
""fullscreenenter"",""1"",""14063""
""fullscreenexit"",""36"",""410961""
""blur"",""36"",""412478""
""focus"",""36"",""412691""
""blur"",""36"",""413166""
""focus"",""36"",""424427""
""blur"",""36"",""442985""
""focus"",""36"",""445280""
","""event"",""trial"",""time""
""blur"",""36"",""412478""
""blur"",""36"",""413166""
""blur"",""36"",""442985""
","""event"",""trial"",""time""
""focus"",""36"",""412691""
""focus"",""36"",""424427""
""focus"",""36"",""445280""
","""event"",""trial"",""time""
""fullscreenenter"",""1"",""14063""
","""event"",""trial"",""time""
""fullscreenexit"",""36"",""410961""
","","","112.69999998807907","","","15","17294","6631","&#9789;","elianto","#f73b6a7A"," "," ","1","0","[964.6999999880791]","1","0","4","","","","","","","",""
"pit-trial","97","806886","0.0-2.0-17.3-1.3","battery-v0.2","","""event"",""trial"",""time""
""fullscreenenter"",""1"",""14063""
""fullscreenexit"",""36"",""410961""
""blur"",""36"",""412478""
""focus"",""36"",""412691""
""blur"",""36"",""413166""
""focus"",""36"",""424427""
""blur"",""36"",""442985""
""focus"",""36"",""445280""
","""event"",""trial"",""time""
""blur"",""36"",""412478""
""blur"",""36"",""413166""
""blur"",""36"",""442985""
","""event"",""trial"",""time""
""focus"",""36"",""412691""
""focus"",""36"",""424427""
""focus"",""36"",""445280""
","""event"",""trial"",""time""
""fullscreenenter"",""1"",""14063""
","""event"",""trial"",""time""
""fullscreenexit"",""36"",""410961""
","","","1159","","","15","17294","6631","&#9789;","elianto","#f73b6a7A"," "," ","1","0","[2009.5999999940395]","1","0","4","","","","","","","",""
"pit-trial","98","810297","0.0-2.0-17.3-2.3","battery-v0.2","","""event"",""trial"",""time""
""fullscreenenter"",""1"",""14063""
""fullscreenexit"",""36"",""410961""
""blur"",""36"",""412478""
""focus"",""36"",""412691""
""blur"",""36"",""413166""
""focus"",""36"",""424427""
""blur"",""36"",""442985""
""focus"",""36"",""445280""
","""event"",""trial"",""time""
""blur"",""36"",""412478""
""blur"",""36"",""413166""
""blur"",""36"",""442985""
","""event"",""trial"",""time""
""focus"",""36"",""412691""
""focus"",""36"",""424427""
""focus"",""36"",""445280""
","""event"",""trial"",""time""
""fullscreenenter"",""1"",""14063""
","""event"",""trial"",""time""
""fullscreenexit"",""36"",""410961""
","","","556.0999999940395","","","15","17294","6631","&#9789;","elianto","#f73b6a7A"," "," ","1","0","[1408.1000000238419]","1","0","4","","","","","","","",""
"pit-trial","99","813587","0.0-2.0-17.3-3.3","battery-v0.2","","""event"",""trial"",""time""
""fullscreenenter"",""1"",""14063""
""fullscreenexit"",""36"",""410961""
""blur"",""36"",""412478""
""focus"",""36"",""412691""
""blur"",""36"",""413166""
""focus"",""36"",""424427""
""blur"",""36"",""442985""
""focus"",""36"",""445280""
","""event"",""trial"",""time""
""blur"",""36"",""412478""
""blur"",""36"",""413166""
""blur"",""36"",""442985""
","""event"",""trial"",""time""
""focus"",""36"",""412691""
""focus"",""36"",""424427""
""focus"",""36"",""445280""
","""event"",""trial"",""time""
""fullscreenenter"",""1"",""14063""
","""event"",""trial"",""time""
""fullscreenexit"",""36"",""410961""
","","","434","","","15","17294","6631","&#9789;","elianto","#f73b6a7A"," "," ","1","-10","[1285.300000011921]","1","0","4","","","","","","","",""
"pit-trial","100","816609","0.0-2.0-17.3-4.3","battery-v0.2","","""event"",""trial"",""time""
""fullscreenenter"",""1"",""14063""
""fullscreenexit"",""36"",""410961""
""blur"",""36"",""412478""
""focus"",""36"",""412691""
""blur"",""36"",""413166""
""focus"",""36"",""424427""
""blur"",""36"",""442985""
""focus"",""36"",""445280""
","""event"",""trial"",""time""
""blur"",""36"",""412478""
""blur"",""36"",""413166""
""blur"",""36"",""442985""
","""event"",""trial"",""time""
""focus"",""36"",""412691""
""focus"",""36"",""424427""
""focus"",""36"",""445280""
","""event"",""trial"",""time""
""fullscreenenter"",""1"",""14063""
","""event"",""trial"",""time""
""fullscreenexit"",""36"",""410961""
","","","167.2000000178814","","","15","17294","6631","&#9789;","elianto","#f73b6a7A"," "," ","1","0","[1019]","1","0","4","","","","","","","",""
"call-function","101","816612","0.0-2.0-18.0","battery-v0.2","","""event"",""trial"",""time""
""fullscreenenter"",""1"",""14063""
""fullscreenexit"",""36"",""410961""
""blur"",""36"",""412478""
""focus"",""36"",""412691""
""blur"",""36"",""413166""
""focus"",""36"",""424427""
""blur"",""36"",""442985""
""focus"",""36"",""445280""
","""event"",""trial"",""time""
""blur"",""36"",""412478""
""blur"",""36"",""413166""
""blur"",""36"",""442985""
","""event"",""trial"",""time""
""focus"",""36"",""412691""
""focus"",""36"",""424427""
""focus"",""36"",""445280""
","""event"",""trial"",""time""
""fullscreenenter"",""1"",""14063""
","""event"",""trial"",""time""
""fullscreenexit"",""36"",""410961""
","","","","","","","","","","","","","","","","","","","","","","","","","","",""
"pit-instructions","102","945299","0.0-2.0-19.0","battery-v0.2","","""event"",""trial"",""time""
""fullscreenenter"",""1"",""14063""
""fullscreenexit"",""36"",""410961""
""blur"",""36"",""412478""
""focus"",""36"",""412691""
""blur"",""36"",""413166""
""focus"",""36"",""424427""
""blur"",""36"",""442985""
""focus"",""36"",""445280""
","""event"",""trial"",""time""
""blur"",""36"",""412478""
""blur"",""36"",""413166""
""blur"",""36"",""442985""
","""event"",""trial"",""time""
""focus"",""36"",""412691""
""focus"",""36"",""424427""
""focus"",""36"",""445280""
","""event"",""trial"",""time""
""fullscreenenter"",""1"",""14063""
","""event"",""trial"",""time""
""fullscreenexit"",""36"",""410961""
","","[{""page_index"":0,""viewing_time"":26854.70000001788},{""page_index"":1,""viewing_time"":6735},{""page_index"":2,""viewing_time"":28025.09999999404},{""page_index"":3,""viewing_time"":8243.5},{""page_index"":4,""viewing_time"":11045.299999982119},{""page_index"":5,""viewing_time"":10177.200000017881},{""page_index"":6,""viewing_time"":13687.799999982119},{""page_index"":7,""viewing_time"":11452.100000023842},{""page_index"":8,""viewing_time"":12465.899999976158}]","128687.09999999404","","","","","","","","","","","","","","","","","","","","","","","",""
"pit-comprehension","103","953903","0.0-2.0-20.0-0.0","battery-v0.2","","""event"",""trial"",""time""
""fullscreenenter"",""1"",""14063""
""fullscreenexit"",""36"",""410961""
""blur"",""36"",""412478""
""focus"",""36"",""412691""
""blur"",""36"",""413166""
""focus"",""36"",""424427""
""blur"",""36"",""442985""
""focus"",""36"",""445280""
","""event"",""trial"",""time""
""blur"",""36"",""412478""
""blur"",""36"",""413166""
""blur"",""36"",""442985""
","""event"",""trial"",""time""
""focus"",""36"",""412691""
""focus"",""36"",""424427""
""focus"",""36"",""445280""
","""event"",""trial"",""time""
""fullscreenenter"",""1"",""14063""
","""event"",""trial"",""time""
""fullscreenexit"",""36"",""410961""
","","","8600.600000023842","[""SPACE""]","0","15","17294","6631","","","","","","","","","","","","","","","","","","",""
"pit-instructions","104","956477","0.0-2.0-20.0-1.0","battery-v0.2","","""event"",""trial"",""time""
""fullscreenenter"",""1"",""14063""
""fullscreenexit"",""36"",""410961""
""blur"",""36"",""412478""
""focus"",""36"",""412691""
""blur"",""36"",""413166""
""focus"",""36"",""424427""
""blur"",""36"",""442985""
""focus"",""36"",""445280""
","""event"",""trial"",""time""
""blur"",""36"",""412478""
""blur"",""36"",""413166""
""blur"",""36"",""442985""
","""event"",""trial"",""time""
""focus"",""36"",""412691""
""focus"",""36"",""424427""
""focus"",""36"",""445280""
","""event"",""trial"",""time""
""fullscreenenter"",""1"",""14063""
","""event"",""trial"",""time""
""fullscreenexit"",""36"",""410961""
","","[{""page_index"":0,""viewing_time"":2521.0999999940395}]","2521.399999976158","","","","","","","","","","","","","","","","","","","","","","","",""
"pit-comprehension","105","962925","0.0-2.0-21.0-0.0","battery-v0.2","","""event"",""trial"",""time""
""fullscreenenter"",""1"",""14063""
""fullscreenexit"",""36"",""410961""
""blur"",""36"",""412478""
""focus"",""36"",""412691""
""blur"",""36"",""413166""
""focus"",""36"",""424427""
""blur"",""36"",""442985""
""focus"",""36"",""445280""
","""event"",""trial"",""time""
""blur"",""36"",""412478""
""blur"",""36"",""413166""
""blur"",""36"",""442985""
","""event"",""trial"",""time""
""focus"",""36"",""412691""
""focus"",""36"",""424427""
""focus"",""36"",""445280""
","""event"",""trial"",""time""
""fullscreenenter"",""1"",""14063""
","""event"",""trial"",""time""
""fullscreenexit"",""36"",""410961""
","","","6443","[""10""]","0","15","17294","6631","","","","","","","","","","","","","","","","","","",""
"pit-instructions","106","964367","0.0-2.0-21.0-1.0","battery-v0.2","","""event"",""trial"",""time""
""fullscreenenter"",""1"",""14063""
""fullscreenexit"",""36"",""410961""
""blur"",""36"",""412478""
""focus"",""36"",""412691""
""blur"",""36"",""413166""
""focus"",""36"",""424427""
""blur"",""36"",""442985""
""focus"",""36"",""445280""
","""event"",""trial"",""time""
""blur"",""36"",""412478""
""blur"",""36"",""413166""
""blur"",""36"",""442985""
","""event"",""trial"",""time""
""focus"",""36"",""412691""
""focus"",""36"",""424427""
""focus"",""36"",""445280""
","""event"",""trial"",""time""
""fullscreenenter"",""1"",""14063""
","""event"",""trial"",""time""
""fullscreenexit"",""36"",""410961""
","","[{""page_index"":0,""viewing_time"":1396.9000000059605}]","1397.199999988079","","","","","","","","","","","","","","","","","","","","","","","",""
"pit-comprehension","107","971350","0.0-2.0-22.0-0.0","battery-v0.2","","""event"",""trial"",""time""
""fullscreenenter"",""1"",""14063""
""fullscreenexit"",""36"",""410961""
""blur"",""36"",""412478""
""focus"",""36"",""412691""
""blur"",""36"",""413166""
""focus"",""36"",""424427""
""blur"",""36"",""442985""
""focus"",""36"",""445280""
","""event"",""trial"",""time""
""blur"",""36"",""412478""
""blur"",""36"",""413166""
""blur"",""36"",""442985""
","""event"",""trial"",""time""
""focus"",""36"",""412691""
""focus"",""36"",""424427""
""focus"",""36"",""445280""
","""event"",""trial"",""time""
""fullscreenenter"",""1"",""14063""
","""event"",""trial"",""time""
""fullscreenexit"",""36"",""410961""
","","","6980","[""0""]","0","15","17294","6631","","","","","","","","","","","","","","","","","","",""
"pit-instructions","108","973020","0.0-2.0-22.0-1.0","battery-v0.2","","""event"",""trial"",""time""
""fullscreenenter"",""1"",""14063""
""fullscreenexit"",""36"",""410961""
""blur"",""36"",""412478""
""focus"",""36"",""412691""
""blur"",""36"",""413166""
""focus"",""36"",""424427""
""blur"",""36"",""442985""
""focus"",""36"",""445280""
","""event"",""trial"",""time""
""blur"",""36"",""412478""
""blur"",""36"",""413166""
""blur"",""36"",""442985""
","""event"",""trial"",""time""
""focus"",""36"",""412691""
""focus"",""36"",""424427""
""focus"",""36"",""445280""
","""event"",""trial"",""time""
""fullscreenenter"",""1"",""14063""
","""event"",""trial"",""time""
""fullscreenexit"",""36"",""410961""
","","[{""page_index"":0,""viewing_time"":1612.5999999940395}]","1612.9000000059605","","","","","","","","","","","","","","","","","","","","","","","",""
"pit-comprehension","109","981048","0.0-2.0-23.0-0.0","battery-v0.2","","""event"",""trial"",""time""
""fullscreenenter"",""1"",""14063""
""fullscreenexit"",""36"",""410961""
""blur"",""36"",""412478""
""focus"",""36"",""412691""
""blur"",""36"",""413166""
""focus"",""36"",""424427""
""blur"",""36"",""442985""
""focus"",""36"",""445280""
","""event"",""trial"",""time""
""blur"",""36"",""412478""
""blur"",""36"",""413166""
""blur"",""36"",""442985""
","""event"",""trial"",""time""
""focus"",""36"",""412691""
""focus"",""36"",""424427""
""focus"",""36"",""445280""
","""event"",""trial"",""time""
""fullscreenenter"",""1"",""14063""
","""event"",""trial"",""time""
""fullscreenexit"",""36"",""410961""
","","","8024.800000011921","[""True""]","0","15","17294","6631","","","","","","","","","","","","","","","","","","",""
"pit-instructions","110","982262","0.0-2.0-23.0-1.0","battery-v0.2","","""event"",""trial"",""time""
""fullscreenenter"",""1"",""14063""
""fullscreenexit"",""36"",""410961""
""blur"",""36"",""412478""
""focus"",""36"",""412691""
""blur"",""36"",""413166""
""focus"",""36"",""424427""
""blur"",""36"",""442985""
""focus"",""36"",""445280""
","""event"",""trial"",""time""
""blur"",""36"",""412478""
""blur"",""36"",""413166""
""blur"",""36"",""442985""
","""event"",""trial"",""time""
""focus"",""36"",""412691""
""focus"",""36"",""424427""
""focus"",""36"",""445280""
","""event"",""trial"",""time""
""fullscreenenter"",""1"",""14063""
","""event"",""trial"",""time""
""fullscreenexit"",""36"",""410961""
","","[{""page_index"":0,""viewing_time"":1170.300000011921}]","1170.4000000059605","","","","","","","","","","","","","","","","","","","","","","","",""
"pit-comprehension","111","990143","0.0-2.0-24.0-0.0","battery-v0.2","","""event"",""trial"",""time""
""fullscreenenter"",""1"",""14063""
""fullscreenexit"",""36"",""410961""
""blur"",""36"",""412478""
""focus"",""36"",""412691""
""blur"",""36"",""413166""
""focus"",""36"",""424427""
""blur"",""36"",""442985""
""focus"",""36"",""445280""
","""event"",""trial"",""time""
""blur"",""36"",""412478""
""blur"",""36"",""413166""
""blur"",""36"",""442985""
","""event"",""trial"",""time""
""focus"",""36"",""412691""
""focus"",""36"",""424427""
""focus"",""36"",""445280""
","""event"",""trial"",""time""
""fullscreenenter"",""1"",""14063""
","""event"",""trial"",""time""
""fullscreenexit"",""36"",""410961""
","","","7878.5999999940395","[""True""]","0","15","17294","6631","","","","","","","","","","","","","","","","","","",""
"pit-instructions","112","995704","0.0-2.0-24.0-1.0","battery-v0.2","","""event"",""trial"",""time""
""fullscreenenter"",""1"",""14063""
""fullscreenexit"",""36"",""410961""
""blur"",""36"",""412478""
""focus"",""36"",""412691""
""blur"",""36"",""413166""
""focus"",""36"",""424427""
""blur"",""36"",""442985""
""focus"",""36"",""445280""
","""event"",""trial"",""time""
""blur"",""36"",""412478""
""blur"",""36"",""413166""
""blur"",""36"",""442985""
","""event"",""trial"",""time""
""focus"",""36"",""412691""
""focus"",""36"",""424427""
""focus"",""36"",""445280""
","""event"",""trial"",""time""
""fullscreenenter"",""1"",""14063""
","""event"",""trial"",""time""
""fullscreenexit"",""36"",""410961""
","","[{""page_index"":0,""viewing_time"":5512.9000000059605}]","5513.200000017881","","","","","","","","","","","","","","","","","","","","","","","",""
"pit-comprehension","113","1002268","0.0-2.0-25.0-0.0","battery-v0.2","","""event"",""trial"",""time""
""fullscreenenter"",""1"",""14063""
""fullscreenexit"",""36"",""410961""
""blur"",""36"",""412478""
""focus"",""36"",""412691""
""blur"",""36"",""413166""
""focus"",""36"",""424427""
""blur"",""36"",""442985""
""focus"",""36"",""445280""
","""event"",""trial"",""time""
""blur"",""36"",""412478""
""blur"",""36"",""413166""
""blur"",""36"",""442985""
","""event"",""trial"",""time""
""focus"",""36"",""412691""
""focus"",""36"",""424427""
""focus"",""36"",""445280""
","""event"",""trial"",""time""
""fullscreenenter"",""1"",""14063""
","""event"",""trial"",""time""
""fullscreenexit"",""36"",""410961""
","","","6560.299999982119","[""True""]","0","15","17294","6631","","","","","","","","","","","","","","","","","","",""
"pit-instructions","114","1006756","0.0-2.0-25.0-1.0","battery-v0.2","","""event"",""trial"",""time""
""fullscreenenter"",""1"",""14063""
""fullscreenexit"",""36"",""410961""
""blur"",""36"",""412478""
""focus"",""36"",""412691""
""blur"",""36"",""413166""
""focus"",""36"",""424427""
""blur"",""36"",""442985""
""focus"",""36"",""445280""
","""event"",""trial"",""time""
""blur"",""36"",""412478""
""blur"",""36"",""413166""
""blur"",""36"",""442985""
","""event"",""trial"",""time""
""focus"",""36"",""412691""
""focus"",""36"",""424427""
""focus"",""36"",""445280""
","""event"",""trial"",""time""
""fullscreenenter"",""1"",""14063""
","""event"",""trial"",""time""
""fullscreenexit"",""36"",""410961""
","","[{""page_index"":0,""viewing_time"":4426.399999976158}]","4427","","","","","","","","","","","","","","","","","","","","","","","",""
"pit-comprehension","115","1011796","0.0-2.0-26.0-0.0","battery-v0.2","","""event"",""trial"",""time""
""fullscreenenter"",""1"",""14063""
""fullscreenexit"",""36"",""410961""
""blur"",""36"",""412478""
""focus"",""36"",""412691""
""blur"",""36"",""413166""
""focus"",""36"",""424427""
""blur"",""36"",""442985""
""focus"",""36"",""445280""
","""event"",""trial"",""time""
""blur"",""36"",""412478""
""blur"",""36"",""413166""
""blur"",""36"",""442985""
","""event"",""trial"",""time""
""focus"",""36"",""412691""
""focus"",""36"",""424427""
""focus"",""36"",""445280""
","""event"",""trial"",""time""
""fullscreenenter"",""1"",""14063""
","""event"",""trial"",""time""
""fullscreenexit"",""36"",""410961""
","","","5036.299999982119","[""False""]","0","15","17294","6631","","","","","","","","","","","","","","","","","","",""
"pit-instructions","116","1016850","0.0-2.0-26.0-1.0","battery-v0.2","","""event"",""trial"",""time""
""fullscreenenter"",""1"",""14063""
""fullscreenexit"",""36"",""410961""
""blur"",""36"",""412478""
""focus"",""36"",""412691""
""blur"",""36"",""413166""
""focus"",""36"",""424427""
""blur"",""36"",""442985""
""focus"",""36"",""445280""
","""event"",""trial"",""time""
""blur"",""36"",""412478""
""blur"",""36"",""413166""
""blur"",""36"",""442985""
","""event"",""trial"",""time""
""focus"",""36"",""412691""
""focus"",""36"",""424427""
""focus"",""36"",""445280""
","""event"",""trial"",""time""
""fullscreenenter"",""1"",""14063""
","""event"",""trial"",""time""
""fullscreenexit"",""36"",""410961""
","","[{""page_index"":0,""viewing_time"":5006.5999999940395}]","5007","","","","","","","","","","","","","","","","","","","","","","","",""
"pit-instructions","117","1165413","0.0-3.0","battery-v0.2","","""event"",""trial"",""time""
""fullscreenenter"",""1"",""14063""
""fullscreenexit"",""36"",""410961""
""blur"",""36"",""412478""
""focus"",""36"",""412691""
""blur"",""36"",""413166""
""focus"",""36"",""424427""
""blur"",""36"",""442985""
""focus"",""36"",""445280""
","""event"",""trial"",""time""
""blur"",""36"",""412478""
""blur"",""36"",""413166""
""blur"",""36"",""442985""
","""event"",""trial"",""time""
""focus"",""36"",""412691""
""focus"",""36"",""424427""
""focus"",""36"",""445280""
","""event"",""trial"",""time""
""fullscreenenter"",""1"",""14063""
","""event"",""trial"",""time""
""fullscreenexit"",""36"",""410961""
","","[{""page_index"":0,""viewing_time"":4550.800000011921},{""page_index"":1,""viewing_time"":101346.5},{""page_index"":2,""viewing_time"":42663.09999999404}]","148561","","","","","","","","","","","","","","","","","","","","","","","",""
"pit-trial","118","1169729","0.0-4.0","battery-v0.2","","""event"",""trial"",""time""
""fullscreenenter"",""1"",""14063""
""fullscreenexit"",""36"",""410961""
""blur"",""36"",""412478""
""focus"",""36"",""412691""
""blur"",""36"",""413166""
""focus"",""36"",""424427""
""blur"",""36"",""442985""
""focus"",""36"",""445280""
","""event"",""trial"",""time""
""blur"",""36"",""412478""
""blur"",""36"",""413166""
""blur"",""36"",""442985""
","""event"",""trial"",""time""
""focus"",""36"",""412691""
""focus"",""36"",""424427""
""focus"",""36"",""445280""
","""event"",""trial"",""time""
""fullscreenenter"",""1"",""14063""
","""event"",""trial"",""time""
""fullscreenexit"",""36"",""410961""
","","","1458.300000011921","","","15","17294","6631","&#9728;","elianto","#f73b6a7A","-1"," ","0","0","[2309.2999999821186]","1","1","","","17294","1","0","4","lose","no-go","1"
"pit-trial","119","1174112","0.0-5.0","battery-v0.2","","""event"",""trial"",""time""
""fullscreenenter"",""1"",""14063""
""fullscreenexit"",""36"",""410961""
""blur"",""36"",""412478""
""focus"",""36"",""412691""
""blur"",""36"",""413166""
""focus"",""36"",""424427""
""blur"",""36"",""442985""
""focus"",""36"",""445280""
","""event"",""trial"",""time""
""blur"",""36"",""412478""
""blur"",""36"",""413166""
""blur"",""36"",""442985""
","""event"",""trial"",""time""
""focus"",""36"",""412691""
""focus"",""36"",""424427""
""focus"",""36"",""445280""
","""event"",""trial"",""time""
""fullscreenenter"",""1"",""14063""
","""event"",""trial"",""time""
""fullscreenexit"",""36"",""410961""
","","","1527.3999999761581","","","15","17294","6631","&#9730;","elianto","#3366ff99"," "," ","1","+10","[2378.0999999940395]","1","1","","","17294","2","1","1","win","go","0"
"pit-trial","120","1178266","0.0-6.0","battery-v0.2","","""event"",""trial"",""time""
""fullscreenenter"",""1"",""14063""
""fullscreenexit"",""36"",""410961""
""blur"",""36"",""412478""
""focus"",""36"",""412691""
""blur"",""36"",""413166""
""focus"",""36"",""424427""
""blur"",""36"",""442985""
""focus"",""36"",""445280""
","""event"",""trial"",""time""
""blur"",""36"",""412478""
""blur"",""36"",""413166""
""blur"",""36"",""442985""
","""event"",""trial"",""time""
""focus"",""36"",""412691""
""focus"",""36"",""424427""
""focus"",""36"",""445280""
","""event"",""trial"",""time""
""fullscreenenter"",""1"",""14063""
","""event"",""trial"",""time""
""fullscreenexit"",""36"",""410961""
","","","1298.9000000059605","","","15","17294","6631","&#9733;","elianto","#3366ff99","-1"," ","0","+10","[2150.800000011921]","1","1","","","17294","3","2","2","win","no-go","1"
"pit-trial","121","1182639","0.0-7.0","battery-v0.2","","""event"",""trial"",""time""
""fullscreenenter"",""1"",""14063""
""fullscreenexit"",""36"",""410961""
""blur"",""36"",""412478""
""focus"",""36"",""412691""
""blur"",""36"",""413166""
""focus"",""36"",""424427""
""blur"",""36"",""442985""
""focus"",""36"",""445280""
","""event"",""trial"",""time""
""blur"",""36"",""412478""
""blur"",""36"",""413166""
""blur"",""36"",""442985""
","""event"",""trial"",""time""
""focus"",""36"",""412691""
""focus"",""36"",""424427""
""focus"",""36"",""445280""
","""event"",""trial"",""time""
""fullscreenenter"",""1"",""14063""
","""event"",""trial"",""time""
""fullscreenexit"",""36"",""410961""
","","","1519.7000000178814","","","15","17294","6631","&#9752;","elianto","#f73b6a7A"," "," ","1","0","[2370.9000000059605]","1","1","","","17294","4","3","3","lose","go","0"
"pit-trial","122","1186828","0.0-8.0","battery-v0.2","","""event"",""trial"",""time""
""fullscreenenter"",""1"",""14063""
""fullscreenexit"",""36"",""410961""
""blur"",""36"",""412478""
""focus"",""36"",""412691""
""blur"",""36"",""413166""
""focus"",""36"",""424427""
""blur"",""36"",""442985""
""focus"",""36"",""445280""
","""event"",""trial"",""time""
""blur"",""36"",""412478""
""blur"",""36"",""413166""
""blur"",""36"",""442985""
","""event"",""trial"",""time""
""focus"",""36"",""412691""
""focus"",""36"",""424427""
""focus"",""36"",""445280""
","""event"",""trial"",""time""
""fullscreenenter"",""1"",""14063""
","""event"",""trial"",""time""
""fullscreenexit"",""36"",""410961""
","","","1335.800000011921","","","15","17294","6631","&#9733;","elianto","#3366ff99","-1"," ","0","0","[2186.4000000059605]","1","1","","","17294","5","2","2","win","no-go","0"
"pit-trial","123","1191433","0.0-9.0","battery-v0.2","","""event"",""trial"",""time""
""fullscreenenter"",""1"",""14063""
""fullscreenexit"",""36"",""410961""
""blur"",""36"",""412478""
""focus"",""36"",""412691""
""blur"",""36"",""413166""
""focus"",""36"",""424427""
""blur"",""36"",""442985""
""focus"",""36"",""445280""
","""event"",""trial"",""time""
""blur"",""36"",""412478""
""blur"",""36"",""413166""
""blur"",""36"",""442985""
","""event"",""trial"",""time""
""focus"",""36"",""412691""
""focus"",""36"",""424427""
""focus"",""36"",""445280""
","""event"",""trial"",""time""
""fullscreenenter"",""1"",""14063""
","""event"",""trial"",""time""
""fullscreenexit"",""36"",""410961""
","","","1746.199999988079","","","15","17294","6631","&#9752;","elianto","#f73b6a7A"," "," ","1","0","[2601.2999999821186]","1","1","","","17294","6","3","3","lose","go","0"
"pit-trial","124","1196288","0.0-10.0","battery-v0.2","","""event"",""trial"",""time""
""fullscreenenter"",""1"",""14063""
""fullscreenexit"",""36"",""410961""
""blur"",""36"",""412478""
""focus"",""36"",""412691""
""blur"",""36"",""413166""
""focus"",""36"",""424427""
""blur"",""36"",""442985""
""focus"",""36"",""445280""
","""event"",""trial"",""time""
""blur"",""36"",""412478""
""blur"",""36"",""413166""
""blur"",""36"",""442985""
","""event"",""trial"",""time""
""focus"",""36"",""412691""
""focus"",""36"",""424427""
""focus"",""36"",""445280""
","""event"",""trial"",""time""
""fullscreenenter"",""1"",""14063""
","""event"",""trial"",""time""
""fullscreenexit"",""36"",""410961""
","","","-1","","","15","17294","6631","&#9730;","elianto","#3366ff99"," ","-1","0","0","[]","0","1","","","17294","7","1","1","win","go","0"
"pit-trial","125","1201142","0.0-11.0","battery-v0.2","","""event"",""trial"",""time""
""fullscreenenter"",""1"",""14063""
""fullscreenexit"",""36"",""410961""
""blur"",""36"",""412478""
""focus"",""36"",""412691""
""blur"",""36"",""413166""
""focus"",""36"",""424427""
""blur"",""36"",""442985""
""focus"",""36"",""445280""
","""event"",""trial"",""time""
""blur"",""36"",""412478""
""blur"",""36"",""413166""
""blur"",""36"",""442985""
","""event"",""trial"",""time""
""focus"",""36"",""412691""
""focus"",""36"",""424427""
""focus"",""36"",""445280""
","""event"",""trial"",""time""
""fullscreenenter"",""1"",""14063""
","""event"",""trial"",""time""
""fullscreenexit"",""36"",""410961""
","","","-1","","","15","17294","6631","&#9728;","elianto","#f73b6a7A","-1","-1","1","-10","[3065.7999999821186]","1","1","","","17294","8","0","4","lose","no-go","1"
"pit-trial","126","1205996","0.0-12.0","battery-v0.2","","""event"",""trial"",""time""
""fullscreenenter"",""1"",""14063""
""fullscreenexit"",""36"",""410961""
""blur"",""36"",""412478""
""focus"",""36"",""412691""
""blur"",""36"",""413166""
""focus"",""36"",""424427""
""blur"",""36"",""442985""
""focus"",""36"",""445280""
","""event"",""trial"",""time""
""blur"",""36"",""412478""
""blur"",""36"",""413166""
""blur"",""36"",""442985""
","""event"",""trial"",""time""
""focus"",""36"",""412691""
""focus"",""36"",""424427""
""focus"",""36"",""445280""
","""event"",""trial"",""time""
""fullscreenenter"",""1"",""14063""
","""event"",""trial"",""time""
""fullscreenexit"",""36"",""410961""
","","","-1","","","15","17294","6631","&#9733;","elianto","#3366ff99","-1","-1","1","0","[]","0","1","","","17294","9","2","2","win","no-go","1"
"pit-trial","127","1210852","0.0-13.0","battery-v0.2","","""event"",""trial"",""time""
""fullscreenenter"",""1"",""14063""
""fullscreenexit"",""36"",""410961""
""blur"",""36"",""412478""
""focus"",""36"",""412691""
""blur"",""36"",""413166""
""focus"",""36"",""424427""
""blur"",""36"",""442985""
""focus"",""36"",""445280""
","""event"",""trial"",""time""
""blur"",""36"",""412478""
""blur"",""36"",""413166""
""blur"",""36"",""442985""
","""event"",""trial"",""time""
""focus"",""36"",""412691""
""focus"",""36"",""424427""
""focus"",""36"",""445280""
","""event"",""trial"",""time""
""fullscreenenter"",""1"",""14063""
","""event"",""trial"",""time""
""fullscreenexit"",""36"",""410961""
","","","-1","","","15","17294","6631","&#9752;","elianto","#f73b6a7A"," ","-1","0","0","[]","0","1","","","17294","10","3","3","lose","go","1"
"pit-trial","128","1215260","0.0-14.0","battery-v0.2","","""event"",""trial"",""time""
""fullscreenenter"",""1"",""14063""
""fullscreenexit"",""36"",""410961""
""blur"",""36"",""412478""
""focus"",""36"",""412691""
""blur"",""36"",""413166""
""focus"",""36"",""424427""
""blur"",""36"",""442985""
""focus"",""36"",""445280""
","""event"",""trial"",""time""
""blur"",""36"",""412478""
""blur"",""36"",""413166""
""blur"",""36"",""442985""
","""event"",""trial"",""time""
""focus"",""36"",""412691""
""focus"",""36"",""424427""
""focus"",""36"",""445280""
","""event"",""trial"",""time""
""fullscreenenter"",""1"",""14063""
","""event"",""trial"",""time""
""fullscreenexit"",""36"",""410961""
","","","1552.9000000059605","","","15","17294","6631","&#9728;","elianto","#f73b6a7A","-1"," ","0","-10","[2404.0999999940395]","1","1","","","17294","11","0","4","lose","no-go","0"
"pit-trial","129","1220115","0.0-15.0","battery-v0.2","","""event"",""trial"",""time""
""fullscreenenter"",""1"",""14063""
""fullscreenexit"",""36"",""410961""
""blur"",""36"",""412478""
""focus"",""36"",""412691""
""blur"",""36"",""413166""
""focus"",""36"",""424427""
""blur"",""36"",""442985""
""focus"",""36"",""445280""
","""event"",""trial"",""time""
""blur"",""36"",""412478""
""blur"",""36"",""413166""
""blur"",""36"",""442985""
","""event"",""trial"",""time""
