"trial_type","trial_index","time_elapsed","internal_node_id","task_version","subject_id","interactions","blur_events","focus_events","fullscreenenter_events","fullscreenexit_events","success","view_history","rt","responses","num_errors","age","subject","participantId","rune","rune_set","hex","correct","choice","accuracy","outcome","keys","total_keys","block","practice","value","sub","trial","stimulus","robot","valence","action","sham"
"pavlovia","0","15","0.0-0.0","battery-v0.2","","""event"",""trial"",""time""
""fullscreenenter"",""1"",""3102""
","
","
","""event"",""trial"",""time""
""fullscreenenter"",""1"",""3102""
","
","","","","","","","","","","","","","","","","","","","","","","","","","","",""
"fullscreen","1","3987","0.0-1.0","battery-v0.2","","""event"",""trial"",""time""
""fullscreenenter"",""1"",""3102""
","
","
","""event"",""trial"",""time""
""fullscreenenter"",""1"",""3102""
","
","true","","","","","","","","","","","","","","","","","","","","","","","","","",""
"pit-instructions","2","10097","0.0-2.0-0.0","battery-v0.2","","""event"",""trial"",""time""
""fullscreenenter"",""1"",""3102""
","
","
","""event"",""trial"",""time""
""fullscreenenter"",""1"",""3102""
","
","","[{""page_index"":0,""viewing_time"":6103.000000000002}]","6103.000000000002","","","","","","","","","","","","","","","","","","","","","","","",""
"pit-comprehension","3","14492","0.0-2.0-1.0-0.0","battery-v0.2","","""event"",""trial"",""time""
""fullscreenenter"",""1"",""3102""
","
","
","""event"",""trial"",""time""
""fullscreenenter"",""1"",""3102""
","
","","","4385","[""shark""]","0","22","10882","5188","","","","","","","","","","","","","","","","","","",""
"pit-instructions","4","16501","0.0-2.0-1.0-1.0","battery-v0.2","","""event"",""trial"",""time""
""fullscreenenter"",""1"",""3102""
","
","
","""event"",""trial"",""time""
""fullscreenenter"",""1"",""3102""
","
","","[{""page_index"":0,""viewing_time"":1992}]","1992","","","","","","","","","","","","","","","","","","","","","","","",""
"pit-comprehension","5","21269","0.0-2.0-2.0-0.0","battery-v0.2","","""event"",""trial"",""time""
""fullscreenenter"",""1"",""3102""
","
","
","""event"",""trial"",""time""
""fullscreenenter"",""1"",""3102""
","
","","","4762.000000000004","[""tiger""]","0","22","10882","5188","","","","","","","","","","","","","","","","","","",""
"pit-instructions","6","22768","0.0-2.0-2.0-1.0","battery-v0.2","","""event"",""trial"",""time""
""fullscreenenter"",""1"",""3102""
","
","
","""event"",""trial"",""time""
""fullscreenenter"",""1"",""3102""
","
","","[{""page_index"":0,""viewing_time"":1492}]","1492","","","","","","","","","","","","","","","","","","","","","","","",""
"pit-instructions","7","134230","0.0-2.0-3.0","battery-v0.2","","""event"",""trial"",""time""
""fullscreenenter"",""1"",""3102""
","
","
","""event"",""trial"",""time""
""fullscreenenter"",""1"",""3102""
","
","","[{""page_index"":0,""viewing_time"":9779},{""page_index"":1,""viewing_time"":8793},{""page_index"":2,""viewing_time"":8010.000000000007},{""page_index"":3,""viewing_time"":7892.999999999993},{""page_index"":4,""viewing_time"":6051},{""page_index"":5,""viewing_time"":5807},{""page_index"":6,""viewing_time"":8419},{""page_index"":7,""viewing_time"":7823},{""page_index"":8,""viewing_time"":8370},{""page_index"":9,""viewing_time"":12362},{""page_index"":10,""viewing_time"":7234},{""page_index"":11,""viewing_time"":8184},{""page_index"":12,""viewing_time"":6682},{""page_index"":13,""viewing_time"":6047}]","111454","","","","","","","","","","","","","","","","","","","","","","","",""
"pit-trial","8","137696","0.0-2.0-4.0-0.0","battery-v0.2","","""event"",""trial"",""time""
""fullscreenenter"",""1"",""3102""
","
","
","""event"",""trial"",""time""
""fullscreenenter"",""1"",""3102""
","
","","","611","","","22","10882","5188","&#9784;","elianto","#FFFFF080"," "," ","1","&#10004","[1462]","1","0","0","","","","","","","",""
"pit-trial","9","140992","0.0-2.0-4.1-0.1","battery-v0.2","","""event"",""trial"",""time""
""fullscreenenter"",""1"",""3102""
","
","
","""event"",""trial"",""time""
""fullscreenenter"",""1"",""3102""
","
","","","441","","","22","10882","5188","&#9784;","elianto","#FFFFF080"," "," ","1","&#10004","[1291]","1","0","0","","","","","","","",""
"pit-trial","10","144247","0.0-2.0-4.2-0.2","battery-v0.2","","""event"",""trial"",""time""
""fullscreenenter"",""1"",""3102""
","
","
","""event"",""trial"",""time""
""fullscreenenter"",""1"",""3102""
","
","","","398","","","22","10882","5188","&#9784;","elianto","#FFFFF080"," "," ","1","&#10004","[1249]","1","0","0","","","","","","","",""
"pit-trial","11","147507","0.0-2.0-4.3-0.3","battery-v0.2","","""event"",""trial"",""time""
""fullscreenenter"",""1"",""3102""
","
","
","""event"",""trial"",""time""
""fullscreenenter"",""1"",""3102""
","
","","","405","","","22","10882","5188","&#9784;","elianto","#FFFFF080"," "," ","1","&#10004","[1256]","1","0","0","","","","","","","",""
"pit-trial","12","150783","0.0-2.0-4.4-0.4","battery-v0.2","","""event"",""trial"",""time""
""fullscreenenter"",""1"",""3102""
","
","
","""event"",""trial"",""time""
""fullscreenenter"",""1"",""3102""
","
","","","420","","","22","10882","5188","&#9784;","elianto","#FFFFF080"," "," ","1","&#10004","[1271]","1","0","0","","","","","","","",""
"pit-instructions","13","181168","0.0-2.0-5.0","battery-v0.2","","""event"",""trial"",""time""
""fullscreenenter"",""1"",""3102""
","
","
","""event"",""trial"",""time""
""fullscreenenter"",""1"",""3102""
","
","","[{""page_index"":0,""viewing_time"":10436},{""page_index"":1,""viewing_time"":7858},{""page_index"":2,""viewing_time"":6032},{""page_index"":3,""viewing_time"":6054}]","30380","","","","","","","","","","","","","","","","","","","","","","","",""
"pit-trial","14","186022","0.0-2.0-6.0-0.0","battery-v0.2","","""event"",""trial"",""time""
""fullscreenenter"",""1"",""3102""
","
","
","""event"",""trial"",""time""
""fullscreenenter"",""1"",""3102""
","
","","","-1","","","22","10882","5188","&#9854;","elianto","#FFFFF080","-1","-1","1","&#10004","[]","0","0","1","","","","","","","",""
"pit-trial","15","190877","0.0-2.0-6.1-0.1","battery-v0.2","","""event"",""trial"",""time""
""fullscreenenter"",""1"",""3102""
","
","
","""event"",""trial"",""time""
""fullscreenenter"",""1"",""3102""
","
","","","-1","","","22","10882","5188","&#9854;","elianto","#FFFFF080","-1","-1","1","&#10004","[]","0","0","1","","","","","","","",""
"pit-trial","16","195731","0.0-2.0-6.2-0.2","battery-v0.2","","""event"",""trial"",""time""
""fullscreenenter"",""1"",""3102""
","
","
","""event"",""trial"",""time""
""fullscreenenter"",""1"",""3102""
","
","","","-1","","","22","10882","5188","&#9854;","elianto","#FFFFF080","-1","-1","1","&#10004","[]","0","0","1","","","","","","","",""
"pit-trial","17","200585","0.0-2.0-6.3-0.3","battery-v0.2","","""event"",""trial"",""time""
""fullscreenenter"",""1"",""3102""
","
","
","""event"",""trial"",""time""
""fullscreenenter"",""1"",""3102""
","
","","","-1","","","22","10882","5188","&#9854;","elianto","#FFFFF080","-1","-1","1","&#10004","[]","0","0","1","","","","","","","",""
"pit-trial","18","205439","0.0-2.0-6.4-0.4","battery-v0.2","","""event"",""trial"",""time""
""fullscreenenter"",""1"",""3102""
","
","
","""event"",""trial"",""time""
""fullscreenenter"",""1"",""3102""
","
","","","-1","","","22","10882","5188","&#9854;","elianto","#FFFFF080","-1","-1","1","&#10004","[]","0","0","1","","","","","","","",""
"pit-instructions","19","342511","0.0-2.0-7.0","battery-v0.2","","""event"",""trial"",""time""
""fullscreenenter"",""1"",""3102""
","
","
","""event"",""trial"",""time""
""fullscreenenter"",""1"",""3102""
","
","","[{""page_index"":0,""viewing_time"":6459},{""page_index"":1,""viewing_time"":8286},{""page_index"":2,""viewing_time"":7418},{""page_index"":3,""viewing_time"":10810},{""page_index"":4,""viewing_time"":5500},{""page_index"":5,""viewing_time"":11320.99999999997},{""page_index"":6,""viewing_time"":4835.000000000029},{""page_index"":7,""viewing_time"":9464},{""page_index"":8,""viewing_time"":7657},{""page_index"":9,""viewing_time"":7080},{""page_index"":10,""viewing_time"":7704},{""page_index"":11,""viewing_time"":6475},{""page_index"":12,""viewing_time"":7369},{""page_index"":13,""viewing_time"":7049},{""page_index"":14,""viewing_time"":8234},{""page_index"":15,""viewing_time"":7556},{""page_index"":16,""viewing_time"":6591},{""page_index"":17,""viewing_time"":7256}]","137064","","","","","","","","","","","","","","","","","","","","","","","",""
"pit-trial","20","345974","0.0-2.0-8.0-0.0","battery-v0.2","","""event"",""trial"",""time""
""fullscreenenter"",""1"",""3102""
","
","
","""event"",""trial"",""time""
""fullscreenenter"",""1"",""3102""
","
","","","608","","","22","10882","5188","&#9776;","elianto","#3366ff99"," "," ","1","+10","[1458.0000000000582]","1","0","1","","","","","","","",""
"pit-trial","21","349327","0.0-2.0-8.0-1.0","battery-v0.2","","""event"",""trial"",""time""
""fullscreenenter"",""1"",""3102""
","
","
","""event"",""trial"",""time""
""fullscreenenter"",""1"",""3102""
","
","","","498","","","22","10882","5188","&#9776;","elianto","#3366ff99"," "," ","1","+10","[1349]","1","0","1","","","","","","","",""
"pit-trial","22","352657","0.0-2.0-8.0-2.0","battery-v0.2","","""event"",""trial"",""time""
""fullscreenenter"",""1"",""3102""
","
","
","""event"",""trial"",""time""
""fullscreenenter"",""1"",""3102""
","
","","","475","","","22","10882","5188","&#9776;","elianto","#3366ff99"," "," ","1","+10","[1326]","1","0","1","","","","","","","",""
"pit-trial","23","355903","0.0-2.0-8.0-3.0","battery-v0.2","","""event"",""trial"",""time""
""fullscreenenter"",""1"",""3102""
","
","
","""event"",""trial"",""time""
""fullscreenenter"",""1"",""3102""
","
","","","393","","","22","10882","5188","&#9776;","elianto","#3366ff99"," "," ","1","0","[1243]","1","0","1","","","","","","","",""
"pit-trial","24","359210","0.0-2.0-8.0-4.0","battery-v0.2","","""event"",""trial"",""time""
""fullscreenenter"",""1"",""3102""
","
","
","""event"",""trial"",""time""
""fullscreenenter"",""1"",""3102""
","
","","","452","","","22","10882","5188","&#9776;","elianto","#3366ff99"," "," ","1","+10","[1303]","1","0","1","","","","","","","",""
"pit-trial","25","362461","0.0-2.0-8.1-0.1","battery-v0.2","","""event"",""trial"",""time""
""fullscreenenter"",""1"",""3102""
","
","
","""event"",""trial"",""time""
""fullscreenenter"",""1"",""3102""
","
","","","396","","","22","10882","5188","&#9776;","elianto","#3366ff99"," "," ","1","+10","[1246]","1","0","1","","","","","","","",""
"pit-trial","26","365766","0.0-2.0-8.1-1.1","battery-v0.2","","""event"",""trial"",""time""
""fullscreenenter"",""1"",""3102""
","
","
","""event"",""trial"",""time""
""fullscreenenter"",""1"",""3102""
","
","","","451.0000000000582","","","22","10882","5188","&#9776;","elianto","#3366ff99"," "," ","1","+10","[1302.0000000000582]","1","0","1","","","","","","","",""
"pit-trial","27","369310","0.0-2.0-8.1-2.1","battery-v0.2","","""event"",""trial"",""time""
""fullscreenenter"",""1"",""3102""
","
","
","""event"",""trial"",""time""
""fullscreenenter"",""1"",""3102""
","
","","","691","","","22","10882","5188","&#9776;","elianto","#3366ff99"," "," ","1","+10","[1541]","1","0","1","","","","","","","",""
"pit-trial","28","372806","0.0-2.0-8.1-3.1","battery-v0.2","","""event"",""trial"",""time""
""fullscreenenter"",""1"",""3102""
","
","
","""event"",""trial"",""time""
""fullscreenenter"",""1"",""3102""
","
","","","642","","","22","10882","5188","&#9776;","elianto","#3366ff99"," "," ","1","0","[1492]","1","0","1","","","","","","","",""
"pit-trial","29","376101","0.0-2.0-8.1-4.1","battery-v0.2","","""event"",""trial"",""time""
""fullscreenenter"",""1"",""3102""
","
","
","""event"",""trial"",""time""
""fullscreenenter"",""1"",""3102""
","
","","","441.9999999999418","","","22","10882","5188","&#9776;","elianto","#3366ff99"," "," ","1","+10","[1292]","1","0","1","","","","","","","",""
"pit-trial","30","379138","0.0-2.0-8.2-0.2","battery-v0.2","","""event"",""trial"",""time""
""fullscreenenter"",""1"",""3102""
","
","
","""event"",""trial"",""time""
""fullscreenenter"",""1"",""3102""
","
","","","184","","","22","10882","5188","&#9776;","elianto","#3366ff99"," "," ","1","+10","[1034]","1","0","1","","","","","","","",""
"pit-trial","31","382506","0.0-2.0-8.2-1.2","battery-v0.2","","""event"",""trial"",""time""
""fullscreenenter"",""1"",""3102""
","
","
","""event"",""trial"",""time""
""fullscreenenter"",""1"",""3102""
","
","","","514","","","22","10882","5188","&#9776;","elianto","#3366ff99"," "," ","1","+10","[1363.9999999999418]","1","0","1","","","","","","","",""
"pit-trial","32","385673","0.0-2.0-8.2-2.2","battery-v0.2","","""event"",""trial"",""time""
""fullscreenenter"",""1"",""3102""
","
","
","""event"",""trial"",""time""
""fullscreenenter"",""1"",""3102""
","
","","","314","","","22","10882","5188","&#9776;","elianto","#3366ff99"," "," ","1","+10","[1164]","1","0","1","","","","","","","",""
"pit-trial","33","388949","0.0-2.0-8.2-3.2","battery-v0.2","","""event"",""trial"",""time""
""fullscreenenter"",""1"",""3102""
","
","
","""event"",""trial"",""time""
""fullscreenenter"",""1"",""3102""
","
","","","421","","","22","10882","5188","&#9776;","elianto","#3366ff99"," "," ","1","0","[1271]","1","0","1","","","","","","","",""
"pit-trial","34","392200","0.0-2.0-8.2-4.2","battery-v0.2","","""event"",""trial"",""time""
""fullscreenenter"",""1"",""3102""
","
","
","""event"",""trial"",""time""
""fullscreenenter"",""1"",""3102""
","
","","","397","","","22","10882","5188","&#9776;","elianto","#3366ff99"," "," ","1","+10","[1247]","1","0","1","","","","","","","",""
"call-function","35","392202","0.0-2.0-9.0","battery-v0.2","","""event"",""trial"",""time""
""fullscreenenter"",""1"",""3102""
","
","
","""event"",""trial"",""time""
""fullscreenenter"",""1"",""3102""
","
","","","","","","","","","","","","","","","","","","","","","","","","","","",""
"pit-instructions","36","439688","0.0-2.0-10.0","battery-v0.2","","""event"",""trial"",""time""
""fullscreenenter"",""1"",""3102""
","
","
","""event"",""trial"",""time""
""fullscreenenter"",""1"",""3102""
","
","","[{""page_index"":0,""viewing_time"":9497},{""page_index"":1,""viewing_time"":7222},{""page_index"":2,""viewing_time"":13521},{""page_index"":3,""viewing_time"":8949.000000000058},{""page_index"":4,""viewing_time"":8294.999999999942}]","47484","","","","","","","","","","","","","","","","","","","","","","","",""
"pit-trial","37","443032","0.0-2.0-11.0-0.0","battery-v0.2","","""event"",""trial"",""time""
""fullscreenenter"",""1"",""3102""
","
","
","""event"",""trial"",""time""
""fullscreenenter"",""1"",""3102""
","
","","","490","","","22","10882","5188","&#9761;","elianto","#3366ff99","-1"," ","0","0","[1340]","1","0","2","","","","","","","",""
"pit-trial","38","447886","0.0-2.0-11.0-1.0","battery-v0.2","","""event"",""trial"",""time""
""fullscreenenter"",""1"",""3102""
","
","
","""event"",""trial"",""time""
""fullscreenenter"",""1"",""3102""
","
","","","-1","","","22","10882","5188","&#9761;","elianto","#3366ff99","-1","-1","1","+10","[]","0","0","2","","","","","","","",""
"pit-trial","39","452739","0.0-2.0-11.0-2.0","battery-v0.2","","""event"",""trial"",""time""
""fullscreenenter"",""1"",""3102""
","
","
","""event"",""trial"",""time""
""fullscreenenter"",""1"",""3102""
","
","","","-1","","","22","10882","5188","&#9761;","elianto","#3366ff99","-1","-1","1","+10","[]","0","0","2","","","","","","","",""
"pit-trial","40","457593","0.0-2.0-11.0-3.0","battery-v0.2","","""event"",""trial"",""time""
""fullscreenenter"",""1"",""3102""
","
","
","""event"",""trial"",""time""
""fullscreenenter"",""1"",""3102""
","
","","","-1","","","22","10882","5188","&#9761;","elianto","#3366ff99","-1","-1","1","0","[]","0","0","2","","","","","","","",""
"pit-trial","41","462448","0.0-2.0-11.0-4.0","battery-v0.2","","""event"",""trial"",""time""
""fullscreenenter"",""1"",""3102""
","
","
","""event"",""trial"",""time""
""fullscreenenter"",""1"",""3102""
","
","","","-1","","","22","10882","5188","&#9761;","elianto","#3366ff99","-1","-1","1","+10","[]","0","0","2","","","","","","","",""
"pit-trial","42","467302","0.0-2.0-11.1-0.1","battery-v0.2","","""event"",""trial"",""time""
""fullscreenenter"",""1"",""3102""
","
","
","""event"",""trial"",""time""
""fullscreenenter"",""1"",""3102""
","
","","","-1","","","22","10882","5188","&#9761;","elianto","#3366ff99","-1","-1","1","+10","[]","0","0","2","","","","","","","",""
"pit-trial","43","472156","0.0-2.0-11.1-1.1","battery-v0.2","","""event"",""trial"",""time""
""fullscreenenter"",""1"",""3102""
","
","
","""event"",""trial"",""time""
""fullscreenenter"",""1"",""3102""
","
","","","-1","","","22","10882","5188","&#9761;","elianto","#3366ff99","-1","-1","1","+10","[]","0","0","2","","","","","","","",""
"pit-trial","44","477010","0.0-2.0-11.1-2.1","battery-v0.2","","""event"",""trial"",""time""
""fullscreenenter"",""1"",""3102""
","
","
","""event"",""trial"",""time""
""fullscreenenter"",""1"",""3102""
","
","","","-1","","","22","10882","5188","&#9761;","elianto","#3366ff99","-1","-1","1","+10","[]","0","0","2","","","","","","","",""
"pit-trial","45","481863","0.0-2.0-11.1-3.1","battery-v0.2","","""event"",""trial"",""time""
""fullscreenenter"",""1"",""3102""
","
","
","""event"",""trial"",""time""
""fullscreenenter"",""1"",""3102""
","
","","","-1","","","22","10882","5188","&#9761;","elianto","#3366ff99","-1","-1","1","0","[]","0","0","2","","","","","","","",""
"pit-trial","46","486718","0.0-2.0-11.1-4.1","battery-v0.2","","""event"",""trial"",""time""
""fullscreenenter"",""1"",""3102""
","
","
","""event"",""trial"",""time""
""fullscreenenter"",""1"",""3102""
","
","","","-1","","","22","10882","5188","&#9761;","elianto","#3366ff99","-1","-1","1","+10","[]","0","0","2","","","","","","","",""
"pit-trial","47","491572","0.0-2.0-11.2-0.2","battery-v0.2","","""event"",""trial"",""time""
""fullscreenenter"",""1"",""3102""
","
","
","""event"",""trial"",""time""
""fullscreenenter"",""1"",""3102""
","
","","","-1","","","22","10882","5188","&#9761;","elianto","#3366ff99","-1","-1","1","+10","[]","0","0","2","","","","","","","",""
"pit-trial","48","496425","0.0-2.0-11.2-1.2","battery-v0.2","","""event"",""trial"",""time""
""fullscreenenter"",""1"",""3102""
","
","
","""event"",""trial"",""time""
""fullscreenenter"",""1"",""3102""
","
","","","-1","","","22","10882","5188","&#9761;","elianto","#3366ff99","-1","-1","1","+10","[]","0","0","2","","","","","","","",""
"pit-trial","49","501279","0.0-2.0-11.2-2.2","battery-v0.2","","""event"",""trial"",""time""
""fullscreenenter"",""1"",""3102""
","
","
","""event"",""trial"",""time""
""fullscreenenter"",""1"",""3102""
","
","","","-1","","","22","10882","5188","&#9761;","elianto","#3366ff99","-1","-1","1","+10","[]","0","0","2","","","","","","","",""
"pit-trial","50","506134","0.0-2.0-11.2-3.2","battery-v0.2","","""event"",""trial"",""time""
""fullscreenenter"",""1"",""3102""
","
","
","""event"",""trial"",""time""
""fullscreenenter"",""1"",""3102""
","
","","","-1","","","22","10882","5188","&#9761;","elianto","#3366ff99","-1","-1","1","0","[]","0","0","2","","","","","","","",""
"pit-trial","51","510988","0.0-2.0-11.2-4.2","battery-v0.2","","""event"",""trial"",""time""
""fullscreenenter"",""1"",""3102""
","
","
","""event"",""trial"",""time""
""fullscreenenter"",""1"",""3102""
","
","","","-1","","","22","10882","5188","&#9761;","elianto","#3366ff99","-1","-1","1","+10","[]","0","0","2","","","","","","","",""
"pit-trial","52","515841","0.0-2.0-11.3-0.3","battery-v0.2","","""event"",""trial"",""time""
""fullscreenenter"",""1"",""3102""
","
","
","""event"",""trial"",""time""
""fullscreenenter"",""1"",""3102""
","
","","","-1","","","22","10882","5188","&#9761;","elianto","#3366ff99","-1","-1","1","+10","[]","0","0","2","","","","","","","",""
"pit-trial","53","520696","0.0-2.0-11.3-1.3","battery-v0.2","","""event"",""trial"",""time""
""fullscreenenter"",""1"",""3102""
","
","
","""event"",""trial"",""time""
""fullscreenenter"",""1"",""3102""
","
","","","-1","","","22","10882","5188","&#9761;","elianto","#3366ff99","-1","-1","1","+10","[]","0","0","2","","","","","","","",""
"pit-trial","54","525553","0.0-2.0-11.3-2.3","battery-v0.2","","""event"",""trial"",""time""
""fullscreenenter"",""1"",""3102""
","
","
","""event"",""trial"",""time""
""fullscreenenter"",""1"",""3102""
","
","","","-1","","","22","10882","5188","&#9761;","elianto","#3366ff99","-1","-1","1","+10","[]","0","0","2","","","","","","","",""
"pit-trial","55","530407","0.0-2.0-11.3-3.3","battery-v0.2","","""event"",""trial"",""time""
""fullscreenenter"",""1"",""3102""
","
","
","""event"",""trial"",""time""
""fullscreenenter"",""1"",""3102""
","
","","","-1","","","22","10882","5188","&#9761;","elianto","#3366ff99","-1","-1","1","0","[]","0","0","2","","","","","","","",""
"pit-trial","56","535261","0.0-2.0-11.3-4.3","battery-v0.2","","""event"",""trial"",""time""
""fullscreenenter"",""1"",""3102""
","
","
","""event"",""trial"",""time""
""fullscreenenter"",""1"",""3102""
","
","","","-1","","","22","10882","5188","&#9761;","elianto","#3366ff99","-1","-1","1","+10","[]","0","0","2","","","","","","","",""
"call-function","57","535263","0.0-2.0-12.0","battery-v0.2","","""event"",""trial"",""time""
""fullscreenenter"",""1"",""3102""
","
","
","""event"",""trial"",""time""
""fullscreenenter"",""1"",""3102""
","
","","","","","","","","","","","","","","","","","","","","","","","","","","",""
"pit-instructions","58","567145","0.0-2.0-13.0","battery-v0.2","","""event"",""trial"",""time""
""fullscreenenter"",""1"",""3102""
","
","
","""event"",""trial"",""time""
""fullscreenenter"",""1"",""3102""
","
","","[{""page_index"":0,""viewing_time"":4852},{""page_index"":1,""viewing_time"":6780},{""page_index"":2,""viewing_time"":4318},{""page_index"":3,""viewing_time"":10800},{""page_index"":4,""viewing_time"":5130}]","31880","","","","","","","","","","","","","","","","","","","","","","","",""
"pit-trial","59","570401","0.0-2.0-14.0-0.0","battery-v0.2","","""event"",""trial"",""time""
""fullscreenenter"",""1"",""3102""
","
","
","""event"",""trial"",""time""
""fullscreenenter"",""1"",""3102""
","
","","","400.9999999998836","","","22","10882","5188","&#9826;","elianto","#f73b6a7A","-1"," ","0","-10","[1252]","1","0","3","","","","","","","",""
"pit-trial","60","575255","0.0-2.0-14.0-1.0","battery-v0.2","","""event"",""trial"",""time""
""fullscreenenter"",""1"",""3102""
","
","
","""event"",""trial"",""time""
""fullscreenenter"",""1"",""3102""
","
","","","-1","","","22","10882","5188","&#9826;","elianto","#f73b6a7A","-1","-1","1","0","[]","0","0","3","","","","","","","",""
"pit-trial","61","580109","0.0-2.0-14.0-2.0","battery-v0.2","","""event"",""trial"",""time""
""fullscreenenter"",""1"",""3102""
","
","
","""event"",""trial"",""time""
""fullscreenenter"",""1"",""3102""
","
","","","-1","","","22","10882","5188","&#9826;","elianto","#f73b6a7A","-1","-1","1","0","[]","0","0","3","","","","","","","",""
"pit-trial","62","584963","0.0-2.0-14.0-3.0","battery-v0.2","","""event"",""trial"",""time""
""fullscreenenter"",""1"",""3102""
","
","
","""event"",""trial"",""time""
""fullscreenenter"",""1"",""3102""
","
","","","-1","","","22","10882","5188","&#9826;","elianto","#f73b6a7A","-1","-1","1","-10","[]","0","0","3","","","","","","","",""
"pit-trial","63","589817","0.0-2.0-14.0-4.0","battery-v0.2","","""event"",""trial"",""time""
""fullscreenenter"",""1"",""3102""
","
","
","""event"",""trial"",""time""
""fullscreenenter"",""1"",""3102""
","
","","","-1","","","22","10882","5188","&#9826;","elianto","#f73b6a7A","-1","-1","1","0","[]","0","0","3","","","","","","","",""
"pit-trial","64","594671","0.0-2.0-14.1-0.1","battery-v0.2","","""event"",""trial"",""time""
""fullscreenenter"",""1"",""3102""
","
","
","""event"",""trial"",""time""
""fullscreenenter"",""1"",""3102""
","
","","","-1","","","22","10882","5188","&#9826;","elianto","#f73b6a7A","-1","-1","1","0","[]","0","0","3","","","","","","","",""
"pit-trial","65","599526","0.0-2.0-14.1-1.1","battery-v0.2","","""event"",""trial"",""time""
""fullscreenenter"",""1"",""3102""
","
","
","""event"",""trial"",""time""
""fullscreenenter"",""1"",""3102""
","
","","","-1","","","22","10882","5188","&#9826;","elianto","#f73b6a7A","-1","-1","1","0","[]","0","0","3","","","","","","","",""
"pit-trial","66","604380","0.0-2.0-14.1-2.1","battery-v0.2","","""event"",""trial"",""time""
""fullscreenenter"",""1"",""3102""
","
","
","""event"",""trial"",""time""
""fullscreenenter"",""1"",""3102""
","
","","","-1","","","22","10882","5188","&#9826;","elianto","#f73b6a7A","-1","-1","1","0","[]","0","0","3","","","","","","","",""
"pit-trial","67","609235","0.0-2.0-14.1-3.1","battery-v0.2","","""event"",""trial"",""time""
""fullscreenenter"",""1"",""3102""
","
","
","""event"",""trial"",""time""
""fullscreenenter"",""1"",""3102""
","
","","","-1","","","22","10882","5188","&#9826;","elianto","#f73b6a7A","-1","-1","1","-10","[]","0","0","3","","","","","","","",""
"pit-trial","68","614089","0.0-2.0-14.1-4.1","battery-v0.2","","""event"",""trial"",""time""
""fullscreenenter"",""1"",""3102""
","
","
","""event"",""trial"",""time""
""fullscreenenter"",""1"",""3102""
","
","","","-1","","","22","10882","5188","&#9826;","elianto","#f73b6a7A","-1","-1","1","0","[]","0","0","3","","","","","","","",""
"pit-trial","69","618943","0.0-2.0-14.2-0.2","battery-v0.2","","""event"",""trial"",""time""
""fullscreenenter"",""1"",""3102""
","
","
","""event"",""trial"",""time""
""fullscreenenter"",""1"",""3102""
","
","","","-1","","","22","10882","5188","&#9826;","elianto","#f73b6a7A","-1","-1","1","0","[]","0","0","3","","","","","","","",""
"pit-trial","70","623797","0.0-2.0-14.2-1.2","battery-v0.2","","""event"",""trial"",""time""
""fullscreenenter"",""1"",""3102""
","
","
","""event"",""trial"",""time""
""fullscreenenter"",""1"",""3102""
","
","","","-1","","","22","10882","5188","&#9826;","elianto","#f73b6a7A","-1","-1","1","0","[]","0","0","3","","","","","","","",""
"pit-trial","71","628651","0.0-2.0-14.2-2.2","battery-v0.2","","""event"",""trial"",""time""
""fullscreenenter"",""1"",""3102""
","
","
","""event"",""trial"",""time""
""fullscreenenter"",""1"",""3102""
","
","","","-1","","","22","10882","5188","&#9826;","elianto","#f73b6a7A","-1","-1","1","0","[]","0","0","3","","","","","","","",""
"pit-trial","72","633505","0.0-2.0-14.2-3.2","battery-v0.2","","""event"",""trial"",""time""
""fullscreenenter"",""1"",""3102""
","
","
","""event"",""trial"",""time""
""fullscreenenter"",""1"",""3102""
","
","","","-1","","","22","10882","5188","&#9826;","elianto","#f73b6a7A","-1","-1","1","-10","[]","0","0","3","","","","","","","",""
"pit-trial","73","638359","0.0-2.0-14.2-4.2","battery-v0.2","","""event"",""trial"",""time""
""fullscreenenter"",""1"",""3102""
","
","
","""event"",""trial"",""time""
""fullscreenenter"",""1"",""3102""
","
","","","-1","","","22","10882","5188","&#9826;","elianto","#f73b6a7A","-1","-1","1","0","[]","0","0","3","","","","","","","",""
"pit-trial","74","643212","0.0-2.0-14.3-0.3","battery-v0.2","","""event"",""trial"",""time""
""fullscreenenter"",""1"",""3102""
","
","
","""event"",""trial"",""time""
""fullscreenenter"",""1"",""3102""
","
","","","-1","","","22","10882","5188","&#9826;","elianto","#f73b6a7A","-1","-1","1","0","[]","0","0","3","","","","","","","",""
"pit-trial","75","648067","0.0-2.0-14.3-1.3","battery-v0.2","","""event"",""trial"",""time""
""fullscreenenter"",""1"",""3102""
","
","
","""event"",""trial"",""time""
""fullscreenenter"",""1"",""3102""
","
","","","-1","","","22","10882","5188","&#9826;","elianto","#f73b6a7A","-1","-1","1","0","[]","0","0","3","","","","","","","",""
"pit-trial","76","652921","0.0-2.0-14.3-2.3","battery-v0.2","","""event"",""trial"",""time""
""fullscreenenter"",""1"",""3102""
","
","
","""event"",""trial"",""time""
""fullscreenenter"",""1"",""3102""
","
","","","-1","","","22","10882","5188","&#9826;","elianto","#f73b6a7A","-1","-1","1","0","[]","0","0","3","","","","","","","",""
"pit-trial","77","657775","0.0-2.0-14.3-3.3","battery-v0.2","","""event"",""trial"",""time""
""fullscreenenter"",""1"",""3102""
","
","
","""event"",""trial"",""time""
""fullscreenenter"",""1"",""3102""
","
","","","-1","","","22","10882","5188","&#9826;","elianto","#f73b6a7A","-1","-1","1","-10","[]","0","0","3","","","","","","","",""
"pit-trial","78","662629","0.0-2.0-14.3-4.3","battery-v0.2","","""event"",""trial"",""time""
""fullscreenenter"",""1"",""3102""
","
","
","""event"",""trial"",""time""
""fullscreenenter"",""1"",""3102""
","
","","","-1","","","22","10882","5188","&#9826;","elianto","#f73b6a7A","-1","-1","1","0","[]","0","0","3","","","","","","","",""
"call-function","79","662631","0.0-2.0-15.0","battery-v0.2","","""event"",""trial"",""time""
""fullscreenenter"",""1"",""3102""
","
","
","""event"",""trial"",""time""
""fullscreenenter"",""1"",""3102""
","
","","","","","","","","","","","","","","","","","","","","","","","","","","",""
"pit-instructions","80","686007","0.0-2.0-16.0","battery-v0.2","","""event"",""trial"",""time""
""fullscreenenter"",""1"",""3102""
","
","
","""event"",""trial"",""time""
""fullscreenenter"",""1"",""3102""
","
","","[{""page_index"":0,""viewing_time"":6204.999999999884},{""page_index"":1,""viewing_time"":8183},{""page_index"":2,""viewing_time"":4189.000000000116},{""page_index"":3,""viewing_time"":4796.999999999884}]","23375","","","","","","","","","","","","","","","","","","","","","","","",""
"pit-trial","81","689321","0.0-2.0-17.0-0.0","battery-v0.2","","""event"",""trial"",""time""
""fullscreenenter"",""1"",""3102""
","
","
","""event"",""trial"",""time""
""fullscreenenter"",""1"",""3102""
","
","","","459","","","22","10882","5188","&#9789;","elianto","#f73b6a7A"," "," ","1","0","[1310]","1","0","4","","","","","","","",""
"pit-trial","82","692598","0.0-2.0-17.0-1.0","battery-v0.2","","""event"",""trial"",""time""
""fullscreenenter"",""1"",""3102""
","
","
","""event"",""trial"",""time""
""fullscreenenter"",""1"",""3102""
","
","","","422","","","22","10882","5188","&#9789;","elianto","#f73b6a7A"," "," ","1","0","[1273]","1","0","4","","","","","","","",""
"pit-trial","83","695791","0.0-2.0-17.0-2.0","battery-v0.2","","""event"",""trial"",""time""
""fullscreenenter"",""1"",""3102""
","
","
","""event"",""trial"",""time""
""fullscreenenter"",""1"",""3102""
","
","","","340","","","22","10882","5188","&#9789;","elianto","#f73b6a7A"," "," ","1","0","[1190]","1","0","4","","","","","","","",""
"pit-trial","84","699144","0.0-2.0-17.0-3.0","battery-v0.2","","""event"",""trial"",""time""
""fullscreenenter"",""1"",""3102""
","
","
","""event"",""trial"",""time""
""fullscreenenter"",""1"",""3102""
","
","","","500","","","22","10882","5188","&#9789;","elianto","#f73b6a7A"," "," ","1","-10","[1350]","1","0","4","","","","","","","",""
"pit-trial","85","702393","0.0-2.0-17.0-4.0","battery-v0.2","","""event"",""trial"",""time""
""fullscreenenter"",""1"",""3102""
","
","
","""event"",""trial"",""time""
""fullscreenenter"",""1"",""3102""
","
","","","395","","","22","10882","5188","&#9789;","elianto","#f73b6a7A"," "," ","1","0","[1245]","1","0","4","","","","","","","",""
"pit-trial","86","705853","0.0-2.0-17.1-0.1","battery-v0.2","","""event"",""trial"",""time""
""fullscreenenter"",""1"",""3102""
","
","
","""event"",""trial"",""time""
""fullscreenenter"",""1"",""3102""
","
","","","606","","","22","10882","5188","&#9789;","elianto","#f73b6a7A"," "," ","1","0","[1456]","1","0","4","","","","","","","",""
"pit-trial","87","709383","0.0-2.0-17.1-1.1","battery-v0.2","","""event"",""trial"",""time""
""fullscreenenter"",""1"",""3102""
","
","
","""event"",""trial"",""time""
""fullscreenenter"",""1"",""3102""
","
","","","676","","","22","10882","5188","&#9789;","elianto","#f73b6a7A"," "," ","1","0","[1526]","1","0","4","","","","","","","",""
"pit-trial","88","712649","0.0-2.0-17.1-2.1","battery-v0.2","","""event"",""trial"",""time""
""fullscreenenter"",""1"",""3102""
","
","
","""event"",""trial"",""time""
""fullscreenenter"",""1"",""3102""
","
","","","413","","","22","10882","5188","&#9789;","elianto","#f73b6a7A"," "," ","1","0","[1263]","1","0","4","","","","","","","",""
"pit-trial","89","716038","0.0-2.0-17.1-3.1","battery-v0.2","","""event"",""trial"",""time""
""fullscreenenter"",""1"",""3102""
","
","
","""event"",""trial"",""time""
""fullscreenenter"",""1"",""3102""
","
","","","532.0000000001164","","","22","10882","5188","&#9789;","elianto","#f73b6a7A"," "," ","1","-10","[1383.0000000001164]","1","0","4","","","","","","","",""
"pit-trial","90","719274","0.0-2.0-17.1-4.1","battery-v0.2","","""event"",""trial"",""time""
""fullscreenenter"",""1"",""3102""
","
","
","""event"",""trial"",""time""
""fullscreenenter"",""1"",""3102""
","
","","","381","","","22","10882","5188","&#9789;","elianto","#f73b6a7A"," "," ","1","0","[1232]","1","0","4","","","","","","","",""
"pit-trial","91","722561","0.0-2.0-17.2-0.2","battery-v0.2","","""event"",""trial"",""time""
""fullscreenenter"",""1"",""3102""
","
","
","""event"",""trial"",""time""
""fullscreenenter"",""1"",""3102""
","
","","","433","","","22","10882","5188","&#9789;","elianto","#f73b6a7A"," "," ","1","0","[1284]","1","0","4","","","","","","","",""
"pit-trial","92","725955","0.0-2.0-17.2-1.2","battery-v0.2","","""event"",""trial"",""time""
""fullscreenenter"",""1"",""3102""
","
","
","""event"",""trial"",""time""
""fullscreenenter"",""1"",""3102""
","
","","","541","","","22","10882","5188","&#9789;","elianto","#f73b6a7A"," "," ","1","0","[1391]","1","0","4","","","","","","","",""
"pit-trial","93","729234","0.0-2.0-17.2-2.2","battery-v0.2","","""event"",""trial"",""time""
""fullscreenenter"",""1"",""3102""
","
","
","""event"",""trial"",""time""
""fullscreenenter"",""1"",""3102""
","
","","","424","","","22","10882","5188","&#9789;","elianto","#f73b6a7A"," "," ","1","0","[1274]","1","0","4","","","","","","","",""
"pit-trial","94","732541","0.0-2.0-17.2-3.2","battery-v0.2","","""event"",""trial"",""time""
""fullscreenenter"",""1"",""3102""
","
","
","""event"",""trial"",""time""
""fullscreenenter"",""1"",""3102""
","
","","","454","","","22","10882","5188","&#9789;","elianto","#f73b6a7A"," "," ","1","-10","[1305]","1","0","4","","","","","","","",""
"pit-trial","95","735932","0.0-2.0-17.2-4.2","battery-v0.2","","""event"",""trial"",""time""
""fullscreenenter"",""1"",""3102""
","
","
","""event"",""trial"",""time""
""fullscreenenter"",""1"",""3102""
","
","","","537","","","22","10882","5188","&#9789;","elianto","#f73b6a7A"," "," ","1","0","[1387]","1","0","4","","","","","","","",""
"pit-trial","96","739228","0.0-2.0-17.3-0.3","battery-v0.2","","""event"",""trial"",""time""
""fullscreenenter"",""1"",""3102""
","
","
","""event"",""trial"",""time""
""fullscreenenter"",""1"",""3102""
","
","","","442","","","22","10882","5188","&#9789;","elianto","#f73b6a7A"," "," ","1","0","[1292]","1","0","4","","","","","","","",""
"pit-trial","97","742472","0.0-2.0-17.3-1.3","battery-v0.2","","""event"",""trial"",""time""
""fullscreenenter"",""1"",""3102""
","
","
","""event"",""trial"",""time""
""fullscreenenter"",""1"",""3102""
","
","","","389.9999999998836","","","22","10882","5188","&#9789;","elianto","#f73b6a7A"," "," ","1","0","[1240.9999999998836]","1","0","4","","","","","","","",""
"pit-trial","98","745686","0.0-2.0-17.3-2.3","battery-v0.2","","""event"",""trial"",""time""
""fullscreenenter"",""1"",""3102""
","
","
","""event"",""trial"",""time""
""fullscreenenter"",""1"",""3102""
","
","","","359","","","22","10882","5188","&#9789;","elianto","#f73b6a7A"," "," ","1","0","[1210]","1","0","4","","","","","","","",""
"pit-trial","99","749055","0.0-2.0-17.3-3.3","battery-v0.2","","""event"",""trial"",""time""
""fullscreenenter"",""1"",""3102""
","
","
","""event"",""trial"",""time""
""fullscreenenter"",""1"",""3102""
","
","","","514.9999999998836","","","22","10882","5188","&#9789;","elianto","#f73b6a7A"," "," ","1","-10","[1365]","1","0","4","","","","","","","",""
"pit-trial","100","752367","0.0-2.0-17.3-4.3","battery-v0.2","","""event"",""trial"",""time""
""fullscreenenter"",""1"",""3102""
","
","
","""event"",""trial"",""time""
""fullscreenenter"",""1"",""3102""
","
","","","456","","","22","10882","5188","&#9789;","elianto","#f73b6a7A"," "," ","1","0","[1307]","1","0","4","","","","","","","",""
"call-function","101","752369","0.0-2.0-18.0","battery-v0.2","","""event"",""trial"",""time""
""fullscreenenter"",""1"",""3102""
","
","
","""event"",""trial"",""time""
""fullscreenenter"",""1"",""3102""
","
","","","","","","","","","","","","","","","","","","","","","","","","","","",""
"pit-instructions","102","829916","0.0-2.0-19.0","battery-v0.2","","""event"",""trial"",""time""
""fullscreenenter"",""1"",""3102""
","
","
","""event"",""trial"",""time""
""fullscreenenter"",""1"",""3102""
","
","","[{""page_index"":0,""viewing_time"":7857},{""page_index"":1,""viewing_time"":10573},{""page_index"":2,""viewing_time"":13868},{""page_index"":3,""viewing_time"":8188.000000000116},{""page_index"":4,""viewing_time"":9139.999999999884},{""page_index"":5,""viewing_time"":8950},{""page_index"":6,""viewing_time"":8404},{""page_index"":7,""viewing_time"":6267},{""page_index"":8,""viewing_time"":4297.000000000116}]","77544.00000000012","","","","","","","","","","","","","","","","","","","","","","","",""
"pit-comprehension","103","834515","0.0-2.0-20.0-0.0","battery-v0.2","","""event"",""trial"",""time""
""fullscreenenter"",""1"",""3102""
","
","
","""event"",""trial"",""time""
""fullscreenenter"",""1"",""3102""
","
","","","4596","[""SPACE""]","0","22","10882","5188","","","","","","","","","","","","","","","","","","",""
"pit-instructions","104","838043","0.0-2.0-20.0-1.0","battery-v0.2","","""event"",""trial"",""time""
""fullscreenenter"",""1"",""3102""
","
","
","""event"",""trial"",""time""
""fullscreenenter"",""1"",""3102""
","
","","[{""page_index"":0,""viewing_time"":3471}]","3471","","","","","","","","","","","","","","","","","","","","","","","",""
"pit-comprehension","105","844126","0.0-2.0-21.0-0.0","battery-v0.2","","""event"",""trial"",""time""
""fullscreenenter"",""1"",""3102""
","
","
","""event"",""trial"",""time""
""fullscreenenter"",""1"",""3102""
","
","","","6080","[""10""]","0","22","10882","5188","","","","","","","","","","","","","","","","","","",""
"pit-instructions","106","845907","0.0-2.0-21.0-1.0","battery-v0.2","","""event"",""trial"",""time""
""fullscreenenter"",""1"",""3102""
","
","
","""event"",""trial"",""time""
""fullscreenenter"",""1"",""3102""
","
","","[{""page_index"":0,""viewing_time"":1726.9999999998836}]","1726.9999999998836","","","","","","","","","","","","","","","","","","","","","","","",""
"pit-comprehension","107","852613","0.0-2.0-22.0-0.0","battery-v0.2","","""event"",""trial"",""time""
""fullscreenenter"",""1"",""3102""
","
","
","""event"",""trial"",""time""
""fullscreenenter"",""1"",""3102""
","
","","","6700.999999999884","[""0""]","0","22","10882","5188","","","","","","","","","","","","","","","","","","",""
"pit-instructions","108","854508","0.0-2.0-22.0-1.0","battery-v0.2","","""event"",""trial"",""time""
""fullscreenenter"",""1"",""3102""
","
","
","""event"",""trial"",""time""
""fullscreenenter"",""1"",""3102""
","
","","[{""page_index"":0,""viewing_time"":1833.0000000001164}]","1833.0000000001164","","","","","","","","","","","","","","","","","","","","","","","",""
"pit-comprehension","109","869562","0.0-2.0-23.0-0.0","battery-v0.2","","""event"",""trial"",""time""
""fullscreenenter"",""1"",""3102""
","
","
","""event"",""trial"",""time""
""fullscreenenter"",""1"",""3102""
","
","","","15050","[""True""]","0","22","10882","5188","","","","","","","","","","","","","","","","","","",""
"pit-instructions","110","871434","0.0-2.0-23.0-1.0","battery-v0.2","","""event"",""trial"",""time""
""fullscreenenter"",""1"",""3102""
","
","
","""event"",""trial"",""time""
""fullscreenenter"",""1"",""3102""
","
","","[{""page_index"":0,""viewing_time"":1818}]","1818","","","","","","","","","","","","","","","","","","","","","","","",""
"pit-comprehension","111","878983","0.0-2.0-24.0-0.0","battery-v0.2","","""event"",""trial"",""time""
""fullscreenenter"",""1"",""3102""
","
","
","""event"",""trial"",""time""
""fullscreenenter"",""1"",""3102""
","
","","","7545","[""True""]","0","22","10882","5188","","","","","","","","","","","","","","","","","","",""
"pit-instructions","112","880615","0.0-2.0-24.0-1.0","battery-v0.2","","""event"",""trial"",""time""
""fullscreenenter"",""1"",""3102""
","
","
","""event"",""trial"",""time""
""fullscreenenter"",""1"",""3102""
","
","","[{""page_index"":0,""viewing_time"":1571}]","1571","","","","","","","","","","","","","","","","","","","","","","","",""
"pit-comprehension","113","887089","0.0-2.0-25.0-0.0","battery-v0.2","","""event"",""trial"",""time""
""fullscreenenter"",""1"",""3102""
","
","
","""event"",""trial"",""time""
""fullscreenenter"",""1"",""3102""
","
","","","6469","[""True""]","0","22","10882","5188","","","","","","","","","","","","","","","","","","",""
"pit-instructions","114","889051","0.0-2.0-25.0-1.0","battery-v0.2","","""event"",""trial"",""time""
""fullscreenenter"",""1"",""3102""
","
","
","""event"",""trial"",""time""
""fullscreenenter"",""1"",""3102""
","
","","[{""page_index"":0,""viewing_time"":1906.0000000001164}]","1906.0000000001164","","","","","","","","","","","","","","","","","","","","","","","",""
"pit-comprehension","115","894454","0.0-2.0-26.0-0.0","battery-v0.2","","""event"",""trial"",""time""
""fullscreenenter"",""1"",""3102""
","
","
","""event"",""trial"",""time""
""fullscreenenter"",""1"",""3102""
","
","","","5399","[""False""]","0","22","10882","5188","","","","","","","","","","","","","","","","","","",""
"pit-instructions","116","896521","0.0-2.0-26.0-1.0","battery-v0.2","","""event"",""trial"",""time""
""fullscreenenter"",""1"",""3102""
","
","
","""event"",""trial"",""time""
""fullscreenenter"",""1"",""3102""
","
","","[{""page_index"":0,""viewing_time"":2006.9999999998836}]","2007.9999999998836","","","","","","","","","","","","","","","","","","","","","","","",""
"pit-instructions","117","914552","0.0-3.0","battery-v0.2","","""event"",""trial"",""time""
""fullscreenenter"",""1"",""3102""
","
","
","""event"",""trial"",""time""
""fullscreenenter"",""1"",""3102""
","
","","[{""page_index"":0,""viewing_time"":4855},{""page_index"":1,""viewing_time"":5501},{""page_index"":2,""viewing_time"":7667}]","18024","","","","","","","","","","","","","","","","","","","","","","","",""
"pit-trial","118","918244","0.0-4.0","battery-v0.2","","""event"",""trial"",""time""
""fullscreenenter"",""1"",""3102""
","
","
","""event"",""trial"",""time""
""fullscreenenter"",""1"",""3102""
","
","","","833.9999999998836","","","22","10882","5188","&#9733;","elianto","#3366ff99","-1"," ","0","0","[1684]","1","1","","","10882","1","2","2","win","no-go","0"
"pit-trial","119","922046","0.0-5.0","battery-v0.2","","""event"",""trial"",""time""
""fullscreenenter"",""1"",""3102""
","
","
","""event"",""trial"",""time""
""fullscreenenter"",""1"",""3102""
","
","","","948","","","22","10882","5188","&#9752;","elianto","#f73b6a7A"," "," ","1","0","[1798]","1","1","","","10882","2","3","3","lose","go","0"
"pit-trial","120","926021","0.0-6.0","battery-v0.2","","""event"",""trial"",""time""
""fullscreenenter"",""1"",""3102""
","
","
","""event"",""trial"",""time""
""fullscreenenter"",""1"",""3102""
","
","","","1120","","","22","10882","5188","&#9730;","elianto","#3366ff99"," "," ","1","+10","[1972]","1","1","","","10882","3","1","1","win","go","0"
"pit-trial","121","929901","0.0-7.0","battery-v0.2","","""event"",""trial"",""time""
""fullscreenenter"",""1"",""3102""
","
","
","""event"",""trial"",""time""
""fullscreenenter"",""1"",""3102""
","
","","","1026","","","22","10882","5188","&#9728;","elianto","#f73b6a7A","-1"," ","0","-10","[1876]","1","1","","","10882","4","0","4","lose","no-go","0"
"pit-trial","122","933562","0.0-8.0","battery-v0.2","","""event"",""trial"",""time""
""fullscreenenter"",""1"",""3102""
","
","
","""event"",""trial"",""time""
""fullscreenenter"",""1"",""3102""
","
","","","808","","","22","10882","5188","&#9730;","elianto","#3366ff99"," "," ","1","+10","[1658]","1","1","","","10882","5","1","1","win","go","0"
"pit-trial","123","937894","0.0-9.0","battery-v0.2","","""event"",""trial"",""time""
""fullscreenenter"",""1"",""3102""
","
","
","""event"",""trial"",""time""
""fullscreenenter"",""1"",""3102""
","
","","","1475","","","22","10882","5188","&#9733;","elianto","#3366ff99","-1"," ","0","0","[2327]","1","1","","","10882","6","2","2","win","no-go","0"
"pit-trial","124","942227","0.0-10.0","battery-v0.2","","""event"",""trial"",""time""
""fullscreenenter"",""1"",""3102""
","
","
","""event"",""trial"",""time""
""fullscreenenter"",""1"",""3102""
","
","","","1477.0000000001164","","","22","10882","5188","&#9728;","elianto","#f73b6a7A","-1"," ","0","0","[2328.0000000001164]","1","1","","","10882","7","0","4","lose","no-go","1"
"pit-trial","125","947081","0.0-11.0","battery-v0.2","","""event"",""trial"",""time""
""fullscreenenter"",""1"",""3102""
","
","
","""event"",""trial"",""time""
""fullscreenenter"",""1"",""3102""
","
","","","-1","","","22","10882","5188","&#9752;","elianto","#f73b6a7A"," ","-1","0","-10","[]","0","1","","","10882","8","3","3","lose","go","0"
"pit-trial","126","951936","0.0-12.0","battery-v0.2","","""event"",""trial"",""time""
""fullscreenenter"",""1"",""3102""
","
","
","""event"",""trial"",""time""
""fullscreenenter"",""1"",""3102""
","
","","","-1","","","22","10882","5188","&#9733;","elianto","#3366ff99","-1","-1","1","0","[]","0","1","","","10882","9","2","2","win","no-go","1"
"pit-trial","127","955950","0.0-13.0","battery-v0.2","","""event"",""trial"",""time""
""fullscreenenter"",""1"",""3102""
","
","
","""event"",""trial"",""time""
""fullscreenenter"",""1"",""3102""
","
","","","1159","","","22","10882","5188","&#9752;","elianto","#f73b6a7A"," "," ","1","0","[2009]","1","1","","","10882","10","3","3","lose","go","0"
"pit-trial","128","960253","0.0-14.0","battery-v0.2","","""event"",""trial"",""time""
""fullscreenenter"",""1"",""3102""
","
","
","""event"",""trial"",""time""
""fullscreenenter"",""1"",""3102""
","
","","","1447","","","22","10882","5188","&#9728;","elianto","#f73b6a7A","-1"," ","0","0","[2298]","1","1","","","10882","11","0","4","lose","no-go","1"
"pit-trial","129","964242","0.0-15.0","battery-v0.2","","""event"",""trial"",""time""
""fullscreenenter"",""1"",""3102""
","
","
","""event"",""trial"",""time""
""fullscreenenter"",""1"",""3102""
","
","","","1134.0000000001164","","","22","10882","5188","&#9730;","elianto","#3366ff99"," "," ","1","+10","[1985.0000000001164]","1","1","","","10882","12","1","1","win","go","0"
"pit-trial","130","968407","0.0-16.0","battery-v0.2","","""event"",""trial"",""time""
""fullscreenenter"",""1"",""3102""
","
","
","""event"",""trial"",""time""
""fullscreenenter"",""1"",""3102""
","
","","","1310","","","22","10882","5188","&#9752;","elianto","#f73b6a7A"," "," ","1","0","[2161]","1","1","","","10882","13","3","3","lose","go","0"
"pit-trial","131","973135","0.0-17.0","battery-v0.2","","""event"",""trial"",""time""
""fullscreenenter"",""1"",""3102""
","
","
","""event"",""trial"",""time""
""fullscreenenter"",""1"",""3102""
","
","","","1873","","","22","10882","5188","&#9733;","elianto","#3366ff99","-1"," ","0","0","[2724]","1","1","","","10882","14","2","2","win","no-go","0"
"pit-trial","132","976830","0.0-18.0","battery-v0.2","","""event"",""trial"",""time""
""fullscreenenter"",""1"",""3102""
","
","
","""event"",""trial"",""time""
""fullscreenenter"",""1"",""3102""
","
","","","840","","","22","10882","5188","&#9730;","elianto","#3366ff99"," "," ","1","0","[1690]","1","1","","","10882","15","1","1","win","go","1"
"pit-trial","133","981685","0.0-19.0","battery-v0.2","","""event"",""trial"",""time""
""fullscreenenter"",""1"",""3102""
","
","
","""event"",""trial"",""time""
""fullscreenenter"",""1"",""3102""
","
","","","-1","","","22","10882","5188","&#9728;","elianto","#f73b6a7A","-1","-1","1","0","[]","0","1","","","10882","16","0","4","lose","no-go","0"
"pit-trial","134","986540","0.0-20.0","battery-v0.2","","""event"",""trial"",""time""
""fullscreenenter"",""1"",""3102""
","
","
","""event"",""trial"",""time""
""fullscreenenter"",""1"",""3102""
","
","","","-1","","","22","10882","5188","&#9733;","elianto","#3366ff99","-1","-1","1","+10","[]","0","1","","","10882","17","2","2","win","no-go","0"
"pit-trial","135","990196","0.0-21.0","battery-v0.2","","""event"",""trial"",""time""
""fullscreenenter"",""1"",""3102""
","
","
","""event"",""trial"",""time""
""fullscreenenter"",""1"",""3102""
","
","","","801","","","22","10882","5188","&#9730;","elianto","#3366ff99"," "," ","1","0","[1652]","1","1","","","10882","18","1","1","win","go","1"
"pit-trial","136","995052","0.0-22.0","battery-v0.2","","""event"",""trial"",""time""
""fullscreenenter"",""1"",""3102""
","
","
","""event"",""trial"",""time""
""fullscreenenter"",""1"",""3102""
","
","","","-1","","","22","10882","5188","&#9728;","elianto","#f73b6a7A","-1","-1","1","0","[]","0","1","","","10882","19","0","4","lose","no-go","0"
"pit-trial","137","999065","0.0-23.0","battery-v0.2","","""event"",""trial"",""time""
""fullscreenenter"",""1"",""3102""
","
","
","""event"",""trial"",""time""
""fullscreenenter"",""1"",""3102""
","
","","","1158.0000000001164","","","22","10882","5188","&#9752;","elianto","#f73b6a7A"," "," ","1","0","[2008.0000000001164]","1","1","","","10882","20","3","3","lose","go","0"
"pit-instructions","138","1011428","0.0-24.0","battery-v0.2","","""event"",""trial"",""time""
""fullscreenenter"",""1"",""3102""
","
","
","""event"",""trial"",""time""
""fullscreenenter"",""1"",""3102""
","
","","[{""page_index"":0,""viewing_time"":5764},{""page_index"":1,""viewing_time"":6595}]","12359","","","","","","","","","","","","","","","","","","","","","","","",""
"pit-trial","139","1015353","0.0-25.0","battery-v0.2","","""event"",""trial"",""time""
""fullscreenenter"",""1"",""3102""
","
","
","""event"",""trial"",""time""
""fullscreenenter"",""1"",""3102""
","
","","","1067","","","22","10882","5188","y","elianto","#f73b6a7A","-1"," ","0","-10","[1916.9999999998836]","1","2","","","10882","21","2","4","lose","no-go","0"
"pit-trial","140","1019303","0.0-26.0","battery-v0.2","","""event"",""trial"",""time""
""fullscreenenter"",""1"",""3102""
","
","
","""event"",""trial"",""time""
""fullscreenenter"",""1"",""3102""
","
","","","1094","","","22","10882","5188","r","elianto","#3366ff99"," "," ","1","+10","[1945]","1","2","","","10882","22","1","1","win","go","0"
"pit-trial","141","1023627","0.0-27.0","battery-v0.2","","""event"",""trial"",""time""
""fullscreenenter"",""1"",""3102""
","
","
","""event"",""trial"",""time""
""fullscreenenter"",""1"",""3102""
","
","","","1469","","","22","10882","5188","h","elianto","#f73b6a7A"," "," ","1","0","[2318]","1","2","","","10882","23","3","3","lose","go","0"
"pit-trial","142","1027739","0.0-28.0","battery-v0.2","","""event"",""trial"",""time""
""fullscreenenter"",""1"",""3102""
","
","
","""event"",""trial"",""time""
""fullscreenenter"",""1"",""3102""
","
","","","1256.0000000001164","","","22","10882","5188","m","elianto","#f73b6a7A","-1"," ","0","-10","[2107]","1","2","","","10882","24","0","4","lose","no-go","0"
"pit-trial","143","1032594","0.0-29.0","battery-v0.2","","""event"",""trial"",""time""
""fullscreenenter"",""1"",""3102""
","
","
","""event"",""trial"",""time""
""fullscreenenter"",""1"",""3102""
","
","","","-1","","","22","10882","5188","m","elianto","#f73b6a7A","-1","-1","1","0","[]","0","2","","","10882","25","0","4","lose","no-go","0"
"pit-trial","144","1036539","0.0-30.0","battery-v0.2","","""event"",""trial"",""time""
""fullscreenenter"",""1"",""3102""
","
","
","""event"",""trial"",""time""
""fullscreenenter"",""1"",""3102""
","
","","","1089.9999999998836","","","22","10882","5188","h","elianto","#f73b6a7A"," "," ","1","0","[1941]","1","2","","","10882","26","3","3","lose","go","0"
"pit-trial","145","1041394","0.0-31.0","battery-v0.2","","""event"",""trial"",""time""
""fullscreenenter"",""1"",""3102""
","
","
","""event"",""trial"",""time""
""fullscreenenter"",""1"",""3102""
","
","","","-1","","","22","10882","5188","y","elianto","#f73b6a7A","-1","-1","1","-10","[]","0","2","","","10882","27","2","4","lose","no-go","1"
"pit-trial","146","1045447","0.0-32.0","battery-v0.2","","""event"",""trial"",""time""
""fullscreenenter"",""1"",""3102""
","
","
","""event"",""trial"",""time""
""fullscreenenter"",""1"",""3102""
","
","","","1196.9999999998836","","","22","10882","5188","r","elianto","#3366ff99"," "," ","1","+10","[2048]","1","2","","","10882","28","1","1","win","go","0"
"pit-trial","147","1049270","0.0-33.0","battery-v0.2","","""event"",""trial"",""time""
""fullscreenenter"",""1"",""3102""
","
","
","""event"",""trial"",""time""
""fullscreenenter"",""1"",""3102""
","
","","","967","","","22","10882","5188","y","elianto","#f73b6a7A","-1"," ","0","-10","[1817]","1","2","","","10882","29","2","4","lose","no-go","0"
"pit-trial","148","1053838","0.0-34.0","battery-v0.2","","""event"",""trial"",""time""
""fullscreenenter"",""1"",""3102""
","
","
","""event"",""trial"",""time""
""fullscreenenter"",""1"",""3102""
","
","","","1713","","","22","10882","5188","m","elianto","#f73b6a7A","-1"," ","0","-10","[2564]","1","2","","","10882","30","0","4","lose","no-go","0"
"pit-trial","149","1058431","0.0-35.0","battery-v0.2","","""event"",""trial"",""time""
""fullscreenenter"",""1"",""3102""
","
","
","""event"",""trial"",""time""
""fullscreenenter"",""1"",""3102""
","
","","","1738","","","22","10882","5188","h","elianto","#f73b6a7A"," "," ","1","0","[2589]","1","2","","","10882","31","3","3","lose","go","0"
"pit-trial","150","1062156","0.0-36.0","battery-v0.2","","""event"",""trial"",""time""
""fullscreenenter"",""1"",""3102""
","
","
","""event"",""trial"",""time""
""fullscreenenter"",""1"",""3102""
","
","","","870","","","22","10882","5188","r","elianto","#3366ff99"," "," ","1","+10","[1721]","1","2","","","10882","32","1","1","win","go","0"
"pit-trial","151","1066641","0.0-37.0","battery-v0.2","","""event"",""trial"",""time""
""fullscreenenter"",""1"",""3102""
","
","
","""event"",""trial"",""time""
""fullscreenenter"",""1"",""3102""
","
","","","1629","","","22","10882","5188","h","elianto","#f73b6a7A"," "," ","1","0","[2480]","1","2","","","10882","33","3","3","lose","go","0"
"pit-trial","152","1070869","0.0-38.0","battery-v0.2","","""event"",""trial"",""time""
""fullscreenenter"",""1"",""3102""
","
","
","""event"",""trial"",""time""
""fullscreenenter"",""1"",""3102""
","
","","","1374","","","22","10882","5188","m","elianto","#f73b6a7A","-1"," ","0","-10","[2224]","1","2","","","10882","34","0","4","lose","no-go","0"
"pit-trial","153","1075320","0.0-39.0","battery-v0.2","","""event"",""trial"",""time""
""fullscreenenter"",""1"",""3102""
","
","
","""event"",""trial"",""time""
""fullscreenenter"",""1"",""3102""
","
","","","1594","","","22","10882","5188","y","elianto","#f73b6a7A","-1"," ","0","-10","[2445]","1","2","","","10882","35","2","4","lose","no-go","0"
"pit-trial","154","1079015","0.0-40.0","battery-v0.2","","""event"",""trial"",""time""
""fullscreenenter"",""1"",""3102""
","
","
","""event"",""trial"",""time""
""fullscreenenter"",""1"",""3102""
","
","","","840","","","22","10882","5188","r","elianto","#3366ff99"," "," ","1","+10","[1689.9999999997672]","1","2","","","10882","36","1","1","win","go","0"
"pit-trial","155","1083871","0.0-41.0","battery-v0.2","","""event"",""trial"",""time""
""fullscreenenter"",""1"",""3102""
","
","
","""event"",""trial"",""time""
""fullscreenenter"",""1"",""3102""
","
","","","-1","","","22","10882","5188","y","elianto","#f73b6a7A","-1","-1","1","0","[2858]","1","2","","","10882","37","2","4","lose","no-go","0"
"pit-trial","156","1087735","0.0-42.0","battery-v0.2","","""event"",""trial"",""time""
""fullscreenenter"",""1"",""3102""
","
","
","""event"",""trial"",""time""
""fullscreenenter"",""1"",""3102""
","
","","","1010","","","22","10882","5188","r","elianto","#3366ff99"," "," ","1","+10","[1860]","1","2","","","10882","38","1","1","win","go","0"
"pit-trial","157","1092590","0.0-43.0","battery-v0.2","","""event"",""trial"",""time""
""fullscreenenter"",""1"",""3102""
","
","
","""event"",""trial"",""time""
""fullscreenenter"",""1"",""3102""
","
","","","-1","","","22","10882","5188","h","elianto","#f73b6a7A"," ","-1","0","-10","[]","0","2","","","10882","39","3","3","lose","go","0"
"pit-trial","158","1097445","0.0-44.0","battery-v0.2","","""event"",""trial"",""time""
""fullscreenenter"",""1"",""3102""
","
","
","""event"",""trial"",""time""
""fullscreenenter"",""1"",""3102""
","
","","","-1","","","22","10882","5188","m","elianto","#f73b6a7A","-1","-1","1","0","[]","0","2","","","10882","40","0","4","lose","no-go","0"
"pit-trial","159","1101140","0.0-45.0","battery-v0.2","","""event"",""trial"",""time""
""fullscreenenter"",""1"",""3102""
","
","
","""event"",""trial"",""time""
""fullscreenenter"",""1"",""3102""
","
","","","840","","","22","10882","5188","r","elianto","#3366ff99"," "," ","1","0","[1689.9999999997672]","1","2","","","10882","41","1","1","win","go","1"
"pit-trial","160","1105997","0.0-46.0","battery-v0.2","","""event"",""trial"",""time""
""fullscreenenter"",""1"",""3102""
","
","
","""event"",""trial"",""time""
""fullscreenenter"",""1"",""3102""
","
","","","-1","","","22","10882","5188","m","elianto","#f73b6a7A","-1","-1","1","0","[]","0","2","","","10882","42","0","4","lose","no-go","0"
"pit-trial","161","1110055","0.0-47.0","battery-v0.2","","""event"",""trial"",""time""
""fullscreenenter"",""1"",""3102""
","
","
","""event"",""trial"",""time""
""fullscreenenter"",""1"",""3102""
","
","","","1201","","","22","10882","5188","y","elianto","#f73b6a7A","-1"," ","0","0","[2054]","1","2","","","10882","43","2","4","lose","no-go","1"
"pit-trial","162","1114910","0.0-48.0","battery-v0.2","","""event"",""trial"",""time""
""fullscreenenter"",""1"",""3102""
","
","
","""event"",""trial"",""time""
""fullscreenenter"",""1"",""3102""
","
","","","-1","","","22","10882","5188","h","elianto","#f73b6a7A"," ","-1","0","-10","[]","0","2","","","10882","44","3","3","lose","go","0"
"pit-trial","163","1119012","0.0-49.0","battery-v0.2","","""event"",""trial"",""time""
""fullscreenenter"",""1"",""3102""
","
","
","""event"",""trial"",""time""
""fullscreenenter"",""1"",""3102""
","
","","","1247","","","22","10882","5188","h","elianto","#f73b6a7A"," "," ","1","0","[2098]","1","2","","","10882","45","3","3","lose","go","0"
"pit-trial","164","1123031","0.0-50.0","battery-v0.2","","""event"",""trial"",""time""
""fullscreenenter"",""1"",""3102""
","
","
","""event"",""trial"",""time""
""fullscreenenter"",""1"",""3102""
","
","","","1164","","","22","10882","5188","z","elianto","#3366ff99","-1"," ","0","+10","[2014]","1","2","","","10882","46","4","2","win","no-go","1"
"pit-trial","165","1127222","0.0-51.0","battery-v0.2","","""event"",""trial"",""time""
""fullscreenenter"",""1"",""3102""
","
","
","""event"",""trial"",""time""
""fullscreenenter"",""1"",""3102""
","
","","","1335","","","22","10882","5188","m","elianto","#f73b6a7A","-1"," ","0","0","[2185]","1","2","","","10882","47","0","4","lose","no-go","1"
"pit-trial","166","1131191","0.0-52.0","battery-v0.2","","""event"",""trial"",""time""
""fullscreenenter"",""1"",""3102""
","
","
","""event"",""trial"",""time""
""fullscreenenter"",""1"",""3102""
","
","","","1114.0000000002328","","","22","10882","5188","y","elianto","#f73b6a7A","-1"," ","0","-10","[1964.0000000002328]","1","2","","","10882","48","2","4","lose","no-go","0"
"pit-trial","167","1135067","0.0-53.0","battery-v0.2","","""event"",""trial"",""time""
""fullscreenenter"",""1"",""3102""
","
","
","""event"",""trial"",""time""
""fullscreenenter"",""1"",""3102""
","
","","","1020.0000000002328","","","22","10882","5188","z","elianto","#3366ff99","-1"," ","0","+10","[1870.0000000002328]","1","2","","","10882","49","4","2","win","no-go","1"
"pit-trial","168","1138774","0.0-54.0","battery-v0.2","","""event"",""trial"",""time""
""fullscreenenter"",""1"",""3102""
","
","
","""event"",""trial"",""time""
""fullscreenenter"",""1"",""3102""
","
","","","852","","","22","10882","5188","r","elianto","#3366ff99"," "," ","1","+10","[1703]","1","2","","","10882","50","1","1","win","go","0"
"pit-trial","169","1143087","0.0-55.0","battery-v0.2","","""event"",""trial"",""time""
""fullscreenenter"",""1"",""3102""
","
","
","""event"",""trial"",""time""
""fullscreenenter"",""1"",""3102""
","
","","","1459.0000000002328","","","22","10882","5188","h","elianto","#f73b6a7A"," "," ","1","0","[2309.000000000233]","1","2","","","10882","51","3","3","lose","go","0"
"pit-trial","170","1147884","0.0-56.0","battery-v0.2","","""event"",""trial"",""time""
""fullscreenenter"",""1"",""3102""
","
","
","""event"",""trial"",""time""
""fullscreenenter"",""1"",""3102""
","
","","","1941.9999999997672","","","22","10882","5188","m","elianto","#f73b6a7A","-1"," ","0","0","[2792]","1","2","","","10882","52","0","4","lose","no-go","1"
"pit-trial","171","1151649","0.0-57.0","battery-v0.2","","""event"",""trial"",""time""
""fullscreenenter"",""1"",""3102""
","
","
","""event"",""trial"",""time""
""fullscreenenter"",""1"",""3102""
","
","","","912","","","22","10882","5188","y","elianto","#f73b6a7A","-1"," ","0","-10","[1762]","1","2","","","10882","53","2","4","lose","no-go","0"
"pit-trial","172","1155325","0.0-58.0","battery-v0.2","","""event"",""trial"",""time""
""fullscreenenter"",""1"",""3102""
","
","
","""event"",""trial"",""time""
""fullscreenenter"",""1"",""3102""
","
","","","820","","","22","10882","5188","r","elianto","#3366ff99"," "," ","1","+10","[1669.9999999997672]","1","2","","","10882","54","1","1","win","go","0"
"pit-trial","173","1159752","0.0-59.0","battery-v0.2","","""event"",""trial"",""time""
""fullscreenenter"",""1"",""3102""
","
","
","""event"",""trial"",""time""
""fullscreenenter"",""1"",""3102""
","
","","","1571","","","22","10882","5188","m","elianto","#f73b6a7A","-1"," ","0","-10","[2422]","1","2","","","10882","55","0","4","lose","no-go","0"
"pit-trial","174","1163431","0.0-60.0","battery-v0.2","","""event"",""trial"",""time""
""fullscreenenter"",""1"",""3102""
","
","
","""event"",""trial"",""time""
""fullscreenenter"",""1"",""3102""
","
","","","824.9999999997672","","","22","10882","5188","z","elianto","#3366ff99","-1"," ","0","0","[1675]","1","2","","","10882","56","4","2","win","no-go","0"
"pit-trial","175","1167258","0.0-61.0","battery-v0.2","","""event"",""trial"",""time""
""fullscreenenter"",""1"",""3102""
","
","
","""event"",""trial"",""time""
""fullscreenenter"",""1"",""3102""
","
","","","971","","","22","10882","5188","h","elianto","#f73b6a7A"," "," ","1","-10","[1823]","1","2","","","10882","57","3","3","lose","go","1"
"pit-trial","176","1170900","0.0-62.0","battery-v0.2","","""event"",""trial"",""time""
""fullscreenenter"",""1"",""3102""
","
","
","""event"",""trial"",""time""
""fullscreenenter"",""1"",""3102""
","
","","","786","","","22","10882","5188","r","elianto","#3366ff99"," "," ","1","0","[1637]","1","2","","","10882","58","1","1","win","go","1"
"pit-trial","177","1175754","0.0-63.0","battery-v0.2","","""event"",""trial"",""time""
""fullscreenenter"",""1"",""3102""
","
","
","""event"",""trial"",""time""
""fullscreenenter"",""1"",""3102""
","
","","","-1","","","22","10882","5188","m","elianto","#f73b6a7A","-1","-1","1","0","[]","0","2","","","10882","59","0","4","lose","no-go","0"
"pit-trial","178","1180046","0.0-64.0","battery-v0.2","","""event"",""trial"",""time""
""fullscreenenter"",""1"",""3102""
","
","
","""event"",""trial"",""time""
""fullscreenenter"",""1"",""3102""
","
","","","1436","","","22","10882","5188","z","elianto","#3366ff99","-1"," ","0","0","[2287]","1","2","","","10882","60","4","2","win","no-go","0"
"pit-trial","179","1184035","0.0-65.0","battery-v0.2","","""event"",""trial"",""time""
""fullscreenenter"",""1"",""3102""
","
","
","""event"",""trial"",""time""
""fullscreenenter"",""1"",""3102""
","
","","","1131","","","22","10882","5188","y","elianto","#f73b6a7A","-1"," ","0","-10","[1982]","1","2","","","10882","61","2","4","lose","no-go","0"
"pit-trial","180","1187993","0.0-66.0","battery-v0.2","","""event"",""trial"",""time""
""fullscreenenter"",""1"",""3102""
","
","
","""event"",""trial"",""time""
""fullscreenenter"",""1"",""3102""
","
","","","1103","","","22","10882","5188","r","elianto","#3366ff99"," "," ","1","+10","[1954]","1","2","","","10882","62","1","1","win","go","0"
"pit-trial","181","1192014","0.0-67.0","battery-v0.2","","""event"",""trial"",""time""
""fullscreenenter"",""1"",""3102""
","
","
","""event"",""trial"",""time""
""fullscreenenter"",""1"",""3102""
","
","","","1166","","","22","10882","5188","z","elianto","#3366ff99","-1"," ","0","0","[2016]","1","2","","","10882","63","4","2","win","no-go","0"
"pit-trial","182","1196057","0.0-68.0","battery-v0.2","","""event"",""trial"",""time""
""fullscreenenter"",""1"",""3102""
","
","
","""event"",""trial"",""time""
""fullscreenenter"",""1"",""3102""
","
","","","1188","","","22","10882","5188","h","elianto","#f73b6a7A"," "," ","1","0","[2038]","1","2","","","10882","64","3","3","lose","go","0"
"pit-trial","183","1200912","0.0-69.0","battery-v0.2","","""event"",""trial"",""time""
""fullscreenenter"",""1"",""3102""
","
","
","""event"",""trial"",""time""
""fullscreenenter"",""1"",""3102""
","
","","","-1","","","22","10882","5188","y","elianto","#f73b6a7A","-1","-1","1","0","[]","0","2","","","10882","65","2","4","lose","no-go","0"
"pit-trial","184","1205767","0.0-70.0","battery-v0.2","","""event"",""trial"",""time""
""fullscreenenter"",""1"",""3102""
","
","
","""event"",""trial"",""time""
""fullscreenenter"",""1"",""3102""
","
","","","-1","","","22","10882","5188","z","elianto","#3366ff99","-1","-1","1","+10","[]","0","2","","","10882","66","4","2","win","no-go","0"
"pit-trial","185","1210622","0.0-71.0","battery-v0.2","","""event"",""trial"",""time""
""fullscreenenter"",""1"",""3102""
","
","
","""event"",""trial"",""time""
""fullscreenenter"",""1"",""3102""
","
","","","-1","","","22","10882","5188","h","elianto","#f73b6a7A"," ","-1","0","-10","[]","0","2","","","10882","67","3","3","lose","go","0"
"pit-trial","186","1214260","0.0-72.0","battery-v0.2","","""event"",""trial"",""time""
""fullscreenenter"",""1"",""3102""
","
","
","""event"",""trial"",""time""
""fullscreenenter"",""1"",""3102""
","
","","","780","","","22","10882","5188","r","elianto","#3366ff99"," "," ","1","+10","[1632.9999999997672]","1","2","","","10882","68","1","1","win","go","0"
"pit-trial","187","1219115","0.0-73.0","battery-v0.2","","""event"",""trial"",""time""
""fullscreenenter"",""1"",""3102""
","
","
","""event"",""trial"",""time""
""fullscreenenter"",""1"",""3102""
","
","","","-1","","","22","10882","5188","z","elianto","#3366ff99","-1","-1","1","0","[]","0","2","","","10882","69","4","2","win","no-go","1"
"pit-trial","188","1222883","0.0-74.0","battery-v0.2","","""event"",""trial"",""time""
""fullscreenenter"",""1"",""3102""
","
","
","""event"",""trial"",""time""
""fullscreenenter"",""1"",""3102""
","
","","","914","","","22","10882","5188","c","elianto","#3366ff99"," "," ","1","+10","[1764]","1","2","","","10882","70","5","1","win","go","0"
"pit-trial","189","1226555","0.0-75.0","battery-v0.2","","""event"",""trial"",""time""
""fullscreenenter"",""1"",""3102""
","
","
","""event"",""trial"",""time""
""fullscreenenter"",""1"",""3102""
","
","","","816","","","22","10882","5188","r","elianto","#3366ff99"," "," ","1","+10","[1666]","1","2","","","10882","71","1","1","win","go","0"
"pit-trial","190","1231112","0.0-76.0","battery-v0.2","","""event"",""trial"",""time""
""fullscreenenter"",""1"",""3102""
","
","
","""event"",""trial"",""time""
""fullscreenenter"",""1"",""3102""
","
","","","1703","","","22","10882","5188","h","elianto","#f73b6a7A"," "," ","1","0","[2553]","1","2","","","10882","72","3","3","lose","go","0"
"pit-trial","191","1234739","0.0-77.0","battery-v0.2","","""event"",""trial"",""time""
""fullscreenenter"",""1"",""3102""
","
","
","""event"",""trial"",""time""
""fullscreenenter"",""1"",""3102""
","
","","","771","","","22","10882","5188","h","elianto","#f73b6a7A"," "," ","1","0","[1620.9999999997672]","1","2","","","10882","73","3","3","lose","go","0"
"pit-trial","192","1238790","0.0-78.0","battery-v0.2","","""event"",""trial"",""time""
""fullscreenenter"",""1"",""3102""
","
","
","""event"",""trial"",""time""
""fullscreenenter"",""1"",""3102""
","
","","","1196","","","22","10882","5188","c","elianto","#3366ff99"," "," ","1","+10","[2047]","1","2","","","10882","74","5","1","win","go","0"
"pit-trial","193","1243645","0.0-79.0","battery-v0.2","","""event"",""trial"",""time""
""fullscreenenter"",""1"",""3102""
","
","
","""event"",""trial"",""time""
""fullscreenenter"",""1"",""3102""
","
","","","-1","","","22","10882","5188","z","elianto","#3366ff99","-1","-1","1","+10","[]","0","2","","","10882","75","4","2","win","no-go","0"
"pit-trial","194","1247356","0.0-80.0","battery-v0.2","","""event"",""trial"",""time""
""fullscreenenter"",""1"",""3102""
","
","
","""event"",""trial"",""time""
""fullscreenenter"",""1"",""3102""
","
","","","856","","","22","10882","5188","r","elianto","#3366ff99"," "," ","1","+10","[1707]","1","2","","","10882","76","1","1","win","go","0"
"pit-trial","195","1251816","0.0-81.0","battery-v0.2","","""event"",""trial"",""time""
""fullscreenenter"",""1"",""3102""
","
","
","""event"",""trial"",""time""
""fullscreenenter"",""1"",""3102""
","
","","","1603","","","22","10882","5188","c","elianto","#3366ff99"," "," ","1","+10","[2454]","1","2","","","10882","77","5","1","win","go","0"
"pit-trial","196","1256671","0.0-82.0","battery-v0.2","","""event"",""trial"",""time""
""fullscreenenter"",""1"",""3102""
","
","
","""event"",""trial"",""time""
""fullscreenenter"",""1"",""3102""
","
","","","-1","","","22","10882","5188","h","elianto","#f73b6a7A"," ","-1","0","-10","[]","0","2","","","10882","78","3","3","lose","go","0"
"pit-trial","197","1261526","0.0-83.0","battery-v0.2","","""event"",""trial"",""time""
""fullscreenenter"",""1"",""3102""
","
","
","""event"",""trial"",""time""
""fullscreenenter"",""1"",""3102""
","
","","","-1","","","22","10882","5188","z","elianto","#3366ff99","-1","-1","1","+10","[]","0","2","","","10882","79","4","2","win","no-go","0"
"pit-trial","198","1265520","0.0-84.0","battery-v0.2","","""event"",""trial"",""time""
""fullscreenenter"",""1"",""3102""
","
","
","""event"",""trial"",""time""
""fullscreenenter"",""1"",""3102""
","
","","","1140","","","22","10882","5188","b","elianto","#f73b6a7A","-1"," ","0","-10","[1990]","1","2","","","10882","80","6","4","lose","no-go","0"
"pit-trial","199","1270376","0.0-85.0","battery-v0.2","","""event"",""trial"",""time""
""fullscreenenter"",""1"",""3102""
","
","
","""event"",""trial"",""time""
""fullscreenenter"",""1"",""3102""
","
","","","-1","","","22","10882","5188","z","elianto","#3366ff99","-1","-1","1","+10","[]","0","2","","","10882","81","4","2","win","no-go","0"
"pit-trial","200","1274278","0.0-86.0","battery-v0.2","","""event"",""trial"",""time""
""fullscreenenter"",""1"",""3102""
","
","
","""event"",""trial"",""time""
""fullscreenenter"",""1"",""3102""
","
","","","1047","","","22","10882","5188","c","elianto","#3366ff99"," "," ","1","+10","[1898]","1","2","","","10882","82","5","1","win","go","0"
"pit-trial","201","1278598","0.0-87.0","battery-v0.2","","""event"",""trial"",""time""
""fullscreenenter"",""1"",""3102""
","
","
","""event"",""trial"",""time""
""fullscreenenter"",""1"",""3102""
","
","","","1464","","","22","10882","5188","b","elianto","#f73b6a7A","-1"," ","0","-10","[2314.999999999767]","1","2","","","10882","83","6","4","lose","no-go","0"
"pit-trial","202","1282530","0.0-88.0","battery-v0.2","","""event"",""trial"",""time""
""fullscreenenter"",""1"",""3102""
","
","
","""event"",""trial"",""time""
""fullscreenenter"",""1"",""3102""
","
","","","1077","","","22","10882","5188","t","elianto","#f73b6a7A"," "," ","1","-10","[1928]","1","2","","","10882","84","7","3","lose","go","1"
"pit-trial","203","1287385","0.0-89.0","battery-v0.2","","""event"",""trial"",""time""
""fullscreenenter"",""1"",""3102""
","
","
","""event"",""trial"",""time""
""fullscreenenter"",""1"",""3102""
","
","","","-1","","","22","10882","5188","b","elianto","#f73b6a7A","-1","-1","1","0","[]","0","2","","","10882","85","6","4","lose","no-go","0"
"pit-trial","204","1292239","0.0-90.0","battery-v0.2","","""event"",""trial"",""time""
""fullscreenenter"",""1"",""3102""
","
","
","""event"",""trial"",""time""
""fullscreenenter"",""1"",""3102""
","
","","","-1","","","22","10882","5188","t","elianto","#f73b6a7A"," ","-1","0","-10","[]","0","2","","","10882","86","7","3","lose","go","0"
"pit-trial","205","1297094","0.0-91.0","battery-v0.2","","""event"",""trial"",""time""
""fullscreenenter"",""1"",""3102""
","
","
","""event"",""trial"",""time""
""fullscreenenter"",""1"",""3102""
","
","","","-1","","","22","10882","5188","c","elianto","#3366ff99"," ","-1","0","+10","[]","0","2","","","10882","87","5","1","win","go","1"
"pit-trial","206","1301949","0.0-92.0","battery-v0.2","","""event"",""trial"",""time""
""fullscreenenter"",""1"",""3102""
","
","
","""event"",""trial"",""time""
""fullscreenenter"",""1"",""3102""
","
","","","-1","","","22","10882","5188","z","elianto","#3366ff99","-1","-1","1","0","[]","0","2","","","10882","88","4","2","win","no-go","1"
"pit-trial","207","1305747","0.0-93.0","battery-v0.2","","""event"",""trial"",""time""
""fullscreenenter"",""1"",""3102""
","
","
","""event"",""trial"",""time""
""fullscreenenter"",""1"",""3102""
","
","","","942","","","22","10882","5188","c","elianto","#3366ff99"," "," ","1","0","[1793]","1","2","","","10882","89","5","1","win","go","1"
"pit-trial","208","1310602","0.0-94.0","battery-v0.2","","""event"",""trial"",""time""
""fullscreenenter"",""1"",""3102""
","
","
","""event"",""trial"",""time""
""fullscreenenter"",""1"",""3102""
","
","","","-1","","","22","10882","5188","b","elianto","#f73b6a7A","-1","-1","1","0","[]","0","2","","","10882","90","6","4","lose","no-go","0"
"pit-trial","209","1314638","0.0-95.0","battery-v0.2","","""event"",""trial"",""time""
""fullscreenenter"",""1"",""3102""
","
","
","""event"",""trial"",""time""
""fullscreenenter"",""1"",""3102""
","
","","","1181.9999999997672","","","22","10882","5188","t","elianto","#f73b6a7A"," "," ","1","-10","[2032]","1","2","","","10882","91","7","3","lose","go","1"
"pit-trial","210","1319494","0.0-96.0","battery-v0.2","","""event"",""trial"",""time""
""fullscreenenter"",""1"",""3102""
","
","
","""event"",""trial"",""time""
""fullscreenenter"",""1"",""3102""
","
","","","-1","","","22","10882","5188","z","elianto","#3366ff99","-1","-1","1","+10","[]","0","2","","","10882","92","4","2","win","no-go","0"
"pit-trial","211","1324349","0.0-97.0","battery-v0.2","","""event"",""trial"",""time""
""fullscreenenter"",""1"",""3102""
","
","
","""event"",""trial"",""time""
""fullscreenenter"",""1"",""3102""
","
","","","-1","","","22","10882","5188","b","elianto","#f73b6a7A","-1","-1","1","0","[]","0","2","","","10882","93","6","4","lose","no-go","0"
"pit-trial","212","1328617","0.0-98.0","battery-v0.2","","""event"",""trial"",""time""
""fullscreenenter"",""1"",""3102""
","
","
","""event"",""trial"",""time""
""fullscreenenter"",""1"",""3102""
","
","","","1413","","","22","10882","5188","f","elianto","#3366ff99","-1"," ","0","+10","[2263]","1","2","","","10882","94","8","2","win","no-go","1"
"pit-trial","213","1333428","0.0-99.0","battery-v0.2","","""event"",""trial"",""time""
""fullscreenenter"",""1"",""3102""
","
","
","""event"",""trial"",""time""
""fullscreenenter"",""1"",""3102""
","
","","","1955.0000000002328","","","22","10882","5188","c","elianto","#3366ff99"," "," ","1","+10","[2806.000000000233]","1","2","","","10882","95","5","1","win","go","0"
"pit-trial","214","1338108","0.0-100.0","battery-v0.2","","""event"",""trial"",""time""
""fullscreenenter"",""1"",""3102""
","
","
","""event"",""trial"",""time""
""fullscreenenter"",""1"",""3102""
","
","","","1825","","","22","10882","5188","t","elianto","#f73b6a7A"," "," ","1","0","[2676]","1","2","","","10882","96","7","3","lose","go","0"
"pit-trial","215","1342213","0.0-101.0","battery-v0.2","","""event"",""trial"",""time""
""fullscreenenter"",""1"",""3102""
","
","
","""event"",""trial"",""time""
""fullscreenenter"",""1"",""3102""
","
","","","1310","","","22","10882","5188","t","elianto","#f73b6a7A"," "," ","1","-10","[2160]","1","2","","","10882","97","7","3","lose","go","1"
"pit-trial","216","1347068","0.0-102.0","battery-v0.2","","""event"",""trial"",""time""
""fullscreenenter"",""1"",""3102""
","
","
","""event"",""trial"",""time""
""fullscreenenter"",""1"",""3102""
","
","","","-1","","","22","10882","5188","b","elianto","#f73b6a7A","-1","-1","1","0","[]","0","2","","","10882","98","6","4","lose","no-go","0"
"pit-trial","217","1351285","0.0-103.0","battery-v0.2","","""event"",""trial"",""time""
""fullscreenenter"",""1"",""3102""
","
","
","""event"",""trial"",""time""
""fullscreenenter"",""1"",""3102""
","
","","","1362","","","22","10882","5188","f","elianto","#3366ff99","-1"," ","0","0","[2213]","1","2","","","10882","99","8","2","win","no-go","0"
"pit-trial","218","1356141","0.0-104.0","battery-v0.2","","""event"",""trial"",""time""
""fullscreenenter"",""1"",""3102""
","
","
","""event"",""trial"",""time""
""fullscreenenter"",""1"",""3102""
","
","","","-1","","","22","10882","5188","c","elianto","#3366ff99"," ","-1","0","+10","[]","0","2","","","10882","100","5","1","win","go","1"
"pit-trial","219","1360996","0.0-105.0","battery-v0.2","","""event"",""trial"",""time""
""fullscreenenter"",""1"",""3102""
","
","
","""event"",""trial"",""time""
""fullscreenenter"",""1"",""3102""
","
","","","-1","","","22","10882","5188","c","elianto","#3366ff99"," ","-1","0","0","[]","0","2","","","10882","101","5","1","win","go","0"
"pit-trial","220","1365002","0.0-106.0","battery-v0.2","","""event"",""trial"",""time""
""fullscreenenter"",""1"",""3102""
","
","
","""event"",""trial"",""time""
""fullscreenenter"",""1"",""3102""
","
","","","1150.9999999997672","","","22","10882","5188","f","elianto","#3366ff99","-1"," ","0","+10","[2002]","1","2","","","10882","102","8","2","win","no-go","1"
"pit-trial","221","1369438","0.0-107.0","battery-v0.2","","""event"",""trial"",""time""
""fullscreenenter"",""1"",""3102""
","
","
","""event"",""trial"",""time""
""fullscreenenter"",""1"",""3102""
","
","","","1581","","","22","10882","5188","b","elianto","#f73b6a7A","-1"," ","0","-10","[2431]","1","2","","","10882","103","6","4","lose","no-go","0"
"pit-trial","222","1373598","0.0-108.0","battery-v0.2","","""event"",""trial"",""time""
""fullscreenenter"",""1"",""3102""
","
","
","""event"",""trial"",""time""
""fullscreenenter"",""1"",""3102""
","
","","","1305.9999999997672","","","22","10882","5188","n","elianto","#3366ff99","-1"," ","0","0","[2156]","1","2","","","10882","104","9","2","win","no-go","0"
"pit-trial","223","1378453","0.0-109.0","battery-v0.2","","""event"",""trial"",""time""
""fullscreenenter"",""1"",""3102""
","
","
","""event"",""trial"",""time""
""fullscreenenter"",""1"",""3102""
","
","","","-1","","","22","10882","5188","n","elianto","#3366ff99","-1","-1","1","+10","[]","0","2","","","10882","105","9","2","win","no-go","0"
"pit-trial","224","1383308","0.0-110.0","battery-v0.2","","""event"",""trial"",""time""
""fullscreenenter"",""1"",""3102""
","
","
","""event"",""trial"",""time""
""fullscreenenter"",""1"",""3102""
","
","","","-1","","","22","10882","5188","c","elianto","#3366ff99"," ","-1","0","0","[]","0","2","","","10882","106","5","1","win","go","0"
"pit-trial","225","1387680","0.0-111.0","battery-v0.2","","""event"",""trial"",""time""
""fullscreenenter"",""1"",""3102""
","
","
","""event"",""trial"",""time""
""fullscreenenter"",""1"",""3102""
","
","","","1518","","","22","10882","5188","f","elianto","#3366ff99","-1"," ","0","0","[2367.999999999767]","1","2","","","10882","107","8","2","win","no-go","0"
"pit-trial","226","1392536","0.0-112.0","battery-v0.2","","""event"",""trial"",""time""
""fullscreenenter"",""1"",""3102""
","
","
","""event"",""trial"",""time""
""fullscreenenter"",""1"",""3102""
","
","","","-1","","","22","10882","5188","b","elianto","#f73b6a7A","-1","-1","1","0","[]","0","2","","","10882","108","6","4","lose","no-go","0"
"pit-trial","227","1397392","0.0-113.0","battery-v0.2","","""event"",""trial"",""time""
""fullscreenenter"",""1"",""3102""
","
","
","""event"",""trial"",""time""
""fullscreenenter"",""1"",""3102""
","
","","","-1","","","22","10882","5188","n","elianto","#3366ff99","-1","-1","1","0","[]","0","2","","","10882","109","9","2","win","no-go","1"
"pit-trial","228","1401532","0.0-114.0","battery-v0.2","","""event"",""trial"",""time""
""fullscreenenter"",""1"",""3102""
","
","
","""event"",""trial"",""time""
""fullscreenenter"",""1"",""3102""
","
","","","1283","","","22","10882","5188","f","elianto","#3366ff99","-1"," ","0","0","[2134]","1","2","","","10882","110","8","2","win","no-go","0"
"pit-trial","229","1406388","0.0-115.0","battery-v0.2","","""event"",""trial"",""time""
""fullscreenenter"",""1"",""3102""
","
","
","""event"",""trial"",""time""
""fullscreenenter"",""1"",""3102""
","
","","","-1","","","22","10882","5188","b","elianto","#f73b6a7A","-1","-1","1","0","[]","0","2","","","10882","111","6","4","lose","no-go","0"
"pit-trial","230","1411116","0.0-116.0","battery-v0.2","","""event"",""trial"",""time""
""fullscreenenter"",""1"",""3102""
","
","
","""event"",""trial"",""time""
""fullscreenenter"",""1"",""3102""
","
","","","1871","","","22","10882","5188","c","elianto","#3366ff99"," "," ","1","+10","[2721]","1","2","","","10882","112","5","1","win","go","0"
"pit-trial","231","1415320","0.0-117.0","battery-v0.2","","""event"",""trial"",""time""
""fullscreenenter"",""1"",""3102""
","
","
","""event"",""trial"",""time""
""fullscreenenter"",""1"",""3102""
","
","","","1349","","","22","10882","5188","t","elianto","#f73b6a7A"," "," ","1","0","[2198.999999999767]","1","2","","","10882","113","7","3","lose","go","0"
"pit-trial","232","1419080","0.0-118.0","battery-v0.2","","""event"",""trial"",""time""
""fullscreenenter"",""1"",""3102""
","
","
","""event"",""trial"",""time""
""fullscreenenter"",""1"",""3102""
","
","","","904","","","22","10882","5188","c","elianto","#3366ff99"," "," ","1","+10","[1754]","1","2","","","10882","114","5","1","win","go","0"
"pit-trial","233","1423247","0.0-119.0","battery-v0.2","","""event"",""trial"",""time""
""fullscreenenter"",""1"",""3102""
","
","
","""event"",""trial"",""time""
""fullscreenenter"",""1"",""3102""
","
","","","1312.0000000002328","","","22","10882","5188","f","elianto","#3366ff99","-1"," ","0","0","[2162.000000000233]","1","2","","","10882","115","8","2","win","no-go","0"
"pit-trial","234","1427298","0.0-120.0","battery-v0.2","","""event"",""trial"",""time""
""fullscreenenter"",""1"",""3102""
","
","
","""event"",""trial"",""time""
""fullscreenenter"",""1"",""3102""
","
","","","1196","","","22","10882","5188","n","elianto","#3366ff99","-1"," ","0","0","[2046]","1","2","","","10882","116","9","2","win","no-go","0"
"pit-trial","235","1432154","0.0-121.0","battery-v0.2","","""event"",""trial"",""time""
""fullscreenenter"",""1"",""3102""
","
","
","""event"",""trial"",""time""
""fullscreenenter"",""1"",""3102""
","
","","","-1","","","22","10882","5188","f","elianto","#3366ff99","-1","-1","1","+10","[]","0","2","","","10882","117","8","2","win","no-go","0"
"pit-trial","236","1437009","0.0-122.0","battery-v0.2","","""event"",""trial"",""time""
""fullscreenenter"",""1"",""3102""
","
","
","""event"",""trial"",""time""
""fullscreenenter"",""1"",""3102""
","
","","","-1","","","22","10882","5188","n","elianto","#3366ff99","-1","-1","1","+10","[]","0","2","","","10882","118","9","2","win","no-go","0"
"pit-trial","237","1441846","0.0-123.0","battery-v0.2","","""event"",""trial"",""time""
""fullscreenenter"",""1"",""3102""
","
","
","""event"",""trial"",""time""
""fullscreenenter"",""1"",""3102""
","
","","","1982","","","22","10882","5188","c","elianto","#3366ff99"," "," ","1","+10","[2833]","1","2","","","10882","119","5","1","win","go","0"
"pit-trial","238","1446702","0.0-124.0","battery-v0.2","","""event"",""trial"",""time""
""fullscreenenter"",""1"",""3102""
","
","
","""event"",""trial"",""time""
""fullscreenenter"",""1"",""3102""
","
","","","-1","","","22","10882","5188","b","elianto","#f73b6a7A","-1","-1","1","0","[]","0","2","","","10882","120","6","4","lose","no-go","0"
"pit-trial","239","1451557","0.0-125.0","battery-v0.2","","""event"",""trial"",""time""
""fullscreenenter"",""1"",""3102""
","
","
","""event"",""trial"",""time""
""fullscreenenter"",""1"",""3102""
","
","","","-1","","","22","10882","5188","c","elianto","#3366ff99"," ","-1","0","0","[]","0","2","","","10882","121","5","1","win","go","0"
"pit-trial","240","1455552","0.0-126.0","battery-v0.2","","""event"",""trial"",""time""
""fullscreenenter"",""1"",""3102""
","
","
","""event"",""trial"",""time""
""fullscreenenter"",""1"",""3102""
","
","","","1140","","","22","10882","5188","t","elianto","#f73b6a7A"," "," ","1","-10","[1991]","1","2","","","10882","122","7","3","lose","go","1"
"pit-trial","241","1459344","0.0-127.0","battery-v0.2","","""event"",""trial"",""time""
""fullscreenenter"",""1"",""3102""
","
","
","""event"",""trial"",""time""
""fullscreenenter"",""1"",""3102""
","
","","","937","","","22","10882","5188","f","elianto","#3366ff99","-1"," ","0","0","[1788]","1","2","","","10882","123","8","2","win","no-go","0"
"pit-trial","242","1464200","0.0-128.0","battery-v0.2","","""event"",""trial"",""time""
""fullscreenenter"",""1"",""3102""
","
","
","""event"",""trial"",""time""
""fullscreenenter"",""1"",""3102""
","
","","","-1","","","22","10882","5188","n","elianto","#3366ff99","-1","-1","1","+10","[]","0","2","","","10882","124","9","2","win","no-go","0"
"pit-trial","243","1469055","0.0-129.0","battery-v0.2","","""event"",""trial"",""time""
""fullscreenenter"",""1"",""3102""
","
","
","""event"",""trial"",""time""
""fullscreenenter"",""1"",""3102""
","
","","","-1","","","22","10882","5188","b","elianto","#f73b6a7A","-1","-1","1","0","[]","0","2","","","10882","125","6","4","lose","no-go","0"
"pit-trial","244","1473910","0.0-130.0","battery-v0.2","","""event"",""trial"",""time""
""fullscreenenter"",""1"",""3102""
","
","
","""event"",""trial"",""time""
""fullscreenenter"",""1"",""3102""
","
","","","-1","","","22","10882","5188","n","elianto","#3366ff99","-1","-1","1","+10","[]","0","2","","","10882","126","9","2","win","no-go","0"
"pit-trial","245","1478764","0.0-131.0","battery-v0.2","","""event"",""trial"",""time""
""fullscreenenter"",""1"",""3102""
","
","
","""event"",""trial"",""time""
""fullscreenenter"",""1"",""3102""
","
","","","-1","","","22","10882","5188","f","elianto","#3366ff99","-1","-1","1","+10","[]","0","2","","","10882","127","8","2","win","no-go","0"
"pit-trial","246","1483156","0.0-132.0","battery-v0.2","","""event"",""trial"",""time""
""fullscreenenter"",""1"",""3102""
","
","
","""event"",""trial"",""time""
""fullscreenenter"",""1"",""3102""
","
","","","1537","","","22","10882","5188","t","elianto","#f73b6a7A"," "," ","1","0","[2387]","1","2","","","10882","128","7","3","lose","go","0"
"pit-trial","247","1487006","0.0-133.0","battery-v0.2","","""event"",""trial"",""time""
""fullscreenenter"",""1"",""3102""
","
","
","""event"",""trial"",""time""
""fullscreenenter"",""1"",""3102""
","
","","","996","","","22","10882","5188","t","elianto","#f73b6a7A"," "," ","1","0","[1846]","1","2","","","10882","129","7","3","lose","go","0"
"pit-trial","248","1491861","0.0-134.0","battery-v0.2","","""event"",""trial"",""time""
""fullscreenenter"",""1"",""3102""
","
","
","""event"",""trial"",""time""
""fullscreenenter"",""1"",""3102""
","
","","","-1","","","22","10882","5188","b","elianto","#f73b6a7A","-1","-1","1","-10","[]","0","2","","","10882","130","6","4","lose","no-go","1"
"pit-trial","249","1496717","0.0-135.0","battery-v0.2","","""event"",""trial"",""time""
""fullscreenenter"",""1"",""3102""
","
","
","""event"",""trial"",""time""
""fullscreenenter"",""1"",""3102""
","
","","","-1","","","22","10882","5188","f","elianto","#3366ff99","-1","-1","1","0","[]","0","2","","","10882","131","8","2","win","no-go","1"
"pit-trial","250","1501572","0.0-136.0","battery-v0.2","","""event"",""trial"",""time""
""fullscreenenter"",""1"",""3102""
","
","
","""event"",""trial"",""time""
""fullscreenenter"",""1"",""3102""
","
","","","-1","","","22","10882","5188","n","elianto","#3366ff99","-1","-1","1","+10","[]","0","2","","","10882","132","9","2","win","no-go","0"
"pit-trial","251","1506427","0.0-137.0","battery-v0.2","","""event"",""trial"",""time""
""fullscreenenter"",""1"",""3102""
","
","
","""event"",""trial"",""time""
""fullscreenenter"",""1"",""3102""
","
","","","-1","","","22","10882","5188","b","elianto","#f73b6a7A","-1","-1","1","0","[]","0","2","","","10882","133","6","4","lose","no-go","0"
"pit-trial","252","1511282","0.0-138.0","battery-v0.2","","""event"",""trial"",""time""
""fullscreenenter"",""1"",""3102""
","
","
","""event"",""trial"",""time""
""fullscreenenter"",""1"",""3102""
","
","","","-1","","","22","10882","5188","t","elianto","#f73b6a7A"," ","-1","0","-10","[]","0","2","","","10882","134","7","3","lose","go","0"
"pit-trial","253","1516138","0.0-139.0","battery-v0.2","","""event"",""trial"",""time""
""fullscreenenter"",""1"",""3102""
","
","
","""event"",""trial"",""time""
""fullscreenenter"",""1"",""3102""
","
","","","-1","","","22","10882","5188","n","elianto","#3366ff99","-1","-1","1","+10","[]","0","2","","","10882","135","9","2","win","no-go","0"
"pit-trial","254","1520287","0.0-140.0","battery-v0.2","","""event"",""trial"",""time""
""fullscreenenter"",""1"",""3102""
","
","
","""event"",""trial"",""time""
""fullscreenenter"",""1"",""3102""
","
","","","1294.0000000002328","","","22","10882","5188","f","elianto","#3366ff99","-1"," ","0","0","[2145.000000000233]","1","2","","","10882","136","8","2","win","no-go","0"
"pit-trial","255","1525142","0.0-141.0","battery-v0.2","","""event"",""trial"",""time""
""fullscreenenter"",""1"",""3102""
","
","
","""event"",""trial"",""time""
""fullscreenenter"",""1"",""3102""
","
","","","-1","","","22","10882","5188","f","elianto","#3366ff99","-1","-1","1","+10","[]","0","2","","","10882","137","8","2","win","no-go","0"
"pit-trial","256","1529997","0.0-142.0","battery-v0.2","","""event"",""trial"",""time""
""fullscreenenter"",""1"",""3102""
","
","
","""event"",""trial"",""time""
""fullscreenenter"",""1"",""3102""
","
","","","-1","","","22","10882","5188","n","elianto","#3366ff99","-1","-1","1","+10","[]","0","2","","","10882","138","9","2","win","no-go","0"
"pit-trial","257","1534853","0.0-143.0","battery-v0.2","","""event"",""trial"",""time""
""fullscreenenter"",""1"",""3102""
","
","
","""event"",""trial"",""time""
""fullscreenenter"",""1"",""3102""
","
","","","-1","","","22","10882","5188","b","elianto","#f73b6a7A","-1","-1","1","-10","[]","0","2","","","10882","139","6","4","lose","no-go","1"
"pit-trial","258","1539039","0.0-144.0","battery-v0.2","","""event"",""trial"",""time""
""fullscreenenter"",""1"",""3102""
","
","
","""event"",""trial"",""time""
""fullscreenenter"",""1"",""3102""
","
","","","1332.0000000002328","","","22","10882","5188","t","elianto","#f73b6a7A"," "," ","1","-10","[2182.000000000233]","1","2","","","10882","140","7","3","lose","go","1"
"pit-instructions","259","1600817","0.0-145.0","battery-v0.2","","""event"",""trial"",""time""
""fullscreenenter"",""1"",""3102""
","
","
","""event"",""trial"",""time""
""fullscreenenter"",""1"",""3102""
","
","","[{""page_index"":0,""viewing_time"":47658.00000000023},{""page_index"":1,""viewing_time"":14113.999999999767}]","61772","","","","","","","","","","","","","","","","","","","","","","","",""
"pit-trial","260","1604905","0.0-146.0","battery-v0.2","","""event"",""trial"",""time""
""fullscreenenter"",""1"",""3102""
","
","
","""event"",""trial"",""time""
""fullscreenenter"",""1"",""3102""
","
","","","1229.9999999997672","","","22","10882","5188","d","elianto","#3366ff99","-1"," ","0","0","[2081]","1","3","","","10882","141","1","2","win","no-go","0"
"pit-trial","261","1609079","0.0-147.0","battery-v0.2","","""event"",""trial"",""time""
""fullscreenenter"",""1"",""3102""
","
","
","""event"",""trial"",""time""
""fullscreenenter"",""1"",""3102""
","
","","","1318","","","22","10882","5188","j","elianto","#f73b6a7A"," "," ","1","0","[2168.000000000233]","1","3","","","10882","142","0","3","lose","go","0"
"pit-trial","262","1613935","0.0-148.0","battery-v0.2","","""event"",""trial"",""time""
""fullscreenenter"",""1"",""3102""
","
","
","""event"",""trial"",""time""
""fullscreenenter"",""1"",""3102""
","
","","","-1","","","22","10882","5188","e","elianto","#f73b6a7A"," ","-1","0","-10","[]","0","3","","","10882","143","2","3","lose","go","0"
"pit-trial","263","1617726","0.0-149.0","battery-v0.2","","""event"",""trial"",""time""
""fullscreenenter"",""1"",""3102""
","
","
","""event"",""trial"",""time""
""fullscreenenter"",""1"",""3102""
","
","","","936","","","22","10882","5188","w","elianto","#f73b6a7A","-1"," ","0","0","[1786]","1","3","","","10882","144","3","4","lose","no-go","1"
"pit-trial","264","1622582","0.0-150.0","battery-v0.2","","""event"",""trial"",""time""
""fullscreenenter"",""1"",""3102""
","
","
","""event"",""trial"",""time""
""fullscreenenter"",""1"",""3102""
","
","","","-1","","","22","10882","5188","d","elianto","#3366ff99","-1","-1","1","+10","[]","0","3","","","10882","145","1","2","win","no-go","0"
"pit-trial","265","1627437","0.0-151.0","battery-v0.2","","""event"",""trial"",""time""
""fullscreenenter"",""1"",""3102""
","
","
","""event"",""trial"",""time""
""fullscreenenter"",""1"",""3102""
","
","","","-1","","","22","10882","5188","w","elianto","#f73b6a7A","-1","-1","1","0","[]","0","3","","","10882","146","3","4","lose","no-go","0"
"pit-trial","266","1631453","0.0-152.0","battery-v0.2","","""event"",""trial"",""time""
""fullscreenenter"",""1"",""3102""
","
","
","""event"",""trial"",""time""
""fullscreenenter"",""1"",""3102""
","
","","","1160","","","22","10882","5188","e","elianto","#f73b6a7A"," "," ","1","0","[2011]","1","3","","","10882","147","2","3","lose","go","0"
"pit-trial","267","1636308","0.0-153.0","battery-v0.2","","""event"",""trial"",""time""
""fullscreenenter"",""1"",""3102""
","
","
","""event"",""trial"",""time""
""fullscreenenter"",""1"",""3102""
","
","","","-1","","","22","10882","5188","j","elianto","#f73b6a7A"," ","-1","0","-10","[]","0","3","","","10882","148","0","3","lose","go","0"
"pit-trial","268","1640283","0.0-154.0","battery-v0.2","","""event"",""trial"",""time""
""fullscreenenter"",""1"",""3102""
","
","
","""event"",""trial"",""time""
""fullscreenenter"",""1"",""3102""
","
","","","1119","","","22","10882","5188","j","elianto","#f73b6a7A"," "," ","1","0","[1970]","1","3","","","10882","149","0","3","lose","go","0"
"pit-trial","269","1644983","0.0-155.0","battery-v0.2","","""event"",""trial"",""time""
""fullscreenenter"",""1"",""3102""
","
","
","""event"",""trial"",""time""
""fullscreenenter"",""1"",""3102""
","
","","","1844.9999999997672","","","22","10882","5188","d","elianto","#3366ff99","-1"," ","0","0","[2695]","1","3","","","10882","150","1","2","win","no-go","0"
"pit-trial","270","1649839","0.0-156.0","battery-v0.2","","""event"",""trial"",""time""
""fullscreenenter"",""1"",""3102""
","
","
","""event"",""trial"",""time""
""fullscreenenter"",""1"",""3102""
","
","","","-1","","","22","10882","5188","w","elianto","#f73b6a7A","-1","-1","1","0","[]","0","3","","","10882","151","3","4","lose","no-go","0"
"pit-trial","271","1653884","0.0-157.0","battery-v0.2","","""event"",""trial"",""time""
""fullscreenenter"",""1"",""3102""
","
","
","""event"",""trial"",""time""
""fullscreenenter"",""1"",""3102""
","
","","","1189","","","22","10882","5188","e","elianto","#f73b6a7A"," "," ","1","0","[2040]","1","3","","","10882","152","2","3","lose","go","0"
"pit-trial","272","1658740","0.0-158.0","battery-v0.2","","""event"",""trial"",""time""
""fullscreenenter"",""1"",""3102""
","
","
","""event"",""trial"",""time""
""fullscreenenter"",""1"",""3102""
","
","","","-1","","","22","10882","5188","d","elianto","#3366ff99","-1","-1","1","+10","[2961]","1","3","","","10882","153","1","2","win","no-go","0"
"pit-trial","273","1662957","0.0-159.0","battery-v0.2","","""event"",""trial"",""time""
""fullscreenenter"",""1"",""3102""
","
","
","""event"",""trial"",""time""
""fullscreenenter"",""1"",""3102""
","
","","","1360.0000000002328","","","22","10882","5188","e","elianto","#f73b6a7A"," "," ","1","0","[2211.000000000233]","1","3","","","10882","154","2","3","lose","go","0"
"pit-trial","274","1666979","0.0-160.0","battery-v0.2","","""event"",""trial"",""time""
""fullscreenenter"",""1"",""3102""
","
","
","""event"",""trial"",""time""
""fullscreenenter"",""1"",""3102""
","
