"trial_type","trial_index","time_elapsed","internal_node_id","task_version","subject_id","interactions","blur_events","focus_events","fullscreenenter_events","fullscreenexit_events","success","view_history","rt","responses","num_errors","age","subject","participantId","rune","rune_set","hex","correct","choice","accuracy","outcome","keys","total_keys","block","practice","value","sub","trial","stimulus","robot","valence","action","sham"
"pavlovia","0","15","0.0-0.0","battery-v0.2","","""event"",""trial"",""time""
""fullscreenenter"",""1"",""4511""
","
","
","""event"",""trial"",""time""
""fullscreenenter"",""1"",""4511""
","
","","","","","","","","","","","","","","","","","","","","","","","","","","",""
"fullscreen","1","5476","0.0-1.0","battery-v0.2","","""event"",""trial"",""time""
""fullscreenenter"",""1"",""4511""
","
","
","""event"",""trial"",""time""
""fullscreenenter"",""1"",""4511""
","
","true","","","","","","","","","","","","","","","","","","","","","","","","","",""
"pit-instructions","2","11052","0.0-2.0-0.0","battery-v0.2","","""event"",""trial"",""time""
""fullscreenenter"",""1"",""4511""
","
","
","""event"",""trial"",""time""
""fullscreenenter"",""1"",""4511""
","
","","[{""page_index"":0,""viewing_time"":5570.800000011921}]","5571.600000023842","","","","","","","","","","","","","","","","","","","","","","","",""
"pit-comprehension","3","13653","0.0-2.0-1.0-0.0","battery-v0.2","","""event"",""trial"",""time""
""fullscreenenter"",""1"",""4511""
","
","
","""event"",""trial"",""time""
""fullscreenenter"",""1"",""4511""
","
","","","2595.899999976158","[""shark""]","0","18","10629","4987","","","","","","","","","","","","","","","","","","",""
"pit-instructions","4","16074","0.0-2.0-1.0-1.0","battery-v0.2","","""event"",""trial"",""time""
""fullscreenenter"",""1"",""4511""
","
","
","""event"",""trial"",""time""
""fullscreenenter"",""1"",""4511""
","
","","[{""page_index"":0,""viewing_time"":2407}]","2407.5","","","","","","","","","","","","","","","","","","","","","","","",""
"pit-comprehension","5","20221","0.0-2.0-2.0-0.0","battery-v0.2","","""event"",""trial"",""time""
""fullscreenenter"",""1"",""4511""
","
","
","""event"",""trial"",""time""
""fullscreenenter"",""1"",""4511""
","
","","","4142.800000011921","[""tiger""]","0","18","10629","4987","","","","","","","","","","","","","","","","","","",""
"pit-instructions","6","21252","0.0-2.0-2.0-1.0","battery-v0.2","","""event"",""trial"",""time""
""fullscreenenter"",""1"",""4511""
","
","
","""event"",""trial"",""time""
""fullscreenenter"",""1"",""4511""
","
","","[{""page_index"":0,""viewing_time"":1026.699999988079}]","1027.300000011921","","","","","","","","","","","","","","","","","","","","","","","",""
"pit-instructions","7","124233","0.0-2.0-3.0","battery-v0.2","","""event"",""trial"",""time""
""fullscreenenter"",""1"",""4511""
","
","
","""event"",""trial"",""time""
""fullscreenenter"",""1"",""4511""
","
","","[{""page_index"":0,""viewing_time"":9507.899999976158},{""page_index"":1,""viewing_time"":7126.800000011921},{""page_index"":2,""viewing_time"":6067.099999964237},{""page_index"":3,""viewing_time"":5084.700000047684},{""page_index"":4,""viewing_time"":6477.799999952316},{""page_index"":5,""viewing_time"":6101},{""page_index"":6,""viewing_time"":7499.900000035763},{""page_index"":7,""viewing_time"":7273.199999988079},{""page_index"":8,""viewing_time"":9167.699999988079},{""page_index"":9,""viewing_time"":8711},{""page_index"":10,""viewing_time"":8591.699999988079},{""page_index"":11,""viewing_time"":8083.700000047684},{""page_index"":12,""viewing_time"":7866.5},{""page_index"":13,""viewing_time"":5411.599999964237}]","102971.29999995232","","","","","","","","","","","","","","","","","","","","","","","",""
"pit-trial","8","127613","0.0-2.0-4.0-0.0","battery-v0.2","","""event"",""trial"",""time""
""fullscreenenter"",""1"",""4511""
","
","
","""event"",""trial"",""time""
""fullscreenenter"",""1"",""4511""
","
","","","514","","","18","10629","4987","&#9784;","elianto","#FFFFF080"," "," ","1","&#10004","[1369]","1","0","0","","","","","","","",""
"pit-trial","9","130949","0.0-2.0-4.1-0.1","battery-v0.2","","""event"",""trial"",""time""
""fullscreenenter"",""1"",""4511""
","
","
","""event"",""trial"",""time""
""fullscreenenter"",""1"",""4511""
","
","","","468.60000002384186","","","18","10629","4987","&#9784;","elianto","#FFFFF080"," "," ","1","&#10004","[1325.5999999642372]","1","0","0","","","","","","","",""
"pit-trial","10","134106","0.0-2.0-4.2-0.2","battery-v0.2","","""event"",""trial"",""time""
""fullscreenenter"",""1"",""4511""
","
","
","""event"",""trial"",""time""
""fullscreenenter"",""1"",""4511""
","
","","","299.10000002384186","","","18","10629","4987","&#9784;","elianto","#FFFFF080"," "," ","1","&#10004","[1151.8999999761581]","1","0","0","","","","","","","",""
"pit-trial","11","137687","0.0-2.0-4.3-0.3","battery-v0.2","","""event"",""trial"",""time""
""fullscreenenter"",""1"",""4511""
","
","
","""event"",""trial"",""time""
""fullscreenenter"",""1"",""4511""
","
","","","723.5999999642372","","","18","10629","4987","&#9784;","elianto","#FFFFF080"," "," ","1","&#10004","[1575]","1","0","0","","","","","","","",""
"pit-trial","12","142419","0.0-2.0-4.4-0.4","battery-v0.2","","""event"",""trial"",""time""
""fullscreenenter"",""1"",""4511""
","
","
","""event"",""trial"",""time""
""fullscreenenter"",""1"",""4511""
","
","","","1867.300000011921","","","18","10629","4987","&#9784;","elianto","#FFFFF080"," "," ","1","&#10004","[2719.599999964237,3759.5]","2","0","0","","","","","","","",""
"pit-instructions","13","166743","0.0-2.0-5.0","battery-v0.2","","""event"",""trial"",""time""
""fullscreenenter"",""1"",""4511""
","
","
","""event"",""trial"",""time""
""fullscreenenter"",""1"",""4511""
","
","","[{""page_index"":0,""viewing_time"":5335.800000011921},{""page_index"":1,""viewing_time"":6049},{""page_index"":2,""viewing_time"":6625.699999988079},{""page_index"":3,""viewing_time"":6309.399999976158}]","24320.80000001192","","","","","","","","","","","","","","","","","","","","","","","",""
"pit-trial","14","171620","0.0-2.0-6.0-0.0","battery-v0.2","","""event"",""trial"",""time""
""fullscreenenter"",""1"",""4511""
","
","
","""event"",""trial"",""time""
""fullscreenenter"",""1"",""4511""
","
","","","-1","","","18","10629","4987","&#9854;","elianto","#FFFFF080","-1","-1","1","&#10004","[]","0","0","1","","","","","","","",""
"pit-trial","15","176485","0.0-2.0-6.1-0.1","battery-v0.2","","""event"",""trial"",""time""
""fullscreenenter"",""1"",""4511""
","
","
","""event"",""trial"",""time""
""fullscreenenter"",""1"",""4511""
","
","","","-1","","","18","10629","4987","&#9854;","elianto","#FFFFF080","-1","-1","1","&#10004","[]","0","0","1","","","","","","","",""
"pit-trial","16","181349","0.0-2.0-6.2-0.2","battery-v0.2","","""event"",""trial"",""time""
""fullscreenenter"",""1"",""4511""
","
","
","""event"",""trial"",""time""
""fullscreenenter"",""1"",""4511""
","
","","","-1","","","18","10629","4987","&#9854;","elianto","#FFFFF080","-1","-1","1","&#10004","[]","0","0","1","","","","","","","",""
"pit-trial","17","186222","0.0-2.0-6.3-0.3","battery-v0.2","","""event"",""trial"",""time""
""fullscreenenter"",""1"",""4511""
","
","
","""event"",""trial"",""time""
""fullscreenenter"",""1"",""4511""
","
","","","-1","","","18","10629","4987","&#9854;","elianto","#FFFFF080","-1","-1","1","&#10004","[]","0","0","1","","","","","","","",""
"pit-trial","18","191086","0.0-2.0-6.4-0.4","battery-v0.2","","""event"",""trial"",""time""
""fullscreenenter"",""1"",""4511""
","
","
","""event"",""trial"",""time""
""fullscreenenter"",""1"",""4511""
","
","","","-1","","","18","10629","4987","&#9854;","elianto","#FFFFF080","-1","-1","1","&#10004","[]","0","0","1","","","","","","","",""
"pit-instructions","19","309984","0.0-2.0-7.0","battery-v0.2","","""event"",""trial"",""time""
""fullscreenenter"",""1"",""4511""
","
","
","""event"",""trial"",""time""
""fullscreenenter"",""1"",""4511""
","
","","[{""page_index"":0,""viewing_time"":8515.5},{""page_index"":1,""viewing_time"":6441.5},{""page_index"":2,""viewing_time"":5765.800000011921},{""page_index"":3,""viewing_time"":6074.300000011921},{""page_index"":4,""viewing_time"":5504.5},{""page_index"":5,""viewing_time"":5516},{""page_index"":6,""viewing_time"":4845.699999988079},{""page_index"":7,""viewing_time"":7269.899999976158},{""page_index"":8,""viewing_time"":6519.300000011921},{""page_index"":9,""viewing_time"":7437.600000023842},{""page_index"":10,""viewing_time"":7996.5},{""page_index"":11,""viewing_time"":4887.899999976158},{""page_index"":12,""viewing_time"":6625.100000023842},{""page_index"":13,""viewing_time"":7183.099999964237},{""page_index"":14,""viewing_time"":7324.199999988079},{""page_index"":15,""viewing_time"":7069.800000011921},{""page_index"":16,""viewing_time"":6957.100000023842},{""page_index"":17,""viewing_time"":6960.699999988079}]","118895.19999998808","","","","","","","","","","","","","","","","","","","","","","","",""
"pit-trial","20","313548","0.0-2.0-8.0-0.0","battery-v0.2","","""event"",""trial"",""time""
""fullscreenenter"",""1"",""4511""
","
","
","""event"",""trial"",""time""
""fullscreenenter"",""1"",""4511""
","
","","","699.1999999880791","","","18","10629","4987","&#9776;","elianto","#3366ff99"," "," ","1","+10","[1553.0999999642372]","1","0","1","","","","","","","",""
"pit-trial","21","316850","0.0-2.0-8.0-1.0","battery-v0.2","","""event"",""trial"",""time""
""fullscreenenter"",""1"",""4511""
","
","
","""event"",""trial"",""time""
""fullscreenenter"",""1"",""4511""
","
","","","442.0999999642372","","","18","10629","4987","&#9776;","elianto","#3366ff99"," "," ","1","+10","[1294.6000000238419]","1","0","1","","","","","","","",""
"pit-trial","22","320152","0.0-2.0-8.0-2.0","battery-v0.2","","""event"",""trial"",""time""
""fullscreenenter"",""1"",""4511""
","
","
","""event"",""trial"",""time""
""fullscreenenter"",""1"",""4511""
","
","","","445.80000001192093","","","18","10629","4987","&#9776;","elianto","#3366ff99"," "," ","1","+10","[1296.7000000476837]","1","0","1","","","","","","","",""
"pit-trial","23","323498","0.0-2.0-8.0-3.0","battery-v0.2","","""event"",""trial"",""time""
""fullscreenenter"",""1"",""4511""
","
","
","""event"",""trial"",""time""
""fullscreenenter"",""1"",""4511""
","
","","","480.89999997615814","","","18","10629","4987","&#9776;","elianto","#3366ff99"," "," ","1","0","[1334.3999999761581]","1","0","1","","","","","","","",""
"pit-trial","24","326776","0.0-2.0-8.0-4.0","battery-v0.2","","""event"",""trial"",""time""
""fullscreenenter"",""1"",""4511""
","
","
","""event"",""trial"",""time""
""fullscreenenter"",""1"",""4511""
","
","","","422.69999998807907","","","18","10629","4987","&#9776;","elianto","#3366ff99"," "," ","1","+10","[1276]","1","0","1","","","","","","","",""
"pit-trial","25","330102","0.0-2.0-8.1-0.1","battery-v0.2","","""event"",""trial"",""time""
""fullscreenenter"",""1"",""4511""
","
","
","""event"",""trial"",""time""
""fullscreenenter"",""1"",""4511""
","
","","","452.39999997615814","","","18","10629","4987","&#9776;","elianto","#3366ff99"," "," ","1","+10","[1310]","1","0","1","","","","","","","",""
"pit-trial","26","333363","0.0-2.0-8.1-1.1","battery-v0.2","","""event"",""trial"",""time""
""fullscreenenter"",""1"",""4511""
","
","
","""event"",""trial"",""time""
""fullscreenenter"",""1"",""4511""
","
","","","397.10000002384186","","","18","10629","4987","&#9776;","elianto","#3366ff99"," "," ","1","+10","[1248.699999988079]","1","0","1","","","","","","","",""
"pit-trial","27","336903","0.0-2.0-8.1-2.1","battery-v0.2","","""event"",""trial"",""time""
""fullscreenenter"",""1"",""4511""
","
","
","""event"",""trial"",""time""
""fullscreenenter"",""1"",""4511""
","
","","","675.7999999523163","","","18","10629","4987","&#9776;","elianto","#3366ff99"," "," ","1","+10","[1531.0999999642372]","1","0","1","","","","","","","",""
"pit-trial","28","340335","0.0-2.0-8.1-3.1","battery-v0.2","","""event"",""trial"",""time""
""fullscreenenter"",""1"",""4511""
","
","
","""event"",""trial"",""time""
""fullscreenenter"",""1"",""4511""
","
","","","563.2999999523163","","","18","10629","4987","&#9776;","elianto","#3366ff99"," "," ","1","0","[1414.800000011921]","1","0","1","","","","","","","",""
"pit-trial","29","343880","0.0-2.0-8.1-4.1","battery-v0.2","","""event"",""trial"",""time""
""fullscreenenter"",""1"",""4511""
","
","
","""event"",""trial"",""time""
""fullscreenenter"",""1"",""4511""
","
","","","689.9000000357628","","","18","10629","4987","&#9776;","elianto","#3366ff99"," "," ","1","+10","[1540.699999988079]","1","0","1","","","","","","","",""
"pit-trial","30","347197","0.0-2.0-8.2-0.2","battery-v0.2","","""event"",""trial"",""time""
""fullscreenenter"",""1"",""4511""
","
","
","""event"",""trial"",""time""
""fullscreenenter"",""1"",""4511""
","
","","","448.69999998807907","","","18","10629","4987","&#9776;","elianto","#3366ff99"," "," ","1","+10","[1299.199999988079,2914.300000011921]","2","0","1","","","","","","","",""
"pit-trial","31","350403","0.0-2.0-8.2-1.2","battery-v0.2","","""event"",""trial"",""time""
""fullscreenenter"",""1"",""4511""
","
","
","""event"",""trial"",""time""
""fullscreenenter"",""1"",""4511""
","
","","","349.5","","","18","10629","4987","&#9776;","elianto","#3366ff99"," "," ","1","+10","[1203.199999988079,2432.400000035763]","2","0","1","","","","","","","",""
"pit-trial","32","354092","0.0-2.0-8.2-2.2","battery-v0.2","","""event"",""trial"",""time""
""fullscreenenter"",""1"",""4511""
","
","
","""event"",""trial"",""time""
""fullscreenenter"",""1"",""4511""
","
","","","833.3999999761581","","","18","10629","4987","&#9776;","elianto","#3366ff99"," "," ","1","+10","[47.19999998807907,1683.4000000357628,2557.900000035763]","3","0","1","","","","","","","",""
"pit-trial","33","357031","0.0-2.0-8.2-3.2","battery-v0.2","","""event"",""trial"",""time""
""fullscreenenter"",""1"",""4511""
","
","
","""event"",""trial"",""time""
""fullscreenenter"",""1"",""4511""
","
","","","78.90000003576279","","","18","10629","4987","&#9776;","elianto","#3366ff99"," "," ","1","0","[929.6000000238419,2033.8999999761581]","2","0","1","","","","","","","",""
"pit-trial","34","360377","0.0-2.0-8.2-4.2","battery-v0.2","","""event"",""trial"",""time""
""fullscreenenter"",""1"",""4511""
","
","
","""event"",""trial"",""time""
""fullscreenenter"",""1"",""4511""
","
","","","484.69999998807907","","","18","10629","4987","&#9776;","elianto","#3366ff99"," "," ","1","+10","[262.0999999642372,1337.699999988079,2218.099999964237]","3","0","1","","","","","","","",""
"call-function","35","360379","0.0-2.0-9.0","battery-v0.2","","""event"",""trial"",""time""
""fullscreenenter"",""1"",""4511""
","
","
","""event"",""trial"",""time""
""fullscreenenter"",""1"",""4511""
","
","","","","","","","","","","","","","","","","","","","","","","","","","","",""
"pit-instructions","36","399631","0.0-2.0-10.0","battery-v0.2","","""event"",""trial"",""time""
""fullscreenenter"",""1"",""4511""
","
","
","""event"",""trial"",""time""
""fullscreenenter"",""1"",""4511""
","
","","[{""page_index"":0,""viewing_time"":5954.400000035763},{""page_index"":1,""viewing_time"":7347.399999976158},{""page_index"":2,""viewing_time"":9403.100000023842},{""page_index"":3,""viewing_time"":8835.800000011921},{""page_index"":4,""viewing_time"":7710.5}]","39252","","","","","","","","","","","","","","","","","","","","","","","",""
"pit-trial","37","404490","0.0-2.0-11.0-0.0","battery-v0.2","","""event"",""trial"",""time""
""fullscreenenter"",""1"",""4511""
","
","
","""event"",""trial"",""time""
""fullscreenenter"",""1"",""4511""
","
","","","-1","","","18","10629","4987","&#9761;","elianto","#3366ff99","-1","-1","1","+10","[]","0","0","2","","","","","","","",""
"pit-trial","38","409358","0.0-2.0-11.0-1.0","battery-v0.2","","""event"",""trial"",""time""
""fullscreenenter"",""1"",""4511""
","
","
","""event"",""trial"",""time""
""fullscreenenter"",""1"",""4511""
","
","","","-1","","","18","10629","4987","&#9761;","elianto","#3366ff99","-1","-1","1","+10","[]","0","0","2","","","","","","","",""
"pit-trial","39","414227","0.0-2.0-11.0-2.0","battery-v0.2","","""event"",""trial"",""time""
""fullscreenenter"",""1"",""4511""
","
","
","""event"",""trial"",""time""
""fullscreenenter"",""1"",""4511""
","
","","","-1","","","18","10629","4987","&#9761;","elianto","#3366ff99","-1","-1","1","+10","[]","0","0","2","","","","","","","",""
"pit-trial","40","419085","0.0-2.0-11.0-3.0","battery-v0.2","","""event"",""trial"",""time""
""fullscreenenter"",""1"",""4511""
","
","
","""event"",""trial"",""time""
""fullscreenenter"",""1"",""4511""
","
","","","-1","","","18","10629","4987","&#9761;","elianto","#3366ff99","-1","-1","1","0","[]","0","0","2","","","","","","","",""
"pit-trial","41","423941","0.0-2.0-11.0-4.0","battery-v0.2","","""event"",""trial"",""time""
""fullscreenenter"",""1"",""4511""
","
","
","""event"",""trial"",""time""
""fullscreenenter"",""1"",""4511""
","
","","","-1","","","18","10629","4987","&#9761;","elianto","#3366ff99","-1","-1","1","+10","[]","0","0","2","","","","","","","",""
"pit-trial","42","428813","0.0-2.0-11.1-0.1","battery-v0.2","","""event"",""trial"",""time""
""fullscreenenter"",""1"",""4511""
","
","
","""event"",""trial"",""time""
""fullscreenenter"",""1"",""4511""
","
","","","-1","","","18","10629","4987","&#9761;","elianto","#3366ff99","-1","-1","1","+10","[]","0","0","2","","","","","","","",""
"pit-trial","43","433674","0.0-2.0-11.1-1.1","battery-v0.2","","""event"",""trial"",""time""
""fullscreenenter"",""1"",""4511""
","
","
","""event"",""trial"",""time""
""fullscreenenter"",""1"",""4511""
","
","","","-1","","","18","10629","4987","&#9761;","elianto","#3366ff99","-1","-1","1","+10","[]","0","0","2","","","","","","","",""
"pit-trial","44","438538","0.0-2.0-11.1-2.1","battery-v0.2","","""event"",""trial"",""time""
""fullscreenenter"",""1"",""4511""
","
","
","""event"",""trial"",""time""
""fullscreenenter"",""1"",""4511""
","
","","","-1","","","18","10629","4987","&#9761;","elianto","#3366ff99","-1","-1","1","+10","[]","0","0","2","","","","","","","",""
"pit-trial","45","443400","0.0-2.0-11.1-3.1","battery-v0.2","","""event"",""trial"",""time""
""fullscreenenter"",""1"",""4511""
","
","
","""event"",""trial"",""time""
""fullscreenenter"",""1"",""4511""
","
","","","-1","","","18","10629","4987","&#9761;","elianto","#3366ff99","-1","-1","1","0","[]","0","0","2","","","","","","","",""
"pit-trial","46","448272","0.0-2.0-11.1-4.1","battery-v0.2","","""event"",""trial"",""time""
""fullscreenenter"",""1"",""4511""
","
","
","""event"",""trial"",""time""
""fullscreenenter"",""1"",""4511""
","
","","","-1","","","18","10629","4987","&#9761;","elianto","#3366ff99","-1","-1","1","+10","[]","0","0","2","","","","","","","",""
"pit-trial","47","453141","0.0-2.0-11.2-0.2","battery-v0.2","","""event"",""trial"",""time""
""fullscreenenter"",""1"",""4511""
","
","
","""event"",""trial"",""time""
""fullscreenenter"",""1"",""4511""
","
","","","-1","","","18","10629","4987","&#9761;","elianto","#3366ff99","-1","-1","1","+10","[]","0","0","2","","","","","","","",""
"pit-trial","48","458007","0.0-2.0-11.2-1.2","battery-v0.2","","""event"",""trial"",""time""
""fullscreenenter"",""1"",""4511""
","
","
","""event"",""trial"",""time""
""fullscreenenter"",""1"",""4511""
","
","","","-1","","","18","10629","4987","&#9761;","elianto","#3366ff99","-1","-1","1","+10","[]","0","0","2","","","","","","","",""
"pit-trial","49","462872","0.0-2.0-11.2-2.2","battery-v0.2","","""event"",""trial"",""time""
""fullscreenenter"",""1"",""4511""
","
","
","""event"",""trial"",""time""
""fullscreenenter"",""1"",""4511""
","
","","","-1","","","18","10629","4987","&#9761;","elianto","#3366ff99","-1","-1","1","+10","[]","0","0","2","","","","","","","",""
"pit-trial","50","467734","0.0-2.0-11.2-3.2","battery-v0.2","","""event"",""trial"",""time""
""fullscreenenter"",""1"",""4511""
","
","
","""event"",""trial"",""time""
""fullscreenenter"",""1"",""4511""
","
","","","-1","","","18","10629","4987","&#9761;","elianto","#3366ff99","-1","-1","1","0","[]","0","0","2","","","","","","","",""
"pit-trial","51","472602","0.0-2.0-11.2-4.2","battery-v0.2","","""event"",""trial"",""time""
""fullscreenenter"",""1"",""4511""
","
","
","""event"",""trial"",""time""
""fullscreenenter"",""1"",""4511""
","
","","","-1","","","18","10629","4987","&#9761;","elianto","#3366ff99","-1","-1","1","+10","[]","0","0","2","","","","","","","",""
"pit-trial","52","477467","0.0-2.0-11.3-0.3","battery-v0.2","","""event"",""trial"",""time""
""fullscreenenter"",""1"",""4511""
","
","
","""event"",""trial"",""time""
""fullscreenenter"",""1"",""4511""
","
","","","-1","","","18","10629","4987","&#9761;","elianto","#3366ff99","-1","-1","1","+10","[]","0","0","2","","","","","","","",""
"pit-trial","53","482334","0.0-2.0-11.3-1.3","battery-v0.2","","""event"",""trial"",""time""
""fullscreenenter"",""1"",""4511""
","
","
","""event"",""trial"",""time""
""fullscreenenter"",""1"",""4511""
","
","","","-1","","","18","10629","4987","&#9761;","elianto","#3366ff99","-1","-1","1","+10","[]","0","0","2","","","","","","","",""
"pit-trial","54","487203","0.0-2.0-11.3-2.3","battery-v0.2","","""event"",""trial"",""time""
""fullscreenenter"",""1"",""4511""
","
","
","""event"",""trial"",""time""
""fullscreenenter"",""1"",""4511""
","
","","","-1","","","18","10629","4987","&#9761;","elianto","#3366ff99","-1","-1","1","+10","[]","0","0","2","","","","","","","",""
"pit-trial","55","492061","0.0-2.0-11.3-3.3","battery-v0.2","","""event"",""trial"",""time""
""fullscreenenter"",""1"",""4511""
","
","
","""event"",""trial"",""time""
""fullscreenenter"",""1"",""4511""
","
","","","-1","","","18","10629","4987","&#9761;","elianto","#3366ff99","-1","-1","1","0","[]","0","0","2","","","","","","","",""
"pit-trial","56","496930","0.0-2.0-11.3-4.3","battery-v0.2","","""event"",""trial"",""time""
""fullscreenenter"",""1"",""4511""
","
","
","""event"",""trial"",""time""
""fullscreenenter"",""1"",""4511""
","
","","","-1","","","18","10629","4987","&#9761;","elianto","#3366ff99","-1","-1","1","+10","[]","0","0","2","","","","","","","",""
"call-function","57","496932","0.0-2.0-12.0","battery-v0.2","","""event"",""trial"",""time""
""fullscreenenter"",""1"",""4511""
","
","
","""event"",""trial"",""time""
""fullscreenenter"",""1"",""4511""
","
","","","","","","","","","","","","","","","","","","","","","","","","","","",""
"pit-instructions","58","527642","0.0-2.0-13.0","battery-v0.2","","""event"",""trial"",""time""
""fullscreenenter"",""1"",""4511""
","
","
","""event"",""trial"",""time""
""fullscreenenter"",""1"",""4511""
","
","","[{""page_index"":0,""viewing_time"":5791.100000023842},{""page_index"":1,""viewing_time"":6153.099999964237},{""page_index"":2,""viewing_time"":3290},{""page_index"":3,""viewing_time"":10956.700000047684},{""page_index"":4,""viewing_time"":4517.599999964237}]","30709.100000023842","","","","","","","","","","","","","","","","","","","","","","","",""
"pit-trial","59","530665","0.0-2.0-14.0-0.0","battery-v0.2","","""event"",""trial"",""time""
""fullscreenenter"",""1"",""4511""
","
","
","""event"",""trial"",""time""
""fullscreenenter"",""1"",""4511""
","
","","","157.39999997615814","","","18","10629","4987","&#9826;","elianto","#f73b6a7A","-1"," ","0","-10","[339.5,578.1000000238419,810,1010.6000000238419,1203.6000000238419,2085.2000000476837,2553,2825.800000011921]","8","0","3","","","","","","","",""
"pit-trial","60","533956","0.0-2.0-14.0-1.0","battery-v0.2","","""event"",""trial"",""time""
""fullscreenenter"",""1"",""4511""
","
","
","""event"",""trial"",""time""
""fullscreenenter"",""1"",""4511""
","
","","","432.2999999523163","","","18","10629","4987","&#9826;","elianto","#f73b6a7A","-1"," ","0","-10","[59,312.7999999523163,538.3999999761581,788.3999999761581,1283.2999999523163]","5","0","3","","","","","","","",""
"pit-trial","61","538815","0.0-2.0-14.0-2.0","battery-v0.2","","""event"",""trial"",""time""
""fullscreenenter"",""1"",""4511""
","
","
","""event"",""trial"",""time""
""fullscreenenter"",""1"",""4511""
","
","","","-1","","","18","10629","4987","&#9826;","elianto","#f73b6a7A","-1","-1","1","0","[]","0","0","3","","","","","","","",""
"pit-trial","62","543676","0.0-2.0-14.0-3.0","battery-v0.2","","""event"",""trial"",""time""
""fullscreenenter"",""1"",""4511""
","
","
","""event"",""trial"",""time""
""fullscreenenter"",""1"",""4511""
","
","","","-1","","","18","10629","4987","&#9826;","elianto","#f73b6a7A","-1","-1","1","-10","[]","0","0","3","","","","","","","",""
"pit-trial","63","548547","0.0-2.0-14.0-4.0","battery-v0.2","","""event"",""trial"",""time""
""fullscreenenter"",""1"",""4511""
","
","
","""event"",""trial"",""time""
""fullscreenenter"",""1"",""4511""
","
","","","-1","","","18","10629","4987","&#9826;","elianto","#f73b6a7A","-1","-1","1","0","[]","0","0","3","","","","","","","",""
"pit-trial","64","553416","0.0-2.0-14.1-0.1","battery-v0.2","","""event"",""trial"",""time""
""fullscreenenter"",""1"",""4511""
","
","
","""event"",""trial"",""time""
""fullscreenenter"",""1"",""4511""
","
","","","-1","","","18","10629","4987","&#9826;","elianto","#f73b6a7A","-1","-1","1","0","[]","0","0","3","","","","","","","",""
"pit-trial","65","558283","0.0-2.0-14.1-1.1","battery-v0.2","","""event"",""trial"",""time""
""fullscreenenter"",""1"",""4511""
","
","
","""event"",""trial"",""time""
""fullscreenenter"",""1"",""4511""
","
","","","-1","","","18","10629","4987","&#9826;","elianto","#f73b6a7A","-1","-1","1","0","[]","0","0","3","","","","","","","",""
"pit-trial","66","563146","0.0-2.0-14.1-2.1","battery-v0.2","","""event"",""trial"",""time""
""fullscreenenter"",""1"",""4511""
","
","
","""event"",""trial"",""time""
""fullscreenenter"",""1"",""4511""
","
","","","-1","","","18","10629","4987","&#9826;","elianto","#f73b6a7A","-1","-1","1","0","[]","0","0","3","","","","","","","",""
"pit-trial","67","568011","0.0-2.0-14.1-3.1","battery-v0.2","","""event"",""trial"",""time""
""fullscreenenter"",""1"",""4511""
","
","
","""event"",""trial"",""time""
""fullscreenenter"",""1"",""4511""
","
","","","-1","","","18","10629","4987","&#9826;","elianto","#f73b6a7A","-1","-1","1","-10","[]","0","0","3","","","","","","","",""
"pit-trial","68","572884","0.0-2.0-14.1-4.1","battery-v0.2","","""event"",""trial"",""time""
""fullscreenenter"",""1"",""4511""
","
","
","""event"",""trial"",""time""
""fullscreenenter"",""1"",""4511""
","
","","","-1","","","18","10629","4987","&#9826;","elianto","#f73b6a7A","-1","-1","1","0","[]","0","0","3","","","","","","","",""
"pit-trial","69","577749","0.0-2.0-14.2-0.2","battery-v0.2","","""event"",""trial"",""time""
""fullscreenenter"",""1"",""4511""
","
","
","""event"",""trial"",""time""
""fullscreenenter"",""1"",""4511""
","
","","","-1","","","18","10629","4987","&#9826;","elianto","#f73b6a7A","-1","-1","1","0","[]","0","0","3","","","","","","","",""
"pit-trial","70","582615","0.0-2.0-14.2-1.2","battery-v0.2","","""event"",""trial"",""time""
""fullscreenenter"",""1"",""4511""
","
","
","""event"",""trial"",""time""
""fullscreenenter"",""1"",""4511""
","
","","","-1","","","18","10629","4987","&#9826;","elianto","#f73b6a7A","-1","-1","1","0","[]","0","0","3","","","","","","","",""
"pit-trial","71","587475","0.0-2.0-14.2-2.2","battery-v0.2","","""event"",""trial"",""time""
""fullscreenenter"",""1"",""4511""
","
","
","""event"",""trial"",""time""
""fullscreenenter"",""1"",""4511""
","
","","","-1","","","18","10629","4987","&#9826;","elianto","#f73b6a7A","-1","-1","1","0","[]","0","0","3","","","","","","","",""
"pit-trial","72","592348","0.0-2.0-14.2-3.2","battery-v0.2","","""event"",""trial"",""time""
""fullscreenenter"",""1"",""4511""
","
","
","""event"",""trial"",""time""
""fullscreenenter"",""1"",""4511""
","
","","","-1","","","18","10629","4987","&#9826;","elianto","#f73b6a7A","-1","-1","1","-10","[]","0","0","3","","","","","","","",""
"pit-trial","73","597217","0.0-2.0-14.2-4.2","battery-v0.2","","""event"",""trial"",""time""
""fullscreenenter"",""1"",""4511""
","
","
","""event"",""trial"",""time""
""fullscreenenter"",""1"",""4511""
","
","","","-1","","","18","10629","4987","&#9826;","elianto","#f73b6a7A","-1","-1","1","0","[]","0","0","3","","","","","","","",""
"pit-trial","74","602072","0.0-2.0-14.3-0.3","battery-v0.2","","""event"",""trial"",""time""
""fullscreenenter"",""1"",""4511""
","
","
","""event"",""trial"",""time""
""fullscreenenter"",""1"",""4511""
","
","","","-1","","","18","10629","4987","&#9826;","elianto","#f73b6a7A","-1","-1","1","0","[]","0","0","3","","","","","","","",""
"pit-trial","75","606928","0.0-2.0-14.3-1.3","battery-v0.2","","""event"",""trial"",""time""
""fullscreenenter"",""1"",""4511""
","
","
","""event"",""trial"",""time""
""fullscreenenter"",""1"",""4511""
","
","","","-1","","","18","10629","4987","&#9826;","elianto","#f73b6a7A","-1","-1","1","0","[]","0","0","3","","","","","","","",""
"pit-trial","76","611782","0.0-2.0-14.3-2.3","battery-v0.2","","""event"",""trial"",""time""
""fullscreenenter"",""1"",""4511""
","
","
","""event"",""trial"",""time""
""fullscreenenter"",""1"",""4511""
","
","","","-1","","","18","10629","4987","&#9826;","elianto","#f73b6a7A","-1","-1","1","0","[]","0","0","3","","","","","","","",""
"pit-trial","77","616652","0.0-2.0-14.3-3.3","battery-v0.2","","""event"",""trial"",""time""
""fullscreenenter"",""1"",""4511""
","
","
","""event"",""trial"",""time""
""fullscreenenter"",""1"",""4511""
","
","","","-1","","","18","10629","4987","&#9826;","elianto","#f73b6a7A","-1","-1","1","-10","[]","0","0","3","","","","","","","",""
"pit-trial","78","621528","0.0-2.0-14.3-4.3","battery-v0.2","","""event"",""trial"",""time""
""fullscreenenter"",""1"",""4511""
","
","
","""event"",""trial"",""time""
""fullscreenenter"",""1"",""4511""
","
","","","-1","","","18","10629","4987","&#9826;","elianto","#f73b6a7A","-1","-1","1","0","[]","0","0","3","","","","","","","",""
"call-function","79","621529","0.0-2.0-15.0","battery-v0.2","","""event"",""trial"",""time""
""fullscreenenter"",""1"",""4511""
","
","
","""event"",""trial"",""time""
""fullscreenenter"",""1"",""4511""
","
","","","","","","","","","","","","","","","","","","","","","","","","","","",""
"pit-instructions","80","646530","0.0-2.0-16.0","battery-v0.2","","""event"",""trial"",""time""
""fullscreenenter"",""1"",""4511""
","
","
","""event"",""trial"",""time""
""fullscreenenter"",""1"",""4511""
","
","","[{""page_index"":0,""viewing_time"":6806.799999952316},{""page_index"":1,""viewing_time"":8452.700000047684},{""page_index"":2,""viewing_time"":4582.099999964237},{""page_index"":3,""viewing_time"":5156.900000035763}]","24999.299999952316","","","","","","","","","","","","","","","","","","","","","","","",""
"pit-trial","81","649718","0.0-2.0-17.0-0.0","battery-v0.2","","""event"",""trial"",""time""
""fullscreenenter"",""1"",""4511""
","
","
","""event"",""trial"",""time""
""fullscreenenter"",""1"",""4511""
","
","","","328.89999997615814","","","18","10629","4987","&#9789;","elianto","#f73b6a7A"," "," ","1","0","[1180.5]","1","0","4","","","","","","","",""
"pit-trial","82","653816","0.0-2.0-17.0-1.0","battery-v0.2","","""event"",""trial"",""time""
""fullscreenenter"",""1"",""4511""
","
","
","""event"",""trial"",""time""
""fullscreenenter"",""1"",""4511""
","
","","","1237.0999999642372","","","18","10629","4987","&#9789;","elianto","#f73b6a7A"," "," ","1","0","[121.69999998807907,467.19999998807907,715,2091.199999988079,2429.099999964237,2628.7999999523163,2748.7999999523163,3043.599999964237,3204.7999999523163,3433.7999999523163,3570,3820.899999976158,4086.099999964237]","13","0","4","","","","","","","",""
"pit-trial","83","656857","0.0-2.0-17.0-2.0","battery-v0.2","","""event"",""trial"",""time""
""fullscreenenter"",""1"",""4511""
","
","
","""event"",""trial"",""time""
""fullscreenenter"",""1"",""4511""
","
","","","178","","","18","10629","4987","&#9789;","elianto","#f73b6a7A"," "," ","1","0","[229.20000004768372,433.7000000476837,690.3000000119209,1033.4000000357628,1861.1000000238419,3001.400000035763]","6","0","4","","","","","","","",""
"pit-trial","84","659957","0.0-2.0-17.0-3.0","battery-v0.2","","""event"",""trial"",""time""
""fullscreenenter"",""1"",""4511""
","
","
","""event"",""trial"",""time""
""fullscreenenter"",""1"",""4511""
","
","","","229.5","","","18","10629","4987","&#9789;","elianto","#f73b6a7A"," "," ","1","-10","[1081.800000011921,1938.699999988079,2605.699999988079,3042.300000011921]","4","0","4","","","","","","","",""
"pit-trial","85","662984","0.0-2.0-17.0-4.0","battery-v0.2","","""event"",""trial"",""time""
""fullscreenenter"",""1"",""4511""
","
","
","""event"",""trial"",""time""
""fullscreenenter"",""1"",""4511""
","
","","","159.30000001192093","","","18","10629","4987","&#9789;","elianto","#f73b6a7A"," "," ","1","0","[346.30000001192093,672.5,1014.1999999880791,1349.199999988079,1660.199999988079,2673.699999988079,3010.199999988079]","7","0","4","","","","","","","",""
"pit-trial","86","666208","0.0-2.0-17.1-0.1","battery-v0.2","","""event"",""trial"",""time""
""fullscreenenter"",""1"",""4511""
","
","
","""event"",""trial"",""time""
""fullscreenenter"",""1"",""4511""
","
","","","355.80000001192093","","","18","10629","4987","&#9789;","elianto","#f73b6a7A"," "," ","1","0","[379.10000002384186,771.8000000119209,1212.300000011921,1610.1000000238419,2614.199999988079,2951.800000011921]","6","0","4","","","","","","","",""
"pit-trial","87","669830","0.0-2.0-17.1-1.1","battery-v0.2","","""event"",""trial"",""time""
""fullscreenenter"",""1"",""4511""
","
","
","""event"",""trial"",""time""
""fullscreenenter"",""1"",""4511""
","
","","","758.8000000119209","","","18","10629","4987","&#9789;","elianto","#f73b6a7A"," "," ","1","0","[457.2999999523163,843.7999999523163,1611.2999999523163,1978.0999999642372,2439.5,2959.7999999523163,3412.599999964237]","7","0","4","","","","","","","",""
"pit-trial","88","672924","0.0-2.0-17.1-2.1","battery-v0.2","","""event"",""trial"",""time""
""fullscreenenter"",""1"",""4511""
","
","
","""event"",""trial"",""time""
""fullscreenenter"",""1"",""4511""
","
","","","229.69999998807907","","","18","10629","4987","&#9789;","elianto","#f73b6a7A"," "," ","1","0","[212.5,719.8000000119209,1080.699999988079,1764.4000000357628,2219,2814.300000011921]","6","0","4","","","","","","","",""
"pit-trial","89","676171","0.0-2.0-17.1-3.1","battery-v0.2","","""event"",""trial"",""time""
""fullscreenenter"",""1"",""4511""
","
","
","""event"",""trial"",""time""
""fullscreenenter"",""1"",""4511""
","
","","","382.7999999523163","","","18","10629","4987","&#9789;","elianto","#f73b6a7A"," "," ","1","-10","[162.5,524.4000000357628,1237.199999988079,1647.6000000238419,2146.100000023842,2542.800000011921,3047.300000011921]","7","0","4","","","","","","","",""
"pit-trial","90","679203","0.0-2.0-17.1-4.1","battery-v0.2","","""event"",""trial"",""time""
""fullscreenenter"",""1"",""4511""
","
","
","""event"",""trial"",""time""
""fullscreenenter"",""1"",""4511""
","
","","","170.10000002384186","","","18","10629","4987","&#9789;","elianto","#f73b6a7A"," "," ","1","0","[181.0999999642372,471.5999999642372,786.3999999761581,1021.8999999761581,1271.5,1872.7999999523163,2559.099999964237]","7","0","4","","","","","","","",""
"pit-trial","91","682592","0.0-2.0-17.2-0.2","battery-v0.2","","""event"",""trial"",""time""
""fullscreenenter"",""1"",""4511""
","
","
","""event"",""trial"",""time""
""fullscreenenter"",""1"",""4511""
","
","","","522.6000000238419","","","18","10629","4987","&#9789;","elianto","#f73b6a7A"," "," ","1","0","[102.89999997615814,737.0999999642372,1379.199999988079,1864.699999988079]","4","0","4","","","","","","","",""
"pit-trial","92","686354","0.0-2.0-17.2-1.2","battery-v0.2","","""event"",""trial"",""time""
""fullscreenenter"",""1"",""4511""
","
","
","""event"",""trial"",""time""
""fullscreenenter"",""1"",""4511""
","
","","","904.1999999880791","","","18","10629","4987","&#9789;","elianto","#f73b6a7A"," "," ","1","0","[1756.800000011921,2838.100000023842,3188.300000011921,3760.199999988079]","4","0","4","","","","","","","",""
"pit-trial","93","690044","0.0-2.0-17.2-2.2","battery-v0.2","","""event"",""trial"",""time""
""fullscreenenter"",""1"",""4511""
","
","
","""event"",""trial"",""time""
""fullscreenenter"",""1"",""4511""
","
","","","831.3000000119209","","","18","10629","4987","&#9789;","elianto","#f73b6a7A"," "," ","1","0","[1684.7999999523163,2304,2830.5]","3","0","4","","","","","","","",""
"pit-trial","94","694905","0.0-2.0-17.2-3.2","battery-v0.2","","""event"",""trial"",""time""
""fullscreenenter"",""1"",""4511""
","
","
","""event"",""trial"",""time""
""fullscreenenter"",""1"",""4511""
","
","","","-1","","","18","10629","4987","&#9789;","elianto","#f73b6a7A"," ","-1","0","0","[]","0","0","4","","","","","","","",""
"pit-trial","95","699770","0.0-2.0-17.2-4.2","battery-v0.2","","""event"",""trial"",""time""
""fullscreenenter"",""1"",""4511""
","
","
","""event"",""trial"",""time""
""fullscreenenter"",""1"",""4511""
","
","","","-1","","","18","10629","4987","&#9789;","elianto","#f73b6a7A"," ","-1","0","-10","[]","0","0","4","","","","","","","",""
"pit-trial","96","704640","0.0-2.0-17.3-0.3","battery-v0.2","","""event"",""trial"",""time""
""fullscreenenter"",""1"",""4511""
","
","
","""event"",""trial"",""time""
""fullscreenenter"",""1"",""4511""
","
","","","-1","","","18","10629","4987","&#9789;","elianto","#f73b6a7A"," ","-1","0","-10","[]","0","0","4","","","","","","","",""
"pit-trial","97","709510","0.0-2.0-17.3-1.3","battery-v0.2","","""event"",""trial"",""time""
""fullscreenenter"",""1"",""4511""
","
","
","""event"",""trial"",""time""
""fullscreenenter"",""1"",""4511""
","
","","","-1","","","18","10629","4987","&#9789;","elianto","#f73b6a7A"," ","-1","0","-10","[]","0","0","4","","","","","","","",""
"pit-trial","98","714372","0.0-2.0-17.3-2.3","battery-v0.2","","""event"",""trial"",""time""
""fullscreenenter"",""1"",""4511""
","
","
","""event"",""trial"",""time""
""fullscreenenter"",""1"",""4511""
","
","","","-1","","","18","10629","4987","&#9789;","elianto","#f73b6a7A"," ","-1","0","-10","[]","0","0","4","","","","","","","",""
"pit-trial","99","719241","0.0-2.0-17.3-3.3","battery-v0.2","","""event"",""trial"",""time""
""fullscreenenter"",""1"",""4511""
","
","
","""event"",""trial"",""time""
""fullscreenenter"",""1"",""4511""
","
","","","-1","","","18","10629","4987","&#9789;","elianto","#f73b6a7A"," ","-1","0","0","[]","0","0","4","","","","","","","",""
"pit-trial","100","724106","0.0-2.0-17.3-4.3","battery-v0.2","","""event"",""trial"",""time""
""fullscreenenter"",""1"",""4511""
","
","
","""event"",""trial"",""time""
""fullscreenenter"",""1"",""4511""
","
","","","-1","","","18","10629","4987","&#9789;","elianto","#f73b6a7A"," ","-1","0","-10","[]","0","0","4","","","","","","","",""
"call-function","101","724108","0.0-2.0-18.0","battery-v0.2","","""event"",""trial"",""time""
""fullscreenenter"",""1"",""4511""
","
","
","""event"",""trial"",""time""
""fullscreenenter"",""1"",""4511""
","
","","","","","","","","","","","","","","","","","","","","","","","","","","",""
"pit-instructions","102","785331","0.0-2.0-19.0","battery-v0.2","","""event"",""trial"",""time""
""fullscreenenter"",""1"",""4511""
","
","
","""event"",""trial"",""time""
""fullscreenenter"",""1"",""4511""
","
","","[{""page_index"":0,""viewing_time"":6694.300000011921},{""page_index"":1,""viewing_time"":7977.299999952316},{""page_index"":2,""viewing_time"":8111.900000035763},{""page_index"":3,""viewing_time"":6828.399999976158},{""page_index"":4,""viewing_time"":8571.600000023842},{""page_index"":5,""viewing_time"":8233.599999964237},{""page_index"":6,""viewing_time"":4168.400000035763},{""page_index"":7,""viewing_time"":5974.5},{""page_index"":8,""viewing_time"":4660.699999988079}]","61221.39999997616","","","","","","","","","","","","","","","","","","","","","","","",""
"pit-comprehension","103","789857","0.0-2.0-20.0-0.0","battery-v0.2","","""event"",""trial"",""time""
""fullscreenenter"",""1"",""4511""
","
","
","""event"",""trial"",""time""
""fullscreenenter"",""1"",""4511""
","
","","","4521.899999976158","[""SPACE""]","0","18","10629","4987","","","","","","","","","","","","","","","","","","",""
"pit-instructions","104","794524","0.0-2.0-20.0-1.0","battery-v0.2","","""event"",""trial"",""time""
""fullscreenenter"",""1"",""4511""
","
","
","""event"",""trial"",""time""
""fullscreenenter"",""1"",""4511""
","
","","[{""page_index"":0,""viewing_time"":4588.5}]","4589.100000023842","","","","","","","","","","","","","","","","","","","","","","","",""
"pit-comprehension","105","799454","0.0-2.0-21.0-0.0","battery-v0.2","","""event"",""trial"",""time""
""fullscreenenter"",""1"",""4511""
","
","
","""event"",""trial"",""time""
""fullscreenenter"",""1"",""4511""
","
","","","4924.299999952316","[""10""]","0","18","10629","4987","","","","","","","","","","","","","","","","","","",""
"pit-instructions","106","801315","0.0-2.0-21.0-1.0","battery-v0.2","","""event"",""trial"",""time""
""fullscreenenter"",""1"",""4511""
","
","
","""event"",""trial"",""time""
""fullscreenenter"",""1"",""4511""
","
","","[{""page_index"":0,""viewing_time"":1801.3999999761581}]","1802","","","","","","","","","","","","","","","","","","","","","","","",""
"pit-comprehension","107","807798","0.0-2.0-22.0-0.0","battery-v0.2","","""event"",""trial"",""time""
""fullscreenenter"",""1"",""4511""
","
","
","""event"",""trial"",""time""
""fullscreenenter"",""1"",""4511""
","
","","","6478.599999964237","[""0""]","0","18","10629","4987","","","","","","","","","","","","","","","","","","",""
"pit-instructions","108","810143","0.0-2.0-22.0-1.0","battery-v0.2","","""event"",""trial"",""time""
""fullscreenenter"",""1"",""4511""
","
","
","""event"",""trial"",""time""
""fullscreenenter"",""1"",""4511""
","
","","[{""page_index"":0,""viewing_time"":2294}]","2295.100000023842","","","","","","","","","","","","","","","","","","","","","","","",""
"pit-comprehension","109","818716","0.0-2.0-23.0-0.0","battery-v0.2","","""event"",""trial"",""time""
""fullscreenenter"",""1"",""4511""
","
","
","""event"",""trial"",""time""
""fullscreenenter"",""1"",""4511""
","
","","","8568.800000011921","[""True""]","0","18","10629","4987","","","","","","","","","","","","","","","","","","",""
"pit-instructions","110","820285","0.0-2.0-23.0-1.0","battery-v0.2","","""event"",""trial"",""time""
""fullscreenenter"",""1"",""4511""
","
","
","""event"",""trial"",""time""
""fullscreenenter"",""1"",""4511""
","
","","[{""page_index"":0,""viewing_time"":1518.6000000238419}]","1519.1000000238419","","","","","","","","","","","","","","","","","","","","","","","",""
"pit-comprehension","111","827658","0.0-2.0-24.0-0.0","battery-v0.2","","""event"",""trial"",""time""
""fullscreenenter"",""1"",""4511""
","
","
","""event"",""trial"",""time""
""fullscreenenter"",""1"",""4511""
","
","","","7368.900000035763","[""True""]","0","18","10629","4987","","","","","","","","","","","","","","","","","","",""
"pit-instructions","112","829352","0.0-2.0-24.0-1.0","battery-v0.2","","""event"",""trial"",""time""
""fullscreenenter"",""1"",""4511""
","
","
","""event"",""trial"",""time""
""fullscreenenter"",""1"",""4511""
","
","","[{""page_index"":0,""viewing_time"":1638.800000011921}]","1639.5","","","","","","","","","","","","","","","","","","","","","","","",""
"pit-comprehension","113","836336","0.0-2.0-25.0-0.0","battery-v0.2","","""event"",""trial"",""time""
""fullscreenenter"",""1"",""4511""
","
","
","""event"",""trial"",""time""
""fullscreenenter"",""1"",""4511""
","
","","","6980.5","[""True""]","0","18","10629","4987","","","","","","","","","","","","","","","","","","",""
"pit-instructions","114","838749","0.0-2.0-25.0-1.0","battery-v0.2","","""event"",""trial"",""time""
""fullscreenenter"",""1"",""4511""
","
","
","""event"",""trial"",""time""
""fullscreenenter"",""1"",""4511""
","
","","[{""page_index"":0,""viewing_time"":2359.2000000476837}]","2360","","","","","","","","","","","","","","","","","","","","","","","",""
"pit-comprehension","115","843467","0.0-2.0-26.0-0.0","battery-v0.2","","""event"",""trial"",""time""
""fullscreenenter"",""1"",""4511""
","
","
","""event"",""trial"",""time""
""fullscreenenter"",""1"",""4511""
","
","","","4713","[""False""]","0","18","10629","4987","","","","","","","","","","","","","","","","","","",""
"pit-instructions","116","847675","0.0-2.0-26.0-1.0","battery-v0.2","","""event"",""trial"",""time""
""fullscreenenter"",""1"",""4511""
","
","
","""event"",""trial"",""time""
""fullscreenenter"",""1"",""4511""
","
","","[{""page_index"":0,""viewing_time"":4155.800000011921}]","4156.400000035763","","","","","","","","","","","","","","","","","","","","","","","",""
"pit-instructions","117","867077","0.0-3.0","battery-v0.2","","""event"",""trial"",""time""
""fullscreenenter"",""1"",""4511""
","
","
","""event"",""trial"",""time""
""fullscreenenter"",""1"",""4511""
","
","","[{""page_index"":0,""viewing_time"":4305.5},{""page_index"":1,""viewing_time"":7528.099999964237},{""page_index"":2,""viewing_time"":7564.800000011921}]","19398.799999952316","","","","","","","","","","","","","","","","","","","","","","","",""
"pit-trial","118","870970","0.0-4.0","battery-v0.2","","""event"",""trial"",""time""
""fullscreenenter"",""1"",""4511""
","
","
","""event"",""trial"",""time""
""fullscreenenter"",""1"",""4511""
","
","","","1017.6999999880791","","","18","10629","4987","&#9730;","elianto","#3366ff99"," "," ","1","+10","[1877.8999999761581]","1","1","","","10629","1","1","1","win","go","0"
"pit-trial","119","875837","0.0-5.0","battery-v0.2","","""event"",""trial"",""time""
""fullscreenenter"",""1"",""4511""
","
","
","""event"",""trial"",""time""
""fullscreenenter"",""1"",""4511""
","
","","","-1","","","18","10629","4987","&#9728;","elianto","#f73b6a7A","-1","-1","1","-10","[]","0","1","","","10629","2","0","4","lose","no-go","1"
"pit-trial","120","879614","0.0-6.0","battery-v0.2","","""event"",""trial"",""time""
""fullscreenenter"",""1"",""4511""
","
","
","""event"",""trial"",""time""
""fullscreenenter"",""1"",""4511""
","
","","","905.3000000119209","","","18","10629","4987","&#9733;","elianto","#3366ff99","-1"," ","0","0","[1759.300000011921]","1","1","","","10629","3","2","2","win","no-go","0"
"pit-trial","121","884478","0.0-7.0","battery-v0.2","","""event"",""trial"",""time""
""fullscreenenter"",""1"",""4511""
","
","
","""event"",""trial"",""time""
""fullscreenenter"",""1"",""4511""
","
","","","-1","","","18","10629","4987","&#9752;","elianto","#f73b6a7A"," ","-1","0","-10","[]","0","1","","","10629","4","3","3","lose","go","0"
"pit-trial","122","888494","0.0-8.0","battery-v0.2","","""event"",""trial"",""time""
""fullscreenenter"",""1"",""4511""
","
","
","""event"",""trial"",""time""
""fullscreenenter"",""1"",""4511""
","
","","","1147.5999999642372","","","18","10629","4987","&#9733;","elianto","#3366ff99","-1"," ","0","+10","[2009.199999988079]","1","1","","","10629","5","2","2","win","no-go","1"
"pit-trial","123","893352","0.0-9.0","battery-v0.2","","""event"",""trial"",""time""
""fullscreenenter"",""1"",""4511""
","
","
","""event"",""trial"",""time""
""fullscreenenter"",""1"",""4511""
","
","","","-1","","","18","10629","4987","&#9752;","elianto","#f73b6a7A"," ","-1","0","0","[]","0","1","","","10629","6","3","3","lose","go","1"
"pit-trial","124","897256","0.0-10.0","battery-v0.2","","""event"",""trial"",""time""
""fullscreenenter"",""1"",""4511""
","
","
","""event"",""trial"",""time""
""fullscreenenter"",""1"",""4511""
","
","","","1041.5","","","18","10629","4987","&#9730;","elianto","#3366ff99"," "," ","1","+10","[1892]","1","1","","","10629","7","1","1","win","go","0"
"pit-trial","125","901746","0.0-11.0","battery-v0.2","","""event"",""trial"",""time""
""fullscreenenter"",""1"",""4511""
","
","
","""event"",""trial"",""time""
""fullscreenenter"",""1"",""4511""
","
","","","1632.699999988079","","","18","10629","4987","&#9728;","elianto","#f73b6a7A","-1"," ","0","-10","[2482.800000011921]","1","1","","","10629","8","0","4","lose","no-go","0"
"pit-trial","126","905328","0.0-12.0","battery-v0.2","","""event"",""trial"",""time""
""fullscreenenter"",""1"",""4511""
","
","
","""event"",""trial"",""time""
""fullscreenenter"",""1"",""4511""
","
","","","727","","","18","10629","4987","&#9733;","elianto","#3366ff99","-1"," ","0","0","[1577.1000000238419]","1","1","","","10629","9","2","2","win","no-go","0"
"pit-trial","127","910195","0.0-13.0","battery-v0.2","","""event"",""trial"",""time""
""fullscreenenter"",""1"",""4511""
","
","
","""event"",""trial"",""time""
""fullscreenenter"",""1"",""4511""
","
","","","-1","","","18","10629","4987","&#9752;","elianto","#f73b6a7A"," ","-1","0","-10","[]","0","1","","","10629","10","3","3","lose","go","0"
"pit-trial","128","915059","0.0-14.0","battery-v0.2","","""event"",""trial"",""time""
""fullscreenenter"",""1"",""4511""
","
","
","""event"",""trial"",""time""
""fullscreenenter"",""1"",""4511""
","
","","","-1","","","18","10629","4987","&#9728;","elianto","#f73b6a7A","-1","-1","1","0","[]","0","1","","","10629","11","0","4","lose","no-go","0"
"pit-trial","129","919085","0.0-15.0","battery-v0.2","","""event"",""trial"",""time""
""fullscreenenter"",""1"",""4511""
","
","
","""event"",""trial"",""time""
""fullscreenenter"",""1"",""4511""
","
","","","1161.5","","","18","10629","4987","&#9730;","elianto","#3366ff99"," "," ","1","+10","[2015.699999988079]","1","1","","","10629","12","1","1","win","go","0"
"pit-trial","130","922514","0.0-16.0","battery-v0.2","","""event"",""trial"",""time""
""fullscreenenter"",""1"",""4511""
","
","
","""event"",""trial"",""time""
""fullscreenenter"",""1"",""4511""
","
","","","568.3999999761581","","","18","10629","4987","&#9730;","elianto","#3366ff99"," "," ","1","+10","[1422.300000011921]","1","1","","","10629","13","1","1","win","go","0"
"pit-trial","131","927375","0.0-17.0","battery-v0.2","","""event"",""trial"",""time""
""fullscreenenter"",""1"",""4511""
","
","
","""event"",""trial"",""time""
""fullscreenenter"",""1"",""4511""
","
","","","-1","","","18","10629","4987","&#9752;","elianto","#f73b6a7A"," ","-1","0","-10","[]","0","1","","","10629","14","3","3","lose","go","0"
"pit-trial","132","930933","0.0-18.0","battery-v0.2","","""event"",""trial"",""time""
""fullscreenenter"",""1"",""4511""
","
","
","""event"",""trial"",""time""
""fullscreenenter"",""1"",""4511""
","
","","","699.5","","","18","10629","4987","&#9733;","elianto","#3366ff99","-1"," ","0","0","[1550.3999999761581]","1","1","","","10629","15","2","2","win","no-go","0"
"pit-trial","133","935793","0.0-19.0","battery-v0.2","","""event"",""trial"",""time""
""fullscreenenter"",""1"",""4511""
","
","
","""event"",""trial"",""time""
""fullscreenenter"",""1"",""4511""
","
","","","-1","","","18","10629","4987","&#9728;","elianto","#f73b6a7A","-1","-1","1","0","[]","0","1","","","10629","16","0","4","lose","no-go","0"
"pit-trial","134","940656","0.0-20.0","battery-v0.2","","""event"",""trial"",""time""
""fullscreenenter"",""1"",""4511""
","
","
","""event"",""trial"",""time""
""fullscreenenter"",""1"",""4511""
","
","","","-1","","","18","10629","4987","&#9752;","elianto","#f73b6a7A"," ","-1","0","-10","[]","0","1","","","10629","17","3","3","lose","go","0"
"pit-trial","135","944309","0.0-21.0","battery-v0.2","","""event"",""trial"",""time""
""fullscreenenter"",""1"",""4511""
","
","
","""event"",""trial"",""time""
""fullscreenenter"",""1"",""4511""
","
","","","794","","","18","10629","4987","&#9733;","elianto","#3366ff99","-1"," ","0","0","[1645.5]","1","1","","","10629","18","2","2","win","no-go","0"
"pit-trial","136","949185","0.0-22.0","battery-v0.2","","""event"",""trial"",""time""
""fullscreenenter"",""1"",""4511""
","
","
","""event"",""trial"",""time""
""fullscreenenter"",""1"",""4511""
","
","","","-1","","","18","10629","4987","&#9728;","elianto","#f73b6a7A","-1","-1","1","0","[]","0","1","","","10629","19","0","4","lose","no-go","0"
"pit-trial","137","952742","0.0-23.0","battery-v0.2","","""event"",""trial"",""time""
""fullscreenenter"",""1"",""4511""
","
","
","""event"",""trial"",""time""
""fullscreenenter"",""1"",""4511""
","
","","","693.9000000357628","","","18","10629","4987","&#9730;","elianto","#3366ff99"," "," ","1","+10","[1547.199999988079]","1","1","","","10629","20","1","1","win","go","0"
"pit-instructions","138","965321","0.0-24.0","battery-v0.2","","""event"",""trial"",""time""
""fullscreenenter"",""1"",""4511""
","
","
","""event"",""trial"",""time""
""fullscreenenter"",""1"",""4511""
","
","","[{""page_index"":0,""viewing_time"":6392.199999988079},{""page_index"":1,""viewing_time"":6184}]","12576.800000011921","","","","","","","","","","","","","","","","","","","","","","","",""
"pit-trial","139","969682","0.0-25.0","battery-v0.2","","""event"",""trial"",""time""
""fullscreenenter"",""1"",""4511""
","
","
","""event"",""trial"",""time""
""fullscreenenter"",""1"",""4511""
","
","","","1494.800000011921","","","18","10629","4987","j","elianto","#f73b6a7A"," "," ","1","-10","[2346.400000035763]","1","2","","","10629","21","0","3","lose","go","1"
"pit-trial","140","974544","0.0-26.0","battery-v0.2","","""event"",""trial"",""time""
""fullscreenenter"",""1"",""4511""
","
","
","""event"",""trial"",""time""
""fullscreenenter"",""1"",""4511""
","
","","","-1","","","18","10629","4987","e","elianto","#f73b6a7A"," ","-1","0","-10","[]","0","2","","","10629","22","2","3","lose","go","0"
"pit-trial","141","978840","0.0-27.0","battery-v0.2","","""event"",""trial"",""time""
""fullscreenenter"",""1"",""4511""
","
","
","""event"",""trial"",""time""
""fullscreenenter"",""1"",""4511""
","
","","","1441.0999999642372","","","18","10629","4987","w","elianto","#f73b6a7A","-1"," ","0","-10","[2291.2000000476837]","1","2","","","10629","23","3","4","lose","no-go","0"
"pit-trial","142","983445","0.0-28.0","battery-v0.2","","""event"",""trial"",""time""
""fullscreenenter"",""1"",""4511""
","
","
","""event"",""trial"",""time""
""fullscreenenter"",""1"",""4511""
","
","","","1745.3999999761581","","","18","10629","4987","d","elianto","#3366ff99","-1"," ","0","0","[2595.599999964237]","1","2","","","10629","24","1","2","win","no-go","0"
"pit-trial","143","988320","0.0-29.0","battery-v0.2","","""event"",""trial"",""time""
""fullscreenenter"",""1"",""4511""
","
","
","""event"",""trial"",""time""
""fullscreenenter"",""1"",""4511""
","
","","","-1","","","18","10629","4987","j","elianto","#f73b6a7A"," ","-1","0","-10","[]","0","2","","","10629","25","0","3","lose","go","0"
"pit-trial","144","992281","0.0-30.0","battery-v0.2","","""event"",""trial"",""time""
""fullscreenenter"",""1"",""4511""
","
","
","""event"",""trial"",""time""
""fullscreenenter"",""1"",""4511""
","
","","","1094.4000000357628","","","18","10629","4987","e","elianto","#f73b6a7A"," "," ","1","0","[1946.9000000357628]","1","2","","","10629","26","2","3","lose","go","0"
"pit-trial","145","997148","0.0-31.0","battery-v0.2","","""event"",""trial"",""time""
""fullscreenenter"",""1"",""4511""
","
","
","""event"",""trial"",""time""
""fullscreenenter"",""1"",""4511""
","
","","","-1","","","18","10629","4987","d","elianto","#3366ff99","-1","-1","1","+10","[]","0","2","","","10629","27","1","2","win","no-go","0"
"pit-trial","146","1002013","0.0-32.0","battery-v0.2","","""event"",""trial"",""time""
""fullscreenenter"",""1"",""4511""
","
","
","""event"",""trial"",""time""
""fullscreenenter"",""1"",""4511""
","
","","","-1","","","18","10629","4987","w","elianto","#f73b6a7A","-1","-1","1","0","[]","0","2","","","10629","28","3","4","lose","no-go","0"
"pit-trial","147","1006871","0.0-33.0","battery-v0.2","","""event"",""trial"",""time""
""fullscreenenter"",""1"",""4511""
","
","
","""event"",""trial"",""time""
""fullscreenenter"",""1"",""4511""
","
","","","-1","","","18","10629","4987","w","elianto","#f73b6a7A","-1","-1","1","0","[]","0","2","","","10629","29","3","4","lose","no-go","0"
"pit-trial","148","1011729","0.0-34.0","battery-v0.2","","""event"",""trial"",""time""
""fullscreenenter"",""1"",""4511""
","
","
","""event"",""trial"",""time""
""fullscreenenter"",""1"",""4511""
","
","","","-1","","","18","10629","4987","d","elianto","#3366ff99","-1","-1","1","+10","[]","0","2","","","10629","30","1","2","win","no-go","0"
"pit-trial","149","1016601","0.0-35.0","battery-v0.2","","""event"",""trial"",""time""
""fullscreenenter"",""1"",""4511""
","
","
","""event"",""trial"",""time""
""fullscreenenter"",""1"",""4511""
","
","","","-1","","","18","10629","4987","j","elianto","#f73b6a7A"," ","-1","0","-10","[]","0","2","","","10629","31","0","3","lose","go","0"
"pit-trial","150","1020816","0.0-36.0","battery-v0.2","","""event"",""trial"",""time""
""fullscreenenter"",""1"",""4511""
","
","
","""event"",""trial"",""time""
""fullscreenenter"",""1"",""4511""
","
","","","1352","","","18","10629","4987","e","elianto","#f73b6a7A"," "," ","1","0","[2205.300000011921]","1","2","","","10629","32","2","3","lose","go","0"
"pit-trial","151","1025149","0.0-37.0","battery-v0.2","","""event"",""trial"",""time""
""fullscreenenter"",""1"",""4511""
","
","
","""event"",""trial"",""time""
""fullscreenenter"",""1"",""4511""
","
","","","1473.5","","","18","10629","4987","e","elianto","#f73b6a7A"," "," ","1","0","[2328.600000023842]","1","2","","","10629","33","2","3","lose","go","0"
"pit-trial","152","1029248","0.0-38.0","battery-v0.2","","""event"",""trial"",""time""
""fullscreenenter"",""1"",""4511""
","
","
","""event"",""trial"",""time""
""fullscreenenter"",""1"",""4511""
","
","","","1235.5","","","18","10629","4987","j","elianto","#f73b6a7A"," "," ","1","0","[2089]","1","2","","","10629","34","0","3","lose","go","0"
"pit-trial","153","1034110","0.0-39.0","battery-v0.2","","""event"",""trial"",""time""
""fullscreenenter"",""1"",""4511""
","
","
","""event"",""trial"",""time""
""fullscreenenter"",""1"",""4511""
","
","","","-1","","","18","10629","4987","w","elianto","#f73b6a7A","-1","-1","1","0","[]","0","2","","","10629","35","3","4","lose","no-go","0"
"pit-trial","154","1038983","0.0-40.0","battery-v0.2","","""event"",""trial"",""time""
""fullscreenenter"",""1"",""4511""
","
","
","""event"",""trial"",""time""
""fullscreenenter"",""1"",""4511""
","
","","","-1","","","18","10629","4987","d","elianto","#3366ff99","-1","-1","1","+10","[]","0","2","","","10629","36","1","2","win","no-go","0"
"pit-trial","155","1043851","0.0-41.0","battery-v0.2","","""event"",""trial"",""time""
""fullscreenenter"",""1"",""4511""
","
","
","""event"",""trial"",""time""
""fullscreenenter"",""1"",""4511""
","
","","","-1","","","18","10629","4987","d","elianto","#3366ff99","-1","-1","1","+10","[]","0","2","","","10629","37","1","2","win","no-go","0"
"pit-trial","156","1047945","0.0-42.0","battery-v0.2","","""event"",""trial"",""time""
""fullscreenenter"",""1"",""4511""
","
","
","""event"",""trial"",""time""
""fullscreenenter"",""1"",""4511""
","
","","","1234.6000000238419","","","18","10629","4987","e","elianto","#f73b6a7A"," "," ","1","0","[2086.7999999523163]","1","2","","","10629","38","2","3","lose","go","0"
"pit-trial","157","1051325","0.0-43.0","battery-v0.2","","""event"",""trial"",""time""
""fullscreenenter"",""1"",""4511""
","
","
","""event"",""trial"",""time""
""fullscreenenter"",""1"",""4511""
","
","","","521.8000000119209","","","18","10629","4987","j","elianto","#f73b6a7A"," "," ","1","0","[1375.1000000238419]","1","2","","","10629","39","0","3","lose","go","0"
"pit-trial","158","1056191","0.0-44.0","battery-v0.2","","""event"",""trial"",""time""
""fullscreenenter"",""1"",""4511""
","
","
","""event"",""trial"",""time""
""fullscreenenter"",""1"",""4511""
","
","","","-1","","","18","10629","4987","w","elianto","#f73b6a7A","-1","-1","1","0","[]","0","2","","","10629","40","3","4","lose","no-go","0"
"pit-trial","159","1060060","0.0-45.0","battery-v0.2","","""event"",""trial"",""time""
""fullscreenenter"",""1"",""4511""
","
","
","""event"",""trial"",""time""
""fullscreenenter"",""1"",""4511""
","
","","","1010.1000000238419","","","18","10629","4987","e","elianto","#f73b6a7A"," "," ","1","0","[1863.300000011921]","1","2","","","10629","41","2","3","lose","go","0"
"pit-trial","160","1063705","0.0-46.0","battery-v0.2","","""event"",""trial"",""time""
""fullscreenenter"",""1"",""4511""
","
","
","""event"",""trial"",""time""
""fullscreenenter"",""1"",""4511""
","
","","","776.1000000238419","","","18","10629","4987","j","elianto","#f73b6a7A"," "," ","1","-10","[129.69999998807907,1633.800000011921]","2","2","","","10629","42","0","3","lose","go","1"
"pit-trial","161","1068579","0.0-47.0","battery-v0.2","","""event"",""trial"",""time""
""fullscreenenter"",""1"",""4511""
","
","
","""event"",""trial"",""time""
""fullscreenenter"",""1"",""4511""
","
","","","-1","","","18","10629","4987","d","elianto","#3366ff99","-1","-1","1","+10","[]","0","2","","","10629","43","1","2","win","no-go","0"
"pit-trial","162","1073441","0.0-48.0","battery-v0.2","","""event"",""trial"",""time""
""fullscreenenter"",""1"",""4511""
","
","
","""event"",""trial"",""time""
""fullscreenenter"",""1"",""4511""
","
","","","-1","","","18","10629","4987","w","elianto","#f73b6a7A","-1","-1","1","0","[]","0","2","","","10629","44","3","4","lose","no-go","0"
"pit-trial","163","1078306","0.0-49.0","battery-v0.2","","""event"",""trial"",""time""
""fullscreenenter"",""1"",""4511""
","
","
","""event"",""trial"",""time""
""fullscreenenter"",""1"",""4511""
","
","","","-1","","","18","10629","4987","j","elianto","#f73b6a7A"," ","-1","0","0","[]","0","2","","","10629","45","0","3","lose","go","1"
"pit-trial","164","1083166","0.0-50.0","battery-v0.2","","""event"",""trial"",""time""
""fullscreenenter"",""1"",""4511""
","
","
","""event"",""trial"",""time""
""fullscreenenter"",""1"",""4511""
","
","","","-1","","","18","10629","4987","d","elianto","#3366ff99","-1","-1","1","+10","[2912.400000035763]","1","2","","","10629","46","1","2","win","no-go","0"
"pit-trial","165","1088030","0.0-51.0","battery-v0.2","","""event"",""trial"",""time""
""fullscreenenter"",""1"",""4511""
","
","
","""event"",""trial"",""time""
""fullscreenenter"",""1"",""4511""
","
","","","-1","","","18","10629","4987","w","elianto","#f73b6a7A","-1","-1","1","0","[]","0","2","","","10629","47","3","4","lose","no-go","0"
"pit-trial","166","1091468","0.0-52.0","battery-v0.2","","""event"",""trial"",""time""
""fullscreenenter"",""1"",""4511""
","
","
","""event"",""trial"",""time""
""fullscreenenter"",""1"",""4511""
","
","","","573.1999999880791","","","18","10629","4987","e","elianto","#f73b6a7A"," "," ","1","0","[1429.699999988079]","1","2","","","10629","48","2","3","lose","go","0"
"pit-trial","167","1096331","0.0-53.0","battery-v0.2","","""event"",""trial"",""time""
""fullscreenenter"",""1"",""4511""
","
","
","""event"",""trial"",""time""
""fullscreenenter"",""1"",""4511""
","
","","","-1","","","18","10629","4987","w","elianto","#f73b6a7A","-1","-1","1","0","[]","0","2","","","10629","49","3","4","lose","no-go","0"
"pit-trial","168","1101193","0.0-54.0","battery-v0.2","","""event"",""trial"",""time""
""fullscreenenter"",""1"",""4511""
","
","
","""event"",""trial"",""time""
""fullscreenenter"",""1"",""4511""
","
","","","-1","","","18","10629","4987","d","elianto","#3366ff99","-1","-1","1","+10","[]","0","2","","","10629","50","1","2","win","no-go","0"
"pit-trial","169","1106052","0.0-55.0","battery-v0.2","","""event"",""trial"",""time""
""fullscreenenter"",""1"",""4511""
","
","
","""event"",""trial"",""time""
""fullscreenenter"",""1"",""4511""
","
","","","-1","","","18","10629","4987","j","elianto","#f73b6a7A"," ","-1","0","-10","[]","0","2","","","10629","51","0","3","lose","go","0"
"pit-trial","170","1109513","0.0-56.0","battery-v0.2","","""event"",""trial"",""time""
""fullscreenenter"",""1"",""4511""
","
","
","""event"",""trial"",""time""
""fullscreenenter"",""1"",""4511""
","
","","","603","","","18","10629","4987","e","elianto","#f73b6a7A"," "," ","1","-10","[1453.4000000357628]","1","2","","","10629","52","2","3","lose","go","1"
"pit-trial","171","1114381","0.0-57.0","battery-v0.2","","""event"",""trial"",""time""
""fullscreenenter"",""1"",""4511""
","
","
","""event"",""trial"",""time""
""fullscreenenter"",""1"",""4511""
","
","","","-1","","","18","10629","4987","w","elianto","#f73b6a7A","-1","-1","1","0","[]","0","2","","","10629","53","3","4","lose","no-go","0"
"pit-trial","172","1118499","0.0-58.0","battery-v0.2","","""event"",""trial"",""time""
""fullscreenenter"",""1"",""4511""
","
","
","""event"",""trial"",""time""
""fullscreenenter"",""1"",""4511""
","
","","","1256.4000000357628","","","18","10629","4987","j","elianto","#f73b6a7A"," "," ","1","0","[2107]","1","2","","","10629","54","0","3","lose","go","0"
"pit-trial","173","1123375","0.0-59.0","battery-v0.2","","""event"",""trial"",""time""
""fullscreenenter"",""1"",""4511""
","
","
","""event"",""trial"",""time""
""fullscreenenter"",""1"",""4511""
","
","","","-1","","","18","10629","4987","d","elianto","#3366ff99","-1","-1","1","+10","[]","0","2","","","10629","55","1","2","win","no-go","0"
"pit-trial","174","1126880","0.0-60.0","battery-v0.2","","""event"",""trial"",""time""
""fullscreenenter"",""1"",""4511""
","
","
","""event"",""trial"",""time""
""fullscreenenter"",""1"",""4511""
","
","","","642.5","","","18","10629","4987","e","elianto","#f73b6a7A"," "," ","1","-10","[1496.6000000238419]","1","2","","","10629","56","2","3","lose","go","1"
"pit-trial","175","1130437","0.0-61.0","battery-v0.2","","""event"",""trial"",""time""
""fullscreenenter"",""1"",""4511""
","
","
","""event"",""trial"",""time""
""fullscreenenter"",""1"",""4511""
","
","","","690.5999999642372","","","18","10629","4987","j","elianto","#f73b6a7A"," "," ","1","0","[1544.8999999761581]","1","2","","","10629","57","0","3","lose","go","0"
"pit-trial","176","1135301","0.0-62.0","battery-v0.2","","""event"",""trial"",""time""
""fullscreenenter"",""1"",""4511""
","
","
","""event"",""trial"",""time""
""fullscreenenter"",""1"",""4511""
","
","","","-1","","","18","10629","4987","w","elianto","#f73b6a7A","-1","-1","1","0","[]","0","2","","","10629","58","3","4","lose","no-go","0"
"pit-trial","177","1138812","0.0-63.0","battery-v0.2","","""event"",""trial"",""time""
""fullscreenenter"",""1"",""4511""
","
","
","""event"",""trial"",""time""
""fullscreenenter"",""1"",""4511""
","
","","","650.1999999880791","","","18","10629","4987","e","elianto","#f73b6a7A"," "," ","1","0","[1501.3999999761581]","1","2","","","10629","59","2","3","lose","go","0"
"pit-trial","178","1143686","0.0-64.0","battery-v0.2","","""event"",""trial"",""time""
""fullscreenenter"",""1"",""4511""
","
","
","""event"",""trial"",""time""
""fullscreenenter"",""1"",""4511""
","
","","","-1","","","18","10629","4987","s","elianto","#3366ff99"," ","-1","0","+10","[]","0","2","","","10629","60","4","1","win","go","1"
"pit-trial","179","1148552","0.0-65.0","battery-v0.2","","""event"",""trial"",""time""
""fullscreenenter"",""1"",""4511""
","
","
","""event"",""trial"",""time""
""fullscreenenter"",""1"",""4511""
","
","","","-1","","","18","10629","4987","s","elianto","#3366ff99"," ","-1","0","0","[]","0","2","","","10629","61","4","1","win","go","0"
"pit-trial","180","1153412","0.0-66.0","battery-v0.2","","""event"",""trial"",""time""
""fullscreenenter"",""1"",""4511""
","
","
","""event"",""trial"",""time""
""fullscreenenter"",""1"",""4511""
","
","","","-1","","","18","10629","4987","d","elianto","#3366ff99","-1","-1","1","+10","[]","0","2","","","10629","62","1","2","win","no-go","0"
"pit-trial","181","1157324","0.0-67.0","battery-v0.2","","""event"",""trial"",""time""
""fullscreenenter"",""1"",""4511""
","
","
","""event"",""trial"",""time""
""fullscreenenter"",""1"",""4511""
","
","","","1051.5","","","18","10629","4987","e","elianto","#f73b6a7A"," "," ","1","0","[1907.8999999761581]","1","2","","","10629","63","2","3","lose","go","0"
"pit-trial","182","1162184","0.0-68.0","battery-v0.2","","""event"",""trial"",""time""
""fullscreenenter"",""1"",""4511""
","
","
","""event"",""trial"",""time""
""fullscreenenter"",""1"",""4511""
","
","","","-1","","","18","10629","4987","w","elianto","#f73b6a7A","-1","-1","1","0","[]","0","2","","","10629","64","3","4","lose","no-go","0"
"pit-trial","183","1167051","0.0-69.0","battery-v0.2","","""event"",""trial"",""time""
""fullscreenenter"",""1"",""4511""
","
","
","""event"",""trial"",""time""
""fullscreenenter"",""1"",""4511""
","
","","","-1","","","18","10629","4987","p","elianto","#3366ff99","-1","-1","1","+10","[]","0","2","","","10629","65","5","2","win","no-go","0"
"pit-trial","184","1171301","0.0-70.0","battery-v0.2","","""event"",""trial"",""time""
""fullscreenenter"",""1"",""4511""
","
","
","""event"",""trial"",""time""
""fullscreenenter"",""1"",""4511""
","
","","","1389.0999999642372","","","18","10629","4987","s","elianto","#3366ff99"," "," ","1","0","[2240.199999988079]","1","2","","","10629","66","4","1","win","go","1"
"pit-trial","185","1176172","0.0-71.0","battery-v0.2","","""event"",""trial"",""time""
""fullscreenenter"",""1"",""4511""
","
","
","""event"",""trial"",""time""
""fullscreenenter"",""1"",""4511""
","
","","","-1","","","18","10629","4987","d","elianto","#3366ff99","-1","-1","1","+10","[]","0","2","","","10629","67","1","2","win","no-go","0"
"pit-trial","186","1181029","0.0-72.0","battery-v0.2","","""event"",""trial"",""time""
""fullscreenenter"",""1"",""4511""
","
","
","""event"",""trial"",""time""
""fullscreenenter"",""1"",""4511""
","
","","","-1","","","18","10629","4987","w","elianto","#f73b6a7A","-1","-1","1","0","[]","0","2","","","10629","68","3","4","lose","no-go","0"
"pit-trial","187","1185896","0.0-73.0","battery-v0.2","","""event"",""trial"",""time""
""fullscreenenter"",""1"",""4511""
","
","
","""event"",""trial"",""time""
""fullscreenenter"",""1"",""4511""
","
","","","-1","","","18","10629","4987","d","elianto","#3366ff99","-1","-1","1","+10","[]","0","2","","","10629","69","1","2","win","no-go","0"
"pit-trial","188","1189365","0.0-74.0","battery-v0.2","","""event"",""trial"",""time""
""fullscreenenter"",""1"",""4511""
","
","
","""event"",""trial"",""time""
""fullscreenenter"",""1"",""4511""
","
","","","611.0999999642372","","","18","10629","4987","e","elianto","#f73b6a7A"," "," ","1","0","[1466]","1","2","","","10629","70","2","3","lose","go","0"
"pit-trial","189","1194229","0.0-75.0","battery-v0.2","","""event"",""trial"",""time""
""fullscreenenter"",""1"",""4511""
","
","
","""event"",""trial"",""time""
""fullscreenenter"",""1"",""4511""
","
","","","-1","","","18","10629","4987","s","elianto","#3366ff99"," ","-1","0","0","[]","0","2","","","10629","71","4","1","win","go","0"
"pit-trial","190","1199088","0.0-76.0","battery-v0.2","","""event"",""trial"",""time""
""fullscreenenter"",""1"",""4511""
","
","
","""event"",""trial"",""time""
""fullscreenenter"",""1"",""4511""
","
","","","-1","","","18","10629","4987","p","elianto","#3366ff99","-1","-1","1","+10","[]","0","2","","","10629","72","5","2","win","no-go","0"
"pit-trial","191","1203955","0.0-77.0","battery-v0.2","","""event"",""trial"",""time""
""fullscreenenter"",""1"",""4511""
","
","
","""event"",""trial"",""time""
""fullscreenenter"",""1"",""4511""
","
","","","-1","","","18","10629","4987","w","elianto","#f73b6a7A","-1","-1","1","0","[]","0","2","","","10629","73","3","4","lose","no-go","0"
"pit-trial","192","1208829","0.0-78.0","battery-v0.2","","""event"",""trial"",""time""
""fullscreenenter"",""1"",""4511""
","
","
","""event"",""trial"",""time""
""fullscreenenter"",""1"",""4511""
","
","","","-1","","","18","10629","4987","p","elianto","#3366ff99","-1","-1","1","+10","[]","0","2","","","10629","74","5","2","win","no-go","0"
"pit-trial","193","1213687","0.0-79.0","battery-v0.2","","""event"",""trial"",""time""
""fullscreenenter"",""1"",""4511""
","
","
","""event"",""trial"",""time""
""fullscreenenter"",""1"",""4511""
","
","","","-1","","","18","10629","4987","d","elianto","#3366ff99","-1","-1","1","+10","[]","0","2","","","10629","75","1","2","win","no-go","0"
"pit-trial","194","1217309","0.0-80.0","battery-v0.2","","""event"",""trial"",""time""
""fullscreenenter"",""1"",""4511""
","
","
","""event"",""trial"",""time""
""fullscreenenter"",""1"",""4511""
","
","","","759","","","18","10629","4987","s","elianto","#3366ff99"," "," ","1","+10","[1611.699999988079]","1","2","","","10629","76","4","1","win","go","0"
"pit-trial","195","1222183","0.0-81.0","battery-v0.2","","""event"",""trial"",""time""
""fullscreenenter"",""1"",""4511""
","
","
","""event"",""trial"",""time""
""fullscreenenter"",""1"",""4511""
","
","","","-1","","","18","10629","4987","p","elianto","#3366ff99","-1","-1","1","+10","[]","0","2","","","10629","77","5","2","win","no-go","0"
"pit-trial","196","1227058","0.0-82.0","battery-v0.2","","""event"",""trial"",""time""
""fullscreenenter"",""1"",""4511""
","
","
","""event"",""trial"",""time""
""fullscreenenter"",""1"",""4511""
","
","","","-1","","","18","10629","4987","w","elianto","#f73b6a7A","-1","-1","1","0","[]","0","2","","","10629","78","3","4","lose","no-go","0"
"pit-trial","197","1230775","0.0-83.0","battery-v0.2","","""event"",""trial"",""time""
""fullscreenenter"",""1"",""4511""
","
","
","""event"",""trial"",""time""
""fullscreenenter"",""1"",""4511""
","
","","","854.1999999880791","","","18","10629","4987","s","elianto","#3366ff99"," "," ","1","+10","[1708]","1","2","","","10629","79","4","1","win","go","0"
"pit-trial","198","1234509","0.0-84.0","battery-v0.2","","""event"",""trial"",""time""
""fullscreenenter"",""1"",""4511""
","
","
","""event"",""trial"",""time""
""fullscreenenter"",""1"",""4511""
","
","","","869.3000000119209","","","18","10629","4987","s","elianto","#3366ff99"," "," ","1","+10","[1723.8999999761581]","1","2","","","10629","80","4","1","win","go","0"
"pit-trial","199","1239368","0.0-85.0","battery-v0.2","","""event"",""trial"",""time""
""fullscreenenter"",""1"",""4511""
","
","
","""event"",""trial"",""time""
""fullscreenenter"",""1"",""4511""
","
","","","-1","","","18","10629","4987","w","elianto","#f73b6a7A","-1","-1","1","0","[]","0","2","","","10629","81","3","4","lose","no-go","0"
"pit-trial","200","1242880","0.0-86.0","battery-v0.2","","""event"",""trial"",""time""
""fullscreenenter"",""1"",""4511""
","
","
","""event"",""trial"",""time""
""fullscreenenter"",""1"",""4511""
","
","","","658.1000000238419","","","18","10629","4987","s","elianto","#3366ff99"," "," ","1","+10","[1508.3999999761581]","1","2","","","10629","82","4","1","win","go","0"
"pit-trial","201","1247741","0.0-87.0","battery-v0.2","","""event"",""trial"",""time""
""fullscreenenter"",""1"",""4511""
","
","
","""event"",""trial"",""time""
""fullscreenenter"",""1"",""4511""
","
","","","-1","","","18","10629","4987","p","elianto","#3366ff99","-1","-1","1","0","[]","0","2","","","10629","83","5","2","win","no-go","1"
"pit-trial","202","1252603","0.0-88.0","battery-v0.2","","""event"",""trial"",""time""
""fullscreenenter"",""1"",""4511""
","
","
","""event"",""trial"",""time""
""fullscreenenter"",""1"",""4511""
","
","","","-1","","","18","10629","4987","a","elianto","#f73b6a7A","-1","-1","1","0","[]","0","2","","","10629","84","7","4","lose","no-go","0"
"pit-trial","203","1256477","0.0-89.0","battery-v0.2","","""event"",""trial"",""time""
""fullscreenenter"",""1"",""4511""
","
","
","""event"",""trial"",""time""
""fullscreenenter"",""1"",""4511""
","
","","","1017.5","","","18","10629","4987","s","elianto","#3366ff99"," "," ","1","+10","[1867.6000000238419]","1","2","","","10629","85","4","1","win","go","0"
"pit-trial","204","1261336","0.0-90.0","battery-v0.2","","""event"",""trial"",""time""
""fullscreenenter"",""1"",""4511""
","
","
","""event"",""trial"",""time""
""fullscreenenter"",""1"",""4511""
","
","","","-1","","","18","10629","4987","a","elianto","#f73b6a7A","-1","-1","1","0","[]","0","2","","","10629","86","7","4","lose","no-go","0"
"pit-trial","205","1266190","0.0-91.0","battery-v0.2","","""event"",""trial"",""time""
""fullscreenenter"",""1"",""4511""
","
","
","""event"",""trial"",""time""
""fullscreenenter"",""1"",""4511""
","
","","","-1","","","18","10629","4987","g","elianto","#f73b6a7A"," ","-1","0","-10","[]","0","2","","","10629","87","6","3","lose","go","0"
"pit-trial","206","1271054","0.0-92.0","battery-v0.2","","""event"",""trial"",""time""
""fullscreenenter"",""1"",""4511""
","
","
","""event"",""trial"",""time""
""fullscreenenter"",""1"",""4511""
","
","","","-1","","","18","10629","4987","p","elianto","#3366ff99","-1","-1","1","+10","[]","0","2","","","10629","88","5","2","win","no-go","0"
"pit-trial","207","1275918","0.0-93.0","battery-v0.2","","""event"",""trial"",""time""
""fullscreenenter"",""1"",""4511""
","
","
","""event"",""trial"",""time""
""fullscreenenter"",""1"",""4511""
","
","","","-1","","","18","10629","4987","p","elianto","#3366ff99","-1","-1","1","+10","[]","0","2","","","10629","89","5","2","win","no-go","0"
"pit-trial","208","1280781","0.0-94.0","battery-v0.2","","""event"",""trial"",""time""
""fullscreenenter"",""1"",""4511""
","
","
","""event"",""trial"",""time""
""fullscreenenter"",""1"",""4511""
","
","","","-1","","","18","10629","4987","a","elianto","#f73b6a7A","-1","-1","1","0","[]","0","2","","","10629","90","7","4","lose","no-go","0"
"pit-trial","209","1284711","0.0-95.0","battery-v0.2","","""event"",""trial"",""time""
""fullscreenenter"",""1"",""4511""
","
","
","""event"",""trial"",""time""
""fullscreenenter"",""1"",""4511""
","
","","","1070.8999999761581","","","18","10629","4987","g","elianto","#f73b6a7A"," "," ","1","0","[1922.1000000238419]","1","2","","","10629","91","6","3","lose","go","0"
"pit-trial","210","1288896","0.0-96.0","battery-v0.2","","""event"",""trial"",""time""
""fullscreenenter"",""1"",""4511""
","
","
","""event"",""trial"",""time""
""fullscreenenter"",""1"",""4511""
","
","","","1324.4000000357628","","","18","10629","4987","s","elianto","#3366ff99"," "," ","1","+10","[2174.5]","1","2","","","10629","92","4","1","win","go","0"
"pit-trial","211","1293293","0.0-97.0","battery-v0.2","","""event"",""trial"",""time""
""fullscreenenter"",""1"",""4511""
","
","
","""event"",""trial"",""time""
""fullscreenenter"",""1"",""4511""
","
","","","1531.800000011921","","","18","10629","4987","g","elianto","#f73b6a7A"," "," ","1","0","[2385.5]","1","2","","","10629","93","6","3","lose","go","0"
"pit-trial","212","1298164","0.0-98.0","battery-v0.2","","""event"",""trial"",""time""
""fullscreenenter"",""1"",""4511""
","
","
","""event"",""trial"",""time""
""fullscreenenter"",""1"",""4511""
","
","","","-1","","","18","10629","4987","l","elianto","#3366ff99"," ","-1","0","0","[]","0","2","","","10629","94","8","1","win","go","0"
"pit-trial","213","1303031","0.0-99.0","battery-v0.2","","""event"",""trial"",""time""
""fullscreenenter"",""1"",""4511""
","
","
","""event"",""trial"",""time""
""fullscreenenter"",""1"",""4511""
","
","","","-1","","","18","10629","4987","p","elianto","#3366ff99","-1","-1","1","+10","[]","0","2","","","10629","95","5","2","win","no-go","0"
"pit-trial","214","1307903","0.0-100.0","battery-v0.2","","""event"",""trial"",""time""
""fullscreenenter"",""1"",""4511""
","
","
","""event"",""trial"",""time""
""fullscreenenter"",""1"",""4511""
","
","","","-1","","","18","10629","4987","a","elianto","#f73b6a7A","-1","-1","1","0","[]","0","2","","","10629","96","7","4","lose","no-go","0"
"pit-trial","215","1312758","0.0-101.0","battery-v0.2","","""event"",""trial"",""time""
""fullscreenenter"",""1"",""4511""
","
","
","""event"",""trial"",""time""
""fullscreenenter"",""1"",""4511""
","
","","","-1","","","18","10629","4987","p","elianto","#3366ff99","-1","-1","1","+10","[]","0","2","","","10629","97","5","2","win","no-go","0"
"pit-trial","216","1317616","0.0-102.0","battery-v0.2","","""event"",""trial"",""time""
""fullscreenenter"",""1"",""4511""
","
","
","""event"",""trial"",""time""
""fullscreenenter"",""1"",""4511""
","
","","","-1","","","18","10629","4987","a","elianto","#f73b6a7A","-1","-1","1","-10","[]","0","2","","","10629","98","7","4","lose","no-go","1"
"pit-trial","217","1321900","0.0-103.0","battery-v0.2","","""event"",""trial"",""time""
""fullscreenenter"",""1"",""4511""
","
","
","""event"",""trial"",""time""
""fullscreenenter"",""1"",""4511""
","
","","","1425.1000000238419","","","18","10629","4987","l","elianto","#3366ff99"," "," ","1","+10","[2277.7999999523163]","1","2","","","10629","99","8","1","win","go","0"
"pit-trial","218","1326018","0.0-104.0","battery-v0.2","","""event"",""trial"",""time""
""fullscreenenter"",""1"",""4511""
","
","
","""event"",""trial"",""time""
""fullscreenenter"",""1"",""4511""
","
","","","1260.800000011921","","","18","10629","4987","g","elianto","#f73b6a7A"," "," ","1","0","[2110.699999988079]","1","2","","","10629","100","6","3","lose","go","0"
"pit-trial","219","1330885","0.0-105.0","battery-v0.2","","""event"",""trial"",""time""
""fullscreenenter"",""1"",""4511""
","
","
","""event"",""trial"",""time""
""fullscreenenter"",""1"",""4511""
","
","","","-1","","","18","10629","4987","a","elianto","#f73b6a7A","-1","-1","1","0","[]","0","2","","","10629","101","7","4","lose","no-go","0"
"pit-trial","220","1335746","0.0-106.0","battery-v0.2","","""event"",""trial"",""time""
""fullscreenenter"",""1"",""4511""
","
","
","""event"",""trial"",""time""
""fullscreenenter"",""1"",""4511""
","
","","","-1","","","18","10629","4987","u","elianto","#3366ff99"," ","-1","0","0","[]","0","2","","","10629","102","9","1","win","go","0"
"pit-trial","221","1340192","0.0-107.0","battery-v0.2","","""event"",""trial"",""time""
""fullscreenenter"",""1"",""4511""
","
","
","""event"",""trial"",""time""
""fullscreenenter"",""1"",""4511""
","
","","","1576","","","18","10629","4987","l","elianto","#3366ff99"," "," ","1","+10","[2427.399999976158]","1","2","","","10629","103","8","1","win","go","0"
"pit-trial","222","1345059","0.0-108.0","battery-v0.2","","""event"",""trial"",""time""
""fullscreenenter"",""1"",""4511""
","
","
","""event"",""trial"",""time""
""fullscreenenter"",""1"",""4511""
","
","","","-1","","","18","10629","4987","p","elianto","#3366ff99","-1","-1","1","+10","[]","0","2","","","10629","104","5","2","win","no-go","0"
"pit-trial","223","1349252","0.0-109.0","battery-v0.2","","""event"",""trial"",""time""
""fullscreenenter"",""1"",""4511""
","
","
","""event"",""trial"",""time""
""fullscreenenter"",""1"",""4511""
","
","","","1329.5","","","18","10629","4987","l","elianto","#3366ff99"," "," ","1","+10","[2185.800000011921]","1","2","","","10629","105","8","1","win","go","0"
"pit-trial","224","1353172","0.0-110.0","battery-v0.2","","""event"",""trial"",""time""
""fullscreenenter"",""1"",""4511""
","
","
","""event"",""trial"",""time""
""fullscreenenter"",""1"",""4511""
","
","","","1065.5","","","18","10629","4987","s","elianto","#3366ff99"," "," ","1","+10","[1916.3999999761581]","1","2","","","10629","106","4","1","win","go","0"
"pit-trial","225","1357285","0.0-111.0","battery-v0.2","","""event"",""trial"",""time""
""fullscreenenter"",""1"",""4511""
","
","
","""event"",""trial"",""time""
""fullscreenenter"",""1"",""4511""
","
","","","1251.5999999642372","","","18","10629","4987","u","elianto","#3366ff99"," "," ","1","+10","[2108.899999976158]","1","2","","","10629","107","9","1","win","go","0"
"pit-trial","226","1360908","0.0-112.0","battery-v0.2","","""event"",""trial"",""time""
""fullscreenenter"",""1"",""4511""
","
","
","""event"",""trial"",""time""
""fullscreenenter"",""1"",""4511""
","
","","","761.5","","","18","10629","4987","g","elianto","#f73b6a7A"," "," ","1","0","[1616.199999988079]","1","2","","","10629","108","6","3","lose","go","0"
"pit-trial","227","1364538","0.0-113.0","battery-v0.2","","""event"",""trial"",""time""
""fullscreenenter"",""1"",""4511""
","
","
","""event"",""trial"",""time""
""fullscreenenter"",""1"",""4511""
","
","","","766.5","","","18","10629","4987","l","elianto","#3366ff99"," "," ","1","+10","[1623.300000011921]","1","2","","","10629","109","8","1","win","go","0"
"pit-trial","228","1368188","0.0-114.0","battery-v0.2","","""event"",""trial"",""time""
""fullscreenenter"",""1"",""4511""
","
","
","""event"",""trial"",""time""
""fullscreenenter"",""1"",""4511""
","
","","","788.3999999761581","","","18","10629","4987","u","elianto","#3366ff99"," "," ","1","+10","[1646.7999999523163]","1","2","","","10629","110","9","1","win","go","0"
"pit-trial","229","1371906","0.0-115.0","battery-v0.2","","""event"",""trial"",""time""
""fullscreenenter"",""1"",""4511""
","
","
","""event"",""trial"",""time""
""fullscreenenter"",""1"",""4511""
","
","","","858.1999999880791","","","18","10629","4987","g","elianto","#f73b6a7A"," "," ","1","-10","[1712.0999999642372]","1","2","","","10629","111","6","3","lose","go","1"
"pit-trial","230","1376786","0.0-116.0","battery-v0.2","","""event"",""trial"",""time""
""fullscreenenter"",""1"",""4511""
","
","
","""event"",""trial"",""time""
""fullscreenenter"",""1"",""4511""
","
","","","-1","","","18","10629","4987","p","elianto","#3366ff99","-1","-1","1","+10","[]","0","2","","","10629","112","5","2","win","no-go","0"
"pit-trial","231","1381650","0.0-117.0","battery-v0.2","","""event"",""trial"",""time""
""fullscreenenter"",""1"",""4511""
","
","
","""event"",""trial"",""time""
""fullscreenenter"",""1"",""4511""
","
","","","-1","","","18","10629","4987","p","elianto","#3366ff99","-1","-1","1","+10","[]","0","2","","","10629","113","5","2","win","no-go","0"
"pit-trial","232","1386173","0.0-118.0","battery-v0.2","","""event"",""trial"",""time""
""fullscreenenter"",""1"",""4511""
","
","
","""event"",""trial"",""time""
""fullscreenenter"",""1"",""4511""
","
","","","1657.3999999761581","","","18","10629","4987","u","elianto","#3366ff99"," "," ","1","0","[2507.899999976158]","1","2","","","10629","114","9","1","win","go","1"
"pit-trial","233","1389992","0.0-119.0","battery-v0.2","","""event"",""trial"",""time""
""fullscreenenter"",""1"",""4511""
","
","
","""event"",""trial"",""time""
""fullscreenenter"",""1"",""4511""
","
","","","954.1000000238419","","","18","10629","4987","l","elianto","#3366ff99"," "," ","1","+10","[1808.699999988079]","1","2","","","10629","115","8","1","win","go","0"
"pit-trial","234","1393799","0.0-120.0","battery-v0.2","","""event"",""trial"",""time""
""fullscreenenter"",""1"",""4511""
","
","
","""event"",""trial"",""time""
""fullscreenenter"",""1"",""4511""
","
","","","946.1999999880791","","","18","10629","4987","g","elianto","#f73b6a7A"," "," ","1","0","[1801.5999999642372]","1","2","","","10629","116","6","3","lose","go","0"
"pit-trial","235","1397669","0.0-121.0","battery-v0.2","","""event"",""trial"",""time""
""fullscreenenter"",""1"",""4511""
","
","
","""event"",""trial"",""time""
""fullscreenenter"",""1"",""4511""
","
","","","1014.1999999880791","","","18","10629","4987","u","elianto","#3366ff99"," "," ","1","+10","[1865]","1","2","","","10629","117","9","1","win","go","0"
"pit-trial","236","1401337","0.0-122.0","battery-v0.2","","""event"",""trial"",""time""
""fullscreenenter"",""1"",""4511""
","
","
","""event"",""trial"",""time""
""fullscreenenter"",""1"",""4511""
","
","","","814.2000000476837","","","18","10629","4987","l","elianto","#3366ff99"," "," ","1","+10","[1664.3999999761581]","1","2","","","10629","118","8","1","win","go","0"
"pit-trial","237","1405054","0.0-123.0","battery-v0.2","","""event"",""trial"",""time""
""fullscreenenter"",""1"",""4511""
","
","
","""event"",""trial"",""time""
""fullscreenenter"",""1"",""4511""
","
","","","852.6000000238419","","","18","10629","4987","g","elianto","#f73b6a7A"," "," ","1","0","[1707.300000011921]","1","2","","","10629","119","6","3","lose","go","0"
"pit-trial","238","1409915","0.0-124.0","battery-v0.2","","""event"",""trial"",""time""
""fullscreenenter"",""1"",""4511""
","
","
","""event"",""trial"",""time""
""fullscreenenter"",""1"",""4511""
","
","","","-1","","","18","10629","4987","p","elianto","#3366ff99","-1","-1","1","+10","[]","0","2","","","10629","120","5","2","win","no-go","0"
"pit-trial","239","1413877","0.0-125.0","battery-v0.2","","""event"",""trial"",""time""
""fullscreenenter"",""1"",""4511""
","
","
","""event"",""trial"",""time""
""fullscreenenter"",""1"",""4511""
","
","","","1092.3999999761581","","","18","10629","4987","g","elianto","#f73b6a7A"," "," ","1","0","[1944.300000011921]","1","2","","","10629","121","6","3","lose","go","0"
"pit-trial","240","1417708","0.0-126.0","battery-v0.2","","""event"",""trial"",""time""
""fullscreenenter"",""1"",""4511""
","
","
","""event"",""trial"",""time""
""fullscreenenter"",""1"",""4511""
","
","","","969.5","","","18","10629","4987","u","elianto","#3366ff99"," "," ","1","+10","[1823.5]","1","2","","","10629","122","9","1","win","go","0"
"pit-trial","241","1422579","0.0-127.0","battery-v0.2","","""event"",""trial"",""time""
""fullscreenenter"",""1"",""4511""
","
","
","""event"",""trial"",""time""
""fullscreenenter"",""1"",""4511""
","
","","","-1","","","18","10629","4987","a","elianto","#f73b6a7A","-1","-1","1","0","[]","0","2","","","10629","123","7","4","lose","no-go","0"
"pit-trial","242","1426211","0.0-128.0","battery-v0.2","","""event"",""trial"",""time""
""fullscreenenter"",""1"",""4511""
","
","
","""event"",""trial"",""time""
""fullscreenenter"",""1"",""4511""
","
","","","775.6000000238419","","","18","10629","4987","l","elianto","#3366ff99"," "," ","1","+10","[1627.5]","1","2","","","10629","124","8","1","win","go","0"
"pit-trial","243","1430033","0.0-129.0","battery-v0.2","","""event"",""trial"",""time""
""fullscreenenter"",""1"",""4511""
","
","
","""event"",""trial"",""time""
""fullscreenenter"",""1"",""4511""
","
","","","965.6999999880791","","","18","10629","4987","u","elianto","#3366ff99"," "," ","1","+10","[1818.4000000357628]","1","2","","","10629","125","9","1","win","go","0"
"pit-trial","244","1434086","0.0-130.0","battery-v0.2","","""event"",""trial"",""time""
""fullscreenenter"",""1"",""4511""
","
","
","""event"",""trial"",""time""
""fullscreenenter"",""1"",""4511""
","
","","","1193.3999999761581","","","18","10629","4987","l","elianto","#3366ff99"," "," ","1","+10","[2043.9000000357628]","1","2","","","10629","126","8","1","win","go","0"
"pit-trial","245","1438949","0.0-131.0","battery-v0.2","","""event"",""trial"",""time""
""fullscreenenter"",""1"",""4511""
","
","
","""event"",""trial"",""time""
""fullscreenenter"",""1"",""4511""
","
","","","-1","","","18","10629","4987","a","elianto","#f73b6a7A","-1","-1","1","0","[]","0","2","","","10629","127","7","4","lose","no-go","0"
"pit-trial","246","1442865","0.0-132.0","battery-v0.2","","""event"",""trial"",""time""
""fullscreenenter"",""1"",""4511""
","
","
","""event"",""trial"",""time""
""fullscreenenter"",""1"",""4511""
","
","","","1055.6000000238419","","","18","10629","4987","g","elianto","#f73b6a7A"," "," ","1","0","[1907.3999999761581]","1","2","","","10629","128","6","3","lose","go","0"
"pit-trial","247","1447728","0.0-133.0","battery-v0.2","","""event"",""trial"",""time""
""fullscreenenter"",""1"",""4511""
","
","
","""event"",""trial"",""time""
""fullscreenenter"",""1"",""4511""
","
","","","-1","","","18","10629","4987","a","elianto","#f73b6a7A","-1","-1","1","0","[]","0","2","","","10629","129","7","4","lose","no-go","0"
"pit-trial","248","1451266","0.0-134.0","battery-v0.2","","""event"",""trial"",""time""
""fullscreenenter"",""1"",""4511""
","
","
","""event"",""trial"",""time""
""fullscreenenter"",""1"",""4511""
","
","","","680.3000000119209","","","18","10629","4987","l","elianto","#3366ff99"," "," ","1","0","[1531.199999988079]","1","2","","","10629","130","8","1","win","go","1"
"pit-trial","249","1455154","0.0-135.0","battery-v0.2","","""event"",""trial"",""time""
""fullscreenenter"",""1"",""4511""
","
","
","""event"",""trial"",""time""
""fullscreenenter"",""1"",""4511""
","
","","","1029.300000011921","","","18","10629","4987","u","elianto","#3366ff99"," "," ","1","+10","[1880.2000000476837]","1","2","","","10629","131","9","1","win","go","0"
"pit-trial","250","1458830","0.0-136.0","battery-v0.2","","""event"",""trial"",""time""
""fullscreenenter"",""1"",""4511""
","
","
","""event"",""trial"",""time""
""fullscreenenter"",""1"",""4511""
","
","","","811.5","","","18","10629","4987","g","elianto","#f73b6a7A"," "," ","1","0","[1666.8999999761581]","1","2","","","10629","132","6","3","lose","go","0"
"pit-trial","251","1462291","0.0-137.0","battery-v0.2","","""event"",""trial"",""time""
""fullscreenenter"",""1"",""4511""
","
","
","""event"",""trial"",""time""
""fullscreenenter"",""1"",""4511""
","
","","","601.1000000238419","","","18","10629","4987","g","elianto","#f73b6a7A"," "," ","1","0","[1453.6000000238419]","1","2","","","10629","133","6","3","lose","go","0"
"pit-trial","252","1467154","0.0-138.0","battery-v0.2","","""event"",""trial"",""time""
""fullscreenenter"",""1"",""4511""
","
","
","""event"",""trial"",""time""
""fullscreenenter"",""1"",""4511""
","
","","","-1","","","18","10629","4987","a","elianto","#f73b6a7A","-1","-1","1","0","[]","0","2","","","10629","134","7","4","lose","no-go","0"
"pit-trial","253","1470875","0.0-139.0","battery-v0.2","","""event"",""trial"",""time""
""fullscreenenter"",""1"",""4511""
","
","
","""event"",""trial"",""time""
""fullscreenenter"",""1"",""4511""
","
","","","859.4000000357628","","","18","10629","4987","l","elianto","#3366ff99"," "," ","1","+10","[1714.2000000476837]","1","2","","","10629","135","8","1","win","go","0"
"pit-trial","254","1475580","0.0-140.0","battery-v0.2","","""event"",""trial"",""time""
""fullscreenenter"",""1"",""4511""
","
","
","""event"",""trial"",""time""
""fullscreenenter"",""1"",""4511""
","
","","","1847.5","","","18","10629","4987","u","elianto","#3366ff99"," "," ","1","+10","[2700.899999976158]","1","2","","","10629","136","9","1","win","go","0"
"pit-trial","255","1479214","0.0-141.0","battery-v0.2","","""event"",""trial"",""time""
""fullscreenenter"",""1"",""4511""
","
","
","""event"",""trial"",""time""
""fullscreenenter"",""1"",""4511""
","
","","","777.8999999761581","","","18","10629","4987","g","elianto","#f73b6a7A"," "," ","1","0","[1629.8999999761581]","1","2","","","10629","137","6","3","lose","go","0"
"pit-trial","256","1484081","0.0-142.0","battery-v0.2","","""event"",""trial"",""time""
""fullscreenenter"",""1"",""4511""
","
","
","""event"",""trial"",""time""
""fullscreenenter"",""1"",""4511""
","
","","","-1","","","18","10629","4987","a","elianto","#f73b6a7A","-1","-1","1","0","[]","0","2","","","10629","138","7","4","lose","no-go","0"
"pit-trial","257","1487601","0.0-143.0","battery-v0.2","","""event"",""trial"",""time""
""fullscreenenter"",""1"",""4511""
","
","
","""event"",""trial"",""time""
""fullscreenenter"",""1"",""4511""
","
","","","657.6000000238419","","","18","10629","4987","l","elianto","#3366ff99"," "," ","1","+10","[1508.199999988079]","1","2","","","10629","139","8","1","win","go","0"
"pit-trial","258","1491276","0.0-144.0","battery-v0.2","","""event"",""trial"",""time""
""fullscreenenter"",""1"",""4511""
","
","
","""event"",""trial"",""time""
""fullscreenenter"",""1"",""4511""
","
","","","812.8000000119209","","","18","10629","4987","u","elianto","#3366ff99"," "," ","1","+10","[1670.699999988079]","1","2","","","10629","140","9","1","win","go","0"
"pit-instructions","259","1603243","0.0-145.0","battery-v0.2","","""event"",""trial"",""time""
""fullscreenenter"",""1"",""4511""
","
","
","""event"",""trial"",""time""
""fullscreenenter"",""1"",""4511""
","
","","[{""page_index"":0,""viewing_time"":103422.70000004768},{""page_index"":1,""viewing_time"":8545}]","111968.40000003576","","","","","","","","","","","","","","","","","","","","","","","",""
"pit-trial","260","1607187","0.0-146.0","battery-v0.2","","""event"",""trial"",""time""
""fullscreenenter"",""1"",""4511""
","
","
","""event"",""trial"",""time""
""fullscreenenter"",""1"",""4511""
","
","","","1079.1000000238419","","","18","10629","4987","b","elianto","#f73b6a7A"," "," ","1","0","[1929.699999988079]","1","3","","","10629","141","3","3","lose","go","0"
"pit-trial","261","1611159","0.0-147.0","battery-v0.2","","""event"",""trial"",""time""
""fullscreenenter"",""1"",""4511""
","
","
","""event"",""trial"",""time""
""fullscreenenter"",""1"",""4511""
","
","","","1108.199999988079","","","18","10629","4987","n","elianto","#f73b6a7A","-1"," ","0","-10","[1961.800000011921]","1","3","","","10629","142","0","4","lose","no-go","0"
"pit-trial","262","1614788","0.0-148.0","battery-v0.2","","""event"",""trial"",""time""
""fullscreenenter"",""1"",""4511""
","
","
","""event"",""trial"",""time""
""fullscreenenter"",""1"",""4511""
","
","","","772.5","","","18","10629","4987","t","elianto","#f73b6a7A","-1"," ","0","-10","[1623.300000011921]","1","3","","","10629","143","2","4","lose","no-go","0"
"pit-trial","263","1618518","0.0-149.0","battery-v0.2","","""event"",""trial"",""time""
""fullscreenenter"",""1"",""4511""
","
","
","""event"",""trial"",""time""
""fullscreenenter"",""1"",""4511""
","
","","","872.1000000238419","","","18","10629","4987","f","elianto","#3366ff99"," "," ","1","+10","[1724.4000000357628]","1","3","","","10629","144","1","1","win","go","0"
"pit-trial","264","1623380","0.0-150.0","battery-v0.2","","""event"",""trial"",""time""
""fullscreenenter"",""1"",""4511""
","
","
","""event"",""trial"",""time""
""fullscreenenter"",""1"",""4511""
","
