"trial_type","trial_index","time_elapsed","internal_node_id","task_version","subject_id","interactions","blur_events","focus_events","fullscreenenter_events","fullscreenexit_events","success","view_history","rt","responses","num_errors","age","subject","participantId","rune","rune_set","hex","correct","choice","accuracy","outcome","keys","total_keys","block","practice","value","sub","trial","stimulus","robot","valence","action","sham"
"pavlovia","0","6","0.0-0.0","battery-v0.2","","""event"",""trial"",""time""
""fullscreenenter"",""1"",""2442""
","
","
","""event"",""trial"",""time""
""fullscreenenter"",""1"",""2442""
","
","","","","","","","","","","","","","","","","","","","","","","","","","","",""
"fullscreen","1","3430","0.0-1.0","battery-v0.2","","""event"",""trial"",""time""
""fullscreenenter"",""1"",""2442""
","
","
","""event"",""trial"",""time""
""fullscreenenter"",""1"",""2442""
","
","true","","","","","","","","","","","","","","","","","","","","","","","","","",""
"pit-instructions","2","10600","0.0-2.0-0.0","battery-v0.2","","""event"",""trial"",""time""
""fullscreenenter"",""1"",""2442""
","
","
","""event"",""trial"",""time""
""fullscreenenter"",""1"",""2442""
","
","","[{""page_index"":0,""viewing_time"":7165.300000011921}]","7165.700000017881","","","","","","","","","","","","","","","","","","","","","","","",""
"pit-comprehension","3","14157","0.0-2.0-1.0-0.0","battery-v0.2","","""event"",""trial"",""time""
""fullscreenenter"",""1"",""2442""
","
","
","""event"",""trial"",""time""
""fullscreenenter"",""1"",""2442""
","
","","","3552.300000011921","[""shark""]","0","25","19453","1929","","","","","","","","","","","","","","","","","","",""
"pit-instructions","4","15556","0.0-2.0-1.0-1.0","battery-v0.2","","""event"",""trial"",""time""
""fullscreenenter"",""1"",""2442""
","
","
","""event"",""trial"",""time""
""fullscreenenter"",""1"",""2442""
","
","","[{""page_index"":0,""viewing_time"":1392.2999999821186}]","1392.699999988079","","","","","","","","","","","","","","","","","","","","","","","",""
"pit-comprehension","5","19269","0.0-2.0-2.0-0.0","battery-v0.2","","""event"",""trial"",""time""
""fullscreenenter"",""1"",""2442""
","
","
","""event"",""trial"",""time""
""fullscreenenter"",""1"",""2442""
","
","","","3707.800000011921","[""tiger""]","0","25","19453","1929","","","","","","","","","","","","","","","","","","",""
"pit-instructions","6","20578","0.0-2.0-2.0-1.0","battery-v0.2","","""event"",""trial"",""time""
""fullscreenenter"",""1"",""2442""
","
","
","""event"",""trial"",""time""
""fullscreenenter"",""1"",""2442""
","
","","[{""page_index"":0,""viewing_time"":1304.800000011921}]","1305.0999999940395","","","","","","","","","","","","","","","","","","","","","","","",""
"pit-instructions","7","125069","0.0-2.0-3.0","battery-v0.2","","""event"",""trial"",""time""
""fullscreenenter"",""1"",""2442""
","
","
","""event"",""trial"",""time""
""fullscreenenter"",""1"",""2442""
","
","","[{""page_index"":0,""viewing_time"":8267.700000017881},{""page_index"":1,""viewing_time"":11748.09999999404},{""page_index"":2,""viewing_time"":6250.5},{""page_index"":3,""viewing_time"":6221.9000000059605},{""page_index"":4,""viewing_time"":6546.199999988079},{""page_index"":5,""viewing_time"":6050.0999999940395},{""page_index"":6,""viewing_time"":7550.300000011921},{""page_index"":7,""viewing_time"":7053},{""page_index"":8,""viewing_time"":6636.300000011921},{""page_index"":9,""viewing_time"":8862.399999976158},{""page_index"":10,""viewing_time"":8617.800000011921},{""page_index"":11,""viewing_time"":7918.800000011921},{""page_index"":12,""viewing_time"":7043.5999999940395},{""page_index"":13,""viewing_time"":5719.699999988079}]","104486.90000000596","","","","","","","","","","","","","","","","","","","","","","","",""
"pit-trial","8","128585","0.0-2.0-4.0-0.0","battery-v0.2","","""event"",""trial"",""time""
""fullscreenenter"",""1"",""2442""
","
","
","""event"",""trial"",""time""
""fullscreenenter"",""1"",""2442""
","
","","","645.5999999940395","","","25","19453","1929","&#9784;","elianto","#FFFFF080"," "," ","1","&#10004","[1500.9000000059605]","1","0","0","","","","","","","",""
"pit-trial","9","132235","0.0-2.0-4.1-0.1","battery-v0.2","","""event"",""trial"",""time""
""fullscreenenter"",""1"",""2442""
","
","
","""event"",""trial"",""time""
""fullscreenenter"",""1"",""2442""
","
","","","779.3000000119209","","","25","19453","1929","&#9784;","elianto","#FFFFF080"," "," ","1","&#10004","[1636.2999999821186]","1","0","0","","","","","","","",""
"pit-trial","10","135845","0.0-2.0-4.2-0.2","battery-v0.2","","""event"",""trial"",""time""
""fullscreenenter"",""1"",""2442""
","
","
","""event"",""trial"",""time""
""fullscreenenter"",""1"",""2442""
","
","","","742.7000000178814","","","25","19453","1929","&#9784;","elianto","#FFFFF080"," "," ","1","&#10004","[1598.800000011921]","1","0","0","","","","","","","",""
"pit-trial","11","139345","0.0-2.0-4.3-0.3","battery-v0.2","","""event"",""trial"",""time""
""fullscreenenter"",""1"",""2442""
","
","
","""event"",""trial"",""time""
""fullscreenenter"",""1"",""2442""
","
","","","631.6999999880791","","","25","19453","1929","&#9784;","elianto","#FFFFF080"," "," ","1","&#10004","[1494.4000000059605]","1","0","0","","","","","","","",""
"pit-trial","12","142924","0.0-2.0-4.4-0.4","battery-v0.2","","""event"",""trial"",""time""
""fullscreenenter"",""1"",""2442""
","
","
","""event"",""trial"",""time""
""fullscreenenter"",""1"",""2442""
","
","","","705.8999999761581","","","25","19453","1929","&#9784;","elianto","#FFFFF080"," "," ","1","&#10004","[1567.5999999940395]","1","0","0","","","","","","","",""
"pit-instructions","13","165939","0.0-2.0-5.0","battery-v0.2","","""event"",""trial"",""time""
""fullscreenenter"",""1"",""2442""
","
","
","""event"",""trial"",""time""
""fullscreenenter"",""1"",""2442""
","
","","[{""page_index"":0,""viewing_time"":5819.700000017881},{""page_index"":1,""viewing_time"":5940.199999988079},{""page_index"":2,""viewing_time"":5481.0999999940395},{""page_index"":3,""viewing_time"":5770.300000011921}]","23011.600000023842","","","","","","","","","","","","","","","","","","","","","","","",""
"pit-trial","14","170805","0.0-2.0-6.0-0.0","battery-v0.2","","""event"",""trial"",""time""
""fullscreenenter"",""1"",""2442""
","
","
","""event"",""trial"",""time""
""fullscreenenter"",""1"",""2442""
","
","","","-1","","","25","19453","1929","&#9854;","elianto","#FFFFF080","-1","-1","1","&#10004","[]","0","0","1","","","","","","","",""
"pit-trial","15","175675","0.0-2.0-6.1-0.1","battery-v0.2","","""event"",""trial"",""time""
""fullscreenenter"",""1"",""2442""
","
","
","""event"",""trial"",""time""
""fullscreenenter"",""1"",""2442""
","
","","","-1","","","25","19453","1929","&#9854;","elianto","#FFFFF080","-1","-1","1","&#10004","[]","0","0","1","","","","","","","",""
"pit-trial","16","180550","0.0-2.0-6.2-0.2","battery-v0.2","","""event"",""trial"",""time""
""fullscreenenter"",""1"",""2442""
","
","
","""event"",""trial"",""time""
""fullscreenenter"",""1"",""2442""
","
","","","-1","","","25","19453","1929","&#9854;","elianto","#FFFFF080","-1","-1","1","&#10004","[]","0","0","1","","","","","","","",""
"pit-trial","17","185425","0.0-2.0-6.3-0.3","battery-v0.2","","""event"",""trial"",""time""
""fullscreenenter"",""1"",""2442""
","
","
","""event"",""trial"",""time""
""fullscreenenter"",""1"",""2442""
","
","","","-1","","","25","19453","1929","&#9854;","elianto","#FFFFF080","-1","-1","1","&#10004","[]","0","0","1","","","","","","","",""
"pit-trial","18","190300","0.0-2.0-6.4-0.4","battery-v0.2","","""event"",""trial"",""time""
""fullscreenenter"",""1"",""2442""
","
","
","""event"",""trial"",""time""
""fullscreenenter"",""1"",""2442""
","
","","","-1","","","25","19453","1929","&#9854;","elianto","#FFFFF080","-1","-1","1","&#10004","[]","0","0","1","","","","","","","",""
"pit-instructions","19","315518","0.0-2.0-7.0","battery-v0.2","","""event"",""trial"",""time""
""fullscreenenter"",""1"",""2442""
","
","
","""event"",""trial"",""time""
""fullscreenenter"",""1"",""2442""
","
","","[{""page_index"":0,""viewing_time"":5924.700000017881},{""page_index"":1,""viewing_time"":7359.399999976158},{""page_index"":2,""viewing_time"":6628.300000011921},{""page_index"":3,""viewing_time"":7081.699999988079},{""page_index"":4,""viewing_time"":5940.5},{""page_index"":5,""viewing_time"":5688.200000017881},{""page_index"":6,""viewing_time"":5159.9000000059605},{""page_index"":7,""viewing_time"":8541.199999988079},{""page_index"":8,""viewing_time"":7491.0999999940395},{""page_index"":9,""viewing_time"":6669},{""page_index"":10,""viewing_time"":6875.300000011921},{""page_index"":11,""viewing_time"":5354.199999988079},{""page_index"":12,""viewing_time"":7550.5999999940395},{""page_index"":13,""viewing_time"":7921.4000000059605},{""page_index"":14,""viewing_time"":7727.0999999940395},{""page_index"":15,""viewing_time"":7613.600000023842},{""page_index"":16,""viewing_time"":7438.199999988079},{""page_index"":17,""viewing_time"":8249.699999988079}]","125214.59999999404","","","","","","","","","","","","","","","","","","","","","","","",""
"pit-trial","20","318935","0.0-2.0-8.0-0.0","battery-v0.2","","""event"",""trial"",""time""
""fullscreenenter"",""1"",""2442""
","
","
","""event"",""trial"",""time""
""fullscreenenter"",""1"",""2442""
","
","","","532","","","25","19453","1929","&#9776;","elianto","#3366ff99"," "," ","1","+10","[1395.199999988079]","1","0","1","","","","","","","",""
"pit-trial","21","322396","0.0-2.0-8.0-1.0","battery-v0.2","","""event"",""trial"",""time""
""fullscreenenter"",""1"",""2442""
","
","
","""event"",""trial"",""time""
""fullscreenenter"",""1"",""2442""
","
","","","587.5999999940395","","","25","19453","1929","&#9776;","elianto","#3366ff99"," "," ","1","+10","[1451.199999988079]","1","0","1","","","","","","","",""
"pit-trial","22","325795","0.0-2.0-8.0-2.0","battery-v0.2","","""event"",""trial"",""time""
""fullscreenenter"",""1"",""2442""
","
","
","""event"",""trial"",""time""
""fullscreenenter"",""1"",""2442""
","
","","","542.0999999940395","","","25","19453","1929","&#9776;","elianto","#3366ff99"," "," ","1","+10","[1394.4000000059605]","1","0","1","","","","","","","",""
"pit-trial","23","329185","0.0-2.0-8.0-3.0","battery-v0.2","","""event"",""trial"",""time""
""fullscreenenter"",""1"",""2442""
","
","
","""event"",""trial"",""time""
""fullscreenenter"",""1"",""2442""
","
","","","531.7000000178814","","","25","19453","1929","&#9776;","elianto","#3366ff99"," "," ","1","0","[1384.9000000059605]","1","0","1","","","","","","","",""
"pit-trial","24","332445","0.0-2.0-8.0-4.0","battery-v0.2","","""event"",""trial"",""time""
""fullscreenenter"",""1"",""2442""
","
","
","""event"",""trial"",""time""
""fullscreenenter"",""1"",""2442""
","
","","","380.2000000178814","","","25","19453","1929","&#9776;","elianto","#3366ff99"," "," ","1","+10","[1241.4000000059605]","1","0","1","","","","","","","",""
"pit-trial","25","335901","0.0-2.0-8.1-0.1","battery-v0.2","","""event"",""trial"",""time""
""fullscreenenter"",""1"",""2442""
","
","
","""event"",""trial"",""time""
""fullscreenenter"",""1"",""2442""
","
","","","591.0999999940395","","","25","19453","1929","&#9776;","elianto","#3366ff99"," "," ","1","+10","[1443]","1","0","1","","","","","","","",""
"pit-trial","26","339285","0.0-2.0-8.1-1.1","battery-v0.2","","""event"",""trial"",""time""
""fullscreenenter"",""1"",""2442""
","
","
","""event"",""trial"",""time""
""fullscreenenter"",""1"",""2442""
","
","","","526.0999999940395","","","25","19453","1929","&#9776;","elianto","#3366ff99"," "," ","1","+10","[1376.4000000059605]","1","0","1","","","","","","","",""
"pit-trial","27","342613","0.0-2.0-8.1-2.1","battery-v0.2","","""event"",""trial"",""time""
""fullscreenenter"",""1"",""2442""
","
","
","""event"",""trial"",""time""
""fullscreenenter"",""1"",""2442""
","
","","","460.59999999403954","","","25","19453","1929","&#9776;","elianto","#3366ff99"," "," ","1","+10","[1322.800000011921]","1","0","1","","","","","","","",""
"pit-trial","28","346119","0.0-2.0-8.1-3.1","battery-v0.2","","""event"",""trial"",""time""
""fullscreenenter"",""1"",""2442""
","
","
","""event"",""trial"",""time""
""fullscreenenter"",""1"",""2442""
","
","","","651.5999999940395","","","25","19453","1929","&#9776;","elianto","#3366ff99"," "," ","1","0","[1502.2999999821186]","1","0","1","","","","","","","",""
"pit-trial","29","349466","0.0-2.0-8.1-4.1","battery-v0.2","","""event"",""trial"",""time""
""fullscreenenter"",""1"",""2442""
","
","
","""event"",""trial"",""time""
""fullscreenenter"",""1"",""2442""
","
","","","493.5","","","25","19453","1929","&#9776;","elianto","#3366ff99"," "," ","1","+10","[1344.2999999821186]","1","0","1","","","","","","","",""
"pit-trial","30","352768","0.0-2.0-8.2-0.2","battery-v0.2","","""event"",""trial"",""time""
""fullscreenenter"",""1"",""2442""
","
","
","""event"",""trial"",""time""
""fullscreenenter"",""1"",""2442""
","
","","","447.59999999403954","","","25","19453","1929","&#9776;","elianto","#3366ff99"," "," ","1","+10","[1298]","1","0","1","","","","","","","",""
"pit-trial","31","356109","0.0-2.0-8.2-1.2","battery-v0.2","","""event"",""trial"",""time""
""fullscreenenter"",""1"",""2442""
","
","
","""event"",""trial"",""time""
""fullscreenenter"",""1"",""2442""
","
","","","488.19999998807907","","","25","19453","1929","&#9776;","elianto","#3366ff99"," "," ","1","+10","[1338.800000011921]","1","0","1","","","","","","","",""
"pit-trial","32","359368","0.0-2.0-8.2-2.2","battery-v0.2","","""event"",""trial"",""time""
""fullscreenenter"",""1"",""2442""
","
","
","""event"",""trial"",""time""
""fullscreenenter"",""1"",""2442""
","
","","","403.80000001192093","","","25","19453","1929","&#9776;","elianto","#3366ff99"," "," ","1","+10","[1255.2000000178814]","1","0","1","","","","","","","",""
"pit-trial","33","362704","0.0-2.0-8.2-3.2","battery-v0.2","","""event"",""trial"",""time""
""fullscreenenter"",""1"",""2442""
","
","
","""event"",""trial"",""time""
""fullscreenenter"",""1"",""2442""
","
","","","483.30000001192093","","","25","19453","1929","&#9776;","elianto","#3366ff99"," "," ","1","0","[1333.2000000178814]","1","0","1","","","","","","","",""
"pit-trial","34","365918","0.0-2.0-8.2-4.2","battery-v0.2","","""event"",""trial"",""time""
""fullscreenenter"",""1"",""2442""
","
","
","""event"",""trial"",""time""
""fullscreenenter"",""1"",""2442""
","
","","","360.2999999821186","","","25","19453","1929","&#9776;","elianto","#3366ff99"," "," ","1","+10","[1211]","1","0","1","","","","","","","",""
"call-function","35","365921","0.0-2.0-9.0","battery-v0.2","","""event"",""trial"",""time""
""fullscreenenter"",""1"",""2442""
","
","
","""event"",""trial"",""time""
""fullscreenenter"",""1"",""2442""
","
","","","","","","","","","","","","","","","","","","","","","","","","","","",""
"pit-instructions","36","412343","0.0-2.0-10.0","battery-v0.2","","""event"",""trial"",""time""
""fullscreenenter"",""1"",""2442""
","
","
","""event"",""trial"",""time""
""fullscreenenter"",""1"",""2442""
","
","","[{""page_index"":0,""viewing_time"":10492},{""page_index"":1,""viewing_time"":7841.5999999940395},{""page_index"":2,""viewing_time"":10228.100000023842},{""page_index"":3,""viewing_time"":9808.799999982119},{""page_index"":4,""viewing_time"":8050.200000017881}]","46421.20000001788","","","","","","","","","","","","","","","","","","","","","","","",""
"pit-trial","37","417221","0.0-2.0-11.0-0.0","battery-v0.2","","""event"",""trial"",""time""
""fullscreenenter"",""1"",""2442""
","
","
","""event"",""trial"",""time""
""fullscreenenter"",""1"",""2442""
","
","","","-1","","","25","19453","1929","&#9761;","elianto","#3366ff99","-1","-1","1","+10","[]","0","0","2","","","","","","","",""
"pit-trial","38","422101","0.0-2.0-11.0-1.0","battery-v0.2","","""event"",""trial"",""time""
""fullscreenenter"",""1"",""2442""
","
","
","""event"",""trial"",""time""
""fullscreenenter"",""1"",""2442""
","
","","","-1","","","25","19453","1929","&#9761;","elianto","#3366ff99","-1","-1","1","+10","[]","0","0","2","","","","","","","",""
"pit-trial","39","426992","0.0-2.0-11.0-2.0","battery-v0.2","","""event"",""trial"",""time""
""fullscreenenter"",""1"",""2442""
","
","
","""event"",""trial"",""time""
""fullscreenenter"",""1"",""2442""
","
","","","-1","","","25","19453","1929","&#9761;","elianto","#3366ff99","-1","-1","1","+10","[]","0","0","2","","","","","","","",""
"pit-trial","40","431872","0.0-2.0-11.0-3.0","battery-v0.2","","""event"",""trial"",""time""
""fullscreenenter"",""1"",""2442""
","
","
","""event"",""trial"",""time""
""fullscreenenter"",""1"",""2442""
","
","","","-1","","","25","19453","1929","&#9761;","elianto","#3366ff99","-1","-1","1","0","[]","0","0","2","","","","","","","",""
"pit-trial","41","436761","0.0-2.0-11.0-4.0","battery-v0.2","","""event"",""trial"",""time""
""fullscreenenter"",""1"",""2442""
","
","
","""event"",""trial"",""time""
""fullscreenenter"",""1"",""2442""
","
","","","-1","","","25","19453","1929","&#9761;","elianto","#3366ff99","-1","-1","1","+10","[]","0","0","2","","","","","","","",""
"pit-trial","42","441639","0.0-2.0-11.1-0.1","battery-v0.2","","""event"",""trial"",""time""
""fullscreenenter"",""1"",""2442""
","
","
","""event"",""trial"",""time""
""fullscreenenter"",""1"",""2442""
","
","","","-1","","","25","19453","1929","&#9761;","elianto","#3366ff99","-1","-1","1","+10","[]","0","0","2","","","","","","","",""
"pit-trial","43","446493","0.0-2.0-11.1-1.1","battery-v0.2","","""event"",""trial"",""time""
""fullscreenenter"",""1"",""2442""
","
","
","""event"",""trial"",""time""
""fullscreenenter"",""1"",""2442""
","
","","","-1","","","25","19453","1929","&#9761;","elianto","#3366ff99","-1","-1","1","+10","[]","0","0","2","","","","","","","",""
"pit-trial","44","451346","0.0-2.0-11.1-2.1","battery-v0.2","","""event"",""trial"",""time""
""fullscreenenter"",""1"",""2442""
","
","
","""event"",""trial"",""time""
""fullscreenenter"",""1"",""2442""
","
","","","-1","","","25","19453","1929","&#9761;","elianto","#3366ff99","-1","-1","1","+10","[]","0","0","2","","","","","","","",""
"pit-trial","45","456200","0.0-2.0-11.1-3.1","battery-v0.2","","""event"",""trial"",""time""
""fullscreenenter"",""1"",""2442""
","
","
","""event"",""trial"",""time""
""fullscreenenter"",""1"",""2442""
","
","","","-1","","","25","19453","1929","&#9761;","elianto","#3366ff99","-1","-1","1","0","[]","0","0","2","","","","","","","",""
"pit-trial","46","461055","0.0-2.0-11.1-4.1","battery-v0.2","","""event"",""trial"",""time""
""fullscreenenter"",""1"",""2442""
","
","
","""event"",""trial"",""time""
""fullscreenenter"",""1"",""2442""
","
","","","-1","","","25","19453","1929","&#9761;","elianto","#3366ff99","-1","-1","1","+10","[]","0","0","2","","","","","","","",""
"pit-trial","47","465908","0.0-2.0-11.2-0.2","battery-v0.2","","""event"",""trial"",""time""
""fullscreenenter"",""1"",""2442""
","
","
","""event"",""trial"",""time""
""fullscreenenter"",""1"",""2442""
","
","","","-1","","","25","19453","1929","&#9761;","elianto","#3366ff99","-1","-1","1","+10","[]","0","0","2","","","","","","","",""
"pit-trial","48","470762","0.0-2.0-11.2-1.2","battery-v0.2","","""event"",""trial"",""time""
""fullscreenenter"",""1"",""2442""
","
","
","""event"",""trial"",""time""
""fullscreenenter"",""1"",""2442""
","
","","","-1","","","25","19453","1929","&#9761;","elianto","#3366ff99","-1","-1","1","+10","[]","0","0","2","","","","","","","",""
"pit-trial","49","475627","0.0-2.0-11.2-2.2","battery-v0.2","","""event"",""trial"",""time""
""fullscreenenter"",""1"",""2442""
","
","
","""event"",""trial"",""time""
""fullscreenenter"",""1"",""2442""
","
","","","-1","","","25","19453","1929","&#9761;","elianto","#3366ff99","-1","-1","1","+10","[]","0","0","2","","","","","","","",""
"pit-trial","50","480480","0.0-2.0-11.2-3.2","battery-v0.2","","""event"",""trial"",""time""
""fullscreenenter"",""1"",""2442""
","
","
","""event"",""trial"",""time""
""fullscreenenter"",""1"",""2442""
","
","","","-1","","","25","19453","1929","&#9761;","elianto","#3366ff99","-1","-1","1","0","[]","0","0","2","","","","","","","",""
"pit-trial","51","485333","0.0-2.0-11.2-4.2","battery-v0.2","","""event"",""trial"",""time""
""fullscreenenter"",""1"",""2442""
","
","
","""event"",""trial"",""time""
""fullscreenenter"",""1"",""2442""
","
","","","-1","","","25","19453","1929","&#9761;","elianto","#3366ff99","-1","-1","1","+10","[]","0","0","2","","","","","","","",""
"pit-trial","52","490187","0.0-2.0-11.3-0.3","battery-v0.2","","""event"",""trial"",""time""
""fullscreenenter"",""1"",""2442""
","
","
","""event"",""trial"",""time""
""fullscreenenter"",""1"",""2442""
","
","","","-1","","","25","19453","1929","&#9761;","elianto","#3366ff99","-1","-1","1","+10","[]","0","0","2","","","","","","","",""
"pit-trial","53","495040","0.0-2.0-11.3-1.3","battery-v0.2","","""event"",""trial"",""time""
""fullscreenenter"",""1"",""2442""
","
","
","""event"",""trial"",""time""
""fullscreenenter"",""1"",""2442""
","
","","","-1","","","25","19453","1929","&#9761;","elianto","#3366ff99","-1","-1","1","+10","[]","0","0","2","","","","","","","",""
"pit-trial","54","499895","0.0-2.0-11.3-2.3","battery-v0.2","","""event"",""trial"",""time""
""fullscreenenter"",""1"",""2442""
","
","
","""event"",""trial"",""time""
""fullscreenenter"",""1"",""2442""
","
","","","-1","","","25","19453","1929","&#9761;","elianto","#3366ff99","-1","-1","1","+10","[]","0","0","2","","","","","","","",""
"pit-trial","55","504749","0.0-2.0-11.3-3.3","battery-v0.2","","""event"",""trial"",""time""
""fullscreenenter"",""1"",""2442""
","
","
","""event"",""trial"",""time""
""fullscreenenter"",""1"",""2442""
","
","","","-1","","","25","19453","1929","&#9761;","elianto","#3366ff99","-1","-1","1","0","[]","0","0","2","","","","","","","",""
"pit-trial","56","509603","0.0-2.0-11.3-4.3","battery-v0.2","","""event"",""trial"",""time""
""fullscreenenter"",""1"",""2442""
","
","
","""event"",""trial"",""time""
""fullscreenenter"",""1"",""2442""
","
","","","-1","","","25","19453","1929","&#9761;","elianto","#3366ff99","-1","-1","1","+10","[]","0","0","2","","","","","","","",""
"call-function","57","509605","0.0-2.0-12.0","battery-v0.2","","""event"",""trial"",""time""
""fullscreenenter"",""1"",""2442""
","
","
","""event"",""trial"",""time""
""fullscreenenter"",""1"",""2442""
","
","","","","","","","","","","","","","","","","","","","","","","","","","","",""
"pit-instructions","58","550889","0.0-2.0-13.0","battery-v0.2","","""event"",""trial"",""time""
""fullscreenenter"",""1"",""2442""
","
","
","""event"",""trial"",""time""
""fullscreenenter"",""1"",""2442""
","
","","[{""page_index"":0,""viewing_time"":7104.799999982119},{""page_index"":1,""viewing_time"":10457.90000000596},{""page_index"":2,""viewing_time"":5667.4000000059605},{""page_index"":3,""viewing_time"":11631.5},{""page_index"":4,""viewing_time"":6421}]","41283.09999999404","","","","","","","","","","","","","","","","","","","","","","","",""
"pit-trial","59","554249","0.0-2.0-14.0-0.0","battery-v0.2","","""event"",""trial"",""time""
""fullscreenenter"",""1"",""2442""
","
","
","""event"",""trial"",""time""
""fullscreenenter"",""1"",""2442""
","
","","","497.5","","","25","19453","1929","&#9826;","elianto","#f73b6a7A","-1"," ","0","-10","[1347.5]","1","0","3","","","","","","","",""
"pit-trial","60","559126","0.0-2.0-14.0-1.0","battery-v0.2","","""event"",""trial"",""time""
""fullscreenenter"",""1"",""2442""
","
","
","""event"",""trial"",""time""
""fullscreenenter"",""1"",""2442""
","
","","","-1","","","25","19453","1929","&#9826;","elianto","#f73b6a7A","-1","-1","1","0","[]","0","0","3","","","","","","","",""
"pit-trial","61","563994","0.0-2.0-14.0-2.0","battery-v0.2","","""event"",""trial"",""time""
""fullscreenenter"",""1"",""2442""
","
","
","""event"",""trial"",""time""
""fullscreenenter"",""1"",""2442""
","
","","","-1","","","25","19453","1929","&#9826;","elianto","#f73b6a7A","-1","-1","1","0","[]","0","0","3","","","","","","","",""
"pit-trial","62","568876","0.0-2.0-14.0-3.0","battery-v0.2","","""event"",""trial"",""time""
""fullscreenenter"",""1"",""2442""
","
","
","""event"",""trial"",""time""
""fullscreenenter"",""1"",""2442""
","
","","","-1","","","25","19453","1929","&#9826;","elianto","#f73b6a7A","-1","-1","1","-10","[]","0","0","3","","","","","","","",""
"pit-trial","63","573756","0.0-2.0-14.0-4.0","battery-v0.2","","""event"",""trial"",""time""
""fullscreenenter"",""1"",""2442""
","
","
","""event"",""trial"",""time""
""fullscreenenter"",""1"",""2442""
","
","","","-1","","","25","19453","1929","&#9826;","elianto","#f73b6a7A","-1","-1","1","0","[]","0","0","3","","","","","","","",""
"pit-trial","64","578646","0.0-2.0-14.1-0.1","battery-v0.2","","""event"",""trial"",""time""
""fullscreenenter"",""1"",""2442""
","
","
","""event"",""trial"",""time""
""fullscreenenter"",""1"",""2442""
","
","","","-1","","","25","19453","1929","&#9826;","elianto","#f73b6a7A","-1","-1","1","0","[]","0","0","3","","","","","","","",""
"pit-trial","65","583501","0.0-2.0-14.1-1.1","battery-v0.2","","""event"",""trial"",""time""
""fullscreenenter"",""1"",""2442""
","
","
","""event"",""trial"",""time""
""fullscreenenter"",""1"",""2442""
","
","","","-1","","","25","19453","1929","&#9826;","elianto","#f73b6a7A","-1","-1","1","0","[]","0","0","3","","","","","","","",""
"pit-trial","66","588354","0.0-2.0-14.1-2.1","battery-v0.2","","""event"",""trial"",""time""
""fullscreenenter"",""1"",""2442""
","
","
","""event"",""trial"",""time""
""fullscreenenter"",""1"",""2442""
","
","","","-1","","","25","19453","1929","&#9826;","elianto","#f73b6a7A","-1","-1","1","0","[]","0","0","3","","","","","","","",""
"pit-trial","67","593209","0.0-2.0-14.1-3.1","battery-v0.2","","""event"",""trial"",""time""
""fullscreenenter"",""1"",""2442""
","
","
","""event"",""trial"",""time""
""fullscreenenter"",""1"",""2442""
","
","","","-1","","","25","19453","1929","&#9826;","elianto","#f73b6a7A","-1","-1","1","-10","[]","0","0","3","","","","","","","",""
"pit-trial","68","598063","0.0-2.0-14.1-4.1","battery-v0.2","","""event"",""trial"",""time""
""fullscreenenter"",""1"",""2442""
","
","
","""event"",""trial"",""time""
""fullscreenenter"",""1"",""2442""
","
","","","-1","","","25","19453","1929","&#9826;","elianto","#f73b6a7A","-1","-1","1","0","[]","0","0","3","","","","","","","",""
"pit-trial","69","602917","0.0-2.0-14.2-0.2","battery-v0.2","","""event"",""trial"",""time""
""fullscreenenter"",""1"",""2442""
","
","
","""event"",""trial"",""time""
""fullscreenenter"",""1"",""2442""
","
","","","-1","","","25","19453","1929","&#9826;","elianto","#f73b6a7A","-1","-1","1","0","[]","0","0","3","","","","","","","",""
"pit-trial","70","607771","0.0-2.0-14.2-1.2","battery-v0.2","","""event"",""trial"",""time""
""fullscreenenter"",""1"",""2442""
","
","
","""event"",""trial"",""time""
""fullscreenenter"",""1"",""2442""
","
","","","-1","","","25","19453","1929","&#9826;","elianto","#f73b6a7A","-1","-1","1","0","[]","0","0","3","","","","","","","",""
"pit-trial","71","612623","0.0-2.0-14.2-2.2","battery-v0.2","","""event"",""trial"",""time""
""fullscreenenter"",""1"",""2442""
","
","
","""event"",""trial"",""time""
""fullscreenenter"",""1"",""2442""
","
","","","-1","","","25","19453","1929","&#9826;","elianto","#f73b6a7A","-1","-1","1","0","[]","0","0","3","","","","","","","",""
"pit-trial","72","617477","0.0-2.0-14.2-3.2","battery-v0.2","","""event"",""trial"",""time""
""fullscreenenter"",""1"",""2442""
","
","
","""event"",""trial"",""time""
""fullscreenenter"",""1"",""2442""
","
","","","-1","","","25","19453","1929","&#9826;","elianto","#f73b6a7A","-1","-1","1","-10","[]","0","0","3","","","","","","","",""
"pit-trial","73","622331","0.0-2.0-14.2-4.2","battery-v0.2","","""event"",""trial"",""time""
""fullscreenenter"",""1"",""2442""
","
","
","""event"",""trial"",""time""
""fullscreenenter"",""1"",""2442""
","
","","","-1","","","25","19453","1929","&#9826;","elianto","#f73b6a7A","-1","-1","1","0","[]","0","0","3","","","","","","","",""
"pit-trial","74","627184","0.0-2.0-14.3-0.3","battery-v0.2","","""event"",""trial"",""time""
""fullscreenenter"",""1"",""2442""
","
","
","""event"",""trial"",""time""
""fullscreenenter"",""1"",""2442""
","
","","","-1","","","25","19453","1929","&#9826;","elianto","#f73b6a7A","-1","-1","1","0","[]","0","0","3","","","","","","","",""
"pit-trial","75","632038","0.0-2.0-14.3-1.3","battery-v0.2","","""event"",""trial"",""time""
""fullscreenenter"",""1"",""2442""
","
","
","""event"",""trial"",""time""
""fullscreenenter"",""1"",""2442""
","
","","","-1","","","25","19453","1929","&#9826;","elianto","#f73b6a7A","-1","-1","1","0","[]","0","0","3","","","","","","","",""
"pit-trial","76","636891","0.0-2.0-14.3-2.3","battery-v0.2","","""event"",""trial"",""time""
""fullscreenenter"",""1"",""2442""
","
","
","""event"",""trial"",""time""
""fullscreenenter"",""1"",""2442""
","
","","","-1","","","25","19453","1929","&#9826;","elianto","#f73b6a7A","-1","-1","1","0","[]","0","0","3","","","","","","","",""
"pit-trial","77","641744","0.0-2.0-14.3-3.3","battery-v0.2","","""event"",""trial"",""time""
""fullscreenenter"",""1"",""2442""
","
","
","""event"",""trial"",""time""
""fullscreenenter"",""1"",""2442""
","
","","","-1","","","25","19453","1929","&#9826;","elianto","#f73b6a7A","-1","-1","1","-10","[]","0","0","3","","","","","","","",""
"pit-trial","78","646597","0.0-2.0-14.3-4.3","battery-v0.2","","""event"",""trial"",""time""
""fullscreenenter"",""1"",""2442""
","
","
","""event"",""trial"",""time""
""fullscreenenter"",""1"",""2442""
","
","","","-1","","","25","19453","1929","&#9826;","elianto","#f73b6a7A","-1","-1","1","0","[]","0","0","3","","","","","","","",""
"call-function","79","646599","0.0-2.0-15.0","battery-v0.2","","""event"",""trial"",""time""
""fullscreenenter"",""1"",""2442""
","
","
","""event"",""trial"",""time""
""fullscreenenter"",""1"",""2442""
","
","","","","","","","","","","","","","","","","","","","","","","","","","","",""
"pit-instructions","80","684780","0.0-2.0-16.0","battery-v0.2","","""event"",""trial"",""time""
""fullscreenenter"",""1"",""2442""
","
","
","""event"",""trial"",""time""
""fullscreenenter"",""1"",""2442""
","
","","[{""page_index"":0,""viewing_time"":13301.59999999404},{""page_index"":1,""viewing_time"":10857.200000017881},{""page_index"":2,""viewing_time"":6764.899999976158},{""page_index"":3,""viewing_time"":7256.5}]","38180.30000001192","","","","","","","","","","","","","","","","","","","","","","","",""
"pit-trial","81","688281","0.0-2.0-17.0-0.0","battery-v0.2","","""event"",""trial"",""time""
""fullscreenenter"",""1"",""2442""
","
","
","""event"",""trial"",""time""
""fullscreenenter"",""1"",""2442""
","
","","","645.0999999940395","","","25","19453","1929","&#9789;","elianto","#f73b6a7A"," "," ","1","0","[1498.4000000059605]","1","0","4","","","","","","","",""
"pit-trial","82","691631","0.0-2.0-17.0-1.0","battery-v0.2","","""event"",""trial"",""time""
""fullscreenenter"",""1"",""2442""
","
","
","""event"",""trial"",""time""
""fullscreenenter"",""1"",""2442""
","
","","","490.30000001192093","","","25","19453","1929","&#9789;","elianto","#f73b6a7A"," "," ","1","0","[1340.800000011921]","1","0","4","","","","","","","",""
"pit-trial","83","694881","0.0-2.0-17.0-2.0","battery-v0.2","","""event"",""trial"",""time""
""fullscreenenter"",""1"",""2442""
","
","
","""event"",""trial"",""time""
""fullscreenenter"",""1"",""2442""
","
","","","379.09999999403954","","","25","19453","1929","&#9789;","elianto","#f73b6a7A"," "," ","1","0","[1243.0999999940395]","1","0","4","","","","","","","",""
"pit-trial","84","698211","0.0-2.0-17.0-3.0","battery-v0.2","","""event"",""trial"",""time""
""fullscreenenter"",""1"",""2442""
","
","
","""event"",""trial"",""time""
""fullscreenenter"",""1"",""2442""
","
","","","476.09999999403954","","","25","19453","1929","&#9789;","elianto","#f73b6a7A"," "," ","1","-10","[1326.699999988079]","1","0","4","","","","","","","",""
"pit-trial","85","701511","0.0-2.0-17.0-4.0","battery-v0.2","","""event"",""trial"",""time""
""fullscreenenter"",""1"",""2442""
","
","
","""event"",""trial"",""time""
""fullscreenenter"",""1"",""2442""
","
","","","437.80000001192093","","","25","19453","1929","&#9789;","elianto","#f73b6a7A"," "," ","1","0","[1288.4000000059605]","1","0","4","","","","","","","",""
"pit-trial","86","704861","0.0-2.0-17.1-0.1","battery-v0.2","","""event"",""trial"",""time""
""fullscreenenter"",""1"",""2442""
","
","
","""event"",""trial"",""time""
""fullscreenenter"",""1"",""2442""
","
","","","492.59999999403954","","","25","19453","1929","&#9789;","elianto","#f73b6a7A"," "," ","1","0","[1344.5]","1","0","4","","","","","","","",""
"pit-trial","87","708221","0.0-2.0-17.1-1.1","battery-v0.2","","""event"",""trial"",""time""
""fullscreenenter"",""1"",""2442""
","
","
","""event"",""trial"",""time""
""fullscreenenter"",""1"",""2442""
","
","","","505.2000000178814","","","25","19453","1929","&#9789;","elianto","#f73b6a7A"," "," ","1","0","[1356]","1","0","4","","","","","","","",""
"pit-trial","88","711571","0.0-2.0-17.1-2.1","battery-v0.2","","""event"",""trial"",""time""
""fullscreenenter"",""1"",""2442""
","
","
","""event"",""trial"",""time""
""fullscreenenter"",""1"",""2442""
","
","","","488.7999999821186","","","25","19453","1929","&#9789;","elianto","#f73b6a7A"," "," ","1","0","[1345.199999988079]","1","0","4","","","","","","","",""
"pit-trial","89","714873","0.0-2.0-17.1-3.1","battery-v0.2","","""event"",""trial"",""time""
""fullscreenenter"",""1"",""2442""
","
","
","""event"",""trial"",""time""
""fullscreenenter"",""1"",""2442""
","
","","","441.40000000596046","","","25","19453","1929","&#9789;","elianto","#f73b6a7A"," "," ","1","-10","[1298.300000011921]","1","0","4","","","","","","","",""
"pit-trial","90","718125","0.0-2.0-17.1-4.1","battery-v0.2","","""event"",""trial"",""time""
""fullscreenenter"",""1"",""2442""
","
","
","""event"",""trial"",""time""
""fullscreenenter"",""1"",""2442""
","
","","","397.90000000596046","","","25","19453","1929","&#9789;","elianto","#f73b6a7A"," "," ","1","0","[1249.5]","1","0","4","","","","","","","",""
"pit-trial","91","721425","0.0-2.0-17.2-0.2","battery-v0.2","","""event"",""trial"",""time""
""fullscreenenter"",""1"",""2442""
","
","
","""event"",""trial"",""time""
""fullscreenenter"",""1"",""2442""
","
","","","445.40000000596046","","","25","19453","1929","&#9789;","elianto","#f73b6a7A"," "," ","1","0","[1296.800000011921]","1","0","4","","","","","","","",""
"pit-trial","92","724895","0.0-2.0-17.2-1.2","battery-v0.2","","""event"",""trial"",""time""
""fullscreenenter"",""1"",""2442""
","
","
","""event"",""trial"",""time""
""fullscreenenter"",""1"",""2442""
","
","","","616.7999999821186","","","25","19453","1929","&#9789;","elianto","#f73b6a7A"," "," ","1","0","[1467.5999999940395]","1","0","4","","","","","","","",""
"pit-trial","93","728524","0.0-2.0-17.2-2.2","battery-v0.2","","""event"",""trial"",""time""
""fullscreenenter"",""1"",""2442""
","
","
","""event"",""trial"",""time""
""fullscreenenter"",""1"",""2442""
","
","","","776","","","25","19453","1929","&#9789;","elianto","#f73b6a7A"," "," ","1","0","[1626]","1","0","4","","","","","","","",""
"pit-trial","94","731881","0.0-2.0-17.2-3.2","battery-v0.2","","""event"",""trial"",""time""
""fullscreenenter"",""1"",""2442""
","
","
","""event"",""trial"",""time""
""fullscreenenter"",""1"",""2442""
","
","","","503.59999999403954","","","25","19453","1929","&#9789;","elianto","#f73b6a7A"," "," ","1","-10","[1354.199999988079]","1","0","4","","","","","","","",""
"pit-trial","95","735234","0.0-2.0-17.2-4.2","battery-v0.2","","""event"",""trial"",""time""
""fullscreenenter"",""1"",""2442""
","
","
","""event"",""trial"",""time""
""fullscreenenter"",""1"",""2442""
","
","","","499.10000002384186","","","25","19453","1929","&#9789;","elianto","#f73b6a7A"," "," ","1","0","[1349.300000011921]","1","0","4","","","","","","","",""
"pit-trial","96","738594","0.0-2.0-17.3-0.3","battery-v0.2","","""event"",""trial"",""time""
""fullscreenenter"",""1"",""2442""
","
","
","""event"",""trial"",""time""
""fullscreenenter"",""1"",""2442""
","
","","","505.39999997615814","","","25","19453","1929","&#9789;","elianto","#f73b6a7A"," "," ","1","0","[1355.9000000059605]","1","0","4","","","","","","","",""
"pit-trial","97","742129","0.0-2.0-17.3-1.3","battery-v0.2","","""event"",""trial"",""time""
""fullscreenenter"",""1"",""2442""
","
","
","""event"",""trial"",""time""
""fullscreenenter"",""1"",""2442""
","
","","","666.7999999821186","","","25","19453","1929","&#9789;","elianto","#f73b6a7A"," "," ","1","0","[1516.5999999940395]","1","0","4","","","","","","","",""
"pit-trial","98","745593","0.0-2.0-17.3-2.3","battery-v0.2","","""event"",""trial"",""time""
""fullscreenenter"",""1"",""2442""
","
","
","""event"",""trial"",""time""
""fullscreenenter"",""1"",""2442""
","
","","","609.8999999761581","","","25","19453","1929","&#9789;","elianto","#f73b6a7A"," "," ","1","0","[1460.7999999821186]","1","0","4","","","","","","","",""
"pit-trial","99","748973","0.0-2.0-17.3-3.3","battery-v0.2","","""event"",""trial"",""time""
""fullscreenenter"",""1"",""2442""
","
","
","""event"",""trial"",""time""
""fullscreenenter"",""1"",""2442""
","
","","","527","","","25","19453","1929","&#9789;","elianto","#f73b6a7A"," "," ","1","-10","[1378.300000011921]","1","0","4","","","","","","","",""
"pit-trial","100","752383","0.0-2.0-17.3-4.3","battery-v0.2","","""event"",""trial"",""time""
""fullscreenenter"",""1"",""2442""
","
","
","""event"",""trial"",""time""
""fullscreenenter"",""1"",""2442""
","
","","","556.2999999821186","","","25","19453","1929","&#9789;","elianto","#f73b6a7A"," "," ","1","0","[1406.699999988079]","1","0","4","","","","","","","",""
"call-function","101","752384","0.0-2.0-18.0","battery-v0.2","","""event"",""trial"",""time""
""fullscreenenter"",""1"",""2442""
","
","
","""event"",""trial"",""time""
""fullscreenenter"",""1"",""2442""
","
","","","","","","","","","","","","","","","","","","","","","","","","","","",""
"pit-instructions","102","818155","0.0-2.0-19.0","battery-v0.2","","""event"",""trial"",""time""
""fullscreenenter"",""1"",""2442""
","
","
","""event"",""trial"",""time""
""fullscreenenter"",""1"",""2442""
","
","","[{""page_index"":0,""viewing_time"":8030.700000017881},{""page_index"":1,""viewing_time"":6681.5},{""page_index"":2,""viewing_time"":10529.199999988079},{""page_index"":3,""viewing_time"":7929.0999999940395},{""page_index"":4,""viewing_time"":6431.9000000059605},{""page_index"":5,""viewing_time"":10619},{""page_index"":6,""viewing_time"":4618.4000000059605},{""page_index"":7,""viewing_time"":6676.4000000059605},{""page_index"":8,""viewing_time"":4252.5999999940395}]","65769.30000001192","","","","","","","","","","","","","","","","","","","","","","","",""
"pit-comprehension","103","822989","0.0-2.0-20.0-0.0","battery-v0.2","","""event"",""trial"",""time""
""fullscreenenter"",""1"",""2442""
","
","
","""event"",""trial"",""time""
""fullscreenenter"",""1"",""2442""
","
","","","4828.9000000059605","[""SPACE""]","0","25","19453","1929","","","","","","","","","","","","","","","","","","",""
"pit-instructions","104","825856","0.0-2.0-20.0-1.0","battery-v0.2","","""event"",""trial"",""time""
""fullscreenenter"",""1"",""2442""
","
","
","""event"",""trial"",""time""
""fullscreenenter"",""1"",""2442""
","
","","[{""page_index"":0,""viewing_time"":2844.7999999821186}]","2845.199999988079","","","","","","","","","","","","","","","","","","","","","","","",""
"pit-comprehension","105","830789","0.0-2.0-21.0-0.0","battery-v0.2","","""event"",""trial"",""time""
""fullscreenenter"",""1"",""2442""
","
","
","""event"",""trial"",""time""
""fullscreenenter"",""1"",""2442""
","
","","","4928.5","[""10""]","0","25","19453","1929","","","","","","","","","","","","","","","","","","",""
"pit-instructions","106","832512","0.0-2.0-21.0-1.0","battery-v0.2","","""event"",""trial"",""time""
""fullscreenenter"",""1"",""2442""
","
","
","""event"",""trial"",""time""
""fullscreenenter"",""1"",""2442""
","
","","[{""page_index"":0,""viewing_time"":1705}]","1705.199999988079","","","","","","","","","","","","","","","","","","","","","","","",""
"pit-comprehension","107","839569","0.0-2.0-22.0-0.0","battery-v0.2","","""event"",""trial"",""time""
""fullscreenenter"",""1"",""2442""
","
","
","""event"",""trial"",""time""
""fullscreenenter"",""1"",""2442""
","
","","","7055.299999982119","[""-10""]","1","25","19453","1929","","","","","","","","","","","","","","","","","","",""
"pit-instructions","108","841546","0.0-2.0-22.0-1.0","battery-v0.2","","""event"",""trial"",""time""
""fullscreenenter"",""1"",""2442""
","
","
","""event"",""trial"",""time""
""fullscreenenter"",""1"",""2442""
","
","","[{""page_index"":0,""viewing_time"":1954.1000000238419}]","1954.4000000059605","","","","","","","","","","","","","","","","","","","","","","","",""
"pit-instructions","109","843009","0.0-2.0-22.0-2.0-0.0","battery-v0.2","","""event"",""trial"",""time""
""fullscreenenter"",""1"",""2442""
","
","
","""event"",""trial"",""time""
""fullscreenenter"",""1"",""2442""
","
","","[{""page_index"":0,""viewing_time"":1460.3999999761581}]","1460.5999999940395","","","","","","","","","","","","","","","","","","","","","","","",""
"pit-comprehension","110","850296","0.0-2.0-22.1-0.1","battery-v0.2","","""event"",""trial"",""time""
""fullscreenenter"",""1"",""2442""
","
","
","""event"",""trial"",""time""
""fullscreenenter"",""1"",""2442""
","
","","","7285.4000000059605","[""0""]","0","25","19453","1929","","","","","","","","","","","","","","","","","","",""
"pit-instructions","111","852288","0.0-2.0-22.1-1.1","battery-v0.2","","""event"",""trial"",""time""
""fullscreenenter"",""1"",""2442""
","
","
","""event"",""trial"",""time""
""fullscreenenter"",""1"",""2442""
","
","","[{""page_index"":0,""viewing_time"":1972.2000000178814}]","1972.5","","","","","","","","","","","","","","","","","","","","","","","",""
"pit-comprehension","112","862598","0.0-2.0-23.0-0.0","battery-v0.2","","""event"",""trial"",""time""
""fullscreenenter"",""1"",""2442""
","
","
","""event"",""trial"",""time""
""fullscreenenter"",""1"",""2442""
","
","","","10308.399999976158","[""True""]","0","25","19453","1929","","","","","","","","","","","","","","","","","","",""
"pit-instructions","113","864488","0.0-2.0-23.0-1.0","battery-v0.2","","""event"",""trial"",""time""
""fullscreenenter"",""1"",""2442""
","
","
","""event"",""trial"",""time""
""fullscreenenter"",""1"",""2442""
","
","","[{""page_index"":0,""viewing_time"":1871.0999999940395}]","1871.300000011921","","","","","","","","","","","","","","","","","","","","","","","",""
"pit-comprehension","114","872319","0.0-2.0-24.0-0.0","battery-v0.2","","""event"",""trial"",""time""
""fullscreenenter"",""1"",""2442""
","
","
","""event"",""trial"",""time""
""fullscreenenter"",""1"",""2442""
","
","","","7829.800000011921","[""True""]","0","25","19453","1929","","","","","","","","","","","","","","","","","","",""
"pit-instructions","115","874266","0.0-2.0-24.0-1.0","battery-v0.2","","""event"",""trial"",""time""
""fullscreenenter"",""1"",""2442""
","
","
","""event"",""trial"",""time""
""fullscreenenter"",""1"",""2442""
","
","","[{""page_index"":0,""viewing_time"":1921.7999999821186}]","1922.2999999821186","","","","","","","","","","","","","","","","","","","","","","","",""
"pit-comprehension","116","881140","0.0-2.0-25.0-0.0","battery-v0.2","","""event"",""trial"",""time""
""fullscreenenter"",""1"",""2442""
","
","
","""event"",""trial"",""time""
""fullscreenenter"",""1"",""2442""
","
","","","6870.100000023842","[""True""]","0","25","19453","1929","","","","","","","","","","","","","","","","","","",""
"pit-instructions","117","882915","0.0-2.0-25.0-1.0","battery-v0.2","","""event"",""trial"",""time""
""fullscreenenter"",""1"",""2442""
","
","
","""event"",""trial"",""time""
""fullscreenenter"",""1"",""2442""
","
","","[{""page_index"":0,""viewing_time"":1754.5}]","1754.7999999821186","","","","","","","","","","","","","","","","","","","","","","","",""
"pit-comprehension","118","888138","0.0-2.0-26.0-0.0","battery-v0.2","","""event"",""trial"",""time""
""fullscreenenter"",""1"",""2442""
","
","
","""event"",""trial"",""time""
""fullscreenenter"",""1"",""2442""
","
","","","5219.5999999940395","[""False""]","0","25","19453","1929","","","","","","","","","","","","","","","","","","",""
"pit-instructions","119","889845","0.0-2.0-26.0-1.0","battery-v0.2","","""event"",""trial"",""time""
""fullscreenenter"",""1"",""2442""
","
","
","""event"",""trial"",""time""
""fullscreenenter"",""1"",""2442""
","
","","[{""page_index"":0,""viewing_time"":1683.7000000178814}]","1683.9000000059605","","","","","","","","","","","","","","","","","","","","","","","",""
"pit-instructions","120","907259","0.0-3.0","battery-v0.2","","""event"",""trial"",""time""
""fullscreenenter"",""1"",""2442""
","
","
","""event"",""trial"",""time""
""fullscreenenter"",""1"",""2442""
","
","","[{""page_index"":0,""viewing_time"":3970.4000000059605},{""page_index"":1,""viewing_time"":5531.5},{""page_index"":2,""viewing_time"":7910.9000000059605}]","17413","","","","","","","","","","","","","","","","","","","","","","","",""
"pit-trial","121","911213","0.0-4.0","battery-v0.2","","""event"",""trial"",""time""
""fullscreenenter"",""1"",""2442""
","
","
","""event"",""trial"",""time""
""fullscreenenter"",""1"",""2442""
","
","","","1089.2000000178814","","","25","19453","1929","&#9733;","elianto","#3366ff99","-1"," ","0","+10","[1946.800000011921]","1","1","","","19453","1","2","2","win","no-go","1"
"pit-trial","122","914652","0.0-5.0","battery-v0.2","","""event"",""trial"",""time""
""fullscreenenter"",""1"",""2442""
","
","
","""event"",""trial"",""time""
""fullscreenenter"",""1"",""2442""
","
","","","576.7000000178814","","","25","19453","1929","&#9730;","elianto","#3366ff99"," "," ","1","+10","[1430.7000000178814]","1","1","","","19453","2","1","1","win","go","0"
"pit-trial","123","917943","0.0-6.0","battery-v0.2","","""event"",""trial"",""time""
""fullscreenenter"",""1"",""2442""
","
","
","""event"",""trial"",""time""
""fullscreenenter"",""1"",""2442""
","
","","","437","","","25","19453","1929","&#9752;","elianto","#f73b6a7A"," "," ","1","0","[1287.199999988079]","1","1","","","19453","3","3","3","lose","go","0"
"pit-trial","124","921343","0.0-7.0","battery-v0.2","","""event"",""trial"",""time""
""fullscreenenter"",""1"",""2442""
","
","
","""event"",""trial"",""time""
""fullscreenenter"",""1"",""2442""
","
","","","523.5999999940395","","","25","19453","1929","&#9728;","elianto","#f73b6a7A","-1"," ","0","-10","[1379.5]","1","1","","","19453","4","0","4","lose","no-go","0"
"pit-trial","125","924743","0.0-8.0","battery-v0.2","","""event"",""trial"",""time""
""fullscreenenter"",""1"",""2442""
","
","
","""event"",""trial"",""time""
""fullscreenenter"",""1"",""2442""
","
","","","529.3000000119209","","","25","19453","1929","&#9733;","elianto","#3366ff99","-1"," ","0","0","[1385.199999988079]","1","1","","","19453","5","2","2","win","no-go","0"
"pit-trial","126","928063","0.0-9.0","battery-v0.2","","""event"",""trial"",""time""
""fullscreenenter"",""1"",""2442""
","
","
","""event"",""trial"",""time""
""fullscreenenter"",""1"",""2442""
","
","","","451.69999998807907","","","25","19453","1929","&#9752;","elianto","#f73b6a7A"," "," ","1","0","[1307.4000000059605]","1","1","","","19453","6","3","3","lose","go","0"
"pit-trial","127","931473","0.0-10.0","battery-v0.2","","""event"",""trial"",""time""
""fullscreenenter"",""1"",""2442""
","
","
","""event"",""trial"",""time""
""fullscreenenter"",""1"",""2442""
","
","","","552.4000000059605","","","25","19453","1929","&#9728;","elianto","#f73b6a7A","-1"," ","0","-10","[1404.2999999821186]","1","1","","","19453","7","0","4","lose","no-go","0"
"pit-trial","128","934803","0.0-11.0","battery-v0.2","","""event"",""trial"",""time""
""fullscreenenter"",""1"",""2442""
","
","
","""event"",""trial"",""time""
""fullscreenenter"",""1"",""2442""
","
","","","464.60000002384186","","","25","19453","1929","&#9730;","elianto","#3366ff99"," "," ","1","+10","[1324]","1","1","","","19453","8","1","1","win","go","0"
"pit-trial","129","938278","0.0-12.0","battery-v0.2","","""event"",""trial"",""time""
""fullscreenenter"",""1"",""2442""
","
","
","""event"",""trial"",""time""
""fullscreenenter"",""1"",""2442""
","
","","","610.8000000119209","","","25","19453","1929","&#9730;","elianto","#3366ff99"," "," ","1","0","[1472.800000011921]","1","1","","","19453","9","1","1","win","go","1"
"pit-trial","130","941799","0.0-13.0","battery-v0.2","","""event"",""trial"",""time""
""fullscreenenter"",""1"",""2442""
","
","
","""event"",""trial"",""time""
""fullscreenenter"",""1"",""2442""
","
","","","651.8000000119209","","","25","19453","1929","&#9733;","elianto","#3366ff99","-1"," ","0","+10","[1502.800000011921]","1","1","","","19453","10","2","2","win","no-go","1"
"pit-trial","131","945212","0.0-14.0","battery-v0.2","","""event"",""trial"",""time""
""fullscreenenter"",""1"",""2442""
","
","
","""event"",""trial"",""time""
""fullscreenenter"",""1"",""2442""
","
","","","558.6999999880791","","","25","19453","1929","&#9752;","elianto","#f73b6a7A"," "," ","1","-10","[1410.2999999821186]","1","1","","","19453","11","3","3","lose","go","1"
"pit-trial","132","948661","0.0-15.0","battery-v0.2","","""event"",""trial"",""time""
""fullscreenenter"",""1"",""2442""
","
","
","""event"",""trial"",""time""
""fullscreenenter"",""1"",""2442""
","
","","","595.0999999940395","","","25","19453","1929","&#9728;","elianto","#f73b6a7A","-1"," ","0","-10","[1445.9000000059605]","1","1","","","19453","12","0","4","lose","no-go","0"
"pit-trial","133","952217","0.0-16.0","battery-v0.2","","""event"",""trial"",""time""
""fullscreenenter"",""1"",""2442""
","
","
","""event"",""trial"",""time""
""fullscreenenter"",""1"",""2442""
","
","","","702.0999999940395","","","25","19453","1929","&#9752;","elianto","#f73b6a7A"," "," ","1","0","[1553.199999988079]","1","1","","","19453","13","3","3","lose","go","0"
"pit-trial","134","955752","0.0-17.0","battery-v0.2","","""event"",""trial"",""time""
""fullscreenenter"",""1"",""2442""
","
","
","""event"",""trial"",""time""
""fullscreenenter"",""1"",""2442""
","
","","","681.5999999940395","","","25","19453","1929","&#9730;","elianto","#3366ff99"," "," ","1","+10","[1532]","1","1","","","19453","14","1","1","win","go","0"
"pit-trial","135","960606","0.0-18.0","battery-v0.2","","""event"",""trial"",""time""
""fullscreenenter"",""1"",""2442""
","
","
","""event"",""trial"",""time""
""fullscreenenter"",""1"",""2442""
","
","","","-1","","","25","19453","1929","&#9728;","elianto","#f73b6a7A","-1","-1","1","0","[]","0","1","","","19453","15","0","4","lose","no-go","0"
"pit-trial","136","964271","0.0-19.0","battery-v0.2","","""event"",""trial"",""time""
""fullscreenenter"",""1"",""2442""
","
","
","""event"",""trial"",""time""
""fullscreenenter"",""1"",""2442""
","
","","","812.5","","","25","19453","1929","&#9733;","elianto","#3366ff99","-1"," ","0","0","[1662.5]","1","1","","","19453","16","2","2","win","no-go","0"
"pit-trial","137","969125","0.0-20.0","battery-v0.2","","""event"",""trial"",""time""
""fullscreenenter"",""1"",""2442""
","
","
","""event"",""trial"",""time""
""fullscreenenter"",""1"",""2442""
","
","","","-1","","","25","19453","1929","&#9728;","elianto","#f73b6a7A","-1","-1","1","0","[]","0","1","","","19453","17","0","4","lose","no-go","0"
"pit-trial","138","972459","0.0-21.0","battery-v0.2","","""event"",""trial"",""time""
""fullscreenenter"",""1"",""2442""
","
","
","""event"",""trial"",""time""
""fullscreenenter"",""1"",""2442""
","
","","","479.80000001192093","","","25","19453","1929","&#9733;","elianto","#3366ff99","-1"," ","0","+10","[1330.6000000238419]","1","1","","","19453","18","2","2","win","no-go","1"
"pit-trial","139","977313","0.0-22.0","battery-v0.2","","""event"",""trial"",""time""
""fullscreenenter"",""1"",""2442""
","
","
","""event"",""trial"",""time""
""fullscreenenter"",""1"",""2442""
","
","","","-1","","","25","19453","1929","&#9730;","elianto","#3366ff99"," ","-1","0","0","[]","0","1","","","19453","19","1","1","win","go","0"
"pit-trial","140","980694","0.0-23.0","battery-v0.2","","""event"",""trial"",""time""
""fullscreenenter"",""1"",""2442""
","
","
","""event"",""trial"",""time""
""fullscreenenter"",""1"",""2442""
","
","","","528","","","25","19453","1929","&#9752;","elianto","#f73b6a7A"," "," ","1","0","[1378.300000011921]","1","1","","","19453","20","3","3","lose","go","0"
"pit-instructions","141","995129","0.0-24.0","battery-v0.2","","""event"",""trial"",""time""
""fullscreenenter"",""1"",""2442""
","
","
","""event"",""trial"",""time""
""fullscreenenter"",""1"",""2442""
","
","","[{""page_index"":0,""viewing_time"":6284.800000011921},{""page_index"":1,""viewing_time"":8148.199999988079}]","14433.40000000596","","","","","","","","","","","","","","","","","","","","","","","",""
"pit-trial","142","998718","0.0-25.0","battery-v0.2","","""event"",""trial"",""time""
""fullscreenenter"",""1"",""2442""
","
","
","""event"",""trial"",""time""
""fullscreenenter"",""1"",""2442""
","
","","","719","","","25","19453","1929","u","elianto","#f73b6a7A","-1"," ","0","-10","[1569.699999988079]","1","2","","","19453","21","0","4","lose","no-go","0"
"pit-trial","143","1002109","0.0-26.0","battery-v0.2","","""event"",""trial"",""time""
""fullscreenenter"",""1"",""2442""
","
","
","""event"",""trial"",""time""
""fullscreenenter"",""1"",""2442""
","
","","","520.0999999940395","","","25","19453","1929","a","elianto","#f73b6a7A","-1"," ","0","0","[1380.0999999940395]","1","2","","","19453","22","2","4","lose","no-go","1"
"pit-trial","144","1005539","0.0-27.0","battery-v0.2","","""event"",""trial"",""time""
""fullscreenenter"",""1"",""2442""
","
","
","""event"",""trial"",""time""
""fullscreenenter"",""1"",""2442""
","
","","","556","","","25","19453","1929","l","elianto","#3366ff99"," "," ","1","+10","[1409.2000000178814]","1","2","","","19453","23","1","1","win","go","0"
"pit-trial","145","1009119","0.0-28.0","battery-v0.2","","""event"",""trial"",""time""
""fullscreenenter"",""1"",""2442""
","
","
","""event"",""trial"",""time""
""fullscreenenter"",""1"",""2442""
","
","","","715","","","25","19453","1929","g","elianto","#f73b6a7A"," "," ","1","0","[1571.300000011921]","1","2","","","19453","24","3","3","lose","go","0"
"pit-trial","146","1013189","0.0-29.0","battery-v0.2","","""event"",""trial"",""time""
""fullscreenenter"",""1"",""2442""
","
","
","""event"",""trial"",""time""
""fullscreenenter"",""1"",""2442""
","
","","","1204.0999999940395","","","25","19453","1929","a","elianto","#f73b6a7A","-1"," ","0","0","[2063.7000000178814]","1","2","","","19453","25","2","4","lose","no-go","1"
"pit-trial","147","1016894","0.0-30.0","battery-v0.2","","""event"",""trial"",""time""
""fullscreenenter"",""1"",""2442""
","
","
","""event"",""trial"",""time""
""fullscreenenter"",""1"",""2442""
","
","","","836.9000000059605","","","25","19453","1929","l","elianto","#3366ff99"," "," ","1","+10","[1692.0999999940395]","1","2","","","19453","26","1","1","win","go","0"
"pit-trial","148","1021779","0.0-31.0","battery-v0.2","","""event"",""trial"",""time""
""fullscreenenter"",""1"",""2442""
","
","
","""event"",""trial"",""time""
""fullscreenenter"",""1"",""2442""
","
","","","-1","","","25","19453","1929","u","elianto","#f73b6a7A","-1","-1","1","0","[]","0","2","","","19453","27","0","4","lose","no-go","0"
"pit-trial","149","1025351","0.0-32.0","battery-v0.2","","""event"",""trial"",""time""
""fullscreenenter"",""1"",""2442""
","
","
","""event"",""trial"",""time""
""fullscreenenter"",""1"",""2442""
","
","","","718.4000000059605","","","25","19453","1929","g","elianto","#f73b6a7A"," "," ","1","0","[1568.9000000059605]","1","2","","","19453","28","3","3","lose","go","0"
"pit-trial","150","1029833","0.0-33.0","battery-v0.2","","""event"",""trial"",""time""
""fullscreenenter"",""1"",""2442""
","
","
","""event"",""trial"",""time""
""fullscreenenter"",""1"",""2442""
","
","","","1627.5","","","25","19453","1929","g","elianto","#f73b6a7A"," "," ","1","0","[2478.2999999821186]","1","2","","","19453","29","3","3","lose","go","0"
"pit-trial","151","1034686","0.0-34.0","battery-v0.2","","""event"",""trial"",""time""
""fullscreenenter"",""1"",""2442""
","
","
","""event"",""trial"",""time""
""fullscreenenter"",""1"",""2442""
","
","","","-1","","","25","19453","1929","a","elianto","#f73b6a7A","-1","-1","1","-10","[]","0","2","","","19453","30","2","4","lose","no-go","1"
"pit-trial","152","1039539","0.0-35.0","battery-v0.2","","""event"",""trial"",""time""
""fullscreenenter"",""1"",""2442""
","
","
","""event"",""trial"",""time""
""fullscreenenter"",""1"",""2442""
","
","","","-1","","","25","19453","1929","u","elianto","#f73b6a7A","-1","-1","1","0","[]","0","2","","","19453","31","0","4","lose","no-go","0"
"pit-trial","153","1043264","0.0-36.0","battery-v0.2","","""event"",""trial"",""time""
""fullscreenenter"",""1"",""2442""
","
","
","""event"",""trial"",""time""
""fullscreenenter"",""1"",""2442""
","
","","","870.8000000119209","","","25","19453","1929","l","elianto","#3366ff99"," "," ","1","+10","[1721.4000000059605]","1","2","","","19453","32","1","1","win","go","0"
"pit-trial","154","1048117","0.0-37.0","battery-v0.2","","""event"",""trial"",""time""
""fullscreenenter"",""1"",""2442""
","
","
","""event"",""trial"",""time""
""fullscreenenter"",""1"",""2442""
","
","","","-1","","","25","19453","1929","u","elianto","#f73b6a7A","-1","-1","1","0","[]","0","2","","","19453","33","0","4","lose","no-go","0"
"pit-trial","155","1051792","0.0-38.0","battery-v0.2","","""event"",""trial"",""time""
""fullscreenenter"",""1"",""2442""
","
","
","""event"",""trial"",""time""
""fullscreenenter"",""1"",""2442""
","
","","","820.8000000119209","","","25","19453","1929","l","elianto","#3366ff99"," "," ","1","+10","[1671.300000011921]","1","2","","","19453","34","1","1","win","go","0"
"pit-trial","156","1055408","0.0-39.0","battery-v0.2","","""event"",""trial"",""time""
""fullscreenenter"",""1"",""2442""
","
","
","""event"",""trial"",""time""
""fullscreenenter"",""1"",""2442""
","
","","","763.0999999940395","","","25","19453","1929","g","elianto","#f73b6a7A"," "," ","1","0","[1613.5]","1","2","","","19453","35","3","3","lose","go","0"
"pit-trial","157","1058874","0.0-40.0","battery-v0.2","","""event"",""trial"",""time""
""fullscreenenter"",""1"",""2442""
","
","
","""event"",""trial"",""time""
""fullscreenenter"",""1"",""2442""
","
","","","611.1999999880791","","","25","19453","1929","a","elianto","#f73b6a7A","-1"," ","0","-10","[1462.4000000059605]","1","2","","","19453","36","2","4","lose","no-go","0"
"pit-trial","158","1062404","0.0-41.0","battery-v0.2","","""event"",""trial"",""time""
""fullscreenenter"",""1"",""2442""
","
","
","""event"",""trial"",""time""
""fullscreenenter"",""1"",""2442""
","
","","","675.7999999821186","","","25","19453","1929","a","elianto","#f73b6a7A","-1"," ","0","0","[1526.699999988079]","1","2","","","19453","37","2","4","lose","no-go","1"
"pit-trial","159","1065916","0.0-42.0","battery-v0.2","","""event"",""trial"",""time""
""fullscreenenter"",""1"",""2442""
","
","
","""event"",""trial"",""time""
""fullscreenenter"",""1"",""2442""
","
","","","658.6999999880791","","","25","19453","1929","g","elianto","#f73b6a7A"," "," ","1","0","[1509.199999988079]","1","2","","","19453","38","3","3","lose","go","0"
"pit-trial","160","1069492","0.0-43.0","battery-v0.2","","""event"",""trial"",""time""
""fullscreenenter"",""1"",""2442""
","
","
","""event"",""trial"",""time""
""fullscreenenter"",""1"",""2442""
","
","","","721.3000000119209","","","25","19453","1929","l","elianto","#3366ff99"," "," ","1","+10","[1571.9000000059605]","1","2","","","19453","39","1","1","win","go","0"
"pit-trial","161","1074346","0.0-44.0","battery-v0.2","","""event"",""trial"",""time""
""fullscreenenter"",""1"",""2442""
","
","
","""event"",""trial"",""time""
""fullscreenenter"",""1"",""2442""
","
","","","-1","","","25","19453","1929","u","elianto","#f73b6a7A","-1","-1","1","-10","[]","0","2","","","19453","40","0","4","lose","no-go","1"
"pit-trial","162","1077814","0.0-45.0","battery-v0.2","","""event"",""trial"",""time""
""fullscreenenter"",""1"",""2442""
","
","
","""event"",""trial"",""time""
""fullscreenenter"",""1"",""2442""
","
","","","615.2000000178814","","","25","19453","1929","l","elianto","#3366ff99"," "," ","1","+10","[1465.5999999940395]","1","2","","","19453","41","1","1","win","go","0"
"pit-trial","163","1081407","0.0-46.0","battery-v0.2","","""event"",""trial"",""time""
""fullscreenenter"",""1"",""2442""
","
","
","""event"",""trial"",""time""
""fullscreenenter"",""1"",""2442""
","
","","","740.3999999761581","","","25","19453","1929","g","elianto","#f73b6a7A"," "," ","1","0","[1590.5999999940395]","1","2","","","19453","42","3","3","lose","go","0"
"pit-trial","164","1084892","0.0-47.0","battery-v0.2","","""event"",""trial"",""time""
""fullscreenenter"",""1"",""2442""
","
","
","""event"",""trial"",""time""
""fullscreenenter"",""1"",""2442""
","
","","","630.8999999761581","","","25","19453","1929","a","elianto","#f73b6a7A","-1"," ","0","-10","[1481.3999999761581]","1","2","","","19453","43","2","4","lose","no-go","0"
"pit-trial","165","1089745","0.0-48.0","battery-v0.2","","""event"",""trial"",""time""
""fullscreenenter"",""1"",""2442""
","
","
","""event"",""trial"",""time""
""fullscreenenter"",""1"",""2442""
","
","","","-1","","","25","19453","1929","u","elianto","#f73b6a7A","-1","-1","1","0","[]","0","2","","","19453","44","0","4","lose","no-go","0"
"pit-trial","166","1093276","0.0-49.0","battery-v0.2","","""event"",""trial"",""time""
""fullscreenenter"",""1"",""2442""
","
","
","""event"",""trial"",""time""
""fullscreenenter"",""1"",""2442""
","
","","","674.4000000059605","","","25","19453","1929","p","elianto","#3366ff99","-1"," ","0","0","[1525.1000000238419]","1","2","","","19453","45","4","2","win","no-go","0"
"pit-trial","167","1098130","0.0-50.0","battery-v0.2","","""event"",""trial"",""time""
""fullscreenenter"",""1"",""2442""
","
","
","""event"",""trial"",""time""
""fullscreenenter"",""1"",""2442""
","
","","","-1","","","25","19453","1929","u","elianto","#f73b6a7A","-1","-1","1","0","[]","0","2","","","19453","46","0","4","lose","no-go","0"
"pit-trial","168","1101742","0.0-51.0","battery-v0.2","","""event"",""trial"",""time""
""fullscreenenter"",""1"",""2442""
","
","
","""event"",""trial"",""time""
""fullscreenenter"",""1"",""2442""
","
","","","758.1999999880791","","","25","19453","1929","a","elianto","#f73b6a7A","-1"," ","0","-10","[1608.699999988079]","1","2","","","19453","47","2","4","lose","no-go","0"
"pit-trial","169","1105293","0.0-52.0","battery-v0.2","","""event"",""trial"",""time""
""fullscreenenter"",""1"",""2442""
","
","
","""event"",""trial"",""time""
""fullscreenenter"",""1"",""2442""
","
","","","697.1999999880791","","","25","19453","1929","g","elianto","#f73b6a7A"," "," ","1","0","[1547.5999999940395]","1","2","","","19453","48","3","3","lose","go","0"
"pit-trial","170","1108913","0.0-53.0","battery-v0.2","","""event"",""trial"",""time""
""fullscreenenter"",""1"",""2442""
","
","
","""event"",""trial"",""time""
""fullscreenenter"",""1"",""2442""
","
","","","766","","","25","19453","1929","g","elianto","#f73b6a7A"," "," ","1","0","[1617.199999988079]","1","2","","","19453","49","3","3","lose","go","0"
"pit-trial","171","1112383","0.0-54.0","battery-v0.2","","""event"",""trial"",""time""
""fullscreenenter"",""1"",""2442""
","
","
","""event"",""trial"",""time""
""fullscreenenter"",""1"",""2442""
","
","","","615.8000000119209","","","25","19453","1929","p","elianto","#3366ff99","-1"," ","0","0","[1467.7999999821186]","1","2","","","19453","50","4","2","win","no-go","0"
"pit-trial","172","1115997","0.0-55.0","battery-v0.2","","""event"",""trial"",""time""
""fullscreenenter"",""1"",""2442""
","
","
","""event"",""trial"",""time""
""fullscreenenter"",""1"",""2442""
","
","","","760.7000000178814","","","25","19453","1929","l","elianto","#3366ff99"," "," ","1","+10","[1610.7999999821186]","1","2","","","19453","51","1","1","win","go","0"
"pit-trial","173","1120852","0.0-56.0","battery-v0.2","","""event"",""trial"",""time""
""fullscreenenter"",""1"",""2442""
","
","
","""event"",""trial"",""time""
""fullscreenenter"",""1"",""2442""
","
","","","-1","","","25","19453","1929","u","elianto","#f73b6a7A","-1","-1","1","0","[]","0","2","","","19453","52","0","4","lose","no-go","0"
"pit-trial","174","1125722","0.0-57.0","battery-v0.2","","""event"",""trial"",""time""
""fullscreenenter"",""1"",""2442""
","
","
","""event"",""trial"",""time""
""fullscreenenter"",""1"",""2442""
","
","","","-1","","","25","19453","1929","a","elianto","#f73b6a7A","-1","-1","1","0","[]","0","2","","","19453","53","2","4","lose","no-go","0"
"pit-trial","175","1130575","0.0-58.0","battery-v0.2","","""event"",""trial"",""time""
""fullscreenenter"",""1"",""2442""
","
","
","""event"",""trial"",""time""
""fullscreenenter"",""1"",""2442""
","
","","","-1","","","25","19453","1929","p","elianto","#3366ff99","-1","-1","1","0","[]","0","2","","","19453","54","4","2","win","no-go","1"
"pit-trial","176","1133992","0.0-59.0","battery-v0.2","","""event"",""trial"",""time""
""fullscreenenter"",""1"",""2442""
","
","
","""event"",""trial"",""time""
""fullscreenenter"",""1"",""2442""
","
","","","562.0999999940395","","","25","19453","1929","l","elianto","#3366ff99"," "," ","1","+10","[1412.9000000059605]","1","2","","","19453","55","1","1","win","go","0"
"pit-trial","177","1138845","0.0-60.0","battery-v0.2","","""event"",""trial"",""time""
""fullscreenenter"",""1"",""2442""
","
","
","""event"",""trial"",""time""
""fullscreenenter"",""1"",""2442""
","
","","","-1","","","25","19453","1929","u","elianto","#f73b6a7A","-1","-1","1","0","[]","0","2","","","19453","56","0","4","lose","no-go","0"
"pit-trial","178","1142478","0.0-61.0","battery-v0.2","","""event"",""trial"",""time""
""fullscreenenter"",""1"",""2442""
","
","
","""event"",""trial"",""time""
""fullscreenenter"",""1"",""2442""
","
","","","778.6000000238419","","","25","19453","1929","g","elianto","#f73b6a7A"," "," ","1","0","[1630.6000000238419]","1","2","","","19453","57","3","3","lose","go","0"
"pit-trial","179","1146051","0.0-62.0","battery-v0.2","","""event"",""trial"",""time""
""fullscreenenter"",""1"",""2442""
","
","
","""event"",""trial"",""time""
""fullscreenenter"",""1"",""2442""
","
","","","720.0999999940395","","","25","19453","1929","l","elianto","#3366ff99"," "," ","1","0","[1570.0999999940395]","1","2","","","19453","58","1","1","win","go","1"
"pit-trial","180","1150906","0.0-63.0","battery-v0.2","","""event"",""trial"",""time""
""fullscreenenter"",""1"",""2442""
","
","
","""event"",""trial"",""time""
""fullscreenenter"",""1"",""2442""
","
","","","-1","","","25","19453","1929","u","elianto","#f73b6a7A","-1","-1","1","0","[]","0","2","","","19453","59","0","4","lose","no-go","0"
"pit-trial","181","1155758","0.0-64.0","battery-v0.2","","""event"",""trial"",""time""
""fullscreenenter"",""1"",""2442""
","
","
","""event"",""trial"",""time""
""fullscreenenter"",""1"",""2442""
","
","","","-1","","","25","19453","1929","p","elianto","#3366ff99","-1","-1","1","+10","[]","0","2","","","19453","60","4","2","win","no-go","0"
"pit-trial","182","1160613","0.0-65.0","battery-v0.2","","""event"",""trial"",""time""
""fullscreenenter"",""1"",""2442""
","
","
","""event"",""trial"",""time""
""fullscreenenter"",""1"",""2442""
","
","","","-1","","","25","19453","1929","p","elianto","#3366ff99","-1","-1","1","0","[]","0","2","","","19453","61","4","2","win","no-go","1"
"pit-trial","183","1164168","0.0-66.0","battery-v0.2","","""event"",""trial"",""time""
""fullscreenenter"",""1"",""2442""
","
","
","""event"",""trial"",""time""
""fullscreenenter"",""1"",""2442""
","
","","","701.8000000119209","","","25","19453","1929","g","elianto","#f73b6a7A"," "," ","1","0","[1552.9000000059605]","1","2","","","19453","62","3","3","lose","go","0"
"pit-trial","184","1169023","0.0-67.0","battery-v0.2","","""event"",""trial"",""time""
""fullscreenenter"",""1"",""2442""
","
","
","""event"",""trial"",""time""
""fullscreenenter"",""1"",""2442""
","
","","","-1","","","25","19453","1929","a","elianto","#f73b6a7A","-1","-1","1","0","[]","0","2","","","19453","63","2","4","lose","no-go","0"
"pit-trial","185","1172583","0.0-68.0","battery-v0.2","","""event"",""trial"",""time""
""fullscreenenter"",""1"",""2442""
","
","
","""event"",""trial"",""time""
""fullscreenenter"",""1"",""2442""
","
","","","705.5","","","25","19453","1929","l","elianto","#3366ff99"," "," ","1","+10","[1556.2999999821186]","1","2","","","19453","64","1","1","win","go","0"
"pit-trial","186","1176168","0.0-69.0","battery-v0.2","","""event"",""trial"",""time""
""fullscreenenter"",""1"",""2442""
","
","
","""event"",""trial"",""time""
""fullscreenenter"",""1"",""2442""
","
","","","731.9000000059605","","","25","19453","1929","g","elianto","#f73b6a7A"," "," ","1","0","[1582.199999988079]","1","2","","","19453","65","3","3","lose","go","0"
"pit-trial","187","1179702","0.0-70.0","battery-v0.2","","""event"",""trial"",""time""
""fullscreenenter"",""1"",""2442""
","
","
","""event"",""trial"",""time""
""fullscreenenter"",""1"",""2442""
","
","","","679.3999999761581","","","25","19453","1929","l","elianto","#3366ff99"," "," ","1","+10","[1530.8999999761581]","1","2","","","19453","66","1","1","win","go","0"
"pit-trial","188","1184557","0.0-71.0","battery-v0.2","","""event"",""trial"",""time""
""fullscreenenter"",""1"",""2442""
","
","
","""event"",""trial"",""time""
""fullscreenenter"",""1"",""2442""
","
","","","-1","","","25","19453","1929","a","elianto","#f73b6a7A","-1","-1","1","0","[]","0","2","","","19453","67","2","4","lose","no-go","0"
"pit-trial","189","1189411","0.0-72.0","battery-v0.2","","""event"",""trial"",""time""
""fullscreenenter"",""1"",""2442""
","
","
","""event"",""trial"",""time""
""fullscreenenter"",""1"",""2442""
","
","","","-1","","","25","19453","1929","p","elianto","#3366ff99","-1","-1","1","+10","[]","0","2","","","19453","68","4","2","win","no-go","0"
"pit-trial","190","1192958","0.0-73.0","battery-v0.2","","""event"",""trial"",""time""
""fullscreenenter"",""1"",""2442""
","
","
","""event"",""trial"",""time""
""fullscreenenter"",""1"",""2442""
","
","","","693","","","25","19453","1929","l","elianto","#3366ff99"," "," ","1","+10","[1544]","1","2","","","19453","69","1","1","win","go","0"
"pit-trial","191","1197812","0.0-74.0","battery-v0.2","","""event"",""trial"",""time""
""fullscreenenter"",""1"",""2442""
","
","
","""event"",""trial"",""time""
""fullscreenenter"",""1"",""2442""
","
","","","-1","","","25","19453","1929","p","elianto","#3366ff99","-1","-1","1","+10","[]","0","2","","","19453","70","4","2","win","no-go","0"
"pit-trial","192","1201529","0.0-75.0","battery-v0.2","","""event"",""trial"",""time""
""fullscreenenter"",""1"",""2442""
","
","
","""event"",""trial"",""time""
""fullscreenenter"",""1"",""2442""
","
","","","863.8000000119209","","","25","19453","1929","g","elianto","#f73b6a7A"," "," ","1","0","[1714.9000000059605]","1","2","","","19453","71","3","3","lose","go","0"
"pit-trial","193","1205528","0.0-76.0","battery-v0.2","","""event"",""trial"",""time""
""fullscreenenter"",""1"",""2442""
","
","
","""event"",""trial"",""time""
""fullscreenenter"",""1"",""2442""
","
","","","1145","","","25","19453","1929","s","elianto","#3366ff99"," "," ","1","+10","[1995.9000000059605]","1","2","","","19453","72","5","1","win","go","0"
"pit-trial","194","1209301","0.0-77.0","battery-v0.2","","""event"",""trial"",""time""
""fullscreenenter"",""1"",""2442""
","
","
","""event"",""trial"",""time""
""fullscreenenter"",""1"",""2442""
","
","","","920","","","25","19453","1929","g","elianto","#f73b6a7A"," "," ","1","0","[1770.300000011921]","1","2","","","19453","73","3","3","lose","go","0"
"pit-trial","195","1212866","0.0-78.0","battery-v0.2","","""event"",""trial"",""time""
""fullscreenenter"",""1"",""2442""
","
","
","""event"",""trial"",""time""
""fullscreenenter"",""1"",""2442""
","
","","","712.4000000059605","","","25","19453","1929","s","elianto","#3366ff99"," "," ","1","0","[1562.6000000238419]","1","2","","","19453","74","5","1","win","go","1"
"pit-trial","196","1217720","0.0-79.0","battery-v0.2","","""event"",""trial"",""time""
""fullscreenenter"",""1"",""2442""
","
","
","""event"",""trial"",""time""
""fullscreenenter"",""1"",""2442""
","
","","","-1","","","25","19453","1929","p","elianto","#3366ff99","-1","-1","1","+10","[]","0","2","","","19453","75","4","2","win","no-go","0"
"pit-trial","197","1221156","0.0-80.0","battery-v0.2","","""event"",""trial"",""time""
""fullscreenenter"",""1"",""2442""
","
","
","""event"",""trial"",""time""
""fullscreenenter"",""1"",""2442""
","
","","","583.2999999821186","","","25","19453","1929","l","elianto","#3366ff99"," "," ","1","+10","[1433.2999999821186]","1","2","","","19453","76","1","1","win","go","0"
"pit-trial","198","1224765","0.0-81.0","battery-v0.2","","""event"",""trial"",""time""
""fullscreenenter"",""1"",""2442""
","
","
","""event"",""trial"",""time""
""fullscreenenter"",""1"",""2442""
","
","","","755.6999999880791","","","25","19453","1929","s","elianto","#3366ff99"," "," ","1","+10","[1606]","1","2","","","19453","77","5","1","win","go","0"
"pit-trial","199","1228697","0.0-82.0","battery-v0.2","","""event"",""trial"",""time""
""fullscreenenter"",""1"",""2442""
","
","
","""event"",""trial"",""time""
""fullscreenenter"",""1"",""2442""
","
","","","1079.1000000238419","","","25","19453","1929","w","elianto","#f73b6a7A","-1"," ","0","0","[1929.2999999821186]","1","2","","","19453","78","6","4","lose","no-go","1"
"pit-trial","200","1233552","0.0-83.0","battery-v0.2","","""event"",""trial"",""time""
""fullscreenenter"",""1"",""2442""
","
","
","""event"",""trial"",""time""
""fullscreenenter"",""1"",""2442""
","
","","","-1","","","25","19453","1929","p","elianto","#3366ff99","-1","-1","1","+10","[]","0","2","","","19453","79","4","2","win","no-go","0"
"pit-trial","201","1237146","0.0-84.0","battery-v0.2","","""event"",""trial"",""time""
""fullscreenenter"",""1"",""2442""
","
","
","""event"",""trial"",""time""
""fullscreenenter"",""1"",""2442""
","
","","","739.5999999940395","","","25","19453","1929","g","elianto","#f73b6a7A"," "," ","1","-10","[1590.0999999940395]","1","2","","","19453","80","3","3","lose","go","1"
"pit-trial","202","1240807","0.0-85.0","battery-v0.2","","""event"",""trial"",""time""
""fullscreenenter"",""1"",""2442""
","
","
","""event"",""trial"",""time""
""fullscreenenter"",""1"",""2442""
","
","","","808.5999999940395","","","25","19453","1929","w","elianto","#f73b6a7A","-1"," ","0","-10","[1659]","1","2","","","19453","81","6","4","lose","no-go","0"
"pit-trial","203","1244448","0.0-86.0","battery-v0.2","","""event"",""trial"",""time""
""fullscreenenter"",""1"",""2442""
","
","
","""event"",""trial"",""time""
""fullscreenenter"",""1"",""2442""
","
","","","787.4000000059605","","","25","19453","1929","e","elianto","#f73b6a7A"," "," ","1","0","[1637.5999999940395]","1","2","","","19453","82","7","3","lose","go","0"
"pit-trial","204","1248024","0.0-87.0","battery-v0.2","","""event"",""trial"",""time""
""fullscreenenter"",""1"",""2442""
","
","
","""event"",""trial"",""time""
""fullscreenenter"",""1"",""2442""
","
","","","722.9000000059605","","","25","19453","1929","s","elianto","#3366ff99"," "," ","1","+10","[1573.3999999761581]","1","2","","","19453","83","5","1","win","go","0"
"pit-trial","205","1252879","0.0-88.0","battery-v0.2","","""event"",""trial"",""time""
""fullscreenenter"",""1"",""2442""
","
","
","""event"",""trial"",""time""
""fullscreenenter"",""1"",""2442""
","
","","","-1","","","25","19453","1929","p","elianto","#3366ff99","-1","-1","1","+10","[]","0","2","","","19453","84","4","2","win","no-go","0"
"pit-trial","206","1257732","0.0-89.0","battery-v0.2","","""event"",""trial"",""time""
""fullscreenenter"",""1"",""2442""
","
","
","""event"",""trial"",""time""
""fullscreenenter"",""1"",""2442""
","
","","","-1","","","25","19453","1929","p","elianto","#3366ff99","-1","-1","1","+10","[]","0","2","","","19453","85","4","2","win","no-go","0"
"pit-trial","207","1262586","0.0-90.0","battery-v0.2","","""event"",""trial"",""time""
""fullscreenenter"",""1"",""2442""
","
","
","""event"",""trial"",""time""
""fullscreenenter"",""1"",""2442""
","
","","","-1","","","25","19453","1929","e","elianto","#f73b6a7A"," ","-1","0","-10","[]","0","2","","","19453","86","7","3","lose","go","0"
"pit-trial","208","1266232","0.0-91.0","battery-v0.2","","""event"",""trial"",""time""
""fullscreenenter"",""1"",""2442""
","
","
","""event"",""trial"",""time""
""fullscreenenter"",""1"",""2442""
","
","","","792.5","","","25","19453","1929","s","elianto","#3366ff99"," "," ","1","0","[1642.800000011921]","1","2","","","19453","87","5","1","win","go","1"
"pit-trial","209","1271085","0.0-92.0","battery-v0.2","","""event"",""trial"",""time""
""fullscreenenter"",""1"",""2442""
","
","
","""event"",""trial"",""time""
""fullscreenenter"",""1"",""2442""
","
","","","-1","","","25","19453","1929","w","elianto","#f73b6a7A","-1","-1","1","0","[]","0","2","","","19453","88","6","4","lose","no-go","0"
"pit-trial","210","1275941","0.0-93.0","battery-v0.2","","""event"",""trial"",""time""
""fullscreenenter"",""1"",""2442""
","
","
","""event"",""trial"",""time""
""fullscreenenter"",""1"",""2442""
","
","","","-1","","","25","19453","1929","w","elianto","#f73b6a7A","-1","-1","1","0","[]","0","2","","","19453","89","6","4","lose","no-go","0"
"pit-trial","211","1279585","0.0-94.0","battery-v0.2","","""event"",""trial"",""time""
""fullscreenenter"",""1"",""2442""
","
","
","""event"",""trial"",""time""
""fullscreenenter"",""1"",""2442""
","
","","","790","","","25","19453","1929","e","elianto","#f73b6a7A"," "," ","1","0","[1640.800000011921]","1","2","","","19453","90","7","3","lose","go","0"
"pit-trial","212","1284439","0.0-95.0","battery-v0.2","","""event"",""trial"",""time""
""fullscreenenter"",""1"",""2442""
","
","
","""event"",""trial"",""time""
""fullscreenenter"",""1"",""2442""
","
","","","-1","","","25","19453","1929","p","elianto","#3366ff99","-1","-1","1","+10","[]","0","2","","","19453","91","4","2","win","no-go","0"
"pit-trial","213","1287858","0.0-96.0","battery-v0.2","","""event"",""trial"",""time""
""fullscreenenter"",""1"",""2442""
","
","
","""event"",""trial"",""time""
""fullscreenenter"",""1"",""2442""
","
","","","566.4000000059605","","","25","19453","1929","s","elianto","#3366ff99"," "," ","1","+10","[1417.2000000178814]","1","2","","","19453","92","5","1","win","go","0"
"pit-trial","214","1291682","0.0-97.0","battery-v0.2","","""event"",""trial"",""time""
""fullscreenenter"",""1"",""2442""
","
","
","""event"",""trial"",""time""
""fullscreenenter"",""1"",""2442""
","
","","","968.8000000119209","","","25","19453","1929","e","elianto","#f73b6a7A"," "," ","1","0","[1820]","1","2","","","19453","93","7","3","lose","go","0"
"pit-trial","215","1295383","0.0-98.0","battery-v0.2","","""event"",""trial"",""time""
""fullscreenenter"",""1"",""2442""
","
","
","""event"",""trial"",""time""
""fullscreenenter"",""1"",""2442""
","
","","","847","","","25","19453","1929","d","elianto","#3366ff99","-1"," ","0","0","[1697.5]","1","2","","","19453","94","8","2","win","no-go","0"
"pit-trial","216","1299125","0.0-99.0","battery-v0.2","","""event"",""trial"",""time""
""fullscreenenter"",""1"",""2442""
","
","
","""event"",""trial"",""time""
""fullscreenenter"",""1"",""2442""
","
","","","888.6999999880791","","","25","19453","1929","s","elianto","#3366ff99"," "," ","1","+10","[1739.5]","1","2","","","19453","95","5","1","win","go","0"
"pit-trial","217","1303978","0.0-100.0","battery-v0.2","","""event"",""trial"",""time""
""fullscreenenter"",""1"",""2442""
","
","
","""event"",""trial"",""time""
""fullscreenenter"",""1"",""2442""
","
","","","-1","","","25","19453","1929","w","elianto","#f73b6a7A","-1","-1","1","0","[]","0","2","","","19453","96","6","4","lose","no-go","0"
"pit-trial","218","1307765","0.0-101.0","battery-v0.2","","""event"",""trial"",""time""
""fullscreenenter"",""1"",""2442""
","
","
","""event"",""trial"",""time""
""fullscreenenter"",""1"",""2442""
","
","","","933.4000000059605","","","25","19453","1929","d","elianto","#3366ff99","-1"," ","0","0","[1783.9000000059605]","1","2","","","19453","97","8","2","win","no-go","0"
"pit-trial","219","1311337","0.0-102.0","battery-v0.2","","""event"",""trial"",""time""
""fullscreenenter"",""1"",""2442""
","
","
","""event"",""trial"",""time""
""fullscreenenter"",""1"",""2442""
","
","","","719.7999999821186","","","25","19453","1929","s","elianto","#3366ff99"," "," ","1","+10","[1569.9000000059605]","1","2","","","19453","98","5","1","win","go","0"
"pit-trial","220","1316191","0.0-103.0","battery-v0.2","","""event"",""trial"",""time""
""fullscreenenter"",""1"",""2442""
","
","
","""event"",""trial"",""time""
""fullscreenenter"",""1"",""2442""
","
","","","-1","","","25","19453","1929","w","elianto","#f73b6a7A","-1","-1","1","0","[]","0","2","","","19453","99","6","4","lose","no-go","0"
"pit-trial","221","1319989","0.0-104.0","battery-v0.2","","""event"",""trial"",""time""
""fullscreenenter"",""1"",""2442""
","
","
","""event"",""trial"",""time""
""fullscreenenter"",""1"",""2442""
","
","","","944.9000000059605","","","25","19453","1929","e","elianto","#f73b6a7A"," "," ","1","-10","[1795.199999988079]","1","2","","","19453","100","7","3","lose","go","1"
"pit-trial","222","1323526","0.0-105.0","battery-v0.2","","""event"",""trial"",""time""
""fullscreenenter"",""1"",""2442""
","
","
","""event"",""trial"",""time""
""fullscreenenter"",""1"",""2442""
","
","","","683.8000000119209","","","25","19453","1929","s","elianto","#3366ff99"," "," ","1","+10","[1534.5]","1","2","","","19453","101","5","1","win","go","0"
"pit-trial","223","1328379","0.0-106.0","battery-v0.2","","""event"",""trial"",""time""
""fullscreenenter"",""1"",""2442""
","
","
","""event"",""trial"",""time""
""fullscreenenter"",""1"",""2442""
","
","","","-1","","","25","19453","1929","w","elianto","#f73b6a7A","-1","-1","1","-10","[]","0","2","","","19453","102","6","4","lose","no-go","1"
"pit-trial","224","1332391","0.0-107.0","battery-v0.2","","""event"",""trial"",""time""
""fullscreenenter"",""1"",""2442""
","
","
","""event"",""trial"",""time""
""fullscreenenter"",""1"",""2442""
","
","","","1157.9000000059605","","","25","19453","1929","j","elianto","#3366ff99","-1"," ","0","0","[2008.5999999940395]","1","2","","","19453","103","9","2","win","no-go","0"
"pit-trial","225","1335955","0.0-108.0","battery-v0.2","","""event"",""trial"",""time""
""fullscreenenter"",""1"",""2442""
","
","
","""event"",""trial"",""time""
""fullscreenenter"",""1"",""2442""
","
","","","710.6999999880791","","","25","19453","1929","d","elianto","#3366ff99","-1"," ","0","0","[1560.8999999761581]","1","2","","","19453","104","8","2","win","no-go","0"
"pit-trial","226","1340808","0.0-109.0","battery-v0.2","","""event"",""trial"",""time""
""fullscreenenter"",""1"",""2442""
","
","
","""event"",""trial"",""time""
""fullscreenenter"",""1"",""2442""
","
","","","-1","","","25","19453","1929","w","elianto","#f73b6a7A","-1","-1","1","0","[]","0","2","","","19453","105","6","4","lose","no-go","0"
"pit-trial","227","1344475","0.0-110.0","battery-v0.2","","""event"",""trial"",""time""
""fullscreenenter"",""1"",""2442""
","
","
","""event"",""trial"",""time""
""fullscreenenter"",""1"",""2442""
","
","","","813.5","","","25","19453","1929","j","elianto","#3366ff99","-1"," ","0","+10","[1664.2000000178814]","1","2","","","19453","106","9","2","win","no-go","1"
"pit-trial","228","1349328","0.0-111.0","battery-v0.2","","""event"",""trial"",""time""
""fullscreenenter"",""1"",""2442""
","
","
","""event"",""trial"",""time""
""fullscreenenter"",""1"",""2442""
","
","","","-1","","","25","19453","1929","d","elianto","#3366ff99","-1","-1","1","0","[]","0","2","","","19453","107","8","2","win","no-go","1"
"pit-trial","229","1352888","0.0-112.0","battery-v0.2","","""event"",""trial"",""time""
""fullscreenenter"",""1"",""2442""
","
","
","""event"",""trial"",""time""
""fullscreenenter"",""1"",""2442""
","
","","","706.2999999821186","","","25","19453","1929","s","elianto","#3366ff99"," "," ","1","+10","[1557.2999999821186]","1","2","","","19453","108","5","1","win","go","0"
"pit-trial","230","1356578","0.0-113.0","battery-v0.2","","""event"",""trial"",""time""
""fullscreenenter"",""1"",""2442""
","
","
","""event"",""trial"",""time""
""fullscreenenter"",""1"",""2442""
","
","","","831.3000000119209","","","25","19453","1929","d","elianto","#3366ff99","-1"," ","0","0","[1686.800000011921]","1","2","","","19453","109","8","2","win","no-go","0"
"pit-trial","231","1360232","0.0-114.0","battery-v0.2","","""event"",""trial"",""time""
""fullscreenenter"",""1"",""2442""
","
","
","""event"",""trial"",""time""
""fullscreenenter"",""1"",""2442""
","
","","","800.0999999940395","","","25","19453","1929","j","elianto","#3366ff99","-1"," ","0","0","[1650.5999999940395]","1","2","","","19453","110","9","2","win","no-go","0"
"pit-trial","232","1365085","0.0-115.0","battery-v0.2","","""event"",""trial"",""time""
""fullscreenenter"",""1"",""2442""
","
","
","""event"",""trial"",""time""
""fullscreenenter"",""1"",""2442""
","
","","","-1","","","25","19453","1929","w","elianto","#f73b6a7A","-1","-1","1","0","[]","0","2","","","19453","111","6","4","lose","no-go","0"
"pit-trial","233","1368607","0.0-116.0","battery-v0.2","","""event"",""trial"",""time""
""fullscreenenter"",""1"",""2442""
","
","
","""event"",""trial"",""time""
""fullscreenenter"",""1"",""2442""
","
","","","669.4000000059605","","","25","19453","1929","s","elianto","#3366ff99"," "," ","1","+10","[1520]","1","2","","","19453","112","5","1","win","go","0"
"pit-trial","234","1373460","0.0-117.0","battery-v0.2","","""event"",""trial"",""time""
""fullscreenenter"",""1"",""2442""
","
","
","""event"",""trial"",""time""
""fullscreenenter"",""1"",""2442""
","
","","","-1","","","25","19453","1929","e","elianto","#f73b6a7A"," ","-1","0","-10","[]","0","2","","","19453","113","7","3","lose","go","0"
"pit-trial","235","1377535","0.0-118.0","battery-v0.2","","""event"",""trial"",""time""
""fullscreenenter"",""1"",""2442""
","
","
","""event"",""trial"",""time""
""fullscreenenter"",""1"",""2442""
","
","","","1221.4000000059605","","","25","19453","1929","d","elianto","#3366ff99","-1"," ","0","0","[2072.5999999940395]","1","2","","","19453","114","8","2","win","no-go","0"
"pit-trial","236","1382389","0.0-119.0","battery-v0.2","","""event"",""trial"",""time""
""fullscreenenter"",""1"",""2442""
","
","
","""event"",""trial"",""time""
""fullscreenenter"",""1"",""2442""
","
","","","-1","","","25","19453","1929","j","elianto","#3366ff99","-1","-1","1","+10","[]","0","2","","","19453","115","9","2","win","no-go","0"
"pit-trial","237","1385957","0.0-120.0","battery-v0.2","","""event"",""trial"",""time""
""fullscreenenter"",""1"",""2442""
","
","
","""event"",""trial"",""time""
""fullscreenenter"",""1"",""2442""
","
","","","714.0999999940395","","","25","19453","1929","s","elianto","#3366ff99"," "," ","1","+10","[1565]","1","2","","","19453","116","5","1","win","go","0"
"pit-trial","238","1390810","0.0-121.0","battery-v0.2","","""event"",""trial"",""time""
""fullscreenenter"",""1"",""2442""
","
","
","""event"",""trial"",""time""
""fullscreenenter"",""1"",""2442""
","
","","","-1","","","25","19453","1929","w","elianto","#f73b6a7A","-1","-1","1","0","[]","0","2","","","19453","117","6","4","lose","no-go","0"
"pit-trial","239","1394551","0.0-122.0","battery-v0.2","","""event"",""trial"",""time""
""fullscreenenter"",""1"",""2442""
","
","
","""event"",""trial"",""time""
""fullscreenenter"",""1"",""2442""
","
","","","888.0999999940395","","","25","19453","1929","j","elianto","#3366ff99","-1"," ","0","0","[1738.5]","1","2","","","19453","118","9","2","win","no-go","0"
"pit-trial","240","1399404","0.0-123.0","battery-v0.2","","""event"",""trial"",""time""
""fullscreenenter"",""1"",""2442""
","
","
","""event"",""trial"",""time""
""fullscreenenter"",""1"",""2442""
","
","","","-1","","","25","19453","1929","d","elianto","#3366ff99","-1","-1","1","+10","[]","0","2","","","19453","119","8","2","win","no-go","0"
"pit-trial","241","1403086","0.0-124.0","battery-v0.2","","""event"",""trial"",""time""
""fullscreenenter"",""1"",""2442""
","
","
","""event"",""trial"",""time""
""fullscreenenter"",""1"",""2442""
","
","","","828","","","25","19453","1929","s","elianto","#3366ff99"," "," ","1","+10","[1678.3999999761581]","1","2","","","19453","120","5","1","win","go","0"
"pit-trial","242","1406837","0.0-125.0","battery-v0.2","","""event"",""trial"",""time""
""fullscreenenter"",""1"",""2442""
","
","
","""event"",""trial"",""time""
""fullscreenenter"",""1"",""2442""
","
","","","898.7000000178814","","","25","19453","1929","e","elianto","#f73b6a7A"," "," ","1","0","[1748.800000011921]","1","2","","","19453","121","7","3","lose","go","0"
"pit-trial","243","1411692","0.0-126.0","battery-v0.2","","""event"",""trial"",""time""
""fullscreenenter"",""1"",""2442""
","
","
","""event"",""trial"",""time""
""fullscreenenter"",""1"",""2442""
","
","","","-1","","","25","19453","1929","d","elianto","#3366ff99","-1","-1","1","0","[]","0","2","","","19453","122","8","2","win","no-go","1"
"pit-trial","244","1416546","0.0-127.0","battery-v0.2","","""event"",""trial"",""time""
""fullscreenenter"",""1"",""2442""
","
","
","""event"",""trial"",""time""
""fullscreenenter"",""1"",""2442""
","
","","","-1","","","25","19453","1929","j","elianto","#3366ff99","-1","-1","1","+10","[]","0","2","","","19453","123","9","2","win","no-go","0"
"pit-trial","245","1420094","0.0-128.0","battery-v0.2","","""event"",""trial"",""time""
""fullscreenenter"",""1"",""2442""
","
","
","""event"",""trial"",""time""
""fullscreenenter"",""1"",""2442""
","
","","","694.3000000119209","","","25","19453","1929","s","elianto","#3366ff99"," "," ","1","0","[1545.300000011921]","1","2","","","19453","124","5","1","win","go","1"
"pit-trial","246","1424948","0.0-129.0","battery-v0.2","","""event"",""trial"",""time""
""fullscreenenter"",""1"",""2442""
","
","
","""event"",""trial"",""time""
""fullscreenenter"",""1"",""2442""
","
","","","-1","","","25","19453","1929","d","elianto","#3366ff99","-1","-1","1","+10","[]","0","2","","","19453","125","8","2","win","no-go","0"
"pit-trial","247","1429802","0.0-130.0","battery-v0.2","","""event"",""trial"",""time""
""fullscreenenter"",""1"",""2442""
","
","
","""event"",""trial"",""time""
""fullscreenenter"",""1"",""2442""
","
","","","-1","","","25","19453","1929","j","elianto","#3366ff99","-1","-1","1","+10","[]","0","2","","","19453","126","9","2","win","no-go","0"
"pit-trial","248","1434656","0.0-131.0","battery-v0.2","","""event"",""trial"",""time""
""fullscreenenter"",""1"",""2442""
","
","
","""event"",""trial"",""time""
""fullscreenenter"",""1"",""2442""
","
","","","-1","","","25","19453","1929","w","elianto","#f73b6a7A","-1","-1","1","0","[]","0","2","","","19453","127","6","4","lose","no-go","0"
"pit-trial","249","1438258","0.0-132.0","battery-v0.2","","""event"",""trial"",""time""
""fullscreenenter"",""1"",""2442""
","
","
","""event"",""trial"",""time""
""fullscreenenter"",""1"",""2442""
","
","","","749.6999999880791","","","25","19453","1929","e","elianto","#f73b6a7A"," "," ","1","0","[1599.9000000059605]","1","2","","","19453","128","7","3","lose","go","0"
"pit-trial","250","1443112","0.0-133.0","battery-v0.2","","""event"",""trial"",""time""
""fullscreenenter"",""1"",""2442""
","
","
","""event"",""trial"",""time""
""fullscreenenter"",""1"",""2442""
","
","","","-1","","","25","19453","1929","j","elianto","#3366ff99","-1","-1","1","+10","[]","0","2","","","19453","129","9","2","win","no-go","0"
"pit-trial","251","1447965","0.0-134.0","battery-v0.2","","""event"",""trial"",""time""
""fullscreenenter"",""1"",""2442""
","
","
","""event"",""trial"",""time""
""fullscreenenter"",""1"",""2442""
","
","","","-1","","","25","19453","1929","w","elianto","#f73b6a7A","-1","-1","1","0","[]","0","2","","","19453","130","6","4","lose","no-go","0"
"pit-trial","252","1451708","0.0-135.0","battery-v0.2","","""event"",""trial"",""time""
""fullscreenenter"",""1"",""2442""
","
","
","""event"",""trial"",""time""
""fullscreenenter"",""1"",""2442""
","
","","","888.1000000238419","","","25","19453","1929","e","elianto","#f73b6a7A"," "," ","1","0","[1739.4000000059605]","1","2","","","19453","131","7","3","lose","go","0"
"pit-trial","253","1456562","0.0-136.0","battery-v0.2","","""event"",""trial"",""time""
""fullscreenenter"",""1"",""2442""
","
","
","""event"",""trial"",""time""
""fullscreenenter"",""1"",""2442""
","
","","","-1","","","25","19453","1929","d","elianto","#3366ff99","-1","-1","1","+10","[]","0","2","","","19453","132","8","2","win","no-go","0"
"pit-trial","254","1461415","0.0-137.0","battery-v0.2","","""event"",""trial"",""time""
""fullscreenenter"",""1"",""2442""
","
","
","""event"",""trial"",""time""
""fullscreenenter"",""1"",""2442""
","
","","","-1","","","25","19453","1929","j","elianto","#3366ff99","-1","-1","1","+10","[]","0","2","","","19453","133","9","2","win","no-go","0"
"pit-trial","255","1465023","0.0-138.0","battery-v0.2","","""event"",""trial"",""time""
""fullscreenenter"",""1"",""2442""
","
","
","""event"",""trial"",""time""
""fullscreenenter"",""1"",""2442""
","
","","","755.1999999880791","","","25","19453","1929","e","elianto","#f73b6a7A"," "," ","1","0","[1605.199999988079]","1","2","","","19453","134","7","3","lose","go","0"
"pit-trial","256","1469878","0.0-139.0","battery-v0.2","","""event"",""trial"",""time""
""fullscreenenter"",""1"",""2442""
","
","
","""event"",""trial"",""time""
""fullscreenenter"",""1"",""2442""
","
","","","-1","","","25","19453","1929","w","elianto","#f73b6a7A","-1","-1","1","-10","[]","0","2","","","19453","135","6","4","lose","no-go","1"
"pit-trial","257","1474732","0.0-140.0","battery-v0.2","","""event"",""trial"",""time""
""fullscreenenter"",""1"",""2442""
","
","
","""event"",""trial"",""time""
""fullscreenenter"",""1"",""2442""
","
","","","-1","","","25","19453","1929","d","elianto","#3366ff99","-1","-1","1","+10","[]","0","2","","","19453","136","8","2","win","no-go","0"
"pit-trial","258","1478558","0.0-141.0","battery-v0.2","","""event"",""trial"",""time""
""fullscreenenter"",""1"",""2442""
","
","
","""event"",""trial"",""time""
""fullscreenenter"",""1"",""2442""
","
","","","972.3999999761581","","","25","19453","1929","e","elianto","#f73b6a7A"," "," ","1","0","[1822.5999999940395]","1","2","","","19453","137","7","3","lose","go","0"
"pit-trial","259","1483413","0.0-142.0","battery-v0.2","","""event"",""trial"",""time""
""fullscreenenter"",""1"",""2442""
","
","
","""event"",""trial"",""time""
""fullscreenenter"",""1"",""2442""
","
","","","-1","","","25","19453","1929","j","elianto","#3366ff99","-1","-1","1","+10","[]","0","2","","","19453","138","9","2","win","no-go","0"
"pit-trial","260","1488267","0.0-143.0","battery-v0.2","","""event"",""trial"",""time""
""fullscreenenter"",""1"",""2442""
","
","
","""event"",""trial"",""time""
""fullscreenenter"",""1"",""2442""
","
","","","-1","","","25","19453","1929","w","elianto","#f73b6a7A","-1","-1","1","-10","[]","0","2","","","19453","139","6","4","lose","no-go","1"
"pit-trial","261","1493122","0.0-144.0","battery-v0.2","","""event"",""trial"",""time""
""fullscreenenter"",""1"",""2442""
","
","
","""event"",""trial"",""time""
""fullscreenenter"",""1"",""2442""
","
","","","-1","","","25","19453","1929","d","elianto","#3366ff99","-1","-1","1","+10","[]","0","2","","","19453","140","8","2","win","no-go","0"
"pit-instructions","262","1517338","0.0-145.0","battery-v0.2","","""event"",""trial"",""time""
""fullscreenenter"",""1"",""2442""
","
","
","""event"",""trial"",""time""
""fullscreenenter"",""1"",""2442""
","
","","[{""page_index"":0,""viewing_time"":15603.700000017881},{""page_index"":1,""viewing_time"":8610.90000000596}]","24215.100000023842","","","","","","","","","","","","","","","","","","","","","","","",""
"pit-trial","263","1520828","0.0-146.0","battery-v0.2","","""event"",""trial"",""time""
""fullscreenenter"",""1"",""2442""
","
","
","""event"",""trial"",""time""
""fullscreenenter"",""1"",""2442""
","
","","","622","","","25","19453","1929","r","elianto","#3366ff99","-1"," ","0","0","[1481.5]","1","3","","","19453","141","1","2","win","no-go","0"
"pit-trial","264","1524236","0.0-147.0","battery-v0.2","","""event"",""trial"",""time""
""fullscreenenter"",""1"",""2442""
","
","
","""event"",""trial"",""time""
""fullscreenenter"",""1"",""2442""
","
","","","536.7999999821186","","","25","19453","1929","h","elianto","#f73b6a7A","-1"," ","0","0","[1392.9000000059605]","1","3","","","19453","142","3","4","lose","no-go","1"
"pit-trial","265","1527794","0.0-148.0","battery-v0.2","","""event"",""trial"",""time""
""fullscreenenter"",""1"",""2442""
","
","
","""event"",""trial"",""time""
""fullscreenenter"",""1"",""2442""
","
","","","681.1999999880791","","","25","19453","1929","y","elianto","#f73b6a7A"," "," ","1","-10","[1545.300000011921]","1","3","","","19453","143","2","3","lose","go","1"
