"trial_type","trial_index","time_elapsed","internal_node_id","task_version","subject_id","interactions","blur_events","focus_events","fullscreenenter_events","fullscreenexit_events","success","view_history","rt","responses","num_errors","age","subject","participantId","rune","rune_set","hex","correct","choice","accuracy","outcome","keys","total_keys","block","practice","value","sub","trial","stimulus","robot","valence","action","sham"
"pavlovia","0","11","0.0-0.0","battery-v0.2","","""event"",""trial"",""time""
""fullscreenenter"",""1"",""1948""
","
","
","""event"",""trial"",""time""
""fullscreenenter"",""1"",""1948""
","
","","","","","","","","","","","","","","","","","","","","","","","","","","",""
"fullscreen","1","2926","0.0-1.0","battery-v0.2","","""event"",""trial"",""time""
""fullscreenenter"",""1"",""1948""
","
","
","""event"",""trial"",""time""
""fullscreenenter"",""1"",""1948""
","
","true","","","","","","","","","","","","","","","","","","","","","","","","","",""
"pit-instructions","2","7805","0.0-2.0-0.0","battery-v0.2","","""event"",""trial"",""time""
""fullscreenenter"",""1"",""1948""
","
","
","""event"",""trial"",""time""
""fullscreenenter"",""1"",""1948""
","
","","[{""page_index"":0,""viewing_time"":4872.200000047684}]","4873.400000095367","","","","","","","","","","","","","","","","","","","","","","","",""
"pit-comprehension","3","11775","0.0-2.0-1.0-0.0","battery-v0.2","","""event"",""trial"",""time""
""fullscreenenter"",""1"",""1948""
","
","
","""event"",""trial"",""time""
""fullscreenenter"",""1"",""1948""
","
","","","3951.7999999523163","[""shark""]","0","22","5128","3212","","","","","","","","","","","","","","","","","","",""
"pit-instructions","4","13553","0.0-2.0-1.0-1.0","battery-v0.2","","""event"",""trial"",""time""
""fullscreenenter"",""1"",""1948""
","
","
","""event"",""trial"",""time""
""fullscreenenter"",""1"",""1948""
","
","","[{""page_index"":0,""viewing_time"":1753.3999998569489}]","1753.7000000476837","","","","","","","","","","","","","","","","","","","","","","","",""
"pit-comprehension","5","16970","0.0-2.0-2.0-0.0","battery-v0.2","","""event"",""trial"",""time""
""fullscreenenter"",""1"",""1948""
","
","
","""event"",""trial"",""time""
""fullscreenenter"",""1"",""1948""
","
","","","3400.100000143051","[""tiger""]","0","22","5128","3212","","","","","","","","","","","","","","","","","","",""
"pit-instructions","6","18211","0.0-2.0-2.0-1.0","battery-v0.2","","""event"",""trial"",""time""
""fullscreenenter"",""1"",""1948""
","
","
","""event"",""trial"",""time""
""fullscreenenter"",""1"",""1948""
","
","","[{""page_index"":0,""viewing_time"":1224}]","1224.5999999046326","","","","","","","","","","","","","","","","","","","","","","","",""
"pit-instructions","7","122106","0.0-2.0-3.0","battery-v0.2","","""event"",""trial"",""time""
""fullscreenenter"",""1"",""1948""
","
","
","""event"",""trial"",""time""
""fullscreenenter"",""1"",""1948""
","
","","[{""page_index"":0,""viewing_time"":14872.399999856949},{""page_index"":1,""viewing_time"":7836.900000095367},{""page_index"":2,""viewing_time"":6375.799999952316},{""page_index"":3,""viewing_time"":5868.100000143051},{""page_index"":4,""viewing_time"":6152.399999856949},{""page_index"":5,""viewing_time"":6553.100000143051},{""page_index"":6,""viewing_time"":8154.099999904633},{""page_index"":7,""viewing_time"":7046.099999904633},{""page_index"":8,""viewing_time"":6109.200000047684},{""page_index"":9,""viewing_time"":8055.299999952316},{""page_index"":10,""viewing_time"":7289.800000190735},{""page_index"":11,""viewing_time"":7718.599999904633},{""page_index"":12,""viewing_time"":6468.099999904633},{""page_index"":13,""viewing_time"":5376.900000095367}]","103877.5","","","","","","","","","","","","","","","","","","","","","","","",""
"pit-trial","8","125561","0.0-2.0-4.0-0.0","battery-v0.2","","""event"",""trial"",""time""
""fullscreenenter"",""1"",""1948""
","
","
","""event"",""trial"",""time""
""fullscreenenter"",""1"",""1948""
","
","","","588.2999999523163","","","22","5128","3212","&#9784;","elianto","#FFFFF080"," "," ","1","&#10004","[1439.4000000953674]","1","0","0","","","","","","","",""
"pit-trial","9","129095","0.0-2.0-4.1-0.1","battery-v0.2","","""event"",""trial"",""time""
""fullscreenenter"",""1"",""1948""
","
","
","""event"",""trial"",""time""
""fullscreenenter"",""1"",""1948""
","
","","","652.2000000476837","","","22","5128","3212","&#9784;","elianto","#FFFFF080"," "," ","1","&#10004","[1511.5]","1","0","0","","","","","","","",""
"pit-trial","10","132527","0.0-2.0-4.2-0.2","battery-v0.2","","""event"",""trial"",""time""
""fullscreenenter"",""1"",""1948""
","
","
","""event"",""trial"",""time""
""fullscreenenter"",""1"",""1948""
","
","","","562.4000000953674","","","22","5128","3212","&#9784;","elianto","#FFFFF080"," "," ","1","&#10004","[1412.5999999046326]","1","0","0","","","","","","","",""
"pit-trial","11","135871","0.0-2.0-4.3-0.3","battery-v0.2","","""event"",""trial"",""time""
""fullscreenenter"",""1"",""1948""
","
","
","""event"",""trial"",""time""
""fullscreenenter"",""1"",""1948""
","
","","","473.7999999523163","","","22","5128","3212","&#9784;","elianto","#FFFFF080"," "," ","1","&#10004","[1325.7000000476837]","1","0","0","","","","","","","",""
"pit-trial","12","139394","0.0-2.0-4.4-0.4","battery-v0.2","","""event"",""trial"",""time""
""fullscreenenter"",""1"",""1948""
","
","
","""event"",""trial"",""time""
""fullscreenenter"",""1"",""1948""
","
","","","653.0999999046326","","","22","5128","3212","&#9784;","elianto","#FFFFF080"," "," ","1","&#10004","[1503.5]","1","0","0","","","","","","","",""
"pit-instructions","13","164290","0.0-2.0-5.0","battery-v0.2","","""event"",""trial"",""time""
""fullscreenenter"",""1"",""1948""
","
","
","""event"",""trial"",""time""
""fullscreenenter"",""1"",""1948""
","
","","[{""page_index"":0,""viewing_time"":6972.899999856949},{""page_index"":1,""viewing_time"":6388.400000095367},{""page_index"":2,""viewing_time"":6029.299999952316},{""page_index"":3,""viewing_time"":5489.400000095367}]","24880.5","","","","","","","","","","","","","","","","","","","","","","","",""
"pit-trial","14","169161","0.0-2.0-6.0-0.0","battery-v0.2","","""event"",""trial"",""time""
""fullscreenenter"",""1"",""1948""
","
","
","""event"",""trial"",""time""
""fullscreenenter"",""1"",""1948""
","
","","","-1","","","22","5128","3212","&#9854;","elianto","#FFFFF080","-1","-1","1","&#10004","[]","0","0","1","","","","","","","",""
"pit-trial","15","174036","0.0-2.0-6.1-0.1","battery-v0.2","","""event"",""trial"",""time""
""fullscreenenter"",""1"",""1948""
","
","
","""event"",""trial"",""time""
""fullscreenenter"",""1"",""1948""
","
","","","-1","","","22","5128","3212","&#9854;","elianto","#FFFFF080","-1","-1","1","&#10004","[]","0","0","1","","","","","","","",""
"pit-trial","16","178903","0.0-2.0-6.2-0.2","battery-v0.2","","""event"",""trial"",""time""
""fullscreenenter"",""1"",""1948""
","
","
","""event"",""trial"",""time""
""fullscreenenter"",""1"",""1948""
","
","","","-1","","","22","5128","3212","&#9854;","elianto","#FFFFF080","-1","-1","1","&#10004","[]","0","0","1","","","","","","","",""
"pit-trial","17","183774","0.0-2.0-6.3-0.3","battery-v0.2","","""event"",""trial"",""time""
""fullscreenenter"",""1"",""1948""
","
","
","""event"",""trial"",""time""
""fullscreenenter"",""1"",""1948""
","
","","","-1","","","22","5128","3212","&#9854;","elianto","#FFFFF080","-1","-1","1","&#10004","[]","0","0","1","","","","","","","",""
"pit-trial","18","188644","0.0-2.0-6.4-0.4","battery-v0.2","","""event"",""trial"",""time""
""fullscreenenter"",""1"",""1948""
","
","
","""event"",""trial"",""time""
""fullscreenenter"",""1"",""1948""
","
","","","-1","","","22","5128","3212","&#9854;","elianto","#FFFFF080","-1","-1","1","&#10004","[]","0","0","1","","","","","","","",""
"pit-instructions","19","315384","0.0-2.0-7.0","battery-v0.2","","""event"",""trial"",""time""
""fullscreenenter"",""1"",""1948""
","
","
","""event"",""trial"",""time""
""fullscreenenter"",""1"",""1948""
","
","","[{""page_index"":0,""viewing_time"":6614.399999856949},{""page_index"":1,""viewing_time"":7565.200000047684},{""page_index"":2,""viewing_time"":7785},{""page_index"":3,""viewing_time"":7679.400000095367},{""page_index"":4,""viewing_time"":7916},{""page_index"":5,""viewing_time"":6729.799999952316},{""page_index"":6,""viewing_time"":5808.099999904633},{""page_index"":7,""viewing_time"":8476.900000095367},{""page_index"":8,""viewing_time"":6954.5},{""page_index"":9,""viewing_time"":7132.599999904633},{""page_index"":10,""viewing_time"":6404.900000095367},{""page_index"":11,""viewing_time"":5104.900000095367},{""page_index"":12,""viewing_time"":6968.299999952316},{""page_index"":13,""viewing_time"":7115.899999856949},{""page_index"":14,""viewing_time"":7253.700000047684},{""page_index"":15,""viewing_time"":6600.700000047684},{""page_index"":16,""viewing_time"":6584.099999904633},{""page_index"":17,""viewing_time"":8029.100000143051}]","126724.20000004768","","","","","","","","","","","","","","","","","","","","","","","",""
"pit-trial","20","318948","0.0-2.0-8.0-0.0","battery-v0.2","","""event"",""trial"",""time""
""fullscreenenter"",""1"",""1948""
","
","
","""event"",""trial"",""time""
""fullscreenenter"",""1"",""1948""
","
","","","693.3999998569489","","","22","5128","3212","&#9776;","elianto","#3366ff99"," "," ","1","+10","[1543.2999999523163]","1","0","1","","","","","","","",""
"pit-trial","21","322399","0.0-2.0-8.0-1.0","battery-v0.2","","""event"",""trial"",""time""
""fullscreenenter"",""1"",""1948""
","
","
","""event"",""trial"",""time""
""fullscreenenter"",""1"",""1948""
","
","","","581.5999999046326","","","22","5128","3212","&#9776;","elianto","#3366ff99"," "," ","1","+10","[1434.0999999046326]","1","0","1","","","","","","","",""
"pit-trial","22","325887","0.0-2.0-8.0-2.0","battery-v0.2","","""event"",""trial"",""time""
""fullscreenenter"",""1"",""1948""
","
","
","""event"",""trial"",""time""
""fullscreenenter"",""1"",""1948""
","
","","","619.5","","","22","5128","3212","&#9776;","elianto","#3366ff99"," "," ","1","+10","[1469.6999998092651]","1","0","1","","","","","","","",""
"pit-trial","23","329416","0.0-2.0-8.0-3.0","battery-v0.2","","""event"",""trial"",""time""
""fullscreenenter"",""1"",""1948""
","
","
","""event"",""trial"",""time""
""fullscreenenter"",""1"",""1948""
","
","","","661.7999999523163","","","22","5128","3212","&#9776;","elianto","#3366ff99"," "," ","1","0","[1513.2999999523163]","1","0","1","","","","","","","",""
"pit-trial","24","332852","0.0-2.0-8.0-4.0","battery-v0.2","","""event"",""trial"",""time""
""fullscreenenter"",""1"",""1948""
","
","
","""event"",""trial"",""time""
""fullscreenenter"",""1"",""1948""
","
","","","568.0999999046326","","","22","5128","3212","&#9776;","elianto","#3366ff99"," "," ","1","+10","[1419.5]","1","0","1","","","","","","","",""
"pit-trial","25","336297","0.0-2.0-8.1-0.1","battery-v0.2","","""event"",""trial"",""time""
""fullscreenenter"",""1"",""1948""
","
","
","""event"",""trial"",""time""
""fullscreenenter"",""1"",""1948""
","
","","","578","","","22","5128","3212","&#9776;","elianto","#3366ff99"," "," ","1","+10","[1429.6999998092651]","1","0","1","","","","","","","",""
"pit-trial","26","339700","0.0-2.0-8.1-1.1","battery-v0.2","","""event"",""trial"",""time""
""fullscreenenter"",""1"",""1948""
","
","
","""event"",""trial"",""time""
""fullscreenenter"",""1"",""1948""
","
","","","535.2000000476837","","","22","5128","3212","&#9776;","elianto","#3366ff99"," "," ","1","+10","[1385.6999998092651]","1","0","1","","","","","","","",""
"pit-trial","27","343161","0.0-2.0-8.1-2.1","battery-v0.2","","""event"",""trial"",""time""
""fullscreenenter"",""1"",""1948""
","
","
","""event"",""trial"",""time""
""fullscreenenter"",""1"",""1948""
","
","","","595.7999999523163","","","22","5128","3212","&#9776;","elianto","#3366ff99"," "," ","1","+10","[1445.7999999523163]","1","0","1","","","","","","","",""
"pit-trial","28","347159","0.0-2.0-8.1-3.1","battery-v0.2","","""event"",""trial"",""time""
""fullscreenenter"",""1"",""1948""
","
","
","""event"",""trial"",""time""
""fullscreenenter"",""1"",""1948""
","
","","","1128","","","22","5128","3212","&#9776;","elianto","#3366ff99"," "," ","1","0","[1978.9000000953674]","1","0","1","","","","","","","",""
"pit-trial","29","350655","0.0-2.0-8.1-4.1","battery-v0.2","","""event"",""trial"",""time""
""fullscreenenter"",""1"",""1948""
","
","
","""event"",""trial"",""time""
""fullscreenenter"",""1"",""1948""
","
","","","627.7000000476837","","","22","5128","3212","&#9776;","elianto","#3366ff99"," "," ","1","+10","[1479]","1","0","1","","","","","","","",""
"pit-trial","30","354111","0.0-2.0-8.2-0.2","battery-v0.2","","""event"",""trial"",""time""
""fullscreenenter"",""1"",""1948""
","
","
","""event"",""trial"",""time""
""fullscreenenter"",""1"",""1948""
","
","","","589.7999999523163","","","22","5128","3212","&#9776;","elianto","#3366ff99"," "," ","1","+10","[1440.2000000476837]","1","0","1","","","","","","","",""
"pit-trial","31","357514","0.0-2.0-8.2-1.2","battery-v0.2","","""event"",""trial"",""time""
""fullscreenenter"",""1"",""1948""
","
","
","""event"",""trial"",""time""
""fullscreenenter"",""1"",""1948""
","
","","","538","","","22","5128","3212","&#9776;","elianto","#3366ff99"," "," ","1","+10","[1387.9000000953674]","1","0","1","","","","","","","",""
"pit-trial","32","360773","0.0-2.0-8.2-2.2","battery-v0.2","","""event"",""trial"",""time""
""fullscreenenter"",""1"",""1948""
","
","
","""event"",""trial"",""time""
""fullscreenenter"",""1"",""1948""
","
","","","390.2999999523163","","","22","5128","3212","&#9776;","elianto","#3366ff99"," "," ","1","+10","[1240.5999999046326]","1","0","1","","","","","","","",""
"pit-trial","33","364122","0.0-2.0-8.2-3.2","battery-v0.2","","""event"",""trial"",""time""
""fullscreenenter"",""1"",""1948""
","
","
","""event"",""trial"",""time""
""fullscreenenter"",""1"",""1948""
","
","","","481.2999999523163","","","22","5128","3212","&#9776;","elianto","#3366ff99"," "," ","1","0","[1331.5]","1","0","1","","","","","","","",""
"pit-trial","34","367479","0.0-2.0-8.2-4.2","battery-v0.2","","""event"",""trial"",""time""
""fullscreenenter"",""1"",""1948""
","
","
","""event"",""trial"",""time""
""fullscreenenter"",""1"",""1948""
","
","","","487.59999990463257","","","22","5128","3212","&#9776;","elianto","#3366ff99"," "," ","1","+10","[1337.8999998569489]","1","0","1","","","","","","","",""
"call-function","35","367493","0.0-2.0-9.0","battery-v0.2","","""event"",""trial"",""time""
""fullscreenenter"",""1"",""1948""
","
","
","""event"",""trial"",""time""
""fullscreenenter"",""1"",""1948""
","
","","","","","","","","","","","","","","","","","","","","","","","","","","",""
"pit-instructions","36","407354","0.0-2.0-10.0","battery-v0.2","","""event"",""trial"",""time""
""fullscreenenter"",""1"",""1948""
","
","
","""event"",""trial"",""time""
""fullscreenenter"",""1"",""1948""
","
","","[{""page_index"":0,""viewing_time"":5879.5},{""page_index"":1,""viewing_time"":7263},{""page_index"":2,""viewing_time"":9428.400000095367},{""page_index"":3,""viewing_time"":8972.899999856949},{""page_index"":4,""viewing_time"":8316.200000047684}]","39860.60000014305","","","","","","","","","","","","","","","","","","","","","","","",""
"pit-trial","37","410834","0.0-2.0-11.0-0.0","battery-v0.2","","""event"",""trial"",""time""
""fullscreenenter"",""1"",""1948""
","
","
","""event"",""trial"",""time""
""fullscreenenter"",""1"",""1948""
","
","","","610.2000000476837","","","22","5128","3212","&#9761;","elianto","#3366ff99","-1"," ","0","0","[1462.1000001430511]","1","0","2","","","","","","","",""
"pit-trial","38","415706","0.0-2.0-11.0-1.0","battery-v0.2","","""event"",""trial"",""time""
""fullscreenenter"",""1"",""1948""
","
","
","""event"",""trial"",""time""
""fullscreenenter"",""1"",""1948""
","
","","","-1","","","22","5128","3212","&#9761;","elianto","#3366ff99","-1","-1","1","+10","[]","0","0","2","","","","","","","",""
"pit-trial","39","420580","0.0-2.0-11.0-2.0","battery-v0.2","","""event"",""trial"",""time""
""fullscreenenter"",""1"",""1948""
","
","
","""event"",""trial"",""time""
""fullscreenenter"",""1"",""1948""
","
","","","-1","","","22","5128","3212","&#9761;","elianto","#3366ff99","-1","-1","1","+10","[]","0","0","2","","","","","","","",""
"pit-trial","40","425450","0.0-2.0-11.0-3.0","battery-v0.2","","""event"",""trial"",""time""
""fullscreenenter"",""1"",""1948""
","
","
","""event"",""trial"",""time""
""fullscreenenter"",""1"",""1948""
","
","","","-1","","","22","5128","3212","&#9761;","elianto","#3366ff99","-1","-1","1","0","[]","0","0","2","","","","","","","",""
"pit-trial","41","430319","0.0-2.0-11.0-4.0","battery-v0.2","","""event"",""trial"",""time""
""fullscreenenter"",""1"",""1948""
","
","
","""event"",""trial"",""time""
""fullscreenenter"",""1"",""1948""
","
","","","-1","","","22","5128","3212","&#9761;","elianto","#3366ff99","-1","-1","1","+10","[]","0","0","2","","","","","","","",""
"pit-trial","42","435191","0.0-2.0-11.1-0.1","battery-v0.2","","""event"",""trial"",""time""
""fullscreenenter"",""1"",""1948""
","
","
","""event"",""trial"",""time""
""fullscreenenter"",""1"",""1948""
","
","","","-1","","","22","5128","3212","&#9761;","elianto","#3366ff99","-1","-1","1","+10","[]","0","0","2","","","","","","","",""
"pit-trial","43","440063","0.0-2.0-11.1-1.1","battery-v0.2","","""event"",""trial"",""time""
""fullscreenenter"",""1"",""1948""
","
","
","""event"",""trial"",""time""
""fullscreenenter"",""1"",""1948""
","
","","","-1","","","22","5128","3212","&#9761;","elianto","#3366ff99","-1","-1","1","+10","[]","0","0","2","","","","","","","",""
"pit-trial","44","444933","0.0-2.0-11.1-2.1","battery-v0.2","","""event"",""trial"",""time""
""fullscreenenter"",""1"",""1948""
","
","
","""event"",""trial"",""time""
""fullscreenenter"",""1"",""1948""
","
","","","-1","","","22","5128","3212","&#9761;","elianto","#3366ff99","-1","-1","1","+10","[]","0","0","2","","","","","","","",""
"pit-trial","45","449802","0.0-2.0-11.1-3.1","battery-v0.2","","""event"",""trial"",""time""
""fullscreenenter"",""1"",""1948""
","
","
","""event"",""trial"",""time""
""fullscreenenter"",""1"",""1948""
","
","","","-1","","","22","5128","3212","&#9761;","elianto","#3366ff99","-1","-1","1","0","[]","0","0","2","","","","","","","",""
"pit-trial","46","454677","0.0-2.0-11.1-4.1","battery-v0.2","","""event"",""trial"",""time""
""fullscreenenter"",""1"",""1948""
","
","
","""event"",""trial"",""time""
""fullscreenenter"",""1"",""1948""
","
","","","-1","","","22","5128","3212","&#9761;","elianto","#3366ff99","-1","-1","1","+10","[]","0","0","2","","","","","","","",""
"pit-trial","47","459551","0.0-2.0-11.2-0.2","battery-v0.2","","""event"",""trial"",""time""
""fullscreenenter"",""1"",""1948""
","
","
","""event"",""trial"",""time""
""fullscreenenter"",""1"",""1948""
","
","","","-1","","","22","5128","3212","&#9761;","elianto","#3366ff99","-1","-1","1","+10","[]","0","0","2","","","","","","","",""
"pit-trial","48","464420","0.0-2.0-11.2-1.2","battery-v0.2","","""event"",""trial"",""time""
""fullscreenenter"",""1"",""1948""
","
","
","""event"",""trial"",""time""
""fullscreenenter"",""1"",""1948""
","
","","","-1","","","22","5128","3212","&#9761;","elianto","#3366ff99","-1","-1","1","+10","[]","0","0","2","","","","","","","",""
"pit-trial","49","469290","0.0-2.0-11.2-2.2","battery-v0.2","","""event"",""trial"",""time""
""fullscreenenter"",""1"",""1948""
","
","
","""event"",""trial"",""time""
""fullscreenenter"",""1"",""1948""
","
","","","-1","","","22","5128","3212","&#9761;","elianto","#3366ff99","-1","-1","1","+10","[]","0","0","2","","","","","","","",""
"pit-trial","50","474160","0.0-2.0-11.2-3.2","battery-v0.2","","""event"",""trial"",""time""
""fullscreenenter"",""1"",""1948""
","
","
","""event"",""trial"",""time""
""fullscreenenter"",""1"",""1948""
","
","","","-1","","","22","5128","3212","&#9761;","elianto","#3366ff99","-1","-1","1","0","[]","0","0","2","","","","","","","",""
"pit-trial","51","479029","0.0-2.0-11.2-4.2","battery-v0.2","","""event"",""trial"",""time""
""fullscreenenter"",""1"",""1948""
","
","
","""event"",""trial"",""time""
""fullscreenenter"",""1"",""1948""
","
","","","-1","","","22","5128","3212","&#9761;","elianto","#3366ff99","-1","-1","1","+10","[]","0","0","2","","","","","","","",""
"pit-trial","52","483898","0.0-2.0-11.3-0.3","battery-v0.2","","""event"",""trial"",""time""
""fullscreenenter"",""1"",""1948""
","
","
","""event"",""trial"",""time""
""fullscreenenter"",""1"",""1948""
","
","","","-1","","","22","5128","3212","&#9761;","elianto","#3366ff99","-1","-1","1","+10","[]","0","0","2","","","","","","","",""
"pit-trial","53","488773","0.0-2.0-11.3-1.3","battery-v0.2","","""event"",""trial"",""time""
""fullscreenenter"",""1"",""1948""
","
","
","""event"",""trial"",""time""
""fullscreenenter"",""1"",""1948""
","
","","","-1","","","22","5128","3212","&#9761;","elianto","#3366ff99","-1","-1","1","+10","[]","0","0","2","","","","","","","",""
"pit-trial","54","493639","0.0-2.0-11.3-2.3","battery-v0.2","","""event"",""trial"",""time""
""fullscreenenter"",""1"",""1948""
","
","
","""event"",""trial"",""time""
""fullscreenenter"",""1"",""1948""
","
","","","-1","","","22","5128","3212","&#9761;","elianto","#3366ff99","-1","-1","1","+10","[]","0","0","2","","","","","","","",""
"pit-trial","55","498511","0.0-2.0-11.3-3.3","battery-v0.2","","""event"",""trial"",""time""
""fullscreenenter"",""1"",""1948""
","
","
","""event"",""trial"",""time""
""fullscreenenter"",""1"",""1948""
","
","","","-1","","","22","5128","3212","&#9761;","elianto","#3366ff99","-1","-1","1","0","[]","0","0","2","","","","","","","",""
"pit-trial","56","503381","0.0-2.0-11.3-4.3","battery-v0.2","","""event"",""trial"",""time""
""fullscreenenter"",""1"",""1948""
","
","
","""event"",""trial"",""time""
""fullscreenenter"",""1"",""1948""
","
","","","-1","","","22","5128","3212","&#9761;","elianto","#3366ff99","-1","-1","1","+10","[]","0","0","2","","","","","","","",""
"call-function","57","503394","0.0-2.0-12.0","battery-v0.2","","""event"",""trial"",""time""
""fullscreenenter"",""1"",""1948""
","
","
","""event"",""trial"",""time""
""fullscreenenter"",""1"",""1948""
","
","","","","","","","","","","","","","","","","","","","","","","","","","","",""
"pit-instructions","58","534337","0.0-2.0-13.0","battery-v0.2","","""event"",""trial"",""time""
""fullscreenenter"",""1"",""1948""
","
","
","""event"",""trial"",""time""
""fullscreenenter"",""1"",""1948""
","
","","[{""page_index"":0,""viewing_time"":5043.299999952316},{""page_index"":1,""viewing_time"":6961.5},{""page_index"":2,""viewing_time"":3546.2000000476837},{""page_index"":3,""viewing_time"":10433.200000047684},{""page_index"":4,""viewing_time"":4957.5}]","30942.200000047684","","","","","","","","","","","","","","","","","","","","","","","",""
"pit-trial","59","537768","0.0-2.0-14.0-0.0","battery-v0.2","","""event"",""trial"",""time""
""fullscreenenter"",""1"",""1948""
","
","
","""event"",""trial"",""time""
""fullscreenenter"",""1"",""1948""
","
","","","562.9000000953674","","","22","5128","3212","&#9826;","elianto","#f73b6a7A","-1"," ","0","-10","[1413.8999998569489]","1","0","3","","","","","","","",""
"pit-trial","60","542641","0.0-2.0-14.0-1.0","battery-v0.2","","""event"",""trial"",""time""
""fullscreenenter"",""1"",""1948""
","
","
","""event"",""trial"",""time""
""fullscreenenter"",""1"",""1948""
","
","","","-1","","","22","5128","3212","&#9826;","elianto","#f73b6a7A","-1","-1","1","0","[]","0","0","3","","","","","","","",""
"pit-trial","61","547510","0.0-2.0-14.0-2.0","battery-v0.2","","""event"",""trial"",""time""
""fullscreenenter"",""1"",""1948""
","
","
","""event"",""trial"",""time""
""fullscreenenter"",""1"",""1948""
","
","","","-1","","","22","5128","3212","&#9826;","elianto","#f73b6a7A","-1","-1","1","0","[]","0","0","3","","","","","","","",""
"pit-trial","62","552379","0.0-2.0-14.0-3.0","battery-v0.2","","""event"",""trial"",""time""
""fullscreenenter"",""1"",""1948""
","
","
","""event"",""trial"",""time""
""fullscreenenter"",""1"",""1948""
","
","","","-1","","","22","5128","3212","&#9826;","elianto","#f73b6a7A","-1","-1","1","-10","[]","0","0","3","","","","","","","",""
"pit-trial","63","557254","0.0-2.0-14.0-4.0","battery-v0.2","","""event"",""trial"",""time""
""fullscreenenter"",""1"",""1948""
","
","
","""event"",""trial"",""time""
""fullscreenenter"",""1"",""1948""
","
","","","-1","","","22","5128","3212","&#9826;","elianto","#f73b6a7A","-1","-1","1","0","[]","0","0","3","","","","","","","",""
"pit-trial","64","562128","0.0-2.0-14.1-0.1","battery-v0.2","","""event"",""trial"",""time""
""fullscreenenter"",""1"",""1948""
","
","
","""event"",""trial"",""time""
""fullscreenenter"",""1"",""1948""
","
","","","-1","","","22","5128","3212","&#9826;","elianto","#f73b6a7A","-1","-1","1","0","[]","0","0","3","","","","","","","",""
"pit-trial","65","566999","0.0-2.0-14.1-1.1","battery-v0.2","","""event"",""trial"",""time""
""fullscreenenter"",""1"",""1948""
","
","
","""event"",""trial"",""time""
""fullscreenenter"",""1"",""1948""
","
","","","-1","","","22","5128","3212","&#9826;","elianto","#f73b6a7A","-1","-1","1","0","[]","0","0","3","","","","","","","",""
"pit-trial","66","571868","0.0-2.0-14.1-2.1","battery-v0.2","","""event"",""trial"",""time""
""fullscreenenter"",""1"",""1948""
","
","
","""event"",""trial"",""time""
""fullscreenenter"",""1"",""1948""
","
","","","-1","","","22","5128","3212","&#9826;","elianto","#f73b6a7A","-1","-1","1","0","[]","0","0","3","","","","","","","",""
"pit-trial","67","576738","0.0-2.0-14.1-3.1","battery-v0.2","","""event"",""trial"",""time""
""fullscreenenter"",""1"",""1948""
","
","
","""event"",""trial"",""time""
""fullscreenenter"",""1"",""1948""
","
","","","-1","","","22","5128","3212","&#9826;","elianto","#f73b6a7A","-1","-1","1","-10","[]","0","0","3","","","","","","","",""
"pit-trial","68","581607","0.0-2.0-14.1-4.1","battery-v0.2","","""event"",""trial"",""time""
""fullscreenenter"",""1"",""1948""
","
","
","""event"",""trial"",""time""
""fullscreenenter"",""1"",""1948""
","
","","","-1","","","22","5128","3212","&#9826;","elianto","#f73b6a7A","-1","-1","1","0","[]","0","0","3","","","","","","","",""
"pit-trial","69","586476","0.0-2.0-14.2-0.2","battery-v0.2","","""event"",""trial"",""time""
""fullscreenenter"",""1"",""1948""
","
","
","""event"",""trial"",""time""
""fullscreenenter"",""1"",""1948""
","
","","","-1","","","22","5128","3212","&#9826;","elianto","#f73b6a7A","-1","-1","1","0","[]","0","0","3","","","","","","","",""
"pit-trial","70","591346","0.0-2.0-14.2-1.2","battery-v0.2","","""event"",""trial"",""time""
""fullscreenenter"",""1"",""1948""
","
","
","""event"",""trial"",""time""
""fullscreenenter"",""1"",""1948""
","
","","","-1","","","22","5128","3212","&#9826;","elianto","#f73b6a7A","-1","-1","1","0","[]","0","0","3","","","","","","","",""
"pit-trial","71","596215","0.0-2.0-14.2-2.2","battery-v0.2","","""event"",""trial"",""time""
""fullscreenenter"",""1"",""1948""
","
","
","""event"",""trial"",""time""
""fullscreenenter"",""1"",""1948""
","
","","","-1","","","22","5128","3212","&#9826;","elianto","#f73b6a7A","-1","-1","1","0","[]","0","0","3","","","","","","","",""
"pit-trial","72","601084","0.0-2.0-14.2-3.2","battery-v0.2","","""event"",""trial"",""time""
""fullscreenenter"",""1"",""1948""
","
","
","""event"",""trial"",""time""
""fullscreenenter"",""1"",""1948""
","
","","","-1","","","22","5128","3212","&#9826;","elianto","#f73b6a7A","-1","-1","1","-10","[]","0","0","3","","","","","","","",""
"pit-trial","73","605954","0.0-2.0-14.2-4.2","battery-v0.2","","""event"",""trial"",""time""
""fullscreenenter"",""1"",""1948""
","
","
","""event"",""trial"",""time""
""fullscreenenter"",""1"",""1948""
","
","","","-1","","","22","5128","3212","&#9826;","elianto","#f73b6a7A","-1","-1","1","0","[]","0","0","3","","","","","","","",""
"pit-trial","74","610823","0.0-2.0-14.3-0.3","battery-v0.2","","""event"",""trial"",""time""
""fullscreenenter"",""1"",""1948""
","
","
","""event"",""trial"",""time""
""fullscreenenter"",""1"",""1948""
","
","","","-1","","","22","5128","3212","&#9826;","elianto","#f73b6a7A","-1","-1","1","0","[]","0","0","3","","","","","","","",""
"pit-trial","75","615692","0.0-2.0-14.3-1.3","battery-v0.2","","""event"",""trial"",""time""
""fullscreenenter"",""1"",""1948""
","
","
","""event"",""trial"",""time""
""fullscreenenter"",""1"",""1948""
","
","","","-1","","","22","5128","3212","&#9826;","elianto","#f73b6a7A","-1","-1","1","0","[]","0","0","3","","","","","","","",""
"pit-trial","76","620562","0.0-2.0-14.3-2.3","battery-v0.2","","""event"",""trial"",""time""
""fullscreenenter"",""1"",""1948""
","
","
","""event"",""trial"",""time""
""fullscreenenter"",""1"",""1948""
","
","","","-1","","","22","5128","3212","&#9826;","elianto","#f73b6a7A","-1","-1","1","0","[]","0","0","3","","","","","","","",""
"pit-trial","77","625431","0.0-2.0-14.3-3.3","battery-v0.2","","""event"",""trial"",""time""
""fullscreenenter"",""1"",""1948""
","
","
","""event"",""trial"",""time""
""fullscreenenter"",""1"",""1948""
","
","","","-1","","","22","5128","3212","&#9826;","elianto","#f73b6a7A","-1","-1","1","-10","[]","0","0","3","","","","","","","",""
"pit-trial","78","630300","0.0-2.0-14.3-4.3","battery-v0.2","","""event"",""trial"",""time""
""fullscreenenter"",""1"",""1948""
","
","
","""event"",""trial"",""time""
""fullscreenenter"",""1"",""1948""
","
","","","-1","","","22","5128","3212","&#9826;","elianto","#f73b6a7A","-1","-1","1","0","[]","0","0","3","","","","","","","",""
"call-function","79","630313","0.0-2.0-15.0","battery-v0.2","","""event"",""trial"",""time""
""fullscreenenter"",""1"",""1948""
","
","
","""event"",""trial"",""time""
""fullscreenenter"",""1"",""1948""
","
","","","","","","","","","","","","","","","","","","","","","","","","","","",""
"pit-instructions","80","734316","0.0-2.0-16.0","battery-v0.2","","""event"",""trial"",""time""
""fullscreenenter"",""1"",""1948""
","
","
","""event"",""trial"",""time""
""fullscreenenter"",""1"",""1948""
","
","","[{""page_index"":0,""viewing_time"":83392.29999995232},{""page_index"":1,""viewing_time"":9181.700000047684},{""page_index"":2,""viewing_time"":5758.799999952316},{""page_index"":3,""viewing_time"":5669.200000047684}]","104002.59999990463","","","","","","","","","","","","","","","","","","","","","","","",""
"pit-trial","81","737903","0.0-2.0-17.0-0.0","battery-v0.2","","""event"",""trial"",""time""
""fullscreenenter"",""1"",""1948""
","
","
","""event"",""trial"",""time""
""fullscreenenter"",""1"",""1948""
","
","","","714.2999999523163","","","22","5128","3212","&#9789;","elianto","#f73b6a7A"," "," ","1","0","[1565.4000000953674]","1","0","4","","","","","","","",""
"pit-trial","82","741201","0.0-2.0-17.0-1.0","battery-v0.2","","""event"",""trial"",""time""
""fullscreenenter"",""1"",""1948""
","
","
","""event"",""trial"",""time""
""fullscreenenter"",""1"",""1948""
","
","","","429.7000000476837","","","22","5128","3212","&#9789;","elianto","#f73b6a7A"," "," ","1","0","[1280.7999999523163]","1","0","4","","","","","","","",""
"pit-trial","83","744657","0.0-2.0-17.0-2.0","battery-v0.2","","""event"",""trial"",""time""
""fullscreenenter"",""1"",""1948""
","
","
","""event"",""trial"",""time""
""fullscreenenter"",""1"",""1948""
","
","","","591","","","22","5128","3212","&#9789;","elianto","#f73b6a7A"," "," ","1","0","[1441.2000000476837]","1","0","4","","","","","","","",""
"pit-trial","84","748126","0.0-2.0-17.0-3.0","battery-v0.2","","""event"",""trial"",""time""
""fullscreenenter"",""1"",""1948""
","
","
","""event"",""trial"",""time""
""fullscreenenter"",""1"",""1948""
","
","","","600.0999999046326","","","22","5128","3212","&#9789;","elianto","#f73b6a7A"," "," ","1","-10","[1450.7999999523163,1514.9000000953674,1565]","3","0","4","","","","","","","",""
"pit-trial","85","751543","0.0-2.0-17.0-4.0","battery-v0.2","","""event"",""trial"",""time""
""fullscreenenter"",""1"",""1948""
","
","
","""event"",""trial"",""time""
""fullscreenenter"",""1"",""1948""
","
","","","551.2000000476837","","","22","5128","3212","&#9789;","elianto","#f73b6a7A"," "," ","1","0","[1401.3000001907349]","1","0","4","","","","","","","",""
"pit-trial","86","754918","0.0-2.0-17.1-0.1","battery-v0.2","","""event"",""trial"",""time""
""fullscreenenter"",""1"",""1948""
","
","
","""event"",""trial"",""time""
""fullscreenenter"",""1"",""1948""
","
","","","508.2000000476837","","","22","5128","3212","&#9789;","elianto","#f73b6a7A"," "," ","1","0","[1358.5]","1","0","4","","","","","","","",""
"pit-trial","87","758206","0.0-2.0-17.1-1.1","battery-v0.2","","""event"",""trial"",""time""
""fullscreenenter"",""1"",""1948""
","
","
","""event"",""trial"",""time""
""fullscreenenter"",""1"",""1948""
","
","","","420.89999985694885","","","22","5128","3212","&#9789;","elianto","#f73b6a7A"," "," ","1","0","[1271.5]","1","0","4","","","","","","","",""
"pit-trial","88","761745","0.0-2.0-17.1-2.1","battery-v0.2","","""event"",""trial"",""time""
""fullscreenenter"",""1"",""1948""
","
","
","""event"",""trial"",""time""
""fullscreenenter"",""1"",""1948""
","
","","","671.3999998569489","","","22","5128","3212","&#9789;","elianto","#f73b6a7A"," "," ","1","0","[1521.6999998092651,1624.6999998092651]","2","0","4","","","","","","","",""
"pit-trial","89","765143","0.0-2.0-17.1-3.1","battery-v0.2","","""event"",""trial"",""time""
""fullscreenenter"",""1"",""1948""
","
","
","""event"",""trial"",""time""
""fullscreenenter"",""1"",""1948""
","
","","","529.3999998569489","","","22","5128","3212","&#9789;","elianto","#f73b6a7A"," "," ","1","-10","[1379.7000000476837]","1","0","4","","","","","","","",""
"pit-trial","90","768535","0.0-2.0-17.1-4.1","battery-v0.2","","""event"",""trial"",""time""
""fullscreenenter"",""1"",""1948""
","
","
","""event"",""trial"",""time""
""fullscreenenter"",""1"",""1948""
","
","","","525.9000000953674","","","22","5128","3212","&#9789;","elianto","#f73b6a7A"," "," ","1","0","[1376]","1","0","4","","","","","","","",""
"pit-trial","91","773408","0.0-2.0-17.2-0.2","battery-v0.2","","""event"",""trial"",""time""
""fullscreenenter"",""1"",""1948""
","
","
","""event"",""trial"",""time""
""fullscreenenter"",""1"",""1948""
","
","","","-1","","","22","5128","3212","&#9789;","elianto","#f73b6a7A"," ","-1","0","-10","[]","0","0","4","","","","","","","",""
"pit-trial","92","778277","0.0-2.0-17.2-1.2","battery-v0.2","","""event"",""trial"",""time""
""fullscreenenter"",""1"",""1948""
","
","
","""event"",""trial"",""time""
""fullscreenenter"",""1"",""1948""
","
","","","-1","","","22","5128","3212","&#9789;","elianto","#f73b6a7A"," ","-1","0","-10","[]","0","0","4","","","","","","","",""
"pit-trial","93","783146","0.0-2.0-17.2-2.2","battery-v0.2","","""event"",""trial"",""time""
""fullscreenenter"",""1"",""1948""
","
","
","""event"",""trial"",""time""
""fullscreenenter"",""1"",""1948""
","
","","","-1","","","22","5128","3212","&#9789;","elianto","#f73b6a7A"," ","-1","0","-10","[]","0","0","4","","","","","","","",""
"pit-trial","94","788016","0.0-2.0-17.2-3.2","battery-v0.2","","""event"",""trial"",""time""
""fullscreenenter"",""1"",""1948""
","
","
","""event"",""trial"",""time""
""fullscreenenter"",""1"",""1948""
","
","","","-1","","","22","5128","3212","&#9789;","elianto","#f73b6a7A"," ","-1","0","0","[]","0","0","4","","","","","","","",""
"pit-trial","95","791392","0.0-2.0-17.2-4.2","battery-v0.2","","""event"",""trial"",""time""
""fullscreenenter"",""1"",""1948""
","
","
","""event"",""trial"",""time""
""fullscreenenter"",""1"",""1948""
","
","","","506.7999999523163","","","22","5128","3212","&#9789;","elianto","#f73b6a7A"," "," ","1","0","[1357.3999998569489]","1","0","4","","","","","","","",""
"pit-trial","96","794679","0.0-2.0-17.3-0.3","battery-v0.2","","""event"",""trial"",""time""
""fullscreenenter"",""1"",""1948""
","
","
","""event"",""trial"",""time""
""fullscreenenter"",""1"",""1948""
","
","","","419.2000000476837","","","22","5128","3212","&#9789;","elianto","#f73b6a7A"," "," ","1","0","[1269.3999998569489]","1","0","4","","","","","","","",""
"pit-trial","97","798090","0.0-2.0-17.3-1.3","battery-v0.2","","""event"",""trial"",""time""
""fullscreenenter"",""1"",""1948""
","
","
","""event"",""trial"",""time""
""fullscreenenter"",""1"",""1948""
","
","","","541.8999998569489","","","22","5128","3212","&#9789;","elianto","#f73b6a7A"," "," ","1","0","[1393.7999999523163]","1","0","4","","","","","","","",""
"pit-trial","98","801354","0.0-2.0-17.3-2.3","battery-v0.2","","""event"",""trial"",""time""
""fullscreenenter"",""1"",""1948""
","
","
","""event"",""trial"",""time""
""fullscreenenter"",""1"",""1948""
","
","","","398","","","22","5128","3212","&#9789;","elianto","#f73b6a7A"," "," ","1","0","[1248.6000001430511]","1","0","4","","","","","","","",""
"pit-trial","99","804677","0.0-2.0-17.3-3.3","battery-v0.2","","""event"",""trial"",""time""
""fullscreenenter"",""1"",""1948""
","
","
","""event"",""trial"",""time""
""fullscreenenter"",""1"",""1948""
","
","","","458.2999999523163","","","22","5128","3212","&#9789;","elianto","#f73b6a7A"," "," ","1","-10","[1308.6000001430511]","1","0","4","","","","","","","",""
"pit-trial","100","808004","0.0-2.0-17.3-4.3","battery-v0.2","","""event"",""trial"",""time""
""fullscreenenter"",""1"",""1948""
","
","
","""event"",""trial"",""time""
""fullscreenenter"",""1"",""1948""
","
","","","459.30000019073486","","","22","5128","3212","&#9789;","elianto","#f73b6a7A"," "," ","1","0","[1309.6000001430511]","1","0","4","","","","","","","",""
"call-function","101","808019","0.0-2.0-18.0","battery-v0.2","","""event"",""trial"",""time""
""fullscreenenter"",""1"",""1948""
","
","
","""event"",""trial"",""time""
""fullscreenenter"",""1"",""1948""
","
","","","","","","","","","","","","","","","","","","","","","","","","","","",""
"pit-instructions","102","878464","0.0-2.0-19.0","battery-v0.2","","""event"",""trial"",""time""
""fullscreenenter"",""1"",""1948""
","
","
","""event"",""trial"",""time""
""fullscreenenter"",""1"",""1948""
","
","","[{""page_index"":0,""viewing_time"":6508.100000143051},{""page_index"":1,""viewing_time"":5989.299999952316},{""page_index"":2,""viewing_time"":13711.700000047684},{""page_index"":3,""viewing_time"":7558.199999809265},{""page_index"":4,""viewing_time"":9280.400000095367},{""page_index"":5,""viewing_time"":9118.200000047684},{""page_index"":6,""viewing_time"":8415.299999952316},{""page_index"":7,""viewing_time"":5882.400000095367},{""page_index"":8,""viewing_time"":3980.0999999046326}]","70444.10000014305","","","","","","","","","","","","","","","","","","","","","","","",""
"pit-comprehension","103","883047","0.0-2.0-20.0-0.0","battery-v0.2","","""event"",""trial"",""time""
""fullscreenenter"",""1"",""1948""
","
","
","""event"",""trial"",""time""
""fullscreenenter"",""1"",""1948""
","
","","","4569.5","[""SPACE""]","0","22","5128","3212","","","","","","","","","","","","","","","","","","",""
"pit-instructions","104","886118","0.0-2.0-20.0-1.0","battery-v0.2","","""event"",""trial"",""time""
""fullscreenenter"",""1"",""1948""
","
","
","""event"",""trial"",""time""
""fullscreenenter"",""1"",""1948""
","
","","[{""page_index"":0,""viewing_time"":3015.5999999046326}]","3016.0999999046326","","","","","","","","","","","","","","","","","","","","","","","",""
"pit-comprehension","105","892826","0.0-2.0-21.0-0.0","battery-v0.2","","""event"",""trial"",""time""
""fullscreenenter"",""1"",""1948""
","
","
","""event"",""trial"",""time""
""fullscreenenter"",""1"",""1948""
","
","","","6691.699999809265","[""10""]","0","22","5128","3212","","","","","","","","","","","","","","","","","","",""
"pit-instructions","106","895603","0.0-2.0-21.0-1.0","battery-v0.2","","""event"",""trial"",""time""
""fullscreenenter"",""1"",""1948""
","
","
","""event"",""trial"",""time""
""fullscreenenter"",""1"",""1948""
","
","","[{""page_index"":0,""viewing_time"":2727.5}]","2727.899999856949","","","","","","","","","","","","","","","","","","","","","","","",""
"pit-comprehension","107","902368","0.0-2.0-22.0-0.0","battery-v0.2","","""event"",""trial"",""time""
""fullscreenenter"",""1"",""1948""
","
","
","""event"",""trial"",""time""
""fullscreenenter"",""1"",""1948""
","
","","","6749.100000143051","[""0""]","0","22","5128","3212","","","","","","","","","","","","","","","","","","",""
"pit-instructions","108","904124","0.0-2.0-22.0-1.0","battery-v0.2","","""event"",""trial"",""time""
""fullscreenenter"",""1"",""1948""
","
","
","""event"",""trial"",""time""
""fullscreenenter"",""1"",""1948""
","
","","[{""page_index"":0,""viewing_time"":1706.5999999046326}]","1707","","","","","","","","","","","","","","","","","","","","","","","",""
"pit-comprehension","109","912728","0.0-2.0-23.0-0.0","battery-v0.2","","""event"",""trial"",""time""
""fullscreenenter"",""1"",""1948""
","
","
","""event"",""trial"",""time""
""fullscreenenter"",""1"",""1948""
","
","","","8588.299999952316","[""True""]","0","22","5128","3212","","","","","","","","","","","","","","","","","","",""
"pit-instructions","110","914475","0.0-2.0-23.0-1.0","battery-v0.2","","""event"",""trial"",""time""
""fullscreenenter"",""1"",""1948""
","
","
","""event"",""trial"",""time""
""fullscreenenter"",""1"",""1948""
","
","","[{""page_index"":0,""viewing_time"":1693.2000000476837}]","1693.7999999523163","","","","","","","","","","","","","","","","","","","","","","","",""
"pit-comprehension","111","922009","0.0-2.0-24.0-0.0","battery-v0.2","","""event"",""trial"",""time""
""fullscreenenter"",""1"",""1948""
","
","
","""event"",""trial"",""time""
""fullscreenenter"",""1"",""1948""
","
","","","7517","[""True""]","0","22","5128","3212","","","","","","","","","","","","","","","","","","",""
"pit-instructions","112","924123","0.0-2.0-24.0-1.0","battery-v0.2","","""event"",""trial"",""time""
""fullscreenenter"",""1"",""1948""
","
","
","""event"",""trial"",""time""
""fullscreenenter"",""1"",""1948""
","
","","[{""page_index"":0,""viewing_time"":2064.5999999046326}]","2065","","","","","","","","","","","","","","","","","","","","","","","",""
"pit-comprehension","113","930592","0.0-2.0-25.0-0.0","battery-v0.2","","""event"",""trial"",""time""
""fullscreenenter"",""1"",""1948""
","
","
","""event"",""trial"",""time""
""fullscreenenter"",""1"",""1948""
","
","","","6454.400000095367","[""True""]","0","22","5128","3212","","","","","","","","","","","","","","","","","","",""
"pit-instructions","114","932921","0.0-2.0-25.0-1.0","battery-v0.2","","""event"",""trial"",""time""
""fullscreenenter"",""1"",""1948""
","
","
","""event"",""trial"",""time""
""fullscreenenter"",""1"",""1948""
","
","","[{""page_index"":0,""viewing_time"":2280.2000000476837}]","2280.7000000476837","","","","","","","","","","","","","","","","","","","","","","","",""
"pit-comprehension","115","938192","0.0-2.0-26.0-0.0","battery-v0.2","","""event"",""trial"",""time""
""fullscreenenter"",""1"",""1948""
","
","
","""event"",""trial"",""time""
""fullscreenenter"",""1"",""1948""
","
","","","5253.299999952316","[""False""]","0","22","5128","3212","","","","","","","","","","","","","","","","","","",""
"pit-instructions","116","940453","0.0-2.0-26.0-1.0","battery-v0.2","","""event"",""trial"",""time""
""fullscreenenter"",""1"",""1948""
","
","
","""event"",""trial"",""time""
""fullscreenenter"",""1"",""1948""
","
","","[{""page_index"":0,""viewing_time"":2208.7000000476837}]","2209.2000000476837","","","","","","","","","","","","","","","","","","","","","","","",""
"pit-instructions","117","958851","0.0-3.0","battery-v0.2","","""event"",""trial"",""time""
""fullscreenenter"",""1"",""1948""
","
","
","""event"",""trial"",""time""
""fullscreenenter"",""1"",""1948""
","
","","[{""page_index"":0,""viewing_time"":3660.2999999523163},{""page_index"":1,""viewing_time"":7009.400000095367},{""page_index"":2,""viewing_time"":7711.899999856949}]","18382.200000047684","","","","","","","","","","","","","","","","","","","","","","","",""
"pit-trial","118","962428","0.0-4.0","battery-v0.2","","""event"",""trial"",""time""
""fullscreenenter"",""1"",""1948""
","
","
","""event"",""trial"",""time""
""fullscreenenter"",""1"",""1948""
","
","","","703","","","22","5128","3212","&#9733;","elianto","#3366ff99","-1"," ","0","0","[1554.4000000953674]","1","1","","","5128","1","2","2","win","no-go","0"
"pit-trial","119","966190","0.0-5.0","battery-v0.2","","""event"",""trial"",""time""
""fullscreenenter"",""1"",""1948""
","
","
","""event"",""trial"",""time""
""fullscreenenter"",""1"",""1948""
","
","","","895","","","22","5128","3212","&#9728;","elianto","#f73b6a7A","-1"," ","0","-10","[1745]","1","1","","","5128","2","0","4","lose","no-go","0"
"pit-trial","120","969878","0.0-6.0","battery-v0.2","","""event"",""trial"",""time""
""fullscreenenter"",""1"",""1948""
","
","
","""event"",""trial"",""time""
""fullscreenenter"",""1"",""1948""
","
","","","818.4000000953674","","","22","5128","3212","&#9730;","elianto","#3366ff99"," "," ","1","+10","[1671.9000000953674]","1","1","","","5128","3","1","1","win","go","0"
"pit-trial","121","973830","0.0-7.0","battery-v0.2","","""event"",""trial"",""time""
""fullscreenenter"",""1"",""1948""
","
","
","""event"",""trial"",""time""
""fullscreenenter"",""1"",""1948""
","
","","","1082.5999999046326","","","22","5128","3212","&#9752;","elianto","#f73b6a7A"," "," ","1","-10","[1933.0999999046326]","1","1","","","5128","4","3","3","lose","go","1"
"pit-trial","122","977455","0.0-8.0","battery-v0.2","","""event"",""trial"",""time""
""fullscreenenter"",""1"",""1948""
","
","
","""event"",""trial"",""time""
""fullscreenenter"",""1"",""1948""
","
","","","753.0999999046326","","","22","5128","3212","&#9730;","elianto","#3366ff99"," "," ","1","+10","[1604.7999999523163]","1","1","","","5128","5","1","1","win","go","0"
"pit-trial","123","981542","0.0-9.0","battery-v0.2","","""event"",""trial"",""time""
""fullscreenenter"",""1"",""1948""
","
","
","""event"",""trial"",""time""
""fullscreenenter"",""1"",""1948""
","
","","","1216","","","22","5128","3212","&#9728;","elianto","#f73b6a7A","-1"," ","0","-10","[2068]","1","1","","","5128","6","0","4","lose","no-go","0"
"pit-trial","124","986412","0.0-10.0","battery-v0.2","","""event"",""trial"",""time""
""fullscreenenter"",""1"",""1948""
","
","
","""event"",""trial"",""time""
""fullscreenenter"",""1"",""1948""
","
","","","-1","","","22","5128","3212","&#9752;","elianto","#f73b6a7A"," ","-1","0","-10","[]","0","1","","","5128","7","3","3","lose","go","0"
"pit-trial","125","991282","0.0-11.0","battery-v0.2","","""event"",""trial"",""time""
""fullscreenenter"",""1"",""1948""
","
","
","""event"",""trial"",""time""
""fullscreenenter"",""1"",""1948""
","
","","","-1","","","22","5128","3212","&#9733;","elianto","#3366ff99","-1","-1","1","+10","[]","0","1","","","5128","8","2","2","win","no-go","0"
"pit-trial","126","994871","0.0-12.0","battery-v0.2","","""event"",""trial"",""time""
""fullscreenenter"",""1"",""1948""
","
","
","""event"",""trial"",""time""
""fullscreenenter"",""1"",""1948""
","
","","","720.6999998092651","","","22","5128","3212","&#9730;","elianto","#3366ff99"," "," ","1","0","[1571.5999999046326]","1","1","","","5128","9","1","1","win","go","1"
"pit-trial","127","999746","0.0-13.0","battery-v0.2","","""event"",""trial"",""time""
""fullscreenenter"",""1"",""1948""
","
","
","""event"",""trial"",""time""
""fullscreenenter"",""1"",""1948""
","
","","","-1","","","22","5128","3212","&#9733;","elianto","#3366ff99","-1","-1","1","+10","[]","0","1","","","5128","10","2","2","win","no-go","0"
"pit-trial","128","1004620","0.0-14.0","battery-v0.2","","""event"",""trial"",""time""
""fullscreenenter"",""1"",""1948""
","
","
","""event"",""trial"",""time""
""fullscreenenter"",""1"",""1948""
","
","","","-1","","","22","5128","3212","&#9728;","elianto","#f73b6a7A","-1","-1","1","0","[]","0","1","","","5128","11","0","4","lose","no-go","0"
"pit-trial","129","1008834","0.0-15.0","battery-v0.2","","""event"",""trial"",""time""
""fullscreenenter"",""1"",""1948""
","
","
","""event"",""trial"",""time""
""fullscreenenter"",""1"",""1948""
","
","","","1346.2999999523163","","","22","5128","3212","&#9752;","elianto","#f73b6a7A"," "," ","1","0","[2196.5]","1","1","","","5128","12","3","3","lose","go","0"
"pit-trial","130","1012428","0.0-16.0","battery-v0.2","","""event"",""trial"",""time""
""fullscreenenter"",""1"",""1948""
","
","
","""event"",""trial"",""time""
""fullscreenenter"",""1"",""1948""
","
","","","727.6000001430511","","","22","5128","3212","&#9730;","elianto","#3366ff99"," "," ","1","+10","[1578.2000000476837]","1","1","","","5128","13","1","1","win","go","0"
"pit-trial","131","1017298","0.0-17.0","battery-v0.2","","""event"",""trial"",""time""
""fullscreenenter"",""1"",""1948""
","
","
","""event"",""trial"",""time""
""fullscreenenter"",""1"",""1948""
","
","","","-1","","","22","5128","3212","&#9733;","elianto","#3366ff99","-1","-1","1","+10","[]","0","1","","","5128","14","2","2","win","no-go","0"
"pit-trial","132","1022172","0.0-18.0","battery-v0.2","","""event"",""trial"",""time""
""fullscreenenter"",""1"",""1948""
","
","
","""event"",""trial"",""time""
""fullscreenenter"",""1"",""1948""
","
","","","-1","","","22","5128","3212","&#9728;","elianto","#f73b6a7A","-1","-1","1","0","[]","0","1","","","5128","15","0","4","lose","no-go","0"
"pit-trial","133","1025693","0.0-19.0","battery-v0.2","","""event"",""trial"",""time""
""fullscreenenter"",""1"",""1948""
","
","
","""event"",""trial"",""time""
""fullscreenenter"",""1"",""1948""
","
","","","653","","","22","5128","3212","&#9752;","elianto","#f73b6a7A"," "," ","1","0","[1504.2999999523163]","1","1","","","5128","16","3","3","lose","go","0"
"pit-trial","134","1030567","0.0-20.0","battery-v0.2","","""event"",""trial"",""time""
""fullscreenenter"",""1"",""1948""
","
","
","""event"",""trial"",""time""
""fullscreenenter"",""1"",""1948""
","
","","","-1","","","22","5128","3212","&#9728;","elianto","#f73b6a7A","-1","-1","1","0","[]","0","1","","","5128","17","0","4","lose","no-go","0"
"pit-trial","135","1034338","0.0-21.0","battery-v0.2","","""event"",""trial"",""time""
""fullscreenenter"",""1"",""1948""
","
","
","""event"",""trial"",""time""
""fullscreenenter"",""1"",""1948""
","
","","","904.8999998569489","","","22","5128","3212","&#9752;","elianto","#f73b6a7A"," "," ","1","0","[1755.2999999523163]","1","1","","","5128","18","3","3","lose","go","0"
"pit-trial","136","1037946","0.0-22.0","battery-v0.2","","""event"",""trial"",""time""
""fullscreenenter"",""1"",""1948""
","
","
","""event"",""trial"",""time""
""fullscreenenter"",""1"",""1948""
","
","","","741.2999999523163","","","22","5128","3212","&#9730;","elianto","#3366ff99"," "," ","1","+10","[1592]","1","1","","","5128","19","1","1","win","go","0"
"pit-trial","137","1042818","0.0-23.0","battery-v0.2","","""event"",""trial"",""time""
""fullscreenenter"",""1"",""1948""
","
","
","""event"",""trial"",""time""
""fullscreenenter"",""1"",""1948""
","
","","","-1","","","22","5128","3212","&#9733;","elianto","#3366ff99","-1","-1","1","+10","[]","0","1","","","5128","20","2","2","win","no-go","0"
"pit-instructions","138","1056423","0.0-24.0","battery-v0.2","","""event"",""trial"",""time""
""fullscreenenter"",""1"",""1948""
","
","
","""event"",""trial"",""time""
""fullscreenenter"",""1"",""1948""
","
","","[{""page_index"":0,""viewing_time"":5820},{""page_index"":1,""viewing_time"":7771.400000095367}]","13591.700000047684","","","","","","","","","","","","","","","","","","","","","","","",""
"pit-trial","139","1060008","0.0-25.0","battery-v0.2","","""event"",""trial"",""time""
""fullscreenenter"",""1"",""1948""
","
","
","""event"",""trial"",""time""
""fullscreenenter"",""1"",""1948""
","
","","","720.0999999046326","","","22","5128","3212","d","elianto","#3366ff99"," "," ","1","+10","[1571.2999999523163]","1","2","","","5128","21","1","1","win","go","0"
"pit-trial","140","1064441","0.0-26.0","battery-v0.2","","""event"",""trial"",""time""
""fullscreenenter"",""1"",""1948""
","
","
","""event"",""trial"",""time""
""fullscreenenter"",""1"",""1948""
","
","","","1568.4000000953674","","","22","5128","3212","e","elianto","#f73b6a7A","-1"," ","0","-10","[2418.7000000476837]","1","2","","","5128","22","2","4","lose","no-go","0"
"pit-trial","141","1068438","0.0-27.0","battery-v0.2","","""event"",""trial"",""time""
""fullscreenenter"",""1"",""1948""
","
","
","""event"",""trial"",""time""
""fullscreenenter"",""1"",""1948""
","
","","","1132.0999999046326","","","22","5128","3212","w","elianto","#f73b6a7A"," "," ","1","-10","[1982.2999999523163]","1","2","","","5128","23","3","3","lose","go","1"
"pit-trial","142","1072484","0.0-28.0","battery-v0.2","","""event"",""trial"",""time""
""fullscreenenter"",""1"",""1948""
","
","
","""event"",""trial"",""time""
""fullscreenenter"",""1"",""1948""
","
","","","1177.7000000476837","","","22","5128","3212","j","elianto","#f73b6a7A","-1"," ","0","0","[2027.9000000953674]","1","2","","","5128","24","0","4","lose","no-go","1"
"pit-trial","143","1077353","0.0-29.0","battery-v0.2","","""event"",""trial"",""time""
""fullscreenenter"",""1"",""1948""
","
","
","""event"",""trial"",""time""
""fullscreenenter"",""1"",""1948""
","
","","","-1","","","22","5128","3212","e","elianto","#f73b6a7A","-1","-1","1","0","[]","0","2","","","5128","25","2","4","lose","no-go","0"
"pit-trial","144","1081687","0.0-30.0","battery-v0.2","","""event"",""trial"",""time""
""fullscreenenter"",""1"",""1948""
","
","
","""event"",""trial"",""time""
""fullscreenenter"",""1"",""1948""
","
","","","1466.1000001430511","","","22","5128","3212","w","elianto","#f73b6a7A"," "," ","1","0","[2318.4000000953674,2388.2000000476837]","2","2","","","5128","26","3","3","lose","go","0"
"pit-trial","145","1085150","0.0-31.0","battery-v0.2","","""event"",""trial"",""time""
""fullscreenenter"",""1"",""1948""
","
","
","""event"",""trial"",""time""
""fullscreenenter"",""1"",""1948""
","
","","","595.6000001430511","","","22","5128","3212","d","elianto","#3366ff99"," "," ","1","0","[1446.1000001430511]","1","2","","","5128","27","1","1","win","go","1"
"pit-trial","146","1090015","0.0-32.0","battery-v0.2","","""event"",""trial"",""time""
""fullscreenenter"",""1"",""1948""
","
","
","""event"",""trial"",""time""
""fullscreenenter"",""1"",""1948""
","
","","","-1","","","22","5128","3212","j","elianto","#f73b6a7A","-1","-1","1","0","[]","0","2","","","5128","28","0","4","lose","no-go","0"
"pit-trial","147","1094885","0.0-33.0","battery-v0.2","","""event"",""trial"",""time""
""fullscreenenter"",""1"",""1948""
","
","
","""event"",""trial"",""time""
""fullscreenenter"",""1"",""1948""
","
","","","-1","","","22","5128","3212","e","elianto","#f73b6a7A","-1","-1","1","0","[]","0","2","","","5128","29","2","4","lose","no-go","0"
"pit-trial","148","1099754","0.0-34.0","battery-v0.2","","""event"",""trial"",""time""
""fullscreenenter"",""1"",""1948""
","
","
","""event"",""trial"",""time""
""fullscreenenter"",""1"",""1948""
","
","","","-1","","","22","5128","3212","d","elianto","#3366ff99"," ","-1","0","0","[]","0","2","","","5128","30","1","1","win","go","0"
"pit-trial","149","1104623","0.0-35.0","battery-v0.2","","""event"",""trial"",""time""
""fullscreenenter"",""1"",""1948""
","
","
","""event"",""trial"",""time""
""fullscreenenter"",""1"",""1948""
","
","","","-1","","","22","5128","3212","j","elianto","#f73b6a7A","-1","-1","1","-10","[]","0","2","","","5128","31","0","4","lose","no-go","1"
"pit-trial","150","1108277","0.0-36.0","battery-v0.2","","""event"",""trial"",""time""
""fullscreenenter"",""1"",""1948""
","
","
","""event"",""trial"",""time""
""fullscreenenter"",""1"",""1948""
","
","","","783.6000001430511","","","22","5128","3212","w","elianto","#f73b6a7A"," "," ","1","-10","[1633.7999999523163]","1","2","","","5128","32","3","3","lose","go","1"
"pit-trial","151","1113151","0.0-37.0","battery-v0.2","","""event"",""trial"",""time""
""fullscreenenter"",""1"",""1948""
","
","
","""event"",""trial"",""time""
""fullscreenenter"",""1"",""1948""
","
","","","-1","","","22","5128","3212","d","elianto","#3366ff99"," ","-1","0","0","[]","0","2","","","5128","33","1","1","win","go","0"
"pit-trial","152","1117231","0.0-38.0","battery-v0.2","","""event"",""trial"",""time""
""fullscreenenter"",""1"",""1948""
","
","
","""event"",""trial"",""time""
""fullscreenenter"",""1"",""1948""
","
","","","1215.2999999523163","","","22","5128","3212","w","elianto","#f73b6a7A"," "," ","1","0","[2065.7999999523163]","1","2","","","5128","34","3","3","lose","go","0"
"pit-trial","153","1122106","0.0-39.0","battery-v0.2","","""event"",""trial"",""time""
""fullscreenenter"",""1"",""1948""
","
","
","""event"",""trial"",""time""
""fullscreenenter"",""1"",""1948""
","
","","","-1","","","22","5128","3212","e","elianto","#f73b6a7A","-1","-1","1","0","[]","0","2","","","5128","35","2","4","lose","no-go","0"
"pit-trial","154","1126981","0.0-40.0","battery-v0.2","","""event"",""trial"",""time""
""fullscreenenter"",""1"",""1948""
","
","
","""event"",""trial"",""time""
""fullscreenenter"",""1"",""1948""
","
","","","-1","","","22","5128","3212","j","elianto","#f73b6a7A","-1","-1","1","0","[]","0","2","","","5128","36","0","4","lose","no-go","0"
"pit-trial","155","1130519","0.0-41.0","battery-v0.2","","""event"",""trial"",""time""
""fullscreenenter"",""1"",""1948""
","
","
","""event"",""trial"",""time""
""fullscreenenter"",""1"",""1948""
","
","","","669.5999999046326","","","22","5128","3212","w","elianto","#f73b6a7A"," "," ","1","-10","[1521.2999999523163]","1","2","","","5128","37","3","3","lose","go","1"
"pit-trial","156","1135391","0.0-42.0","battery-v0.2","","""event"",""trial"",""time""
""fullscreenenter"",""1"",""1948""
","
","
","""event"",""trial"",""time""
""fullscreenenter"",""1"",""1948""
","
","","","-1","","","22","5128","3212","j","elianto","#f73b6a7A","-1","-1","1","0","[]","0","2","","","5128","38","0","4","lose","no-go","0"
"pit-trial","157","1140264","0.0-43.0","battery-v0.2","","""event"",""trial"",""time""
""fullscreenenter"",""1"",""1948""
","
","
","""event"",""trial"",""time""
""fullscreenenter"",""1"",""1948""
","
","","","-1","","","22","5128","3212","e","elianto","#f73b6a7A","-1","-1","1","0","[]","0","2","","","5128","39","2","4","lose","no-go","0"
"pit-trial","158","1143855","0.0-44.0","battery-v0.2","","""event"",""trial"",""time""
""fullscreenenter"",""1"",""1948""
","
","
","""event"",""trial"",""time""
""fullscreenenter"",""1"",""1948""
","
","","","724.5999999046326","","","22","5128","3212","d","elianto","#3366ff99"," "," ","1","+10","[1574.8999998569489]","1","2","","","5128","40","1","1","win","go","0"
"pit-trial","159","1147530","0.0-45.0","battery-v0.2","","""event"",""trial"",""time""
""fullscreenenter"",""1"",""1948""
","
","
","""event"",""trial"",""time""
""fullscreenenter"",""1"",""1948""
","
","","","808.7999999523163","","","22","5128","3212","d","elianto","#3366ff99"," "," ","1","+10","[1659.9000000953674]","1","2","","","5128","41","1","1","win","go","0"
"pit-trial","160","1151439","0.0-46.0","battery-v0.2","","""event"",""trial"",""time""
""fullscreenenter"",""1"",""1948""
","
","
","""event"",""trial"",""time""
""fullscreenenter"",""1"",""1948""
","
","","","1037.2999999523163","","","22","5128","3212","w","elianto","#f73b6a7A"," "," ","1","0","[1890.5]","1","2","","","5128","42","3","3","lose","go","0"
"pit-trial","161","1156309","0.0-47.0","battery-v0.2","","""event"",""trial"",""time""
""fullscreenenter"",""1"",""1948""
","
","
","""event"",""trial"",""time""
""fullscreenenter"",""1"",""1948""
","
","","","-1","","","22","5128","3212","j","elianto","#f73b6a7A","-1","-1","1","0","[]","0","2","","","5128","43","0","4","lose","no-go","0"
"pit-trial","162","1161178","0.0-48.0","battery-v0.2","","""event"",""trial"",""time""
""fullscreenenter"",""1"",""1948""
","
","
","""event"",""trial"",""time""
""fullscreenenter"",""1"",""1948""
","
","","","-1","","","22","5128","3212","e","elianto","#f73b6a7A","-1","-1","1","0","[]","0","2","","","5128","44","2","4","lose","no-go","0"
"pit-trial","163","1166047","0.0-49.0","battery-v0.2","","""event"",""trial"",""time""
""fullscreenenter"",""1"",""1948""
","
","
","""event"",""trial"",""time""
""fullscreenenter"",""1"",""1948""
","
","","","-1","","","22","5128","3212","j","elianto","#f73b6a7A","-1","-1","1","0","[]","0","2","","","5128","45","0","4","lose","no-go","0"
"pit-trial","164","1169642","0.0-50.0","battery-v0.2","","""event"",""trial"",""time""
""fullscreenenter"",""1"",""1948""
","
","
","""event"",""trial"",""time""
""fullscreenenter"",""1"",""1948""
","
","","","724.8999998569489","","","22","5128","3212","w","elianto","#f73b6a7A"," "," ","1","0","[1576.5]","1","2","","","5128","46","3","3","lose","go","0"
"pit-trial","165","1173823","0.0-51.0","battery-v0.2","","""event"",""trial"",""time""
""fullscreenenter"",""1"",""1948""
","
","
","""event"",""trial"",""time""
""fullscreenenter"",""1"",""1948""
","
","","","1312.7999999523163","","","22","5128","3212","s","elianto","#3366ff99","-1"," ","0","0","[2163.2999999523163]","1","2","","","5128","47","4","2","win","no-go","0"
"pit-trial","166","1178698","0.0-52.0","battery-v0.2","","""event"",""trial"",""time""
""fullscreenenter"",""1"",""1948""
","
","
","""event"",""trial"",""time""
""fullscreenenter"",""1"",""1948""
","
","","","-1","","","22","5128","3212","e","elianto","#f73b6a7A","-1","-1","1","0","[]","0","2","","","5128","48","2","4","lose","no-go","0"
"pit-trial","167","1183567","0.0-53.0","battery-v0.2","","""event"",""trial"",""time""
""fullscreenenter"",""1"",""1948""
","
","
","""event"",""trial"",""time""
""fullscreenenter"",""1"",""1948""
","
","","","-1","","","22","5128","3212","s","elianto","#3366ff99","-1","-1","1","+10","[]","0","2","","","5128","49","4","2","win","no-go","0"
"pit-trial","168","1188441","0.0-54.0","battery-v0.2","","""event"",""trial"",""time""
""fullscreenenter"",""1"",""1948""
","
","
","""event"",""trial"",""time""
""fullscreenenter"",""1"",""1948""
","
","","","-1","","","22","5128","3212","j","elianto","#f73b6a7A","-1","-1","1","0","[]","0","2","","","5128","50","0","4","lose","no-go","0"
"pit-trial","169","1192154","0.0-55.0","battery-v0.2","","""event"",""trial"",""time""
""fullscreenenter"",""1"",""1948""
","
","
","""event"",""trial"",""time""
""fullscreenenter"",""1"",""1948""
","
","","","840.5999999046326","","","22","5128","3212","d","elianto","#3366ff99"," "," ","1","+10","[1693.5999999046326]","1","2","","","5128","51","1","1","win","go","0"
"pit-trial","170","1195983","0.0-56.0","battery-v0.2","","""event"",""trial"",""time""
""fullscreenenter"",""1"",""1948""
","
","
","""event"",""trial"",""time""
""fullscreenenter"",""1"",""1948""
","
","","","963.2000000476837","","","22","5128","3212","w","elianto","#f73b6a7A"," "," ","1","-10","[1814.2000000476837]","1","2","","","5128","52","3","3","lose","go","1"
"pit-trial","171","1200853","0.0-57.0","battery-v0.2","","""event"",""trial"",""time""
""fullscreenenter"",""1"",""1948""
","
","
","""event"",""trial"",""time""
""fullscreenenter"",""1"",""1948""
","
","","","-1","","","22","5128","3212","s","elianto","#3366ff99","-1","-1","1","+10","[]","0","2","","","5128","53","4","2","win","no-go","0"
"pit-trial","172","1205722","0.0-58.0","battery-v0.2","","""event"",""trial"",""time""
""fullscreenenter"",""1"",""1948""
","
","
","""event"",""trial"",""time""
""fullscreenenter"",""1"",""1948""
","
","","","-1","","","22","5128","3212","j","elianto","#f73b6a7A","-1","-1","1","0","[]","0","2","","","5128","54","0","4","lose","no-go","0"
"pit-trial","173","1210591","0.0-59.0","battery-v0.2","","""event"",""trial"",""time""
""fullscreenenter"",""1"",""1948""
","
","
","""event"",""trial"",""time""
""fullscreenenter"",""1"",""1948""
","
","","","-1","","","22","5128","3212","e","elianto","#f73b6a7A","-1","-1","1","0","[]","0","2","","","5128","55","2","4","lose","no-go","0"
"pit-trial","174","1214613","0.0-60.0","battery-v0.2","","""event"",""trial"",""time""
""fullscreenenter"",""1"",""1948""
","
","
","""event"",""trial"",""time""
""fullscreenenter"",""1"",""1948""
","
","","","1152.2000000476837","","","22","5128","3212","d","elianto","#3366ff99"," "," ","1","+10","[2002.2000000476837]","1","2","","","5128","56","1","1","win","go","0"
"pit-trial","175","1218271","0.0-61.0","battery-v0.2","","""event"",""trial"",""time""
""fullscreenenter"",""1"",""1948""
","
","
","""event"",""trial"",""time""
""fullscreenenter"",""1"",""1948""
","
","","","788.2999999523163","","","22","5128","3212","d","elianto","#3366ff99"," "," ","1","0","[1638.8999998569489]","1","2","","","5128","57","1","1","win","go","1"
"pit-trial","176","1223146","0.0-62.0","battery-v0.2","","""event"",""trial"",""time""
""fullscreenenter"",""1"",""1948""
","
","
","""event"",""trial"",""time""
""fullscreenenter"",""1"",""1948""
","
","","","-1","","","22","5128","3212","j","elianto","#f73b6a7A","-1","-1","1","-10","[]","0","2","","","5128","58","0","4","lose","no-go","1"
"pit-trial","177","1227674","0.0-63.0","battery-v0.2","","""event"",""trial"",""time""
""fullscreenenter"",""1"",""1948""
","
","
","""event"",""trial"",""time""
""fullscreenenter"",""1"",""1948""
","
","","","1658.8999998569489","","","22","5128","3212","w","elianto","#f73b6a7A"," "," ","1","0","[2509.0999999046326]","1","2","","","5128","59","3","3","lose","go","0"
"pit-trial","178","1231541","0.0-64.0","battery-v0.2","","""event"",""trial"",""time""
""fullscreenenter"",""1"",""1948""
","
","
","""event"",""trial"",""time""
""fullscreenenter"",""1"",""1948""
","
","","","995","","","22","5128","3212","s","elianto","#3366ff99","-1"," ","0","0","[1847.4000000953674]","1","2","","","5128","60","4","2","win","no-go","0"
"pit-trial","179","1235770","0.0-65.0","battery-v0.2","","""event"",""trial"",""time""
""fullscreenenter"",""1"",""1948""
","
","
","""event"",""trial"",""time""
""fullscreenenter"",""1"",""1948""
","
","","","1364.0999999046326","","","22","5128","3212","w","elianto","#f73b6a7A"," "," ","1","0","[2214.2000000476837]","1","2","","","5128","61","3","3","lose","go","0"
"pit-trial","180","1239895","0.0-66.0","battery-v0.2","","""event"",""trial"",""time""
""fullscreenenter"",""1"",""1948""
","
","
","""event"",""trial"",""time""
""fullscreenenter"",""1"",""1948""
","
","","","1257.1999998092651","","","22","5128","3212","d","elianto","#3366ff99"," "," ","1","+10","[2107.7000000476837]","1","2","","","5128","62","1","1","win","go","0"
"pit-trial","181","1244767","0.0-67.0","battery-v0.2","","""event"",""trial"",""time""
""fullscreenenter"",""1"",""1948""
","
","
","""event"",""trial"",""time""
""fullscreenenter"",""1"",""1948""
","
","","","-1","","","22","5128","3212","s","elianto","#3366ff99","-1","-1","1","+10","[]","0","2","","","5128","63","4","2","win","no-go","0"
"pit-trial","182","1249637","0.0-68.0","battery-v0.2","","""event"",""trial"",""time""
""fullscreenenter"",""1"",""1948""
","
","
","""event"",""trial"",""time""
""fullscreenenter"",""1"",""1948""
","
","","","-1","","","22","5128","3212","e","elianto","#f73b6a7A","-1","-1","1","-10","[]","0","2","","","5128","64","2","4","lose","no-go","1"
"pit-trial","183","1254511","0.0-69.0","battery-v0.2","","""event"",""trial"",""time""
""fullscreenenter"",""1"",""1948""
","
","
","""event"",""trial"",""time""
""fullscreenenter"",""1"",""1948""
","
","","","-1","","","22","5128","3212","e","elianto","#f73b6a7A","-1","-1","1","0","[]","0","2","","","5128","65","2","4","lose","no-go","0"
"pit-trial","184","1258415","0.0-70.0","battery-v0.2","","""event"",""trial"",""time""
""fullscreenenter"",""1"",""1948""
","
","
","""event"",""trial"",""time""
""fullscreenenter"",""1"",""1948""
","
","","","1034.2999999523163","","","22","5128","3212","d","elianto","#3366ff99"," "," ","1","0","[1884.9000000953674]","1","2","","","5128","66","1","1","win","go","1"
"pit-trial","185","1262772","0.0-71.0","battery-v0.2","","""event"",""trial"",""time""
""fullscreenenter"",""1"",""1948""
","
","
","""event"",""trial"",""time""
""fullscreenenter"",""1"",""1948""
","
","","","1485.6999998092651","","","22","5128","3212","w","elianto","#f73b6a7A"," "," ","1","0","[2337.5999999046326]","1","2","","","5128","67","3","3","lose","go","0"
"pit-trial","186","1267642","0.0-72.0","battery-v0.2","","""event"",""trial"",""time""
""fullscreenenter"",""1"",""1948""
","
","
","""event"",""trial"",""time""
""fullscreenenter"",""1"",""1948""
","
","","","-1","","","22","5128","3212","s","elianto","#3366ff99","-1","-1","1","+10","[]","0","2","","","5128","68","4","2","win","no-go","0"
"pit-trial","187","1271626","0.0-73.0","battery-v0.2","","""event"",""trial"",""time""
""fullscreenenter"",""1"",""1948""
","
","
","""event"",""trial"",""time""
""fullscreenenter"",""1"",""1948""
","
","","","1116.2999999523163","","","22","5128","3212","d","elianto","#3366ff99"," "," ","1","+10","[1966.7000000476837]","1","2","","","5128","69","1","1","win","go","0"
"pit-trial","188","1276495","0.0-74.0","battery-v0.2","","""event"",""trial"",""time""
""fullscreenenter"",""1"",""1948""
","
","
","""event"",""trial"",""time""
""fullscreenenter"",""1"",""1948""
","
","","","-1","","","22","5128","3212","w","elianto","#f73b6a7A"," ","-1","0","-10","[]","0","2","","","5128","70","3","3","lose","go","0"
"pit-trial","189","1281367","0.0-75.0","battery-v0.2","","""event"",""trial"",""time""
""fullscreenenter"",""1"",""1948""
","
","
","""event"",""trial"",""time""
""fullscreenenter"",""1"",""1948""
","
","","","-1","","","22","5128","3212","s","elianto","#3366ff99","-1","-1","1","0","[]","0","2","","","5128","71","4","2","win","no-go","1"
"pit-trial","190","1285386","0.0-76.0","battery-v0.2","","""event"",""trial"",""time""
""fullscreenenter"",""1"",""1948""
","
","
","""event"",""trial"",""time""
""fullscreenenter"",""1"",""1948""
","
","","","1152.9000000953674","","","22","5128","3212","p","elianto","#3366ff99"," "," ","1","+10","[2004]","1","2","","","5128","72","5","1","win","go","0"
"pit-trial","191","1289050","0.0-77.0","battery-v0.2","","""event"",""trial"",""time""
""fullscreenenter"",""1"",""1948""
","
","
","""event"",""trial"",""time""
""fullscreenenter"",""1"",""1948""
","
","","","794.0999999046326","","","22","5128","3212","p","elianto","#3366ff99"," "," ","1","+10","[1644.8000001907349]","1","2","","","5128","73","5","1","win","go","0"
"pit-trial","192","1293519","0.0-78.0","battery-v0.2","","""event"",""trial"",""time""
""fullscreenenter"",""1"",""1948""
","
","
","""event"",""trial"",""time""
""fullscreenenter"",""1"",""1948""
","
","","","1599.6999998092651","","","22","5128","3212","d","elianto","#3366ff99"," "," ","1","+10","[2451]","1","2","","","5128","74","1","1","win","go","0"
"pit-trial","193","1298389","0.0-79.0","battery-v0.2","","""event"",""trial"",""time""
""fullscreenenter"",""1"",""1948""
","
","
","""event"",""trial"",""time""
""fullscreenenter"",""1"",""1948""
","
","","","-1","","","22","5128","3212","s","elianto","#3366ff99","-1","-1","1","0","[]","0","2","","","5128","75","4","2","win","no-go","1"
"pit-trial","194","1302143","0.0-80.0","battery-v0.2","","""event"",""trial"",""time""
""fullscreenenter"",""1"",""1948""
","
","
","""event"",""trial"",""time""
""fullscreenenter"",""1"",""1948""
","
","","","885.8999998569489","","","22","5128","3212","w","elianto","#f73b6a7A"," "," ","1","0","[1737.5]","1","2","","","5128","76","3","3","lose","go","0"
"pit-trial","195","1306503","0.0-81.0","battery-v0.2","","""event"",""trial"",""time""
""fullscreenenter"",""1"",""1948""
","
","
","""event"",""trial"",""time""
""fullscreenenter"",""1"",""1948""
","
","","","1490.2999999523163","","","22","5128","3212","g","elianto","#f73b6a7A","-1"," ","0","-10","[2341.199999809265]","1","2","","","5128","77","6","4","lose","no-go","0"
"pit-trial","196","1310293","0.0-82.0","battery-v0.2","","""event"",""trial"",""time""
""fullscreenenter"",""1"",""1948""
","
","
","""event"",""trial"",""time""
""fullscreenenter"",""1"",""1948""
","
","","","920.1000001430511","","","22","5128","3212","p","elianto","#3366ff99"," "," ","1","+10","[1770.4000000953674]","1","2","","","5128","78","5","1","win","go","0"
"pit-trial","197","1315167","0.0-83.0","battery-v0.2","","""event"",""trial"",""time""
""fullscreenenter"",""1"",""1948""
","
","
","""event"",""trial"",""time""
""fullscreenenter"",""1"",""1948""
","
","","","-1","","","22","5128","3212","s","elianto","#3366ff99","-1","-1","1","+10","[]","0","2","","","5128","79","4","2","win","no-go","0"
"pit-trial","198","1318858","0.0-84.0","battery-v0.2","","""event"",""trial"",""time""
""fullscreenenter"",""1"",""1948""
","
","
","""event"",""trial"",""time""
""fullscreenenter"",""1"",""1948""
","
","","","822.5","","","22","5128","3212","w","elianto","#f73b6a7A"," "," ","1","0","[1673.7999999523163]","1","2","","","5128","80","3","3","lose","go","0"
"pit-trial","199","1322575","0.0-85.0","battery-v0.2","","""event"",""trial"",""time""
""fullscreenenter"",""1"",""1948""
","
","
","""event"",""trial"",""time""
""fullscreenenter"",""1"",""1948""
","
","","","849.2000000476837","","","22","5128","3212","p","elianto","#3366ff99"," "," ","1","+10","[1700.0999999046326]","1","2","","","5128","81","5","1","win","go","0"
"pit-trial","200","1327450","0.0-86.0","battery-v0.2","","""event"",""trial"",""time""
""fullscreenenter"",""1"",""1948""
","
","
","""event"",""trial"",""time""
""fullscreenenter"",""1"",""1948""
","
","","","-1","","","22","5128","3212","s","elianto","#3366ff99","-1","-1","1","0","[]","0","2","","","5128","82","4","2","win","no-go","1"
"pit-trial","201","1332303","0.0-87.0","battery-v0.2","","""event"",""trial"",""time""
""fullscreenenter"",""1"",""1948""
","
","
","""event"",""trial"",""time""
""fullscreenenter"",""1"",""1948""
","
","","","1982.7999999523163","","","22","5128","3212","a","elianto","#f73b6a7A"," "," ","1","0","[2836.4000000953674]","1","2","","","5128","83","7","3","lose","go","0"
"pit-trial","202","1337173","0.0-88.0","battery-v0.2","","""event"",""trial"",""time""
""fullscreenenter"",""1"",""1948""
","
","
","""event"",""trial"",""time""
""fullscreenenter"",""1"",""1948""
","
","","","-1","","","22","5128","3212","g","elianto","#f73b6a7A","-1","-1","1","0","[]","0","2","","","5128","84","6","4","lose","no-go","0"
"pit-trial","203","1340789","0.0-89.0","battery-v0.2","","""event"",""trial"",""time""
""fullscreenenter"",""1"",""1948""
","
","
","""event"",""trial"",""time""
""fullscreenenter"",""1"",""1948""
","
","","","749","","","22","5128","3212","a","elianto","#f73b6a7A"," "," ","1","0","[1599.2999999523163]","1","2","","","5128","85","7","3","lose","go","0"
"pit-trial","204","1345659","0.0-90.0","battery-v0.2","","""event"",""trial"",""time""
""fullscreenenter"",""1"",""1948""
","
","
","""event"",""trial"",""time""
""fullscreenenter"",""1"",""1948""
","
","","","-1","","","22","5128","3212","s","elianto","#3366ff99","-1","-1","1","+10","[]","0","2","","","5128","86","4","2","win","no-go","0"
"pit-trial","205","1349303","0.0-91.0","battery-v0.2","","""event"",""trial"",""time""
""fullscreenenter"",""1"",""1948""
","
","
","""event"",""trial"",""time""
""fullscreenenter"",""1"",""1948""
","
","","","776.2999999523163","","","22","5128","3212","p","elianto","#3366ff99"," "," ","1","+10","[1626.5]","1","2","","","5128","87","5","1","win","go","0"
"pit-trial","206","1354175","0.0-92.0","battery-v0.2","","""event"",""trial"",""time""
""fullscreenenter"",""1"",""1948""
","
","
","""event"",""trial"",""time""
""fullscreenenter"",""1"",""1948""
","
","","","-1","","","22","5128","3212","g","elianto","#f73b6a7A","-1","-1","1","0","[]","0","2","","","5128","88","6","4","lose","no-go","0"
"pit-trial","207","1359050","0.0-93.0","battery-v0.2","","""event"",""trial"",""time""
""fullscreenenter"",""1"",""1948""
","
","
","""event"",""trial"",""time""
""fullscreenenter"",""1"",""1948""
","
","","","-1","","","22","5128","3212","g","elianto","#f73b6a7A","-1","-1","1","0","[]","0","2","","","5128","89","6","4","lose","no-go","0"
"pit-trial","208","1362655","0.0-94.0","battery-v0.2","","""event"",""trial"",""time""
""fullscreenenter"",""1"",""1948""
","
","
","""event"",""trial"",""time""
""fullscreenenter"",""1"",""1948""
","
","","","731.7000000476837","","","22","5128","3212","p","elianto","#3366ff99"," "," ","1","+10","[1586.0999999046326]","1","2","","","5128","90","5","1","win","go","0"
"pit-trial","209","1366559","0.0-95.0","battery-v0.2","","""event"",""trial"",""time""
""fullscreenenter"",""1"",""1948""
","
","
","""event"",""trial"",""time""
""fullscreenenter"",""1"",""1948""
","
","","","1037.2999999523163","","","22","5128","3212","a","elianto","#f73b6a7A"," "," ","1","0","[1887.6999998092651]","1","2","","","5128","91","7","3","lose","go","0"
"pit-trial","210","1371434","0.0-96.0","battery-v0.2","","""event"",""trial"",""time""
""fullscreenenter"",""1"",""1948""
","
","
","""event"",""trial"",""time""
""fullscreenenter"",""1"",""1948""
","
","","","-1","","","22","5128","3212","s","elianto","#3366ff99","-1","-1","1","+10","[]","0","2","","","5128","92","4","2","win","no-go","0"
"pit-trial","211","1375002","0.0-97.0","battery-v0.2","","""event"",""trial"",""time""
""fullscreenenter"",""1"",""1948""
","
","
","""event"",""trial"",""time""
""fullscreenenter"",""1"",""1948""
","
","","","699.5","","","22","5128","3212","p","elianto","#3366ff99"," "," ","1","+10","[1550.8999998569489]","1","2","","","5128","93","5","1","win","go","0"
"pit-trial","212","1379871","0.0-98.0","battery-v0.2","","""event"",""trial"",""time""
""fullscreenenter"",""1"",""1948""
","
","
","""event"",""trial"",""time""
""fullscreenenter"",""1"",""1948""
","
","","","-1","","","22","5128","3212","g","elianto","#f73b6a7A","-1","-1","1","0","[]","0","2","","","5128","94","6","4","lose","no-go","0"
"pit-trial","213","1383797","0.0-99.0","battery-v0.2","","""event"",""trial"",""time""
""fullscreenenter"",""1"",""1948""
","
","
","""event"",""trial"",""time""
""fullscreenenter"",""1"",""1948""
","
","","","1057.6000001430511","","","22","5128","3212","l","elianto","#3366ff99","-1"," ","0","0","[1907.5999999046326]","1","2","","","5128","95","8","2","win","no-go","0"
"pit-trial","214","1387743","0.0-100.0","battery-v0.2","","""event"",""trial"",""time""
""fullscreenenter"",""1"",""1948""
","
","
","""event"",""trial"",""time""
""fullscreenenter"",""1"",""1948""
","
","","","1081.0999999046326","","","22","5128","3212","a","elianto","#f73b6a7A"," "," ","1","-10","[1932.3999998569489]","1","2","","","5128","96","7","3","lose","go","1"
"pit-trial","215","1391455","0.0-101.0","battery-v0.2","","""event"",""trial"",""time""
""fullscreenenter"",""1"",""1948""
","
","
","""event"",""trial"",""time""
""fullscreenenter"",""1"",""1948""
","
","","","846.1999998092651","","","22","5128","3212","p","elianto","#3366ff99"," "," ","1","+10","[1696.5]","1","2","","","5128","97","5","1","win","go","0"
"pit-trial","216","1396325","0.0-102.0","battery-v0.2","","""event"",""trial"",""time""
""fullscreenenter"",""1"",""1948""
","
","
","""event"",""trial"",""time""
""fullscreenenter"",""1"",""1948""
","
","","","-1","","","22","5128","3212","g","elianto","#f73b6a7A","-1","-1","1","0","[]","0","2","","","5128","98","6","4","lose","no-go","0"
"pit-trial","217","1401194","0.0-103.0","battery-v0.2","","""event"",""trial"",""time""
""fullscreenenter"",""1"",""1948""
","
","
","""event"",""trial"",""time""
""fullscreenenter"",""1"",""1948""
","
","","","-1","","","22","5128","3212","l","elianto","#3366ff99","-1","-1","1","+10","[]","0","2","","","5128","99","8","2","win","no-go","0"
"pit-trial","218","1404890","0.0-104.0","battery-v0.2","","""event"",""trial"",""time""
""fullscreenenter"",""1"",""1948""
","
","
","""event"",""trial"",""time""
""fullscreenenter"",""1"",""1948""
","
","","","829.5","","","22","5128","3212","a","elianto","#f73b6a7A"," "," ","1","-10","[1679.5999999046326]","1","2","","","5128","100","7","3","lose","go","1"
"pit-trial","219","1409803","0.0-105.0","battery-v0.2","","""event"",""trial"",""time""
""fullscreenenter"",""1"",""1948""
","
","
","""event"",""trial"",""time""
""fullscreenenter"",""1"",""1948""
","
","","","-1","","","22","5128","3212","l","elianto","#3366ff99","-1","-1","1","0","[]","0","2","","","5128","101","8","2","win","no-go","1"
"pit-trial","220","1413695","0.0-106.0","battery-v0.2","","""event"",""trial"",""time""
""fullscreenenter"",""1"",""1948""
","
","
","""event"",""trial"",""time""
""fullscreenenter"",""1"",""1948""
","
","","","803.5","","","22","5128","3212","p","elianto","#3366ff99"," "," ","1","+10","[1653.2000000476837]","1","2","","","5128","102","5","1","win","go","0"
"pit-trial","221","1418570","0.0-107.0","battery-v0.2","","""event"",""trial"",""time""
""fullscreenenter"",""1"",""1948""
","
","
","""event"",""trial"",""time""
""fullscreenenter"",""1"",""1948""
","
","","","-1","","","22","5128","3212","g","elianto","#f73b6a7A","-1","-1","1","0","[]","0","2","","","5128","103","6","4","lose","no-go","0"
"pit-trial","222","1422538","0.0-108.0","battery-v0.2","","""event"",""trial"",""time""
""fullscreenenter"",""1"",""1948""
","
","
","""event"",""trial"",""time""
""fullscreenenter"",""1"",""1948""
","
","","","1096.2999999523163","","","22","5128","3212","u","elianto","#3366ff99","-1"," ","0","0","[1948.7000000476837]","1","2","","","5128","104","9","2","win","no-go","0"
"pit-trial","223","1427407","0.0-109.0","battery-v0.2","","""event"",""trial"",""time""
""fullscreenenter"",""1"",""1948""
","
","
","""event"",""trial"",""time""
""fullscreenenter"",""1"",""1948""
","
","","","-1","","","22","5128","3212","g","elianto","#f73b6a7A","-1","-1","1","0","[]","0","2","","","5128","105","6","4","lose","no-go","0"
"pit-trial","224","1432282","0.0-110.0","battery-v0.2","","""event"",""trial"",""time""
""fullscreenenter"",""1"",""1948""
","
","
","""event"",""trial"",""time""
""fullscreenenter"",""1"",""1948""
","
","","","-1","","","22","5128","3212","u","elianto","#3366ff99","-1","-1","1","+10","[]","0","2","","","5128","106","9","2","win","no-go","0"
"pit-trial","225","1437151","0.0-111.0","battery-v0.2","","""event"",""trial"",""time""
""fullscreenenter"",""1"",""1948""
","
","
","""event"",""trial"",""time""
""fullscreenenter"",""1"",""1948""
","
","","","-1","","","22","5128","3212","l","elianto","#3366ff99","-1","-1","1","+10","[]","0","2","","","5128","107","8","2","win","no-go","0"
"pit-trial","226","1440847","0.0-112.0","battery-v0.2","","""event"",""trial"",""time""
""fullscreenenter"",""1"",""1948""
","
","
","""event"",""trial"",""time""
""fullscreenenter"",""1"",""1948""
","
","","","826.7999999523163","","","22","5128","3212","p","elianto","#3366ff99"," "," ","1","0","[1677.2000000476837]","1","2","","","5128","108","5","1","win","go","1"
"pit-trial","227","1444390","0.0-113.0","battery-v0.2","","""event"",""trial"",""time""
""fullscreenenter"",""1"",""1948""
","
","
","""event"",""trial"",""time""
""fullscreenenter"",""1"",""1948""
","
","","","674.6999998092651","","","22","5128","3212","p","elianto","#3366ff99"," "," ","1","+10","[1525]","1","2","","","5128","109","5","1","win","go","0"
"pit-trial","228","1449261","0.0-114.0","battery-v0.2","","""event"",""trial"",""time""
""fullscreenenter"",""1"",""1948""
","
","
","""event"",""trial"",""time""
""fullscreenenter"",""1"",""1948""
","
","","","-1","","","22","5128","3212","l","elianto","#3366ff99","-1","-1","1","+10","[]","0","2","","","5128","110","8","2","win","no-go","0"
"pit-trial","229","1454133","0.0-115.0","battery-v0.2","","""event"",""trial"",""time""
""fullscreenenter"",""1"",""1948""
","
","
","""event"",""trial"",""time""
""fullscreenenter"",""1"",""1948""
","
","","","-1","","","22","5128","3212","g","elianto","#f73b6a7A","-1","-1","1","0","[]","0","2","","","5128","111","6","4","lose","no-go","0"
"pit-trial","230","1459002","0.0-116.0","battery-v0.2","","""event"",""trial"",""time""
""fullscreenenter"",""1"",""1948""
","
","
","""event"",""trial"",""time""
""fullscreenenter"",""1"",""1948""
","
","","","-1","","","22","5128","3212","u","elianto","#3366ff99","-1","-1","1","+10","[]","0","2","","","5128","112","9","2","win","no-go","0"
"pit-trial","231","1463877","0.0-117.0","battery-v0.2","","""event"",""trial"",""time""
""fullscreenenter"",""1"",""1948""
","
","
","""event"",""trial"",""time""
""fullscreenenter"",""1"",""1948""
","
","","","-1","","","22","5128","3212","l","elianto","#3366ff99","-1","-1","1","+10","[]","0","2","","","5128","113","8","2","win","no-go","0"
"pit-trial","232","1468746","0.0-118.0","battery-v0.2","","""event"",""trial"",""time""
""fullscreenenter"",""1"",""1948""
","
","
","""event"",""trial"",""time""
""fullscreenenter"",""1"",""1948""
","
","","","-1","","","22","5128","3212","u","elianto","#3366ff99","-1","-1","1","+10","[]","0","2","","","5128","114","9","2","win","no-go","0"
"pit-trial","233","1472447","0.0-119.0","battery-v0.2","","""event"",""trial"",""time""
""fullscreenenter"",""1"",""1948""
","
","
","""event"",""trial"",""time""
""fullscreenenter"",""1"",""1948""
","
","","","834.0999999046326","","","22","5128","3212","a","elianto","#f73b6a7A"," "," ","1","0","[1684.2999999523163]","1","2","","","5128","115","7","3","lose","go","0"
"pit-trial","234","1476202","0.0-120.0","battery-v0.2","","""event"",""trial"",""time""
""fullscreenenter"",""1"",""1948""
","
","
","""event"",""trial"",""time""
""fullscreenenter"",""1"",""1948""
","
","","","890.2999999523163","","","22","5128","3212","p","elianto","#3366ff99"," "," ","1","+10","[1740.5]","1","2","","","5128","116","5","1","win","go","0"
"pit-trial","235","1481071","0.0-121.0","battery-v0.2","","""event"",""trial"",""time""
""fullscreenenter"",""1"",""1948""
","
","
","""event"",""trial"",""time""
""fullscreenenter"",""1"",""1948""
","
","","","-1","","","22","5128","3212","l","elianto","#3366ff99","-1","-1","1","+10","[]","0","2","","","5128","117","8","2","win","no-go","0"
"pit-trial","236","1485946","0.0-122.0","battery-v0.2","","""event"",""trial"",""time""
""fullscreenenter"",""1"",""1948""
","
","
","""event"",""trial"",""time""
""fullscreenenter"",""1"",""1948""
","
","","","-1","","","22","5128","3212","u","elianto","#3366ff99","-1","-1","1","+10","[]","0","2","","","5128","118","9","2","win","no-go","0"
"pit-trial","237","1490815","0.0-123.0","battery-v0.2","","""event"",""trial"",""time""
""fullscreenenter"",""1"",""1948""
","
","
","""event"",""trial"",""time""
""fullscreenenter"",""1"",""1948""
","
","","","-1","","","22","5128","3212","g","elianto","#f73b6a7A","-1","-1","1","0","[]","0","2","","","5128","119","6","4","lose","no-go","0"
"pit-trial","238","1494474","0.0-124.0","battery-v0.2","","""event"",""trial"",""time""
""fullscreenenter"",""1"",""1948""
","
","
","""event"",""trial"",""time""
""fullscreenenter"",""1"",""1948""
","
","","","793.9000000953674","","","22","5128","3212","p","elianto","#3366ff99"," "," ","1","+10","[1644]","1","2","","","5128","120","5","1","win","go","0"
"pit-trial","239","1499349","0.0-125.0","battery-v0.2","","""event"",""trial"",""time""
""fullscreenenter"",""1"",""1948""
","
","
","""event"",""trial"",""time""
""fullscreenenter"",""1"",""1948""
","
","","","-1","","","22","5128","3212","l","elianto","#3366ff99","-1","-1","1","+10","[]","0","2","","","5128","121","8","2","win","no-go","0"
"pit-trial","240","1504218","0.0-126.0","battery-v0.2","","""event"",""trial"",""time""
""fullscreenenter"",""1"",""1948""
","
","
","""event"",""trial"",""time""
""fullscreenenter"",""1"",""1948""
","
","","","-1","","","22","5128","3212","u","elianto","#3366ff99","-1","-1","1","+10","[]","0","2","","","5128","122","9","2","win","no-go","0"
"pit-trial","241","1507738","0.0-127.0","battery-v0.2","","""event"",""trial"",""time""
""fullscreenenter"",""1"",""1948""
","
","
","""event"",""trial"",""time""
""fullscreenenter"",""1"",""1948""
","
","","","655.0999999046326","","","22","5128","3212","p","elianto","#3366ff99"," "," ","1","+10","[1506]","1","2","","","5128","123","5","1","win","go","0"
"pit-trial","242","1511493","0.0-128.0","battery-v0.2","","""event"",""trial"",""time""
""fullscreenenter"",""1"",""1948""
","
","
","""event"",""trial"",""time""
""fullscreenenter"",""1"",""1948""
","
","","","882.8000001907349","","","22","5128","3212","a","elianto","#f73b6a7A"," "," ","1","-10","[1735.2000000476837]","1","2","","","5128","124","7","3","lose","go","1"
"pit-trial","243","1515216","0.0-129.0","battery-v0.2","","""event"",""trial"",""time""
""fullscreenenter"",""1"",""1948""
","
","
","""event"",""trial"",""time""
""fullscreenenter"",""1"",""1948""
","
","","","855.2999999523163","","","22","5128","3212","a","elianto","#f73b6a7A"," "," ","1","0","[1706.1999998092651]","1","2","","","5128","125","7","3","lose","go","0"
"pit-trial","244","1520090","0.0-130.0","battery-v0.2","","""event"",""trial"",""time""
""fullscreenenter"",""1"",""1948""
","
","
","""event"",""trial"",""time""
""fullscreenenter"",""1"",""1948""
","
","","","-1","","","22","5128","3212","u","elianto","#3366ff99","-1","-1","1","+10","[]","0","2","","","5128","126","9","2","win","no-go","0"
"pit-trial","245","1524959","0.0-131.0","battery-v0.2","","""event"",""trial"",""time""
""fullscreenenter"",""1"",""1948""
","
","
","""event"",""trial"",""time""
""fullscreenenter"",""1"",""1948""
","
","","","-1","","","22","5128","3212","l","elianto","#3366ff99","-1","-1","1","+10","[]","0","2","","","5128","127","8","2","win","no-go","0"
"pit-trial","246","1529829","0.0-132.0","battery-v0.2","","""event"",""trial"",""time""
""fullscreenenter"",""1"",""1948""
","
","
","""event"",""trial"",""time""
""fullscreenenter"",""1"",""1948""
","
","","","-1","","","22","5128","3212","g","elianto","#f73b6a7A","-1","-1","1","0","[]","0","2","","","5128","128","6","4","lose","no-go","0"
"pit-trial","247","1534698","0.0-133.0","battery-v0.2","","""event"",""trial"",""time""
""fullscreenenter"",""1"",""1948""
","
","
","""event"",""trial"",""time""
""fullscreenenter"",""1"",""1948""
","
","","","-1","","","22","5128","3212","u","elianto","#3366ff99","-1","-1","1","0","[]","0","2","","","5128","129","9","2","win","no-go","1"
"pit-trial","248","1538303","0.0-134.0","battery-v0.2","","""event"",""trial"",""time""
""fullscreenenter"",""1"",""1948""
","
","
","""event"",""trial"",""time""
""fullscreenenter"",""1"",""1948""
","
","","","736.2000000476837","","","22","5128","3212","a","elianto","#f73b6a7A"," "," ","1","0","[1586.5]","1","2","","","5128","130","7","3","lose","go","0"
"pit-trial","249","1543173","0.0-135.0","battery-v0.2","","""event"",""trial"",""time""
""fullscreenenter"",""1"",""1948""
","
","
","""event"",""trial"",""time""
""fullscreenenter"",""1"",""1948""
","
","","","-1","","","22","5128","3212","l","elianto","#3366ff99","-1","-1","1","+10","[]","0","2","","","5128","131","8","2","win","no-go","0"
"pit-trial","250","1548042","0.0-136.0","battery-v0.2","","""event"",""trial"",""time""
""fullscreenenter"",""1"",""1948""
","
","
","""event"",""trial"",""time""
""fullscreenenter"",""1"",""1948""
","
","","","-1","","","22","5128","3212","g","elianto","#f73b6a7A","-1","-1","1","0","[]","0","2","","","5128","132","6","4","lose","no-go","0"
"pit-trial","251","1552911","0.0-137.0","battery-v0.2","","""event"",""trial"",""time""
""fullscreenenter"",""1"",""1948""
","
","
","""event"",""trial"",""time""
""fullscreenenter"",""1"",""1948""
","
","","","-1","","","22","5128","3212","g","elianto","#f73b6a7A","-1","-1","1","0","[]","0","2","","","5128","133","6","4","lose","no-go","0"
"pit-trial","252","1557781","0.0-138.0","battery-v0.2","","""event"",""trial"",""time""
""fullscreenenter"",""1"",""1948""
","
","
","""event"",""trial"",""time""
""fullscreenenter"",""1"",""1948""
","
","","","-1","","","22","5128","3212","l","elianto","#3366ff99","-1","-1","1","+10","[]","0","2","","","5128","134","8","2","win","no-go","0"
"pit-trial","253","1561407","0.0-139.0","battery-v0.2","","""event"",""trial"",""time""
""fullscreenenter"",""1"",""1948""
","
","
","""event"",""trial"",""time""
""fullscreenenter"",""1"",""1948""
","
","","","755.7000000476837","","","22","5128","3212","a","elianto","#f73b6a7A"," "," ","1","0","[1607.9000000953674]","1","2","","","5128","135","7","3","lose","go","0"
"pit-trial","254","1566276","0.0-140.0","battery-v0.2","","""event"",""trial"",""time""
""fullscreenenter"",""1"",""1948""
","
","
","""event"",""trial"",""time""
""fullscreenenter"",""1"",""1948""
","
","","","-1","","","22","5128","3212","u","elianto","#3366ff99","-1","-1","1","+10","[]","0","2","","","5128","136","9","2","win","no-go","0"
"pit-trial","255","1571146","0.0-141.0","battery-v0.2","","""event"",""trial"",""time""
""fullscreenenter"",""1"",""1948""
","
","
","""event"",""trial"",""time""
""fullscreenenter"",""1"",""1948""
","
","","","-1","","","22","5128","3212","u","elianto","#3366ff99","-1","-1","1","+10","[]","0","2","","","5128","137","9","2","win","no-go","0"
"pit-trial","256","1574867","0.0-142.0","battery-v0.2","","""event"",""trial"",""time""
""fullscreenenter"",""1"",""1948""
","
","
","""event"",""trial"",""time""
""fullscreenenter"",""1"",""1948""
","
","","","851.7999999523163","","","22","5128","3212","a","elianto","#f73b6a7A"," "," ","1","0","[1702.7999999523163]","1","2","","","5128","138","7","3","lose","go","0"
"pit-trial","257","1579738","0.0-143.0","battery-v0.2","","""event"",""trial"",""time""
""fullscreenenter"",""1"",""1948""
","
","
","""event"",""trial"",""time""
""fullscreenenter"",""1"",""1948""
","
","","","-1","","","22","5128","3212","g","elianto","#f73b6a7A","-1","-1","1","0","[]","0","2","","","5128","139","6","4","lose","no-go","0"
"pit-trial","258","1584613","0.0-144.0","battery-v0.2","","""event"",""trial"",""time""
""fullscreenenter"",""1"",""1948""
","
","
","""event"",""trial"",""time""
""fullscreenenter"",""1"",""1948""
","
","","","-1","","","22","5128","3212","l","elianto","#3366ff99","-1","-1","1","+10","[]","0","2","","","5128","140","8","2","win","no-go","0"
"pit-instructions","259","1601862","0.0-145.0","battery-v0.2","","""event"",""trial"",""time""
""fullscreenenter"",""1"",""1948""
","
","
","""event"",""trial"",""time""
""fullscreenenter"",""1"",""1948""
","
","","[{""page_index"":0,""viewing_time"":8244.200000047684},{""page_index"":1,""viewing_time"":8988.099999904633}]","17232.89999985695","","","","","","","","","","","","","","","","","","","","","","","",""
"pit-trial","260","1605890","0.0-146.0","battery-v0.2","","""event"",""trial"",""time""
""fullscreenenter"",""1"",""1948""
","
","
","""event"",""trial"",""time""
""fullscreenenter"",""1"",""1948""
","
","","","1155.5","","","22","5128","3212","b","elianto","#f73b6a7A","-1"," ","0","0","[2005.8000001907349]","1","3","","","5128","141","3","4","lose","no-go","1"
"pit-trial","261","1610763","0.0-147.0","battery-v0.2","","""event"",""trial"",""time""
""fullscreenenter"",""1"",""1948""
","
","
","""event"",""trial"",""time""
""fullscreenenter"",""1"",""1948""
","
","","","-1","","","22","5128","3212","n","elianto","#f73b6a7A"," ","-1","0","0","[]","0","3","","","5128","142","0","3","lose","go","1"
"pit-trial","262","1614500","0.0-148.0","battery-v0.2","","""event"",""trial"",""time""
""fullscreenenter"",""1"",""1948""
","
","
","""event"",""trial"",""time""
""fullscreenenter"",""1"",""1948""
","
","","","867.9000000953674","","","22","5128","3212","f","elianto","#3366ff99","-1"," ","0","0","[1719.0999999046326]","1","3","","","5128","143","1","2","win","no-go","0"
"pit-trial","263","1618537","0.0-149.0","battery-v0.2","","""event"",""trial"",""time""
""fullscreenenter"",""1"",""1948""
","
","
","""event"",""trial"",""time""
""fullscreenenter"",""1"",""1948""
","
","","","1172","","","22","5128","3212","t","elianto","#f73b6a7A"," "," ","1","0","[2022.7999999523163]","1","3","","","5128","144","2","3","lose","go","0"
"pit-trial","264","1622155","0.0-150.0","battery-v0.2","","""event"",""trial"",""time""
""fullscreenenter"",""1"",""1948""
","
","
","""event"",""trial"",""time""
""fullscreenenter"",""1"",""1948""
","
","","","751.9000000953674","","","22","5128","3212","t","elianto","#f73b6a7A"," "," ","1","-10","[1604]","1","3","","","5128","145","2","3","lose","go","1"
"pit-trial","265","1627024","0.0-151.0","battery-v0.2","","""event"",""trial"",""time""
""fullscreenenter"",""1"",""1948""
","
","
","""event"",""trial"",""time""
""fullscreenenter"",""1"",""1948""
","
","","","-1","","","22","5128","3212","f","elianto","#3366ff99","-1","-1","1","+10","[]","0","3","","","5128","146","1","2","win","no-go","0"
"pit-trial","266","1631894","0.0-152.0","battery-v0.2","","""event"",""trial"",""time""
""fullscreenenter"",""1"",""1948""
","
","
","""event"",""trial"",""time""
""fullscreenenter"",""1"",""1948""
","
","","","-1","","","22","5128","3212","n","elianto","#f73b6a7A"," ","-1","0","-10","[]","0","3","","","5128","147","0","3","lose","go","0"
"pit-trial","267","1635532","0.0-153.0","battery-v0.2","","""event"",""trial"",""time""
""fullscreenenter"",""1"",""1948""
","
","
","""event"",""trial"",""time""
""fullscreenenter"",""1"",""1948""
","
","","","767.4000000953674","","","22","5128","3212","b","elianto","#f73b6a7A","-1"," ","0","-10","[1619.7999999523163]","1","3","","","5128","148","3","4","lose","no-go","0"
"pit-trial","268","1639275","0.0-154.0","battery-v0.2","","""event"",""trial"",""time""
""fullscreenenter"",""1"",""1948""
","
","
","""event"",""trial"",""time""
""fullscreenenter"",""1"",""1948""
","
