"trial_type","trial_index","time_elapsed","internal_node_id","task_version","subject_id","interactions","blur_events","focus_events","fullscreenenter_events","fullscreenexit_events","success","view_history","rt","responses","num_errors","age","subject","participantId","rune","rune_set","hex","correct","choice","accuracy","outcome","keys","total_keys","block","practice","value","sub","trial","stimulus","robot","valence","action","sham"
"pavlovia","0","26","0.0-0.0","battery-v0.2","","""event"",""trial"",""time""
""fullscreenenter"",""1"",""12518""
","
","
","""event"",""trial"",""time""
""fullscreenenter"",""1"",""12518""
","
","","","","","","","","","","","","","","","","","","","","","","","","","","",""
"fullscreen","1","13462","0.0-1.0","battery-v0.2","","""event"",""trial"",""time""
""fullscreenenter"",""1"",""12518""
""fullscreenexit"",""2"",""21696""
""blur"",""2"",""24726""
""focus"",""2"",""39771""
","""event"",""trial"",""time""
""blur"",""2"",""24726""
","""event"",""trial"",""time""
""focus"",""2"",""39771""
","""event"",""trial"",""time""
""fullscreenenter"",""1"",""12518""
","""event"",""trial"",""time""
""fullscreenexit"",""2"",""21696""
","true","","","","","","","","","","","","","","","","","","","","","","","","","",""
"pit-instructions","2","52978","0.0-2.0-0.0","battery-v0.2","","""event"",""trial"",""time""
""fullscreenenter"",""1"",""12518""
""fullscreenexit"",""2"",""21696""
""blur"",""2"",""24726""
""focus"",""2"",""39771""
","""event"",""trial"",""time""
""blur"",""2"",""24726""
","""event"",""trial"",""time""
""focus"",""2"",""39771""
","""event"",""trial"",""time""
""fullscreenenter"",""1"",""12518""
","""event"",""trial"",""time""
""fullscreenexit"",""2"",""21696""
","","[{""page_index"":0,""viewing_time"":39506.5}]","39510.199999809265","","","","","","","","","","","","","","","","","","","","","","","",""
"pit-comprehension","3","59309","0.0-2.0-1.0-0.0","battery-v0.2","","""event"",""trial"",""time""
""fullscreenenter"",""1"",""12518""
""fullscreenexit"",""2"",""21696""
""blur"",""2"",""24726""
""focus"",""2"",""39771""
","""event"",""trial"",""time""
""blur"",""2"",""24726""
","""event"",""trial"",""time""
""focus"",""2"",""39771""
","""event"",""trial"",""time""
""fullscreenenter"",""1"",""12518""
","""event"",""trial"",""time""
""fullscreenexit"",""2"",""21696""
","","","6312","[""shark""]","0","22","12645","5634","","","","","","","","","","","","","","","","","","",""
"pit-instructions","4","206017","0.0-2.0-1.0-1.0","battery-v0.2","","""event"",""trial"",""time""
""fullscreenenter"",""1"",""12518""
""fullscreenexit"",""2"",""21696""
""blur"",""2"",""24726""
""focus"",""2"",""39771""
","""event"",""trial"",""time""
""blur"",""2"",""24726""
","""event"",""trial"",""time""
""focus"",""2"",""39771""
","""event"",""trial"",""time""
""fullscreenenter"",""1"",""12518""
","""event"",""trial"",""time""
""fullscreenexit"",""2"",""21696""
","","[{""page_index"":0,""viewing_time"":146679}]","146679.40000009537","","","","","","","","","","","","","","","","","","","","","","","",""
"pit-comprehension","5","212075","0.0-2.0-2.0-0.0","battery-v0.2","","""event"",""trial"",""time""
""fullscreenenter"",""1"",""12518""
""fullscreenexit"",""2"",""21696""
""blur"",""2"",""24726""
""focus"",""2"",""39771""
","""event"",""trial"",""time""
""blur"",""2"",""24726""
","""event"",""trial"",""time""
""focus"",""2"",""39771""
","""event"",""trial"",""time""
""fullscreenenter"",""1"",""12518""
","""event"",""trial"",""time""
""fullscreenexit"",""2"",""21696""
","","","6047.5","[""tiger""]","0","22","12645","5634","","","","","","","","","","","","","","","","","","",""
"pit-instructions","6","214039","0.0-2.0-2.0-1.0","battery-v0.2","","""event"",""trial"",""time""
""fullscreenenter"",""1"",""12518""
""fullscreenexit"",""2"",""21696""
""blur"",""2"",""24726""
""focus"",""2"",""39771""
","""event"",""trial"",""time""
""blur"",""2"",""24726""
","""event"",""trial"",""time""
""focus"",""2"",""39771""
","""event"",""trial"",""time""
""fullscreenenter"",""1"",""12518""
","""event"",""trial"",""time""
""fullscreenexit"",""2"",""21696""
","","[{""page_index"":0,""viewing_time"":1949.5}]","1950.6999998092651","","","","","","","","","","","","","","","","","","","","","","","",""
"pit-instructions","7","829687","0.0-2.0-3.0","battery-v0.2","","""event"",""trial"",""time""
""fullscreenenter"",""1"",""12518""
""fullscreenexit"",""2"",""21696""
""blur"",""2"",""24726""
""focus"",""2"",""39771""
","""event"",""trial"",""time""
""blur"",""2"",""24726""
","""event"",""trial"",""time""
""focus"",""2"",""39771""
","""event"",""trial"",""time""
""fullscreenenter"",""1"",""12518""
","""event"",""trial"",""time""
""fullscreenexit"",""2"",""21696""
","","[{""page_index"":0,""viewing_time"":11979.099999904633},{""page_index"":1,""viewing_time"":7945.400000095367},{""page_index"":2,""viewing_time"":23442.199999809265},{""page_index"":3,""viewing_time"":11095.699999809265},{""page_index"":4,""viewing_time"":100590},{""page_index"":5,""viewing_time"":24134.800000190735},{""page_index"":6,""viewing_time"":12519.400000095367},{""page_index"":7,""viewing_time"":9237.400000095367},{""page_index"":8,""viewing_time"":6689.89999961853},{""page_index"":9,""viewing_time"":10239.5},{""page_index"":10,""viewing_time"":7116.200000286102},{""page_index"":11,""viewing_time"":371944.5},{""page_index"":12,""viewing_time"":9451.5},{""page_index"":13,""viewing_time"":9251.099999904633}]","615637.8999996185","","","","","","","","","","","","","","","","","","","","","","","",""
"pit-trial","8","832713","0.0-2.0-4.0-0.0","battery-v0.2","","""event"",""trial"",""time""
""fullscreenenter"",""1"",""12518""
""fullscreenexit"",""2"",""21696""
""blur"",""2"",""24726""
""focus"",""2"",""39771""
","""event"",""trial"",""time""
""blur"",""2"",""24726""
","""event"",""trial"",""time""
""focus"",""2"",""39771""
","""event"",""trial"",""time""
""fullscreenenter"",""1"",""12518""
","""event"",""trial"",""time""
""fullscreenexit"",""2"",""21696""
","","","146.60000038146973","","","22","12645","5634","&#9784;","elianto","#FFFFF080"," "," ","1","&#10004","[1002]","1","0","0","","","","","","","",""
"pit-trial","9","835783","0.0-2.0-4.1-0.1","battery-v0.2","","""event"",""trial"",""time""
""fullscreenenter"",""1"",""12518""
""fullscreenexit"",""2"",""21696""
""blur"",""2"",""24726""
""focus"",""2"",""39771""
","""event"",""trial"",""time""
""blur"",""2"",""24726""
","""event"",""trial"",""time""
""focus"",""2"",""39771""
","""event"",""trial"",""time""
""fullscreenenter"",""1"",""12518""
","""event"",""trial"",""time""
""fullscreenexit"",""2"",""21696""
","","","179","","","22","12645","5634","&#9784;","elianto","#FFFFF080"," "," ","1","&#10004","[68,1043.2000002861023]","2","0","0","","","","","","","",""
"pit-trial","10","839753","0.0-2.0-4.2-0.2","battery-v0.2","","""event"",""trial"",""time""
""fullscreenenter"",""1"",""12518""
""fullscreenexit"",""2"",""21696""
""blur"",""2"",""24726""
""focus"",""2"",""39771""
","""event"",""trial"",""time""
""blur"",""2"",""24726""
","""event"",""trial"",""time""
""focus"",""2"",""39771""
","""event"",""trial"",""time""
""fullscreenenter"",""1"",""12518""
","""event"",""trial"",""time""
""fullscreenexit"",""2"",""21696""
","","","1103.0999999046326","","","22","12645","5634","&#9784;","elianto","#FFFFF080"," "," ","1","&#10004","[61.200000286102295,1955.8000001907349]","2","0","0","","","","","","","",""
"pit-trial","11","843702","0.0-2.0-4.3-0.3","battery-v0.2","","""event"",""trial"",""time""
""fullscreenenter"",""1"",""12518""
""fullscreenexit"",""2"",""21696""
""blur"",""2"",""24726""
""focus"",""2"",""39771""
","""event"",""trial"",""time""
""blur"",""2"",""24726""
","""event"",""trial"",""time""
""focus"",""2"",""39771""
","""event"",""trial"",""time""
""fullscreenenter"",""1"",""12518""
","""event"",""trial"",""time""
""fullscreenexit"",""2"",""21696""
","","","1083.0999999046326","","","22","12645","5634","&#9784;","elianto","#FFFFF080"," "," ","1","&#10004","[1934.9000000953674]","1","0","0","","","","","","","",""
"pit-trial","12","847452","0.0-2.0-4.4-0.4","battery-v0.2","","""event"",""trial"",""time""
""fullscreenenter"",""1"",""12518""
""fullscreenexit"",""2"",""21696""
""blur"",""2"",""24726""
""focus"",""2"",""39771""
","""event"",""trial"",""time""
""blur"",""2"",""24726""
","""event"",""trial"",""time""
""focus"",""2"",""39771""
","""event"",""trial"",""time""
""fullscreenenter"",""1"",""12518""
","""event"",""trial"",""time""
""fullscreenexit"",""2"",""21696""
","","","878.9000000953674","","","22","12645","5634","&#9784;","elianto","#FFFFF080"," "," ","1","&#10004","[1732.6999998092651]","1","0","0","","","","","","","",""
"pit-instructions","13","977141","0.0-2.0-5.0","battery-v0.2","","""event"",""trial"",""time""
""fullscreenenter"",""1"",""12518""
""fullscreenexit"",""2"",""21696""
""blur"",""2"",""24726""
""focus"",""2"",""39771""
","""event"",""trial"",""time""
""blur"",""2"",""24726""
","""event"",""trial"",""time""
""focus"",""2"",""39771""
","""event"",""trial"",""time""
""fullscreenenter"",""1"",""12518""
","""event"",""trial"",""time""
""fullscreenexit"",""2"",""21696""
","","[{""page_index"":0,""viewing_time"":75656.7999997139},{""page_index"":1,""viewing_time"":15595.700000286102},{""page_index"":2,""viewing_time"":28833.299999713898},{""page_index"":3,""viewing_time"":9586.400000095367}]","129673.59999990463","","","","","","","","","","","","","","","","","","","","","","","",""
"pit-trial","14","982038","0.0-2.0-6.0-0.0","battery-v0.2","","""event"",""trial"",""time""
""fullscreenenter"",""1"",""12518""
""fullscreenexit"",""2"",""21696""
""blur"",""2"",""24726""
""focus"",""2"",""39771""
","""event"",""trial"",""time""
""blur"",""2"",""24726""
","""event"",""trial"",""time""
""focus"",""2"",""39771""
","""event"",""trial"",""time""
""fullscreenenter"",""1"",""12518""
","""event"",""trial"",""time""
""fullscreenexit"",""2"",""21696""
","","","-1","","","22","12645","5634","&#9854;","elianto","#FFFFF080","-1","-1","1","&#10004","[]","0","0","1","","","","","","","",""
"pit-trial","15","986929","0.0-2.0-6.1-0.1","battery-v0.2","","""event"",""trial"",""time""
""fullscreenenter"",""1"",""12518""
""fullscreenexit"",""2"",""21696""
""blur"",""2"",""24726""
""focus"",""2"",""39771""
","""event"",""trial"",""time""
""blur"",""2"",""24726""
","""event"",""trial"",""time""
""focus"",""2"",""39771""
","""event"",""trial"",""time""
""fullscreenenter"",""1"",""12518""
","""event"",""trial"",""time""
""fullscreenexit"",""2"",""21696""
","","","-1","","","22","12645","5634","&#9854;","elianto","#FFFFF080","-1","-1","1","&#10004","[]","0","0","1","","","","","","","",""
"pit-trial","16","991807","0.0-2.0-6.2-0.2","battery-v0.2","","""event"",""trial"",""time""
""fullscreenenter"",""1"",""12518""
""fullscreenexit"",""2"",""21696""
""blur"",""2"",""24726""
""focus"",""2"",""39771""
","""event"",""trial"",""time""
""blur"",""2"",""24726""
","""event"",""trial"",""time""
""focus"",""2"",""39771""
","""event"",""trial"",""time""
""fullscreenenter"",""1"",""12518""
","""event"",""trial"",""time""
""fullscreenexit"",""2"",""21696""
","","","-1","","","22","12645","5634","&#9854;","elianto","#FFFFF080","-1","-1","1","&#10004","[]","0","0","1","","","","","","","",""
"pit-trial","17","996674","0.0-2.0-6.3-0.3","battery-v0.2","","""event"",""trial"",""time""
""fullscreenenter"",""1"",""12518""
""fullscreenexit"",""2"",""21696""
""blur"",""2"",""24726""
""focus"",""2"",""39771""
","""event"",""trial"",""time""
""blur"",""2"",""24726""
","""event"",""trial"",""time""
""focus"",""2"",""39771""
","""event"",""trial"",""time""
""fullscreenenter"",""1"",""12518""
","""event"",""trial"",""time""
""fullscreenexit"",""2"",""21696""
","","","-1","","","22","12645","5634","&#9854;","elianto","#FFFFF080","-1","-1","1","&#10004","[]","0","0","1","","","","","","","",""
"pit-trial","18","1001556","0.0-2.0-6.4-0.4","battery-v0.2","","""event"",""trial"",""time""
""fullscreenenter"",""1"",""12518""
""fullscreenexit"",""2"",""21696""
""blur"",""2"",""24726""
""focus"",""2"",""39771""
","""event"",""trial"",""time""
""blur"",""2"",""24726""
","""event"",""trial"",""time""
""focus"",""2"",""39771""
","""event"",""trial"",""time""
""fullscreenenter"",""1"",""12518""
","""event"",""trial"",""time""
""fullscreenexit"",""2"",""21696""
","","","-1","","","22","12645","5634","&#9854;","elianto","#FFFFF080","-1","-1","1","&#10004","[]","0","0","1","","","","","","","",""
"pit-instructions","19","1493100","0.0-2.0-7.0","battery-v0.2","","""event"",""trial"",""time""
""fullscreenenter"",""1"",""12518""
""fullscreenexit"",""2"",""21696""
""blur"",""2"",""24726""
""focus"",""2"",""39771""
","""event"",""trial"",""time""
""blur"",""2"",""24726""
","""event"",""trial"",""time""
""focus"",""2"",""39771""
","""event"",""trial"",""time""
""fullscreenenter"",""1"",""12518""
","""event"",""trial"",""time""
""fullscreenexit"",""2"",""21696""
","","[{""page_index"":0,""viewing_time"":29000.200000286102},{""page_index"":1,""viewing_time"":137817.39999961853},{""page_index"":2,""viewing_time"":88324.60000038147},{""page_index"":3,""viewing_time"":9455.199999809265},{""page_index"":4,""viewing_time"":6311.800000190735},{""page_index"":5,""viewing_time"":19488.5},{""page_index"":6,""viewing_time"":10169.599999904633},{""page_index"":7,""viewing_time"":108315},{""page_index"":8,""viewing_time"":9718.400000095367},{""page_index"":9,""viewing_time"":7075.89999961853},{""page_index"":10,""viewing_time"":7415},{""page_index"":11,""viewing_time"":5300.10000038147},{""page_index"":12,""viewing_time"":9337.89999961853},{""page_index"":13,""viewing_time"":9200.900000095367},{""page_index"":14,""viewing_time"":6523},{""page_index"":15,""viewing_time"":7922.200000286102},{""page_index"":16,""viewing_time"":12051.5},{""page_index"":17,""viewing_time"":8101.5}]","491530.90000009537","","","","","","","","","","","","","","","","","","","","","","","",""
"pit-trial","20","1496080","0.0-2.0-8.0-0.0","battery-v0.2","","""event"",""trial"",""time""
""fullscreenenter"",""1"",""12518""
""fullscreenexit"",""2"",""21696""
""blur"",""2"",""24726""
""focus"",""2"",""39771""
","""event"",""trial"",""time""
""blur"",""2"",""24726""
","""event"",""trial"",""time""
""focus"",""2"",""39771""
","""event"",""trial"",""time""
""fullscreenenter"",""1"",""12518""
","""event"",""trial"",""time""
""fullscreenexit"",""2"",""21696""
","","","118.19999980926514","","","22","12645","5634","&#9776;","elianto","#3366ff99"," "," ","1","+10","[968.9000000953674]","1","0","1","","","","","","","",""
"pit-trial","21","1499029","0.0-2.0-8.0-1.0","battery-v0.2","","""event"",""trial"",""time""
""fullscreenenter"",""1"",""12518""
""fullscreenexit"",""2"",""21696""
""blur"",""2"",""24726""
""focus"",""2"",""39771""
","""event"",""trial"",""time""
""blur"",""2"",""24726""
","""event"",""trial"",""time""
""focus"",""2"",""39771""
","""event"",""trial"",""time""
""fullscreenenter"",""1"",""12518""
","""event"",""trial"",""time""
""fullscreenexit"",""2"",""21696""
","","","83.69999980926514","","","22","12645","5634","&#9776;","elianto","#3366ff99"," "," ","1","+10","[939.8999996185303]","1","0","1","","","","","","","",""
"pit-trial","22","1502518","0.0-2.0-8.0-2.0","battery-v0.2","","""event"",""trial"",""time""
""fullscreenenter"",""1"",""12518""
""fullscreenexit"",""2"",""21696""
""blur"",""2"",""24726""
""focus"",""2"",""39771""
","""event"",""trial"",""time""
""blur"",""2"",""24726""
","""event"",""trial"",""time""
""focus"",""2"",""39771""
","""event"",""trial"",""time""
""fullscreenenter"",""1"",""12518""
","""event"",""trial"",""time""
""fullscreenexit"",""2"",""21696""
","","","628.7999997138977","","","22","12645","5634","&#9776;","elianto","#3366ff99"," "," ","1","+10","[1481.7000002861023]","1","0","1","","","","","","","",""
"pit-trial","23","1506159","0.0-2.0-8.0-3.0","battery-v0.2","","""event"",""trial"",""time""
""fullscreenenter"",""1"",""12518""
""fullscreenexit"",""2"",""21696""
""blur"",""2"",""24726""
""focus"",""2"",""39771""
","""event"",""trial"",""time""
""blur"",""2"",""24726""
","""event"",""trial"",""time""
""focus"",""2"",""39771""
","""event"",""trial"",""time""
""fullscreenenter"",""1"",""12518""
","""event"",""trial"",""time""
""fullscreenexit"",""2"",""21696""
","","","770.1999998092651","","","22","12645","5634","&#9776;","elianto","#3366ff99"," "," ","1","0","[1621.1999998092651]","1","0","1","","","","","","","",""
"pit-trial","24","1509675","0.0-2.0-8.0-4.0","battery-v0.2","","""event"",""trial"",""time""
""fullscreenenter"",""1"",""12518""
""fullscreenexit"",""2"",""21696""
""blur"",""2"",""24726""
""focus"",""2"",""39771""
","""event"",""trial"",""time""
""blur"",""2"",""24726""
","""event"",""trial"",""time""
""focus"",""2"",""39771""
","""event"",""trial"",""time""
""fullscreenenter"",""1"",""12518""
","""event"",""trial"",""time""
""fullscreenexit"",""2"",""21696""
","","","642.9000000953674","","","22","12645","5634","&#9776;","elianto","#3366ff99"," "," ","1","+10","[1496.5]","1","0","1","","","","","","","",""
"pit-trial","25","1513169","0.0-2.0-8.1-0.1","battery-v0.2","","""event"",""trial"",""time""
""fullscreenenter"",""1"",""12518""
""fullscreenexit"",""2"",""21696""
""blur"",""2"",""24726""
""focus"",""2"",""39771""
","""event"",""trial"",""time""
""blur"",""2"",""24726""
","""event"",""trial"",""time""
""focus"",""2"",""39771""
","""event"",""trial"",""time""
""fullscreenenter"",""1"",""12518""
","""event"",""trial"",""time""
""fullscreenexit"",""2"",""21696""
","","","619.5999999046326","","","22","12645","5634","&#9776;","elianto","#3366ff99"," "," ","1","+10","[1478.4000000953674]","1","0","1","","","","","","","",""
"pit-trial","26","1516368","0.0-2.0-8.1-1.1","battery-v0.2","","""event"",""trial"",""time""
""fullscreenenter"",""1"",""12518""
""fullscreenexit"",""2"",""21696""
""blur"",""2"",""24726""
""focus"",""2"",""39771""
","""event"",""trial"",""time""
""blur"",""2"",""24726""
","""event"",""trial"",""time""
""focus"",""2"",""39771""
","""event"",""trial"",""time""
""fullscreenenter"",""1"",""12518""
","""event"",""trial"",""time""
""fullscreenexit"",""2"",""21696""
","","","338.80000019073486","","","22","12645","5634","&#9776;","elianto","#3366ff99"," "," ","1","+10","[1188.8000001907349]","1","0","1","","","","","","","",""
"pit-trial","27","1519713","0.0-2.0-8.1-2.1","battery-v0.2","","""event"",""trial"",""time""
""fullscreenenter"",""1"",""12518""
""fullscreenexit"",""2"",""21696""
""blur"",""2"",""24726""
""focus"",""2"",""39771""
","""event"",""trial"",""time""
""blur"",""2"",""24726""
","""event"",""trial"",""time""
""focus"",""2"",""39771""
","""event"",""trial"",""time""
""fullscreenenter"",""1"",""12518""
","""event"",""trial"",""time""
""fullscreenexit"",""2"",""21696""
","","","477","","","22","12645","5634","&#9776;","elianto","#3366ff99"," "," ","1","+10","[1327.4000000953674]","1","0","1","","","","","","","",""
"pit-trial","28","1522952","0.0-2.0-8.1-3.1","battery-v0.2","","""event"",""trial"",""time""
""fullscreenenter"",""1"",""12518""
""fullscreenexit"",""2"",""21696""
""blur"",""2"",""24726""
""focus"",""2"",""39771""
","""event"",""trial"",""time""
""blur"",""2"",""24726""
","""event"",""trial"",""time""
""focus"",""2"",""39771""
","""event"",""trial"",""time""
""fullscreenenter"",""1"",""12518""
","""event"",""trial"",""time""
""fullscreenexit"",""2"",""21696""
","","","374.2000002861023","","","22","12645","5634","&#9776;","elianto","#3366ff99"," "," ","1","0","[1228.6000003814697]","1","0","1","","","","","","","",""
"pit-trial","29","1526148","0.0-2.0-8.1-4.1","battery-v0.2","","""event"",""trial"",""time""
""fullscreenenter"",""1"",""12518""
""fullscreenexit"",""2"",""21696""
""blur"",""2"",""24726""
""focus"",""2"",""39771""
","""event"",""trial"",""time""
""blur"",""2"",""24726""
","""event"",""trial"",""time""
""focus"",""2"",""39771""
","""event"",""trial"",""time""
""fullscreenenter"",""1"",""12518""
","""event"",""trial"",""time""
""fullscreenexit"",""2"",""21696""
","","","331.40000009536743","","","22","12645","5634","&#9776;","elianto","#3366ff99"," "," ","1","+10","[1181.9000000953674]","1","0","1","","","","","","","",""
"pit-trial","30","1529592","0.0-2.0-8.2-0.2","battery-v0.2","","""event"",""trial"",""time""
""fullscreenenter"",""1"",""12518""
""fullscreenexit"",""2"",""21696""
""blur"",""2"",""24726""
""focus"",""2"",""39771""
","""event"",""trial"",""time""
""blur"",""2"",""24726""
","""event"",""trial"",""time""
""focus"",""2"",""39771""
","""event"",""trial"",""time""
""fullscreenenter"",""1"",""12518""
","""event"",""trial"",""time""
""fullscreenexit"",""2"",""21696""
","","","579.4000000953674","","","22","12645","5634","&#9776;","elianto","#3366ff99"," "," ","1","+10","[1430.5]","1","0","1","","","","","","","",""
"pit-trial","31","1532898","0.0-2.0-8.2-1.2","battery-v0.2","","""event"",""trial"",""time""
""fullscreenenter"",""1"",""12518""
""fullscreenexit"",""2"",""21696""
""blur"",""2"",""24726""
""focus"",""2"",""39771""
","""event"",""trial"",""time""
""blur"",""2"",""24726""
","""event"",""trial"",""time""
""focus"",""2"",""39771""
","""event"",""trial"",""time""
""fullscreenenter"",""1"",""12518""
","""event"",""trial"",""time""
""fullscreenexit"",""2"",""21696""
","","","449","","","22","12645","5634","&#9776;","elianto","#3366ff99"," "," ","1","+10","[1300.1999998092651]","1","0","1","","","","","","","",""
"pit-trial","32","1536192","0.0-2.0-8.2-2.2","battery-v0.2","","""event"",""trial"",""time""
""fullscreenenter"",""1"",""12518""
""fullscreenexit"",""2"",""21696""
""blur"",""2"",""24726""
""focus"",""2"",""39771""
","""event"",""trial"",""time""
""blur"",""2"",""24726""
","""event"",""trial"",""time""
""focus"",""2"",""39771""
","""event"",""trial"",""time""
""fullscreenenter"",""1"",""12518""
","""event"",""trial"",""time""
""fullscreenexit"",""2"",""21696""
","","","427.30000019073486","","","22","12645","5634","&#9776;","elianto","#3366ff99"," "," ","1","+10","[1277.6000003814697]","1","0","1","","","","","","","",""
"pit-trial","33","1539734","0.0-2.0-8.2-3.2","battery-v0.2","","""event"",""trial"",""time""
""fullscreenenter"",""1"",""12518""
""fullscreenexit"",""2"",""21696""
""blur"",""2"",""24726""
""focus"",""2"",""39771""
","""event"",""trial"",""time""
""blur"",""2"",""24726""
","""event"",""trial"",""time""
""focus"",""2"",""39771""
","""event"",""trial"",""time""
""fullscreenenter"",""1"",""12518""
","""event"",""trial"",""time""
""fullscreenexit"",""2"",""21696""
","","","676.9000000953674","","","22","12645","5634","&#9776;","elianto","#3366ff99"," "," ","1","0","[1530.9000000953674]","1","0","1","","","","","","","",""
"pit-trial","34","1543157","0.0-2.0-8.2-4.2","battery-v0.2","","""event"",""trial"",""time""
""fullscreenenter"",""1"",""12518""
""fullscreenexit"",""2"",""21696""
""blur"",""2"",""24726""
""focus"",""2"",""39771""
","""event"",""trial"",""time""
""blur"",""2"",""24726""
","""event"",""trial"",""time""
""focus"",""2"",""39771""
","""event"",""trial"",""time""
""fullscreenenter"",""1"",""12518""
","""event"",""trial"",""time""
""fullscreenexit"",""2"",""21696""
","","","559.3000001907349","","","22","12645","5634","&#9776;","elianto","#3366ff99"," "," ","1","+10","[1413.4000000953674]","1","0","1","","","","","","","",""
"call-function","35","1543164","0.0-2.0-9.0","battery-v0.2","","""event"",""trial"",""time""
""fullscreenenter"",""1"",""12518""
""fullscreenexit"",""2"",""21696""
""blur"",""2"",""24726""
""focus"",""2"",""39771""
","""event"",""trial"",""time""
""blur"",""2"",""24726""
","""event"",""trial"",""time""
""focus"",""2"",""39771""
","""event"",""trial"",""time""
""fullscreenenter"",""1"",""12518""
","""event"",""trial"",""time""
""fullscreenexit"",""2"",""21696""
","","","","","","","","","","","","","","","","","","","","","","","","","","",""
"pit-instructions","36","1631935","0.0-2.0-10.0","battery-v0.2","","""event"",""trial"",""time""
""fullscreenenter"",""1"",""12518""
""fullscreenexit"",""2"",""21696""
""blur"",""2"",""24726""
""focus"",""2"",""39771""
","""event"",""trial"",""time""
""blur"",""2"",""24726""
","""event"",""trial"",""time""
""focus"",""2"",""39771""
","""event"",""trial"",""time""
""fullscreenenter"",""1"",""12518""
","""event"",""trial"",""time""
""fullscreenexit"",""2"",""21696""
","","[{""page_index"":0,""viewing_time"":12177.099999904633},{""page_index"":1,""viewing_time"":30080.400000095367},{""page_index"":2,""viewing_time"":20130.099999904633},{""page_index"":3,""viewing_time"":14081},{""page_index"":4,""viewing_time"":12294.699999809265}]","88764.59999990463","","","","","","","","","","","","","","","","","","","","","","","",""
"pit-trial","37","1636805","0.0-2.0-11.0-0.0","battery-v0.2","","""event"",""trial"",""time""
""fullscreenenter"",""1"",""12518""
""fullscreenexit"",""2"",""21696""
""blur"",""2"",""24726""
""focus"",""2"",""39771""
","""event"",""trial"",""time""
""blur"",""2"",""24726""
","""event"",""trial"",""time""
""focus"",""2"",""39771""
","""event"",""trial"",""time""
""fullscreenenter"",""1"",""12518""
","""event"",""trial"",""time""
""fullscreenexit"",""2"",""21696""
","","","-1","","","22","12645","5634","&#9761;","elianto","#3366ff99","-1","-1","1","+10","[]","0","0","2","","","","","","","",""
"pit-trial","38","1640095","0.0-2.0-11.0-1.0","battery-v0.2","","""event"",""trial"",""time""
""fullscreenenter"",""1"",""12518""
""fullscreenexit"",""2"",""21696""
""blur"",""2"",""24726""
""focus"",""2"",""39771""
","""event"",""trial"",""time""
""blur"",""2"",""24726""
","""event"",""trial"",""time""
""focus"",""2"",""39771""
","""event"",""trial"",""time""
""fullscreenenter"",""1"",""12518""
","""event"",""trial"",""time""
""fullscreenexit"",""2"",""21696""
","","","430.7000002861023","","","22","12645","5634","&#9761;","elianto","#3366ff99","-1"," ","0","0","[1283.1000003814697]","1","0","2","","","","","","","",""
"pit-trial","39","1643768","0.0-2.0-11.0-2.0","battery-v0.2","","""event"",""trial"",""time""
""fullscreenenter"",""1"",""12518""
""fullscreenexit"",""2"",""21696""
""blur"",""2"",""24726""
""focus"",""2"",""39771""
","""event"",""trial"",""time""
""blur"",""2"",""24726""
","""event"",""trial"",""time""
""focus"",""2"",""39771""
","""event"",""trial"",""time""
""fullscreenenter"",""1"",""12518""
","""event"",""trial"",""time""
""fullscreenexit"",""2"",""21696""
","","","819.6999998092651","","","22","12645","5634","&#9761;","elianto","#3366ff99","-1"," ","0","0","[1671]","1","0","2","","","","","","","",""
"pit-trial","40","1647483","0.0-2.0-11.0-3.0","battery-v0.2","","""event"",""trial"",""time""
""fullscreenenter"",""1"",""12518""
""fullscreenexit"",""2"",""21696""
""blur"",""2"",""24726""
""focus"",""2"",""39771""
","""event"",""trial"",""time""
""blur"",""2"",""24726""
","""event"",""trial"",""time""
""focus"",""2"",""39771""
","""event"",""trial"",""time""
""fullscreenenter"",""1"",""12518""
","""event"",""trial"",""time""
""fullscreenexit"",""2"",""21696""
","","","837.6999998092651","","","22","12645","5634","&#9761;","elianto","#3366ff99","-1"," ","0","+10","[1700.1999998092651]","1","0","2","","","","","","","",""
"pit-trial","41","1651412","0.0-2.0-11.0-4.0","battery-v0.2","","""event"",""trial"",""time""
""fullscreenenter"",""1"",""12518""
""fullscreenexit"",""2"",""21696""
""blur"",""2"",""24726""
""focus"",""2"",""39771""
","""event"",""trial"",""time""
""blur"",""2"",""24726""
","""event"",""trial"",""time""
""focus"",""2"",""39771""
","""event"",""trial"",""time""
""fullscreenenter"",""1"",""12518""
","""event"",""trial"",""time""
""fullscreenexit"",""2"",""21696""
","","","1063.9000000953674","","","22","12645","5634","&#9761;","elianto","#3366ff99","-1"," ","0","0","[1919.2999997138977]","1","0","2","","","","","","","",""
"pit-trial","42","1654885","0.0-2.0-11.1-0.1","battery-v0.2","","""event"",""trial"",""time""
""fullscreenenter"",""1"",""12518""
""fullscreenexit"",""2"",""21696""
""blur"",""2"",""24726""
""focus"",""2"",""39771""
","""event"",""trial"",""time""
""blur"",""2"",""24726""
","""event"",""trial"",""time""
""focus"",""2"",""39771""
","""event"",""trial"",""time""
""fullscreenenter"",""1"",""12518""
","""event"",""trial"",""time""
""fullscreenexit"",""2"",""21696""
","","","601.2000002861023","","","22","12645","5634","&#9761;","elianto","#3366ff99","-1"," ","0","0","[1460.1000003814697]","1","0","2","","","","","","","",""
"pit-trial","43","1658063","0.0-2.0-11.1-1.1","battery-v0.2","","""event"",""trial"",""time""
""fullscreenenter"",""1"",""12518""
""fullscreenexit"",""2"",""21696""
""blur"",""2"",""24726""
""focus"",""2"",""39771""
","""event"",""trial"",""time""
""blur"",""2"",""24726""
","""event"",""trial"",""time""
""focus"",""2"",""39771""
","""event"",""trial"",""time""
""fullscreenenter"",""1"",""12518""
","""event"",""trial"",""time""
""fullscreenexit"",""2"",""21696""
","","","320","","","22","12645","5634","&#9761;","elianto","#3366ff99","-1"," ","0","0","[1170.0999999046326]","1","0","2","","","","","","","",""
"pit-trial","44","1661081","0.0-2.0-11.1-2.1","battery-v0.2","","""event"",""trial"",""time""
""fullscreenenter"",""1"",""12518""
""fullscreenexit"",""2"",""21696""
""blur"",""2"",""24726""
""focus"",""2"",""39771""
","""event"",""trial"",""time""
""blur"",""2"",""24726""
","""event"",""trial"",""time""
""focus"",""2"",""39771""
","""event"",""trial"",""time""
""fullscreenenter"",""1"",""12518""
","""event"",""trial"",""time""
""fullscreenexit"",""2"",""21696""
","","","170.5","","","22","12645","5634","&#9761;","elianto","#3366ff99","-1"," ","0","0","[1020.7000002861023]","1","0","2","","","","","","","",""
"pit-trial","45","1664717","0.0-2.0-11.1-3.1","battery-v0.2","","""event"",""trial"",""time""
""fullscreenenter"",""1"",""12518""
""fullscreenexit"",""2"",""21696""
""blur"",""2"",""24726""
""focus"",""2"",""39771""
","""event"",""trial"",""time""
""blur"",""2"",""24726""
","""event"",""trial"",""time""
""focus"",""2"",""39771""
","""event"",""trial"",""time""
""fullscreenenter"",""1"",""12518""
","""event"",""trial"",""time""
""fullscreenexit"",""2"",""21696""
","","","771.5999999046326","","","22","12645","5634","&#9761;","elianto","#3366ff99","-1"," ","0","+10","[1630.8000001907349]","1","0","2","","","","","","","",""
"pit-trial","46","1669580","0.0-2.0-11.1-4.1","battery-v0.2","","""event"",""trial"",""time""
""fullscreenenter"",""1"",""12518""
""fullscreenexit"",""2"",""21696""
""blur"",""2"",""24726""
""focus"",""2"",""39771""
","""event"",""trial"",""time""
""blur"",""2"",""24726""
","""event"",""trial"",""time""
""focus"",""2"",""39771""
","""event"",""trial"",""time""
""fullscreenenter"",""1"",""12518""
","""event"",""trial"",""time""
""fullscreenexit"",""2"",""21696""
","","","-1","","","22","12645","5634","&#9761;","elianto","#3366ff99","-1","-1","1","+10","[]","0","0","2","","","","","","","",""
"pit-trial","47","1673429","0.0-2.0-11.2-0.2","battery-v0.2","","""event"",""trial"",""time""
""fullscreenenter"",""1"",""12518""
""fullscreenexit"",""2"",""21696""
""blur"",""2"",""24726""
""focus"",""2"",""39771""
","""event"",""trial"",""time""
""blur"",""2"",""24726""
","""event"",""trial"",""time""
""focus"",""2"",""39771""
","""event"",""trial"",""time""
""fullscreenenter"",""1"",""12518""
","""event"",""trial"",""time""
""fullscreenexit"",""2"",""21696""
","","","993","","","22","12645","5634","&#9761;","elianto","#3366ff99","-1"," ","0","0","[1845.2999997138977]","1","0","2","","","","","","","",""
"pit-trial","48","1677970","0.0-2.0-11.2-1.2","battery-v0.2","","""event"",""trial"",""time""
""fullscreenenter"",""1"",""12518""
""fullscreenexit"",""2"",""21696""
""blur"",""2"",""24726""
""focus"",""2"",""39771""
","""event"",""trial"",""time""
""blur"",""2"",""24726""
","""event"",""trial"",""time""
""focus"",""2"",""39771""
","""event"",""trial"",""time""
""fullscreenenter"",""1"",""12518""
","""event"",""trial"",""time""
""fullscreenexit"",""2"",""21696""
","","","1679.0999999046326","","","22","12645","5634","&#9761;","elianto","#3366ff99","-1"," ","0","0","[2531.4000000953674]","1","0","2","","","","","","","",""
"pit-trial","49","1682828","0.0-2.0-11.2-2.2","battery-v0.2","","""event"",""trial"",""time""
""fullscreenenter"",""1"",""12518""
""fullscreenexit"",""2"",""21696""
""blur"",""2"",""24726""
""focus"",""2"",""39771""
","""event"",""trial"",""time""
""blur"",""2"",""24726""
","""event"",""trial"",""time""
""focus"",""2"",""39771""
","""event"",""trial"",""time""
""fullscreenenter"",""1"",""12518""
","""event"",""trial"",""time""
""fullscreenexit"",""2"",""21696""
","","","-1","","","22","12645","5634","&#9761;","elianto","#3366ff99","-1","-1","1","+10","[]","0","0","2","","","","","","","",""
"pit-trial","50","1686880","0.0-2.0-11.2-3.2","battery-v0.2","","""event"",""trial"",""time""
""fullscreenenter"",""1"",""12518""
""fullscreenexit"",""2"",""21696""
""blur"",""2"",""24726""
""focus"",""2"",""39771""
","""event"",""trial"",""time""
""blur"",""2"",""24726""
","""event"",""trial"",""time""
""focus"",""2"",""39771""
","""event"",""trial"",""time""
""fullscreenenter"",""1"",""12518""
","""event"",""trial"",""time""
""fullscreenexit"",""2"",""21696""
","","","1187.9000000953674","","","22","12645","5634","&#9761;","elianto","#3366ff99","-1"," ","0","+10","[2042.6999998092651]","1","0","2","","","","","","","",""
"pit-trial","51","1691741","0.0-2.0-11.2-4.2","battery-v0.2","","""event"",""trial"",""time""
""fullscreenenter"",""1"",""12518""
""fullscreenexit"",""2"",""21696""
""blur"",""2"",""24726""
""focus"",""2"",""39771""
","""event"",""trial"",""time""
""blur"",""2"",""24726""
","""event"",""trial"",""time""
""focus"",""2"",""39771""
","""event"",""trial"",""time""
""fullscreenenter"",""1"",""12518""
","""event"",""trial"",""time""
""fullscreenexit"",""2"",""21696""
","","","-1","","","22","12645","5634","&#9761;","elianto","#3366ff99","-1","-1","1","+10","[]","0","0","2","","","","","","","",""
"pit-trial","52","1695446","0.0-2.0-11.3-0.3","battery-v0.2","","""event"",""trial"",""time""
""fullscreenenter"",""1"",""12518""
""fullscreenexit"",""2"",""21696""
""blur"",""2"",""24726""
""focus"",""2"",""39771""
","""event"",""trial"",""time""
""blur"",""2"",""24726""
","""event"",""trial"",""time""
""focus"",""2"",""39771""
","""event"",""trial"",""time""
""fullscreenenter"",""1"",""12518""
","""event"",""trial"",""time""
""fullscreenexit"",""2"",""21696""
","","","846.7000002861023","","","22","12645","5634","&#9761;","elianto","#3366ff99","-1"," ","0","0","[1699.2000002861023]","1","0","2","","","","","","","",""
"pit-trial","53","1699065","0.0-2.0-11.3-1.3","battery-v0.2","","""event"",""trial"",""time""
""fullscreenenter"",""1"",""12518""
""fullscreenexit"",""2"",""21696""
""blur"",""2"",""24726""
""focus"",""2"",""39771""
","""event"",""trial"",""time""
""blur"",""2"",""24726""
","""event"",""trial"",""time""
""focus"",""2"",""39771""
","""event"",""trial"",""time""
""fullscreenenter"",""1"",""12518""
","""event"",""trial"",""time""
""fullscreenexit"",""2"",""21696""
","","","754.3999996185303","","","22","12645","5634","&#9761;","elianto","#3366ff99","-1"," ","0","0","[1607.2999997138977]","1","0","2","","","","","","","",""
"pit-trial","54","1702407","0.0-2.0-11.3-2.3","battery-v0.2","","""event"",""trial"",""time""
""fullscreenenter"",""1"",""12518""
""fullscreenexit"",""2"",""21696""
""blur"",""2"",""24726""
""focus"",""2"",""39771""
","""event"",""trial"",""time""
""blur"",""2"",""24726""
","""event"",""trial"",""time""
""focus"",""2"",""39771""
","""event"",""trial"",""time""
""fullscreenenter"",""1"",""12518""
","""event"",""trial"",""time""
""fullscreenexit"",""2"",""21696""
","","","479.09999990463257","","","22","12645","5634","&#9761;","elianto","#3366ff99","-1"," ","0","0","[484.59999990463257,1334.4000000953674]","2","0","2","","","","","","","",""
"pit-trial","55","1706475","0.0-2.0-11.3-3.3","battery-v0.2","","""event"",""trial"",""time""
""fullscreenenter"",""1"",""12518""
""fullscreenexit"",""2"",""21696""
""blur"",""2"",""24726""
""focus"",""2"",""39771""
","""event"",""trial"",""time""
""blur"",""2"",""24726""
","""event"",""trial"",""time""
""focus"",""2"",""39771""
","""event"",""trial"",""time""
""fullscreenenter"",""1"",""12518""
","""event"",""trial"",""time""
""fullscreenexit"",""2"",""21696""
","","","1200.9000000953674","","","22","12645","5634","&#9761;","elianto","#3366ff99","-1"," ","0","+10","[2055.5]","1","0","2","","","","","","","",""
"pit-trial","56","1710106","0.0-2.0-11.3-4.3","battery-v0.2","","""event"",""trial"",""time""
""fullscreenenter"",""1"",""12518""
""fullscreenexit"",""2"",""21696""
""blur"",""2"",""24726""
""focus"",""2"",""39771""
","""event"",""trial"",""time""
""blur"",""2"",""24726""
","""event"",""trial"",""time""
""focus"",""2"",""39771""
","""event"",""trial"",""time""
""fullscreenenter"",""1"",""12518""
","""event"",""trial"",""time""
""fullscreenexit"",""2"",""21696""
","","","766.5999999046326","","","22","12645","5634","&#9761;","elianto","#3366ff99","-1"," ","0","0","[1620.0999999046326]","1","0","2","","","","","","","",""
"call-function","57","1710108","0.0-2.0-12.0","battery-v0.2","","""event"",""trial"",""time""
""fullscreenenter"",""1"",""12518""
""fullscreenexit"",""2"",""21696""
""blur"",""2"",""24726""
""focus"",""2"",""39771""
","""event"",""trial"",""time""
""blur"",""2"",""24726""
","""event"",""trial"",""time""
""focus"",""2"",""39771""
","""event"",""trial"",""time""
""fullscreenenter"",""1"",""12518""
","""event"",""trial"",""time""
""fullscreenexit"",""2"",""21696""
","","","","","","","","","","","","","","","","","","","","","","","","","","",""
"pit-instructions","58","1795719","0.0-2.0-13.0","battery-v0.2","","""event"",""trial"",""time""
""fullscreenenter"",""1"",""12518""
""fullscreenexit"",""2"",""21696""
""blur"",""2"",""24726""
""focus"",""2"",""39771""
","""event"",""trial"",""time""
""blur"",""2"",""24726""
","""event"",""trial"",""time""
""focus"",""2"",""39771""
","""event"",""trial"",""time""
""fullscreenenter"",""1"",""12518""
","""event"",""trial"",""time""
""fullscreenexit"",""2"",""21696""
","","[{""page_index"":0,""viewing_time"":10112.5},{""page_index"":1,""viewing_time"":10475},{""page_index"":2,""viewing_time"":4556.599999904633},{""page_index"":3,""viewing_time"":37138.300000190735},{""page_index"":4,""viewing_time"":23320.5}]","85603.5","","","","","","","","","","","","","","","","","","","","","","","",""
"pit-trial","59","1800592","0.0-2.0-14.0-0.0","battery-v0.2","","""event"",""trial"",""time""
""fullscreenenter"",""1"",""12518""
""fullscreenexit"",""2"",""21696""
""blur"",""2"",""24726""
""focus"",""2"",""39771""
","""event"",""trial"",""time""
""blur"",""2"",""24726""
","""event"",""trial"",""time""
""focus"",""2"",""39771""
","""event"",""trial"",""time""
""fullscreenenter"",""1"",""12518""
","""event"",""trial"",""time""
""fullscreenexit"",""2"",""21696""
","","","-1","","","22","12645","5634","&#9826;","elianto","#f73b6a7A","-1","-1","1","0","[]","0","0","3","","","","","","","",""
"pit-trial","60","1803914","0.0-2.0-14.0-1.0","battery-v0.2","","""event"",""trial"",""time""
""fullscreenenter"",""1"",""12518""
""fullscreenexit"",""2"",""21696""
""blur"",""2"",""24726""
""focus"",""2"",""39771""
","""event"",""trial"",""time""
""blur"",""2"",""24726""
","""event"",""trial"",""time""
""focus"",""2"",""39771""
","""event"",""trial"",""time""
""fullscreenenter"",""1"",""12518""
","""event"",""trial"",""time""
""fullscreenexit"",""2"",""21696""
","","","456.5","","","22","12645","5634","&#9826;","elianto","#f73b6a7A","-1"," ","0","-10","[1316.2000002861023]","1","0","3","","","","","","","",""
"pit-trial","61","1808782","0.0-2.0-14.0-2.0","battery-v0.2","","""event"",""trial"",""time""
""fullscreenenter"",""1"",""12518""
""fullscreenexit"",""2"",""21696""
""blur"",""2"",""24726""
""focus"",""2"",""39771""
","""event"",""trial"",""time""
""blur"",""2"",""24726""
","""event"",""trial"",""time""
""focus"",""2"",""39771""
","""event"",""trial"",""time""
""fullscreenenter"",""1"",""12518""
","""event"",""trial"",""time""
""fullscreenexit"",""2"",""21696""
","","","-1","","","22","12645","5634","&#9826;","elianto","#f73b6a7A","-1","-1","1","0","[]","0","0","3","","","","","","","",""
"pit-trial","62","1813649","0.0-2.0-14.0-3.0","battery-v0.2","","""event"",""trial"",""time""
""fullscreenenter"",""1"",""12518""
""fullscreenexit"",""2"",""21696""
""blur"",""2"",""24726""
""focus"",""2"",""39771""
","""event"",""trial"",""time""
""blur"",""2"",""24726""
","""event"",""trial"",""time""
""focus"",""2"",""39771""
","""event"",""trial"",""time""
""fullscreenenter"",""1"",""12518""
","""event"",""trial"",""time""
""fullscreenexit"",""2"",""21696""
","","","-1","","","22","12645","5634","&#9826;","elianto","#f73b6a7A","-1","-1","1","-10","[]","0","0","3","","","","","","","",""
"pit-trial","63","1817428","0.0-2.0-14.0-4.0","battery-v0.2","","""event"",""trial"",""time""
""fullscreenenter"",""1"",""12518""
""fullscreenexit"",""2"",""21696""
""blur"",""2"",""24726""
""focus"",""2"",""39771""
","""event"",""trial"",""time""
""blur"",""2"",""24726""
","""event"",""trial"",""time""
""focus"",""2"",""39771""
","""event"",""trial"",""time""
""fullscreenenter"",""1"",""12518""
","""event"",""trial"",""time""
""fullscreenexit"",""2"",""21696""
","","","902","","","22","12645","5634","&#9826;","elianto","#f73b6a7A","-1"," ","0","-10","[1761.9000000953674]","1","0","3","","","","","","","",""
"pit-trial","64","1821047","0.0-2.0-14.1-0.1","battery-v0.2","","""event"",""trial"",""time""
""fullscreenenter"",""1"",""12518""
""fullscreenexit"",""2"",""21696""
""blur"",""2"",""24726""
""focus"",""2"",""39771""
","""event"",""trial"",""time""
""blur"",""2"",""24726""
","""event"",""trial"",""time""
""focus"",""2"",""39771""
","""event"",""trial"",""time""
""fullscreenenter"",""1"",""12518""
","""event"",""trial"",""time""
""fullscreenexit"",""2"",""21696""
","","","757.2999997138977","","","22","12645","5634","&#9826;","elianto","#f73b6a7A","-1"," ","0","-10","[1610.9000000953674]","1","0","3","","","","","","","",""
"pit-trial","65","1825904","0.0-2.0-14.1-1.1","battery-v0.2","","""event"",""trial"",""time""
""fullscreenenter"",""1"",""12518""
""fullscreenexit"",""2"",""21696""
""blur"",""2"",""24726""
""focus"",""2"",""39771""
","""event"",""trial"",""time""
""blur"",""2"",""24726""
","""event"",""trial"",""time""
""focus"",""2"",""39771""
","""event"",""trial"",""time""
""fullscreenenter"",""1"",""12518""
","""event"",""trial"",""time""
""fullscreenexit"",""2"",""21696""
","","","-1","","","22","12645","5634","&#9826;","elianto","#f73b6a7A","-1","-1","1","0","[]","0","0","3","","","","","","","",""
"pit-trial","66","1830766","0.0-2.0-14.1-2.1","battery-v0.2","","""event"",""trial"",""time""
""fullscreenenter"",""1"",""12518""
""fullscreenexit"",""2"",""21696""
""blur"",""2"",""24726""
""focus"",""2"",""39771""
","""event"",""trial"",""time""
""blur"",""2"",""24726""
","""event"",""trial"",""time""
""focus"",""2"",""39771""
","""event"",""trial"",""time""
""fullscreenenter"",""1"",""12518""
","""event"",""trial"",""time""
""fullscreenexit"",""2"",""21696""
","","","-1","","","22","12645","5634","&#9826;","elianto","#f73b6a7A","-1","-1","1","0","[]","0","0","3","","","","","","","",""
"pit-trial","67","1834246","0.0-2.0-14.1-3.1","battery-v0.2","","""event"",""trial"",""time""
""fullscreenenter"",""1"",""12518""
""fullscreenexit"",""2"",""21696""
""blur"",""2"",""24726""
""focus"",""2"",""39771""
","""event"",""trial"",""time""
""blur"",""2"",""24726""
","""event"",""trial"",""time""
""focus"",""2"",""39771""
","""event"",""trial"",""time""
""fullscreenenter"",""1"",""12518""
","""event"",""trial"",""time""
""fullscreenexit"",""2"",""21696""
","","","619.8000001907349","","","22","12645","5634","&#9826;","elianto","#f73b6a7A","-1"," ","0","0","[1470]","1","0","3","","","","","","","",""
"pit-trial","68","1838349","0.0-2.0-14.1-4.1","battery-v0.2","","""event"",""trial"",""time""
""fullscreenenter"",""1"",""12518""
""fullscreenexit"",""2"",""21696""
""blur"",""2"",""24726""
""focus"",""2"",""39771""
","""event"",""trial"",""time""
""blur"",""2"",""24726""
","""event"",""trial"",""time""
""focus"",""2"",""39771""
","""event"",""trial"",""time""
""fullscreenenter"",""1"",""12518""
","""event"",""trial"",""time""
""fullscreenexit"",""2"",""21696""
","","","1239.8000001907349","","","22","12645","5634","&#9826;","elianto","#f73b6a7A","-1"," ","0","-10","[2094.4000000953674]","1","0","3","","","","","","","",""
"pit-trial","69","1843208","0.0-2.0-14.2-0.2","battery-v0.2","","""event"",""trial"",""time""
""fullscreenenter"",""1"",""12518""
""fullscreenexit"",""2"",""21696""
""blur"",""2"",""24726""
""focus"",""2"",""39771""
","""event"",""trial"",""time""
""blur"",""2"",""24726""
","""event"",""trial"",""time""
""focus"",""2"",""39771""
","""event"",""trial"",""time""
""fullscreenenter"",""1"",""12518""
","""event"",""trial"",""time""
""fullscreenexit"",""2"",""21696""
","","","-1","","","22","12645","5634","&#9826;","elianto","#f73b6a7A","-1","-1","1","0","[]","0","0","3","","","","","","","",""
"pit-trial","70","1848069","0.0-2.0-14.2-1.2","battery-v0.2","","""event"",""trial"",""time""
""fullscreenenter"",""1"",""12518""
""fullscreenexit"",""2"",""21696""
""blur"",""2"",""24726""
""focus"",""2"",""39771""
","""event"",""trial"",""time""
""blur"",""2"",""24726""
","""event"",""trial"",""time""
""focus"",""2"",""39771""
","""event"",""trial"",""time""
""fullscreenenter"",""1"",""12518""
","""event"",""trial"",""time""
""fullscreenexit"",""2"",""21696""
","","","-1","","","22","12645","5634","&#9826;","elianto","#f73b6a7A","-1","-1","1","0","[]","0","0","3","","","","","","","",""
"pit-trial","71","1852930","0.0-2.0-14.2-2.2","battery-v0.2","","""event"",""trial"",""time""
""fullscreenenter"",""1"",""12518""
""fullscreenexit"",""2"",""21696""
""blur"",""2"",""24726""
""focus"",""2"",""39771""
","""event"",""trial"",""time""
""blur"",""2"",""24726""
","""event"",""trial"",""time""
""focus"",""2"",""39771""
","""event"",""trial"",""time""
""fullscreenenter"",""1"",""12518""
","""event"",""trial"",""time""
""fullscreenexit"",""2"",""21696""
","","","-1","","","22","12645","5634","&#9826;","elianto","#f73b6a7A","-1","-1","1","0","[]","0","0","3","","","","","","","",""
"pit-trial","72","1857788","0.0-2.0-14.2-3.2","battery-v0.2","","""event"",""trial"",""time""
""fullscreenenter"",""1"",""12518""
""fullscreenexit"",""2"",""21696""
""blur"",""2"",""24726""
""focus"",""2"",""39771""
","""event"",""trial"",""time""
""blur"",""2"",""24726""
","""event"",""trial"",""time""
""focus"",""2"",""39771""
","""event"",""trial"",""time""
""fullscreenenter"",""1"",""12518""
","""event"",""trial"",""time""
""fullscreenexit"",""2"",""21696""
","","","-1","","","22","12645","5634","&#9826;","elianto","#f73b6a7A","-1","-1","1","-10","[]","0","0","3","","","","","","","",""
"pit-trial","73","1862645","0.0-2.0-14.2-4.2","battery-v0.2","","""event"",""trial"",""time""
""fullscreenenter"",""1"",""12518""
""fullscreenexit"",""2"",""21696""
""blur"",""2"",""24726""
""focus"",""2"",""39771""
","""event"",""trial"",""time""
""blur"",""2"",""24726""
","""event"",""trial"",""time""
""focus"",""2"",""39771""
","""event"",""trial"",""time""
""fullscreenenter"",""1"",""12518""
","""event"",""trial"",""time""
""fullscreenexit"",""2"",""21696""
","","","-1","","","22","12645","5634","&#9826;","elianto","#f73b6a7A","-1","-1","1","0","[]","0","0","3","","","","","","","",""
"pit-trial","74","1867506","0.0-2.0-14.3-0.3","battery-v0.2","","""event"",""trial"",""time""
""fullscreenenter"",""1"",""12518""
""fullscreenexit"",""2"",""21696""
""blur"",""2"",""24726""
""focus"",""2"",""39771""
","""event"",""trial"",""time""
""blur"",""2"",""24726""
","""event"",""trial"",""time""
""focus"",""2"",""39771""
","""event"",""trial"",""time""
""fullscreenenter"",""1"",""12518""
","""event"",""trial"",""time""
""fullscreenexit"",""2"",""21696""
","","","-1","","","22","12645","5634","&#9826;","elianto","#f73b6a7A","-1","-1","1","0","[]","0","0","3","","","","","","","",""
"pit-trial","75","1870385","0.0-2.0-14.3-1.3","battery-v0.2","","""event"",""trial"",""time""
""fullscreenenter"",""1"",""12518""
""fullscreenexit"",""2"",""21696""
""blur"",""2"",""24726""
""focus"",""2"",""39771""
","""event"",""trial"",""time""
""blur"",""2"",""24726""
","""event"",""trial"",""time""
""focus"",""2"",""39771""
","""event"",""trial"",""time""
""fullscreenenter"",""1"",""12518""
","""event"",""trial"",""time""
""fullscreenexit"",""2"",""21696""
","","","15.5","","","22","12645","5634","&#9826;","elianto","#f73b6a7A","-1"," ","0","-10","[870.4000000953674]","1","0","3","","","","","","","",""
"pit-trial","76","1874165","0.0-2.0-14.3-2.3","battery-v0.2","","""event"",""trial"",""time""
""fullscreenenter"",""1"",""12518""
""fullscreenexit"",""2"",""21696""
""blur"",""2"",""24726""
""focus"",""2"",""39771""
","""event"",""trial"",""time""
""blur"",""2"",""24726""
","""event"",""trial"",""time""
""focus"",""2"",""39771""
","""event"",""trial"",""time""
""fullscreenenter"",""1"",""12518""
","""event"",""trial"",""time""
""fullscreenexit"",""2"",""21696""
","","","922.9000000953674","","","22","12645","5634","&#9826;","elianto","#f73b6a7A","-1"," ","0","-10","[1773.7999997138977]","1","0","3","","","","","","","",""
"pit-trial","77","1877722","0.0-2.0-14.3-3.3","battery-v0.2","","""event"",""trial"",""time""
""fullscreenenter"",""1"",""12518""
""fullscreenexit"",""2"",""21696""
""blur"",""2"",""24726""
""focus"",""2"",""39771""
","""event"",""trial"",""time""
""blur"",""2"",""24726""
","""event"",""trial"",""time""
""focus"",""2"",""39771""
","""event"",""trial"",""time""
""fullscreenenter"",""1"",""12518""
","""event"",""trial"",""time""
""fullscreenexit"",""2"",""21696""
","","","690.9000000953674","","","22","12645","5634","&#9826;","elianto","#f73b6a7A","-1"," ","0","0","[1546]","1","0","3","","","","","","","",""
"pit-trial","78","1881984","0.0-2.0-14.3-4.3","battery-v0.2","","""event"",""trial"",""time""
""fullscreenenter"",""1"",""12518""
""fullscreenexit"",""2"",""21696""
""blur"",""2"",""24726""
""focus"",""2"",""39771""
","""event"",""trial"",""time""
""blur"",""2"",""24726""
","""event"",""trial"",""time""
""focus"",""2"",""39771""
","""event"",""trial"",""time""
""fullscreenenter"",""1"",""12518""
","""event"",""trial"",""time""
""fullscreenexit"",""2"",""21696""
","","","1398","","","22","12645","5634","&#9826;","elianto","#f73b6a7A","-1"," ","0","-10","[2254.1000003814697]","1","0","3","","","","","","","",""
"call-function","79","1881986","0.0-2.0-15.0","battery-v0.2","","""event"",""trial"",""time""
""fullscreenenter"",""1"",""12518""
""fullscreenexit"",""2"",""21696""
""blur"",""2"",""24726""
""focus"",""2"",""39771""
","""event"",""trial"",""time""
""blur"",""2"",""24726""
","""event"",""trial"",""time""
""focus"",""2"",""39771""
","""event"",""trial"",""time""
""fullscreenenter"",""1"",""12518""
","""event"",""trial"",""time""
""fullscreenexit"",""2"",""21696""
","","","","","","","","","","","","","","","","","","","","","","","","","","",""
"pit-instructions","80","1923211","0.0-2.0-16.0","battery-v0.2","","""event"",""trial"",""time""
""fullscreenenter"",""1"",""12518""
""fullscreenexit"",""2"",""21696""
""blur"",""2"",""24726""
""focus"",""2"",""39771""
","""event"",""trial"",""time""
""blur"",""2"",""24726""
","""event"",""trial"",""time""
""focus"",""2"",""39771""
","""event"",""trial"",""time""
""fullscreenenter"",""1"",""12518""
","""event"",""trial"",""time""
""fullscreenexit"",""2"",""21696""
","","[{""page_index"":0,""viewing_time"":12596.400000095367},{""page_index"":1,""viewing_time"":11883.799999713898},{""page_index"":2,""viewing_time"":9118.200000286102},{""page_index"":3,""viewing_time"":7622.599999904633}]","41221.5","","","","","","","","","","","","","","","","","","","","","","","",""
"pit-trial","81","1926678","0.0-2.0-17.0-0.0","battery-v0.2","","""event"",""trial"",""time""
""fullscreenenter"",""1"",""12518""
""fullscreenexit"",""2"",""21696""
""blur"",""2"",""24726""
""focus"",""2"",""39771""
","""event"",""trial"",""time""
""blur"",""2"",""24726""
","""event"",""trial"",""time""
""focus"",""2"",""39771""
","""event"",""trial"",""time""
""fullscreenenter"",""1"",""12518""
","""event"",""trial"",""time""
""fullscreenexit"",""2"",""21696""
","","","609.8000001907349","","","22","12645","5634","&#9789;","elianto","#f73b6a7A"," "," ","1","0","[1462.7000002861023]","1","0","4","","","","","","","",""
"pit-trial","82","1930060","0.0-2.0-17.0-1.0","battery-v0.2","","""event"",""trial"",""time""
""fullscreenenter"",""1"",""12518""
""fullscreenexit"",""2"",""21696""
""blur"",""2"",""24726""
""focus"",""2"",""39771""
","""event"",""trial"",""time""
""blur"",""2"",""24726""
","""event"",""trial"",""time""
""focus"",""2"",""39771""
","""event"",""trial"",""time""
""fullscreenenter"",""1"",""12518""
","""event"",""trial"",""time""
""fullscreenexit"",""2"",""21696""
","","","509.59999990463257","","","22","12645","5634","&#9789;","elianto","#f73b6a7A"," "," ","1","0","[1367.7999997138977]","1","0","4","","","","","","","",""
"pit-trial","83","1933269","0.0-2.0-17.0-2.0","battery-v0.2","","""event"",""trial"",""time""
""fullscreenenter"",""1"",""12518""
""fullscreenexit"",""2"",""21696""
""blur"",""2"",""24726""
""focus"",""2"",""39771""
","""event"",""trial"",""time""
""blur"",""2"",""24726""
","""event"",""trial"",""time""
""focus"",""2"",""39771""
","""event"",""trial"",""time""
""fullscreenenter"",""1"",""12518""
","""event"",""trial"",""time""
""fullscreenexit"",""2"",""21696""
","","","353","","","22","12645","5634","&#9789;","elianto","#f73b6a7A"," "," ","1","0","[1203.7000002861023]","1","0","4","","","","","","","",""
"pit-trial","84","1936814","0.0-2.0-17.0-3.0","battery-v0.2","","""event"",""trial"",""time""
""fullscreenenter"",""1"",""12518""
""fullscreenexit"",""2"",""21696""
""blur"",""2"",""24726""
""focus"",""2"",""39771""
","""event"",""trial"",""time""
""blur"",""2"",""24726""
","""event"",""trial"",""time""
""focus"",""2"",""39771""
","""event"",""trial"",""time""
""fullscreenenter"",""1"",""12518""
","""event"",""trial"",""time""
""fullscreenexit"",""2"",""21696""
","","","677.6999998092651","","","22","12645","5634","&#9789;","elianto","#f73b6a7A"," "," ","1","-10","[1528.1999998092651]","1","0","4","","","","","","","",""
"pit-trial","85","1940065","0.0-2.0-17.0-4.0","battery-v0.2","","""event"",""trial"",""time""
""fullscreenenter"",""1"",""12518""
""fullscreenexit"",""2"",""21696""
""blur"",""2"",""24726""
""focus"",""2"",""39771""
","""event"",""trial"",""time""
""blur"",""2"",""24726""
","""event"",""trial"",""time""
""focus"",""2"",""39771""
","""event"",""trial"",""time""
""fullscreenenter"",""1"",""12518""
","""event"",""trial"",""time""
""fullscreenexit"",""2"",""21696""
","","","379.80000019073486","","","22","12645","5634","&#9789;","elianto","#f73b6a7A"," "," ","1","0","[1229.8999996185303]","1","0","4","","","","","","","",""
"pit-trial","86","1943405","0.0-2.0-17.1-0.1","battery-v0.2","","""event"",""trial"",""time""
""fullscreenenter"",""1"",""12518""
""fullscreenexit"",""2"",""21696""
""blur"",""2"",""24726""
""focus"",""2"",""39771""
","""event"",""trial"",""time""
""blur"",""2"",""24726""
","""event"",""trial"",""time""
""focus"",""2"",""39771""
","""event"",""trial"",""time""
""fullscreenenter"",""1"",""12518""
","""event"",""trial"",""time""
""fullscreenexit"",""2"",""21696""
","","","481.09999990463257","","","22","12645","5634","&#9789;","elianto","#f73b6a7A"," "," ","1","0","[1332.4000000953674]","1","0","4","","","","","","","",""
"pit-trial","87","1946636","0.0-2.0-17.1-1.1","battery-v0.2","","""event"",""trial"",""time""
""fullscreenenter"",""1"",""12518""
""fullscreenexit"",""2"",""21696""
""blur"",""2"",""24726""
""focus"",""2"",""39771""
","""event"",""trial"",""time""
""blur"",""2"",""24726""
","""event"",""trial"",""time""
""focus"",""2"",""39771""
","""event"",""trial"",""time""
""fullscreenenter"",""1"",""12518""
","""event"",""trial"",""time""
""fullscreenexit"",""2"",""21696""
","","","356.09999990463257","","","22","12645","5634","&#9789;","elianto","#f73b6a7A"," "," ","1","0","[1214.6999998092651]","1","0","4","","","","","","","",""
"pit-trial","88","1950394","0.0-2.0-17.1-2.1","battery-v0.2","","""event"",""trial"",""time""
""fullscreenenter"",""1"",""12518""
""fullscreenexit"",""2"",""21696""
""blur"",""2"",""24726""
""focus"",""2"",""39771""
","""event"",""trial"",""time""
""blur"",""2"",""24726""
","""event"",""trial"",""time""
""focus"",""2"",""39771""
","""event"",""trial"",""time""
""fullscreenenter"",""1"",""12518""
","""event"",""trial"",""time""
""fullscreenexit"",""2"",""21696""
","","","884.8000001907349","","","22","12645","5634","&#9789;","elianto","#f73b6a7A"," "," ","1","0","[1739.3000001907349]","1","0","4","","","","","","","",""
"pit-trial","89","1953714","0.0-2.0-17.1-3.1","battery-v0.2","","""event"",""trial"",""time""
""fullscreenenter"",""1"",""12518""
""fullscreenexit"",""2"",""21696""
""blur"",""2"",""24726""
""focus"",""2"",""39771""
","""event"",""trial"",""time""
""blur"",""2"",""24726""
","""event"",""trial"",""time""
""focus"",""2"",""39771""
","""event"",""trial"",""time""
""fullscreenenter"",""1"",""12518""
","""event"",""trial"",""time""
""fullscreenexit"",""2"",""21696""
","","","450.2999997138977","","","22","12645","5634","&#9789;","elianto","#f73b6a7A"," "," ","1","-10","[1301.2999997138977]","1","0","4","","","","","","","",""
"pit-trial","90","1957241","0.0-2.0-17.1-4.1","battery-v0.2","","""event"",""trial"",""time""
""fullscreenenter"",""1"",""12518""
""fullscreenexit"",""2"",""21696""
""blur"",""2"",""24726""
""focus"",""2"",""39771""
","""event"",""trial"",""time""
""blur"",""2"",""24726""
","""event"",""trial"",""time""
""focus"",""2"",""39771""
","""event"",""trial"",""time""
""fullscreenenter"",""1"",""12518""
","""event"",""trial"",""time""
""fullscreenexit"",""2"",""21696""
","","","670.3000001907349","","","22","12645","5634","&#9789;","elianto","#f73b6a7A"," "," ","1","0","[1523.1999998092651]","1","0","4","","","","","","","",""
"pit-trial","91","1961020","0.0-2.0-17.2-0.2","battery-v0.2","","""event"",""trial"",""time""
""fullscreenenter"",""1"",""12518""
""fullscreenexit"",""2"",""21696""
""blur"",""2"",""24726""
""focus"",""2"",""39771""
","""event"",""trial"",""time""
""blur"",""2"",""24726""
","""event"",""trial"",""time""
""focus"",""2"",""39771""
","""event"",""trial"",""time""
""fullscreenenter"",""1"",""12518""
","""event"",""trial"",""time""
""fullscreenexit"",""2"",""21696""
","","","918.2000002861023","","","22","12645","5634","&#9789;","elianto","#f73b6a7A"," "," ","1","0","[1774.4000000953674]","1","0","4","","","","","","","",""
"pit-trial","92","1964504","0.0-2.0-17.2-1.2","battery-v0.2","","""event"",""trial"",""time""
""fullscreenenter"",""1"",""12518""
""fullscreenexit"",""2"",""21696""
""blur"",""2"",""24726""
""focus"",""2"",""39771""
","""event"",""trial"",""time""
""blur"",""2"",""24726""
","""event"",""trial"",""time""
""focus"",""2"",""39771""
","""event"",""trial"",""time""
""fullscreenenter"",""1"",""12518""
","""event"",""trial"",""time""
""fullscreenexit"",""2"",""21696""
","","","618.7000002861023","","","22","12645","5634","&#9789;","elianto","#f73b6a7A"," "," ","1","0","[1474.2000002861023]","1","0","4","","","","","","","",""
"pit-trial","93","1968013","0.0-2.0-17.2-2.2","battery-v0.2","","""event"",""trial"",""time""
""fullscreenenter"",""1"",""12518""
""fullscreenexit"",""2"",""21696""
""blur"",""2"",""24726""
""focus"",""2"",""39771""
","""event"",""trial"",""time""
""blur"",""2"",""24726""
","""event"",""trial"",""time""
""focus"",""2"",""39771""
","""event"",""trial"",""time""
""fullscreenenter"",""1"",""12518""
","""event"",""trial"",""time""
""fullscreenexit"",""2"",""21696""
","","","642.5","","","22","12645","5634","&#9789;","elianto","#f73b6a7A"," "," ","1","0","[1494.3000001907349]","1","0","4","","","","","","","",""
"pit-trial","94","1971904","0.0-2.0-17.2-3.2","battery-v0.2","","""event"",""trial"",""time""
""fullscreenenter"",""1"",""12518""
""fullscreenexit"",""2"",""21696""
""blur"",""2"",""24726""
""focus"",""2"",""39771""
","""event"",""trial"",""time""
""blur"",""2"",""24726""
","""event"",""trial"",""time""
""focus"",""2"",""39771""
","""event"",""trial"",""time""
""fullscreenenter"",""1"",""12518""
","""event"",""trial"",""time""
""fullscreenexit"",""2"",""21696""
","","","1027.3999996185303","","","22","12645","5634","&#9789;","elianto","#f73b6a7A"," "," ","1","-10","[1885]","1","0","4","","","","","","","",""
"pit-trial","95","1975468","0.0-2.0-17.2-4.2","battery-v0.2","","""event"",""trial"",""time""
""fullscreenenter"",""1"",""12518""
""fullscreenexit"",""2"",""21696""
""blur"",""2"",""24726""
""focus"",""2"",""39771""
","""event"",""trial"",""time""
""blur"",""2"",""24726""
","""event"",""trial"",""time""
""focus"",""2"",""39771""
","""event"",""trial"",""time""
""fullscreenenter"",""1"",""12518""
","""event"",""trial"",""time""
""fullscreenexit"",""2"",""21696""
","","","700.3000001907349","","","22","12645","5634","&#9789;","elianto","#f73b6a7A"," "," ","1","0","[1551.7999997138977]","1","0","4","","","","","","","",""
"pit-trial","96","1978963","0.0-2.0-17.3-0.3","battery-v0.2","","""event"",""trial"",""time""
""fullscreenenter"",""1"",""12518""
""fullscreenexit"",""2"",""21696""
""blur"",""2"",""24726""
""focus"",""2"",""39771""
","""event"",""trial"",""time""
""blur"",""2"",""24726""
","""event"",""trial"",""time""
""focus"",""2"",""39771""
","""event"",""trial"",""time""
""fullscreenenter"",""1"",""12518""
","""event"",""trial"",""time""
""fullscreenexit"",""2"",""21696""
","","","625.4000000953674","","","22","12645","5634","&#9789;","elianto","#f73b6a7A"," "," ","1","0","[1483.0999999046326]","1","0","4","","","","","","","",""
"pit-trial","97","1982382","0.0-2.0-17.3-1.3","battery-v0.2","","""event"",""trial"",""time""
""fullscreenenter"",""1"",""12518""
""fullscreenexit"",""2"",""21696""
""blur"",""2"",""24726""
""focus"",""2"",""39771""
","""event"",""trial"",""time""
""blur"",""2"",""24726""
","""event"",""trial"",""time""
""focus"",""2"",""39771""
","""event"",""trial"",""time""
""fullscreenenter"",""1"",""12518""
","""event"",""trial"",""time""
""fullscreenexit"",""2"",""21696""
","","","557.0999999046326","","","22","12645","5634","&#9789;","elianto","#f73b6a7A"," "," ","1","0","[1412.7000002861023]","1","0","4","","","","","","","",""
"pit-trial","98","1985949","0.0-2.0-17.3-2.3","battery-v0.2","","""event"",""trial"",""time""
""fullscreenenter"",""1"",""12518""
""fullscreenexit"",""2"",""21696""
""blur"",""2"",""24726""
""focus"",""2"",""39771""
","""event"",""trial"",""time""
""blur"",""2"",""24726""
","""event"",""trial"",""time""
""focus"",""2"",""39771""
","""event"",""trial"",""time""
""fullscreenenter"",""1"",""12518""
","""event"",""trial"",""time""
""fullscreenexit"",""2"",""21696""
","","","703.3000001907349","","","22","12645","5634","&#9789;","elianto","#f73b6a7A"," "," ","1","0","[1558]","1","0","4","","","","","","","",""
"pit-trial","99","1989346","0.0-2.0-17.3-3.3","battery-v0.2","","""event"",""trial"",""time""
""fullscreenenter"",""1"",""12518""
""fullscreenexit"",""2"",""21696""
""blur"",""2"",""24726""
""focus"",""2"",""39771""
","""event"",""trial"",""time""
""blur"",""2"",""24726""
","""event"",""trial"",""time""
""focus"",""2"",""39771""
","""event"",""trial"",""time""
""fullscreenenter"",""1"",""12518""
","""event"",""trial"",""time""
""fullscreenexit"",""2"",""21696""
","","","529.4000000953674","","","22","12645","5634","&#9789;","elianto","#f73b6a7A"," "," ","1","-10","[1382.6999998092651]","1","0","4","","","","","","","",""
"pit-trial","100","1992767","0.0-2.0-17.3-4.3","battery-v0.2","","""event"",""trial"",""time""
""fullscreenenter"",""1"",""12518""
""fullscreenexit"",""2"",""21696""
""blur"",""2"",""24726""
""focus"",""2"",""39771""
","""event"",""trial"",""time""
""blur"",""2"",""24726""
","""event"",""trial"",""time""
""focus"",""2"",""39771""
","""event"",""trial"",""time""
""fullscreenenter"",""1"",""12518""
","""event"",""trial"",""time""
""fullscreenexit"",""2"",""21696""
","","","557.4000000953674","","","22","12645","5634","&#9789;","elianto","#f73b6a7A"," "," ","1","0","[1414.7000002861023]","1","0","4","","","","","","","",""
"call-function","101","1992773","0.0-2.0-18.0","battery-v0.2","","""event"",""trial"",""time""
""fullscreenenter"",""1"",""12518""
""fullscreenexit"",""2"",""21696""
""blur"",""2"",""24726""
""focus"",""2"",""39771""
","""event"",""trial"",""time""
""blur"",""2"",""24726""
","""event"",""trial"",""time""
""focus"",""2"",""39771""
","""event"",""trial"",""time""
""fullscreenenter"",""1"",""12518""
","""event"",""trial"",""time""
""fullscreenexit"",""2"",""21696""
","","","","","","","","","","","","","","","","","","","","","","","","","","",""
"pit-instructions","102","2134039","0.0-2.0-19.0","battery-v0.2","","""event"",""trial"",""time""
""fullscreenenter"",""1"",""12518""
""fullscreenexit"",""2"",""21696""
""blur"",""2"",""24726""
""focus"",""2"",""39771""
","""event"",""trial"",""time""
""blur"",""2"",""24726""
","""event"",""trial"",""time""
""focus"",""2"",""39771""
","""event"",""trial"",""time""
""fullscreenenter"",""1"",""12518""
","""event"",""trial"",""time""
""fullscreenexit"",""2"",""21696""
","","[{""page_index"":0,""viewing_time"":8426.60000038147},{""page_index"":1,""viewing_time"":8800.89999961853},{""page_index"":2,""viewing_time"":16962.800000190735},{""page_index"":3,""viewing_time"":12449.800000190735},{""page_index"":4,""viewing_time"":53688.59999990463},{""page_index"":5,""viewing_time"":17129.799999713898},{""page_index"":6,""viewing_time"":10700.900000095367},{""page_index"":7,""viewing_time"":8004.599999904633},{""page_index"":8,""viewing_time"":5103.300000190735}]","141268.40000009537","","","","","","","","","","","","","","","","","","","","","","","",""
"pit-comprehension","103","2142894","0.0-2.0-20.0-0.0","battery-v0.2","","""event"",""trial"",""time""
""fullscreenenter"",""1"",""12518""
""fullscreenexit"",""2"",""21696""
""blur"",""2"",""24726""
""focus"",""2"",""39771""
","""event"",""trial"",""time""
""blur"",""2"",""24726""
","""event"",""trial"",""time""
""focus"",""2"",""39771""
","""event"",""trial"",""time""
""fullscreenenter"",""1"",""12518""
","""event"",""trial"",""time""
""fullscreenexit"",""2"",""21696""
","","","8838","[""SPACE""]","0","22","12645","5634","","","","","","","","","","","","","","","","","","",""
"pit-instructions","104","2146225","0.0-2.0-20.0-1.0","battery-v0.2","","""event"",""trial"",""time""
""fullscreenenter"",""1"",""12518""
""fullscreenexit"",""2"",""21696""
""blur"",""2"",""24726""
""focus"",""2"",""39771""
","""event"",""trial"",""time""
""blur"",""2"",""24726""
","""event"",""trial"",""time""
""focus"",""2"",""39771""
","""event"",""trial"",""time""
""fullscreenenter"",""1"",""12518""
","""event"",""trial"",""time""
""fullscreenexit"",""2"",""21696""
","","[{""page_index"":0,""viewing_time"":3217.300000190735}]","3218.800000190735","","","","","","","","","","","","","","","","","","","","","","","",""
"pit-comprehension","105","2156548","0.0-2.0-21.0-0.0","battery-v0.2","","""event"",""trial"",""time""
""fullscreenenter"",""1"",""12518""
""fullscreenexit"",""2"",""21696""
""blur"",""2"",""24726""
""focus"",""2"",""39771""
","""event"",""trial"",""time""
""blur"",""2"",""24726""
","""event"",""trial"",""time""
""focus"",""2"",""39771""
","""event"",""trial"",""time""
""fullscreenenter"",""1"",""12518""
","""event"",""trial"",""time""
""fullscreenexit"",""2"",""21696""
","","","10293","[""10""]","0","22","12645","5634","","","","","","","","","","","","","","","","","","",""
"pit-instructions","106","2158558","0.0-2.0-21.0-1.0","battery-v0.2","","""event"",""trial"",""time""
""fullscreenenter"",""1"",""12518""
""fullscreenexit"",""2"",""21696""
""blur"",""2"",""24726""
""focus"",""2"",""39771""
","""event"",""trial"",""time""
""blur"",""2"",""24726""
","""event"",""trial"",""time""
""focus"",""2"",""39771""
","""event"",""trial"",""time""
""fullscreenenter"",""1"",""12518""
","""event"",""trial"",""time""
""fullscreenexit"",""2"",""21696""
","","[{""page_index"":0,""viewing_time"":1911.7999997138977}]","1912.5999999046326","","","","","","","","","","","","","","","","","","","","","","","",""
"pit-comprehension","107","2170397","0.0-2.0-22.0-0.0","battery-v0.2","","""event"",""trial"",""time""
""fullscreenenter"",""1"",""12518""
""fullscreenexit"",""2"",""21696""
""blur"",""2"",""24726""
""focus"",""2"",""39771""
","""event"",""trial"",""time""
""blur"",""2"",""24726""
","""event"",""trial"",""time""
""focus"",""2"",""39771""
","""event"",""trial"",""time""
""fullscreenenter"",""1"",""12518""
","""event"",""trial"",""time""
""fullscreenexit"",""2"",""21696""
","","","11817.700000286102","[""0""]","0","22","12645","5634","","","","","","","","","","","","","","","","","","",""
"pit-instructions","108","2172517","0.0-2.0-22.0-1.0","battery-v0.2","","""event"",""trial"",""time""
""fullscreenenter"",""1"",""12518""
""fullscreenexit"",""2"",""21696""
""blur"",""2"",""24726""
""focus"",""2"",""39771""
","""event"",""trial"",""time""
""blur"",""2"",""24726""
","""event"",""trial"",""time""
""focus"",""2"",""39771""
","""event"",""trial"",""time""
""fullscreenenter"",""1"",""12518""
","""event"",""trial"",""time""
""fullscreenexit"",""2"",""21696""
","","[{""page_index"":0,""viewing_time"":2010.4000000953674}]","2011.1999998092651","","","","","","","","","","","","","","","","","","","","","","","",""
"pit-comprehension","109","2189127","0.0-2.0-23.0-0.0","battery-v0.2","","""event"",""trial"",""time""
""fullscreenenter"",""1"",""12518""
""fullscreenexit"",""2"",""21696""
""blur"",""2"",""24726""
""focus"",""2"",""39771""
","""event"",""trial"",""time""
""blur"",""2"",""24726""
","""event"",""trial"",""time""
""focus"",""2"",""39771""
","""event"",""trial"",""time""
""fullscreenenter"",""1"",""12518""
","""event"",""trial"",""time""
""fullscreenexit"",""2"",""21696""
","","","16596.900000095367","[""True""]","0","22","12645","5634","","","","","","","","","","","","","","","","","","",""
"pit-instructions","110","2191223","0.0-2.0-23.0-1.0","battery-v0.2","","""event"",""trial"",""time""
""fullscreenenter"",""1"",""12518""
""fullscreenexit"",""2"",""21696""
""blur"",""2"",""24726""
""focus"",""2"",""39771""
","""event"",""trial"",""time""
""blur"",""2"",""24726""
","""event"",""trial"",""time""
""focus"",""2"",""39771""
","""event"",""trial"",""time""
""fullscreenenter"",""1"",""12518""
","""event"",""trial"",""time""
""fullscreenexit"",""2"",""21696""
","","[{""page_index"":0,""viewing_time"":1993}]","1994.2999997138977","","","","","","","","","","","","","","","","","","","","","","","",""
"pit-comprehension","111","2204361","0.0-2.0-24.0-0.0","battery-v0.2","","""event"",""trial"",""time""
""fullscreenenter"",""1"",""12518""
""fullscreenexit"",""2"",""21696""
""blur"",""2"",""24726""
""focus"",""2"",""39771""
","""event"",""trial"",""time""
""blur"",""2"",""24726""
","""event"",""trial"",""time""
""focus"",""2"",""39771""
","""event"",""trial"",""time""
""fullscreenenter"",""1"",""12518""
","""event"",""trial"",""time""
""fullscreenexit"",""2"",""21696""
","","","13118.60000038147","[""True""]","0","22","12645","5634","","","","","","","","","","","","","","","","","","",""
"pit-instructions","112","2206482","0.0-2.0-24.0-1.0","battery-v0.2","","""event"",""trial"",""time""
""fullscreenenter"",""1"",""12518""
""fullscreenexit"",""2"",""21696""
""blur"",""2"",""24726""
""focus"",""2"",""39771""
","""event"",""trial"",""time""
""blur"",""2"",""24726""
","""event"",""trial"",""time""
""focus"",""2"",""39771""
","""event"",""trial"",""time""
""fullscreenenter"",""1"",""12518""
","""event"",""trial"",""time""
""fullscreenexit"",""2"",""21696""
","","[{""page_index"":0,""viewing_time"":2023}]","2023.9000000953674","","","","","","","","","","","","","","","","","","","","","","","",""
"pit-comprehension","113","2219142","0.0-2.0-25.0-0.0","battery-v0.2","","""event"",""trial"",""time""
""fullscreenenter"",""1"",""12518""
""fullscreenexit"",""2"",""21696""
""blur"",""2"",""24726""
""focus"",""2"",""39771""
","""event"",""trial"",""time""
""blur"",""2"",""24726""
","""event"",""trial"",""time""
""focus"",""2"",""39771""
","""event"",""trial"",""time""
""fullscreenenter"",""1"",""12518""
","""event"",""trial"",""time""
""fullscreenexit"",""2"",""21696""
","","","12649.300000190735","[""True""]","0","22","12645","5634","","","","","","","","","","","","","","","","","","",""
"pit-instructions","114","2221201","0.0-2.0-25.0-1.0","battery-v0.2","","""event"",""trial"",""time""
""fullscreenenter"",""1"",""12518""
""fullscreenexit"",""2"",""21696""
""blur"",""2"",""24726""
""focus"",""2"",""39771""
","""event"",""trial"",""time""
""blur"",""2"",""24726""
","""event"",""trial"",""time""
""focus"",""2"",""39771""
","""event"",""trial"",""time""
""fullscreenenter"",""1"",""12518""
","""event"",""trial"",""time""
""fullscreenexit"",""2"",""21696""
","","[{""page_index"":0,""viewing_time"":1970.1000003814697}]","1970.5","","","","","","","","","","","","","","","","","","","","","","","",""
"pit-comprehension","115","2234724","0.0-2.0-26.0-0.0","battery-v0.2","","""event"",""trial"",""time""
""fullscreenenter"",""1"",""12518""
""fullscreenexit"",""2"",""21696""
""blur"",""2"",""24726""
""focus"",""2"",""39771""
","""event"",""trial"",""time""
""blur"",""2"",""24726""
","""event"",""trial"",""time""
""focus"",""2"",""39771""
","""event"",""trial"",""time""
""fullscreenenter"",""1"",""12518""
","""event"",""trial"",""time""
""fullscreenexit"",""2"",""21696""
","","","13514.300000190735","[""True""]","1","22","12645","5634","","","","","","","","","","","","","","","","","","",""
"pit-instructions","116","2241358","0.0-2.0-26.0-1.0","battery-v0.2","","""event"",""trial"",""time""
""fullscreenenter"",""1"",""12518""
""fullscreenexit"",""2"",""21696""
""blur"",""2"",""24726""
""focus"",""2"",""39771""
","""event"",""trial"",""time""
""blur"",""2"",""24726""
","""event"",""trial"",""time""
""focus"",""2"",""39771""
","""event"",""trial"",""time""
""fullscreenenter"",""1"",""12518""
","""event"",""trial"",""time""
""fullscreenexit"",""2"",""21696""
","","[{""page_index"":0,""viewing_time"":6536.400000095367}]","6537.60000038147","","","","","","","","","","","","","","","","","","","","","","","",""
"pit-instructions","117","2244015","0.0-2.0-26.0-2.0-0.0","battery-v0.2","","""event"",""trial"",""time""
""fullscreenenter"",""1"",""12518""
""fullscreenexit"",""2"",""21696""
""blur"",""2"",""24726""
""focus"",""2"",""39771""
","""event"",""trial"",""time""
""blur"",""2"",""24726""
","""event"",""trial"",""time""
""focus"",""2"",""39771""
","""event"",""trial"",""time""
""fullscreenenter"",""1"",""12518""
","""event"",""trial"",""time""
""fullscreenexit"",""2"",""21696""
","","[{""page_index"":0,""viewing_time"":2651.800000190735}]","2652.7000002861023","","","","","","","","","","","","","","","","","","","","","","","",""
"pit-comprehension","118","2249472","0.0-2.0-26.1-0.1","battery-v0.2","","""event"",""trial"",""time""
""fullscreenenter"",""1"",""12518""
""fullscreenexit"",""2"",""21696""
""blur"",""2"",""24726""
""focus"",""2"",""39771""
","""event"",""trial"",""time""
""blur"",""2"",""24726""
","""event"",""trial"",""time""
""focus"",""2"",""39771""
","""event"",""trial"",""time""
""fullscreenenter"",""1"",""12518""
","""event"",""trial"",""time""
""fullscreenexit"",""2"",""21696""
","","","5448","[""False""]","0","22","12645","5634","","","","","","","","","","","","","","","","","","",""
"pit-instructions","119","2251549","0.0-2.0-26.1-1.1","battery-v0.2","","""event"",""trial"",""time""
""fullscreenenter"",""1"",""12518""
""fullscreenexit"",""2"",""21696""
""blur"",""2"",""24726""
""focus"",""2"",""39771""
","""event"",""trial"",""time""
""blur"",""2"",""24726""
","""event"",""trial"",""time""
""focus"",""2"",""39771""
","""event"",""trial"",""time""
""fullscreenenter"",""1"",""12518""
","""event"",""trial"",""time""
""fullscreenexit"",""2"",""21696""
","","[{""page_index"":0,""viewing_time"":1969.2000002861023}]","1970.1000003814697","","","","","","","","","","","","","","","","","","","","","","","",""
"pit-instructions","120","2277191","0.0-3.0","battery-v0.2","","""event"",""trial"",""time""
""fullscreenenter"",""1"",""12518""
""fullscreenexit"",""2"",""21696""
""blur"",""2"",""24726""
""focus"",""2"",""39771""
","""event"",""trial"",""time""
""blur"",""2"",""24726""
","""event"",""trial"",""time""
""focus"",""2"",""39771""
","""event"",""trial"",""time""
""fullscreenenter"",""1"",""12518""
","""event"",""trial"",""time""
""fullscreenexit"",""2"",""21696""
","","[{""page_index"":0,""viewing_time"":5336.900000095367},{""page_index"":1,""viewing_time"":9160},{""page_index"":2,""viewing_time"":11137.099999904633}]","25637.200000286102","","","","","","","","","","","","","","","","","","","","","","","",""
"pit-trial","121","2281251","0.0-4.0","battery-v0.2","","""event"",""trial"",""time""
""fullscreenenter"",""1"",""12518""
""fullscreenexit"",""2"",""21696""
""blur"",""2"",""24726""
""focus"",""2"",""39771""
","""event"",""trial"",""time""
""blur"",""2"",""24726""
","""event"",""trial"",""time""
""focus"",""2"",""39771""
","""event"",""trial"",""time""
""fullscreenenter"",""1"",""12518""
","""event"",""trial"",""time""
""fullscreenexit"",""2"",""21696""
","","","1162.4000000953674","","","22","12645","5634","&#9752;","elianto","#f73b6a7A"," "," ","1","0","[2020.8000001907349]","1","1","","","12645","1","3","3","lose","go","0"
"pit-trial","122","2284889","0.0-5.0","battery-v0.2","","""event"",""trial"",""time""
""fullscreenenter"",""1"",""12518""
""fullscreenexit"",""2"",""21696""
""blur"",""2"",""24726""
""focus"",""2"",""39771""
","""event"",""trial"",""time""
""blur"",""2"",""24726""
","""event"",""trial"",""time""
""focus"",""2"",""39771""
","""event"",""trial"",""time""
""fullscreenenter"",""1"",""12518""
","""event"",""trial"",""time""
""fullscreenexit"",""2"",""21696""
","","","755.1000003814697","","","22","12645","5634","&#9733;","elianto","#3366ff99","-1"," ","0","0","[1620.3999996185303]","1","1","","","12645","2","2","2","win","no-go","0"
"pit-trial","123","2289040","0.0-6.0","battery-v0.2","","""event"",""trial"",""time""
""fullscreenenter"",""1"",""12518""
""fullscreenexit"",""2"",""21696""
""blur"",""2"",""24726""
""focus"",""2"",""39771""
","""event"",""trial"",""time""
""blur"",""2"",""24726""
","""event"",""trial"",""time""
""focus"",""2"",""39771""
","""event"",""trial"",""time""
""fullscreenenter"",""1"",""12518""
","""event"",""trial"",""time""
""fullscreenexit"",""2"",""21696""
","","","1275.5","","","22","12645","5634","&#9730;","elianto","#3366ff99"," "," ","1","+10","[2131.800000190735]","1","1","","","12645","3","1","1","win","go","0"
"pit-trial","124","2293589","0.0-7.0","battery-v0.2","","""event"",""trial"",""time""
""fullscreenenter"",""1"",""12518""
""fullscreenexit"",""2"",""21696""
""blur"",""2"",""24726""
""focus"",""2"",""39771""
","""event"",""trial"",""time""
""blur"",""2"",""24726""
","""event"",""trial"",""time""
""focus"",""2"",""39771""
","""event"",""trial"",""time""
""fullscreenenter"",""1"",""12518""
","""event"",""trial"",""time""
""fullscreenexit"",""2"",""21696""
","","","1680.6999998092651","","","22","12645","5634","&#9728;","elianto","#f73b6a7A","-1"," ","0","0","[2536.4000000953674]","1","1","","","12645","4","0","4","lose","no-go","1"
"pit-trial","125","2298450","0.0-8.0","battery-v0.2","","""event"",""trial"",""time""
""fullscreenenter"",""1"",""12518""
""fullscreenexit"",""2"",""21696""
""blur"",""2"",""24726""
""focus"",""2"",""39771""
","""event"",""trial"",""time""
""blur"",""2"",""24726""
","""event"",""trial"",""time""
""focus"",""2"",""39771""
","""event"",""trial"",""time""
""fullscreenenter"",""1"",""12518""
","""event"",""trial"",""time""
""fullscreenexit"",""2"",""21696""
","","","-1","","","22","12645","5634","&#9728;","elianto","#f73b6a7A","-1","-1","1","0","[]","0","1","","","12645","5","0","4","lose","no-go","0"
"pit-trial","126","2301887","0.0-9.0","battery-v0.2","","""event"",""trial"",""time""
""fullscreenenter"",""1"",""12518""
""fullscreenexit"",""2"",""21696""
""blur"",""2"",""24726""
""focus"",""2"",""39771""
","""event"",""trial"",""time""
""blur"",""2"",""24726""
","""event"",""trial"",""time""
""focus"",""2"",""39771""
","""event"",""trial"",""time""
""fullscreenenter"",""1"",""12518""
","""event"",""trial"",""time""
""fullscreenexit"",""2"",""21696""
","","","568.8000001907349","","","22","12645","5634","&#9752;","elianto","#f73b6a7A"," "," ","1","0","[1419.9000000953674]","1","1","","","12645","6","3","3","lose","go","0"
"pit-trial","127","2306477","0.0-10.0","battery-v0.2","","""event"",""trial"",""time""
""fullscreenenter"",""1"",""12518""
""fullscreenexit"",""2"",""21696""
""blur"",""2"",""24726""
""focus"",""2"",""39771""
","""event"",""trial"",""time""
""blur"",""2"",""24726""
","""event"",""trial"",""time""
""focus"",""2"",""39771""
","""event"",""trial"",""time""
""fullscreenenter"",""1"",""12518""
","""event"",""trial"",""time""
""fullscreenexit"",""2"",""21696""
","","","1726.8000001907349","","","22","12645","5634","&#9733;","elianto","#3366ff99","-1"," ","0","0","[2585.7999997138977]","1","1","","","12645","7","2","2","win","no-go","0"
"pit-trial","128","2310646","0.0-11.0","battery-v0.2","","""event"",""trial"",""time""
""fullscreenenter"",""1"",""12518""
""fullscreenexit"",""2"",""21696""
""blur"",""2"",""24726""
""focus"",""2"",""39771""
","""event"",""trial"",""time""
""blur"",""2"",""24726""
","""event"",""trial"",""time""
""focus"",""2"",""39771""
","""event"",""trial"",""time""
""fullscreenenter"",""1"",""12518""
","""event"",""trial"",""time""
""fullscreenexit"",""2"",""21696""
","","","1305.2000002861023","","","22","12645","5634","&#9730;","elianto","#3366ff99"," "," ","1","+10","[2162.2000002861023]","1","1","","","12645","8","1","1","win","go","0"
"pit-trial","129","2314158","0.0-12.0","battery-v0.2","","""event"",""trial"",""time""
""fullscreenenter"",""1"",""12518""
""fullscreenexit"",""2"",""21696""
""blur"",""2"",""24726""
""focus"",""2"",""39771""
","""event"",""trial"",""time""
""blur"",""2"",""24726""
","""event"",""trial"",""time""
""focus"",""2"",""39771""
","""event"",""trial"",""time""
""fullscreenenter"",""1"",""12518""
","""event"",""trial"",""time""
""fullscreenexit"",""2"",""21696""
","","","654.4000000953674","","","22","12645","5634","&#9733;","elianto","#3366ff99","-1"," ","0","0","[1506]","1","1","","","12645","9","2","2","win","no-go","0"
"pit-trial","130","2317658","0.0-13.0","battery-v0.2","","""event"",""trial"",""time""
""fullscreenenter"",""1"",""12518""
""fullscreenexit"",""2"",""21696""
""blur"",""2"",""24726""
""focus"",""2"",""39771""
","""event"",""trial"",""time""
""blur"",""2"",""24726""
","""event"",""trial"",""time""
""focus"",""2"",""39771""
","""event"",""trial"",""time""
""fullscreenenter"",""1"",""12518""
","""event"",""trial"",""time""
""fullscreenexit"",""2"",""21696""
","","","644.4000000953674","","","22","12645","5634","&#9730;","elianto","#3366ff99"," "," ","1","+10","[1495.4000000953674]","1","1","","","12645","10","1","1","win","go","0"
"pit-trial","131","2321635","0.0-14.0","battery-v0.2","","""event"",""trial"",""time""
""fullscreenenter"",""1"",""12518""
""fullscreenexit"",""2"",""21696""
""blur"",""2"",""24726""
""focus"",""2"",""39771""
","""event"",""trial"",""time""
""blur"",""2"",""24726""
","""event"",""trial"",""time""
""focus"",""2"",""39771""
","""event"",""trial"",""time""
""fullscreenenter"",""1"",""12518""
","""event"",""trial"",""time""
""fullscreenexit"",""2"",""21696""
","","","1120.5","","","22","12645","5634","&#9752;","elianto","#f73b6a7A"," "," ","1","0","[1971.2000002861023]","1","1","","","12645","11","3","3","lose","go","0"
"pit-trial","132","2325474","0.0-15.0","battery-v0.2","","""event"",""trial"",""time""
""fullscreenenter"",""1"",""12518""
""fullscreenexit"",""2"",""21696""
""blur"",""2"",""24726""
""focus"",""2"",""39771""
","""event"",""trial"",""time""
""blur"",""2"",""24726""
","""event"",""trial"",""time""
""focus"",""2"",""39771""
","""event"",""trial"",""time""
""fullscreenenter"",""1"",""12518""
","""event"",""trial"",""time""
""fullscreenexit"",""2"",""21696""
","","","968.4000000953674","","","22","12645","5634","&#9728;","elianto","#f73b6a7A","-1"," ","0","-10","[1826]","1","1","","","12645","12","0","4","lose","no-go","0"
"pit-trial","133","2329310","0.0-16.0","battery-v0.2","","""event"",""trial"",""time""
""fullscreenenter"",""1"",""12518""
""fullscreenexit"",""2"",""21696""
""blur"",""2"",""24726""
""focus"",""2"",""39771""
","""event"",""trial"",""time""
""blur"",""2"",""24726""
","""event"",""trial"",""time""
""focus"",""2"",""39771""
","""event"",""trial"",""time""
""fullscreenenter"",""1"",""12518""
","""event"",""trial"",""time""
""fullscreenexit"",""2"",""21696""
","","","976.1000003814697","","","22","12645","5634","&#9730;","elianto","#3366ff99"," "," ","1","+10","[1828.8000001907349]","1","1","","","12645","13","1","1","win","go","0"
"pit-trial","134","2334177","0.0-17.0","battery-v0.2","","""event"",""trial"",""time""
""fullscreenenter"",""1"",""12518""
""fullscreenexit"",""2"",""21696""
""blur"",""2"",""24726""
""focus"",""2"",""39771""
","""event"",""trial"",""time""
""blur"",""2"",""24726""
","""event"",""trial"",""time""
""focus"",""2"",""39771""
","""event"",""trial"",""time""
""fullscreenenter"",""1"",""12518""
","""event"",""trial"",""time""
""fullscreenexit"",""2"",""21696""
","","","-1","","","22","12645","5634","&#9752;","elianto","#f73b6a7A"," ","-1","0","-10","[]","0","1","","","12645","14","3","3","lose","go","0"
"pit-trial","135","2337715","0.0-18.0","battery-v0.2","","""event"",""trial"",""time""
""fullscreenenter"",""1"",""12518""
""fullscreenexit"",""2"",""21696""
""blur"",""2"",""24726""
""focus"",""2"",""39771""
","""event"",""trial"",""time""
""blur"",""2"",""24726""
","""event"",""trial"",""time""
""focus"",""2"",""39771""
","""event"",""trial"",""time""
""fullscreenenter"",""1"",""12518""
","""event"",""trial"",""time""
""fullscreenexit"",""2"",""21696""
","","","681","","","22","12645","5634","&#9733;","elianto","#3366ff99","-1"," ","0","0","[1533]","1","1","","","12645","15","2","2","win","no-go","0"
"pit-trial","136","2341443","0.0-19.0","battery-v0.2","","""event"",""trial"",""time""
""fullscreenenter"",""1"",""12518""
""fullscreenexit"",""2"",""21696""
""blur"",""2"",""24726""
""focus"",""2"",""39771""
","""event"",""trial"",""time""
""blur"",""2"",""24726""
","""event"",""trial"",""time""
""focus"",""2"",""39771""
","""event"",""trial"",""time""
""fullscreenenter"",""1"",""12518""
","""event"",""trial"",""time""
""fullscreenexit"",""2"",""21696""
","","","858.1999998092651","","","22","12645","5634","&#9728;","elianto","#f73b6a7A","-1"," ","0","0","[1717.9000000953674]","1","1","","","12645","16","0","4","lose","no-go","1"
"pit-trial","137","2345898","0.0-20.0","battery-v0.2","","""event"",""trial"",""time""
""fullscreenenter"",""1"",""12518""
""fullscreenexit"",""2"",""21696""
""blur"",""2"",""24726""
""focus"",""2"",""39771""
","""event"",""trial"",""time""
""blur"",""2"",""24726""
","""event"",""trial"",""time""
""focus"",""2"",""39771""
","""event"",""trial"",""time""
""fullscreenenter"",""1"",""12518""
","""event"",""trial"",""time""
""fullscreenexit"",""2"",""21696""
","","","1591.5","","","22","12645","5634","&#9752;","elianto","#f73b6a7A"," "," ","1","0","[2444.5]","1","1","","","12645","17","3","3","lose","go","0"
"pit-trial","138","2349409","0.0-21.0","battery-v0.2","","""event"",""trial"",""time""
""fullscreenenter"",""1"",""12518""
""fullscreenexit"",""2"",""21696""
""blur"",""2"",""24726""
""focus"",""2"",""39771""
","""event"",""trial"",""time""
""blur"",""2"",""24726""
","""event"",""trial"",""time""
""focus"",""2"",""39771""
","""event"",""trial"",""time""
""fullscreenenter"",""1"",""12518""
","""event"",""trial"",""time""
""fullscreenexit"",""2"",""21696""
","","","647.9000000953674","","","22","12645","5634","&#9730;","elianto","#3366ff99"," "," ","1","+10","[1499.2000002861023]","1","1","","","12645","18","1","1","win","go","0"
"pit-trial","139","2354274","0.0-22.0","battery-v0.2","","""event"",""trial"",""time""
""fullscreenenter"",""1"",""12518""
""fullscreenexit"",""2"",""21696""
""blur"",""2"",""24726""
""focus"",""2"",""39771""
","""event"",""trial"",""time""
""blur"",""2"",""24726""
","""event"",""trial"",""time""
""focus"",""2"",""39771""
","""event"",""trial"",""time""
""fullscreenenter"",""1"",""12518""
","""event"",""trial"",""time""
""fullscreenexit"",""2"",""21696""
","","","-1","","","22","12645","5634","&#9728;","elianto","#f73b6a7A","-1","-1","1","0","[3028.0999999046326]","1","1","","","12645","19","0","4","lose","no-go","0"
"pit-trial","140","2357874","0.0-23.0","battery-v0.2","","""event"",""trial"",""time""
""fullscreenenter"",""1"",""12518""
""fullscreenexit"",""2"",""21696""
""blur"",""2"",""24726""
""focus"",""2"",""39771""
","""event"",""trial"",""time""
""blur"",""2"",""24726""
","""event"",""trial"",""time""
""focus"",""2"",""39771""
","""event"",""trial"",""time""
""fullscreenenter"",""1"",""12518""
","""event"",""trial"",""time""
""fullscreenexit"",""2"",""21696""
","","","738.7000002861023","","","22","12645","5634","&#9733;","elianto","#3366ff99","-1"," ","0","0","[1590.4000000953674]","1","1","","","12645","20","2","2","win","no-go","0"
"pit-instructions","141","2374964","0.0-24.0","battery-v0.2","","""event"",""trial"",""time""
""fullscreenenter"",""1"",""12518""
""fullscreenexit"",""2"",""21696""
""blur"",""2"",""24726""
""focus"",""2"",""39771""
","""event"",""trial"",""time""
""blur"",""2"",""24726""
","""event"",""trial"",""time""
""focus"",""2"",""39771""
","""event"",""trial"",""time""
""fullscreenenter"",""1"",""12518""
","""event"",""trial"",""time""
""fullscreenexit"",""2"",""21696""
","","[{""page_index"":0,""viewing_time"":8442.89999961853},{""page_index"":1,""viewing_time"":8644.10000038147}]","17087.699999809265","","","","","","","","","","","","","","","","","","","","","","","",""
"pit-trial","142","2379431","0.0-25.0","battery-v0.2","","""event"",""trial"",""time""
""fullscreenenter"",""1"",""12518""
""fullscreenexit"",""2"",""21696""
""blur"",""2"",""24726""
""focus"",""2"",""39771""
","""event"",""trial"",""time""
""blur"",""2"",""24726""
","""event"",""trial"",""time""
""focus"",""2"",""39771""
","""event"",""trial"",""time""
""fullscreenenter"",""1"",""12518""
","""event"",""trial"",""time""
""fullscreenexit"",""2"",""21696""
","","","1588.4000000953674","","","22","12645","5634","m","elianto","#f73b6a7A"," "," ","1","0","[2444.0999999046326]","1","2","","","12645","21","0","3","lose","go","0"
"pit-trial","143","2384299","0.0-26.0","battery-v0.2","","""event"",""trial"",""time""
""fullscreenenter"",""1"",""12518""
""fullscreenexit"",""2"",""21696""
""blur"",""2"",""24726""
""focus"",""2"",""39771""
","""event"",""trial"",""time""
""blur"",""2"",""24726""
","""event"",""trial"",""time""
""focus"",""2"",""39771""
","""event"",""trial"",""time""
""fullscreenenter"",""1"",""12518""
","""event"",""trial"",""time""
""fullscreenexit"",""2"",""21696""
","","","-1","","","22","12645","5634","y","elianto","#f73b6a7A"," ","-1","0","0","[]","0","2","","","12645","22","2","3","lose","go","1"
"pit-trial","144","2387815","0.0-27.0","battery-v0.2","","""event"",""trial"",""time""
""fullscreenenter"",""1"",""12518""
""fullscreenexit"",""2"",""21696""
""blur"",""2"",""24726""
""focus"",""2"",""39771""
","""event"",""trial"",""time""
""blur"",""2"",""24726""
","""event"",""trial"",""time""
""focus"",""2"",""39771""
","""event"",""trial"",""time""
""fullscreenenter"",""1"",""12518""
","""event"",""trial"",""time""
""fullscreenexit"",""2"",""21696""
","","","656.7999997138977","","","22","12645","5634","r","elianto","#3366ff99","-1"," ","0","0","[1507.7999997138977]","1","2","","","12645","23","1","2","win","no-go","0"
"pit-trial","145","2391602","0.0-28.0","battery-v0.2","","""event"",""trial"",""time""
""fullscreenenter"",""1"",""12518""
""fullscreenexit"",""2"",""21696""
""blur"",""2"",""24726""
""focus"",""2"",""39771""
","""event"",""trial"",""time""
""blur"",""2"",""24726""
","""event"",""trial"",""time""
""focus"",""2"",""39771""
","""event"",""trial"",""time""
""fullscreenenter"",""1"",""12518""
","""event"",""trial"",""time""
""fullscreenexit"",""2"",""21696""
","","","921.8000001907349","","","22","12645","5634","h","elianto","#f73b6a7A","-1"," ","0","-10","[1780.0999999046326]","1","2","","","12645","24","3","4","lose","no-go","0"
"pit-trial","146","2395639","0.0-29.0","battery-v0.2","","""event"",""trial"",""time""
""fullscreenenter"",""1"",""12518""
""fullscreenexit"",""2"",""21696""
""blur"",""2"",""24726""
""focus"",""2"",""39771""
","""event"",""trial"",""time""
""blur"",""2"",""24726""
","""event"",""trial"",""time""
""focus"",""2"",""39771""
","""event"",""trial"",""time""
""fullscreenenter"",""1"",""12518""
","""event"",""trial"",""time""
""fullscreenexit"",""2"",""21696""
","","","1177.9000000953674","","","22","12645","5634","y","elianto","#f73b6a7A"," "," ","1","0","[2030.5]","1","2","","","12645","25","2","3","lose","go","0"
"pit-trial","147","2399047","0.0-30.0","battery-v0.2","","""event"",""trial"",""time""
""fullscreenenter"",""1"",""12518""
""fullscreenexit"",""2"",""21696""
""blur"",""2"",""24726""
""focus"",""2"",""39771""
","""event"",""trial"",""time""
""blur"",""2"",""24726""
","""event"",""trial"",""time""
""focus"",""2"",""39771""
","""event"",""trial"",""time""
""fullscreenenter"",""1"",""12518""
","""event"",""trial"",""time""
""fullscreenexit"",""2"",""21696""
","","","550.2000002861023","","","22","12645","5634","r","elianto","#3366ff99","-1"," ","0","0","[1402]","1","2","","","12645","26","1","2","win","no-go","0"
"pit-trial","148","2403073","0.0-31.0","battery-v0.2","","""event"",""trial"",""time""
""fullscreenenter"",""1"",""12518""
""fullscreenexit"",""2"",""21696""
""blur"",""2"",""24726""
""focus"",""2"",""39771""
","""event"",""trial"",""time""
""blur"",""2"",""24726""
","""event"",""trial"",""time""
""focus"",""2"",""39771""
","""event"",""trial"",""time""
""fullscreenenter"",""1"",""12518""
","""event"",""trial"",""time""
""fullscreenexit"",""2"",""21696""
","","","1168.6999998092651","","","22","12645","5634","m","elianto","#f73b6a7A"," "," ","1","0","[2019.0999999046326]","1","2","","","12645","27","0","3","lose","go","0"
"pit-trial","149","2407932","0.0-32.0","battery-v0.2","","""event"",""trial"",""time""
""fullscreenenter"",""1"",""12518""
""fullscreenexit"",""2"",""21696""
""blur"",""2"",""24726""
""focus"",""2"",""39771""
","""event"",""trial"",""time""
""blur"",""2"",""24726""
","""event"",""trial"",""time""
""focus"",""2"",""39771""
","""event"",""trial"",""time""
""fullscreenenter"",""1"",""12518""
","""event"",""trial"",""time""
""fullscreenexit"",""2"",""21696""
","","","-1","","","22","12645","5634","h","elianto","#f73b6a7A","-1","-1","1","0","[]","0","2","","","12645","28","3","4","lose","no-go","0"
"pit-trial","150","2412803","0.0-33.0","battery-v0.2","","""event"",""trial"",""time""
""fullscreenenter"",""1"",""12518""
""fullscreenexit"",""2"",""21696""
""blur"",""2"",""24726""
""focus"",""2"",""39771""
","""event"",""trial"",""time""
""blur"",""2"",""24726""
","""event"",""trial"",""time""
""focus"",""2"",""39771""
","""event"",""trial"",""time""
""fullscreenenter"",""1"",""12518""
","""event"",""trial"",""time""
""fullscreenexit"",""2"",""21696""
","","","-1","","","22","12645","5634","y","elianto","#f73b6a7A"," ","-1","0","-10","[]","0","2","","","12645","29","2","3","lose","go","0"
"pit-trial","151","2416951","0.0-34.0","battery-v0.2","","""event"",""trial"",""time""
""fullscreenenter"",""1"",""12518""
""fullscreenexit"",""2"",""21696""
""blur"",""2"",""24726""
""focus"",""2"",""39771""
","""event"",""trial"",""time""
""blur"",""2"",""24726""
","""event"",""trial"",""time""
""focus"",""2"",""39771""
","""event"",""trial"",""time""
""fullscreenenter"",""1"",""12518""
","""event"",""trial"",""time""
""fullscreenexit"",""2"",""21696""
","","","1289","","","22","12645","5634","m","elianto","#f73b6a7A"," "," ","1","0","[2141.0999999046326]","1","2","","","12645","30","0","3","lose","go","0"
"pit-trial","152","2421472","0.0-35.0","battery-v0.2","","""event"",""trial"",""time""
""fullscreenenter"",""1"",""12518""
""fullscreenexit"",""2"",""21696""
""blur"",""2"",""24726""
""focus"",""2"",""39771""
","""event"",""trial"",""time""
""blur"",""2"",""24726""
","""event"",""trial"",""time""
""focus"",""2"",""39771""
","""event"",""trial"",""time""
""fullscreenenter"",""1"",""12518""
","""event"",""trial"",""time""
""fullscreenexit"",""2"",""21696""
","","","1655.3999996185303","","","22","12645","5634","h","elianto","#f73b6a7A","-1"," ","0","0","[2510.5]","1","2","","","12645","31","3","4","lose","no-go","1"
"pit-trial","153","2425634","0.0-36.0","battery-v0.2","","""event"",""trial"",""time""
""fullscreenenter"",""1"",""12518""
""fullscreenexit"",""2"",""21696""
""blur"",""2"",""24726""
""focus"",""2"",""39771""
","""event"",""trial"",""time""
""blur"",""2"",""24726""
","""event"",""trial"",""time""
""focus"",""2"",""39771""
","""event"",""trial"",""time""
""fullscreenenter"",""1"",""12518""
","""event"",""trial"",""time""
""fullscreenexit"",""2"",""21696""
","","","1294.7999997138977","","","22","12645","5634","r","elianto","#3366ff99","-1"," ","0","0","[2151.0999999046326]","1","2","","","12645","32","1","2","win","no-go","0"
