"trial_type","trial_index","time_elapsed","internal_node_id","task_version","subject_id","interactions","blur_events","focus_events","fullscreenenter_events","fullscreenexit_events","success","view_history","rt","responses","num_errors","age","subject","participantId","rune","rune_set","hex","correct","choice","accuracy","outcome","keys","total_keys","block","practice","value","sub","trial","stimulus","robot","valence","action","sham"
"pavlovia","0","3","0.0-0.0","battery-v0.2","","""event"",""trial"",""time""
""fullscreenenter"",""1"",""1003""
","
","
","""event"",""trial"",""time""
""fullscreenenter"",""1"",""1003""
","
","","","","","","","","","","","","","","","","","","","","","","","","","","",""
"fullscreen","1","1991","0.0-1.0","battery-v0.2","","""event"",""trial"",""time""
""fullscreenenter"",""1"",""1003""
","
","
","""event"",""trial"",""time""
""fullscreenenter"",""1"",""1003""
","
","true","","","","","","","","","","","","","","","","","","","","","","","","","",""
"pit-instructions","2","7630","0.0-2.0-0.0","battery-v0.2","","""event"",""trial"",""time""
""fullscreenenter"",""1"",""1003""
","
","
","""event"",""trial"",""time""
""fullscreenenter"",""1"",""1003""
","
","","[{""page_index"":0,""viewing_time"":5634.800000190735}]","5635.100000143051","","","","","","","","","","","","","","","","","","","","","","","",""
"pit-comprehension","3","10585","0.0-2.0-1.0-0.0","battery-v0.2","","""event"",""trial"",""time""
""fullscreenenter"",""1"",""1003""
","
","
","""event"",""trial"",""time""
""fullscreenenter"",""1"",""1003""
","
","","","2951.600000143051","[""shark""]","0","25","17722","440","","","","","","","","","","","","","","","","","","",""
"pit-instructions","4","15432","0.0-2.0-1.0-1.0","battery-v0.2","","""event"",""trial"",""time""
""fullscreenenter"",""1"",""1003""
","
","
","""event"",""trial"",""time""
""fullscreenenter"",""1"",""1003""
","
","","[{""page_index"":0,""viewing_time"":4836}]","4836.300000190735","","","","","","","","","","","","","","","","","","","","","","","",""
"pit-comprehension","5","17221","0.0-2.0-2.0-0.0","battery-v0.2","","""event"",""trial"",""time""
""fullscreenenter"",""1"",""1003""
","
","
","""event"",""trial"",""time""
""fullscreenenter"",""1"",""1003""
","
","","","1786.4000000953674","[""tiger""]","0","25","17722","440","","","","","","","","","","","","","","","","","","",""
"pit-instructions","6","18118","0.0-2.0-2.0-1.0","battery-v0.2","","""event"",""trial"",""time""
""fullscreenenter"",""1"",""1003""
","
","
","""event"",""trial"",""time""
""fullscreenenter"",""1"",""1003""
","
","","[{""page_index"":0,""viewing_time"":894.5}]","894.7000000476837","","","","","","","","","","","","","","","","","","","","","","","",""
"pit-instructions","7","113911","0.0-2.0-3.0","battery-v0.2","","""event"",""trial"",""time""
""fullscreenenter"",""1"",""1003""
","
","
","""event"",""trial"",""time""
""fullscreenenter"",""1"",""1003""
","
","","[{""page_index"":0,""viewing_time"":8218.200000047684},{""page_index"":1,""viewing_time"":6345.299999952316},{""page_index"":2,""viewing_time"":6718.5},{""page_index"":3,""viewing_time"":5491},{""page_index"":4,""viewing_time"":6135.299999952316},{""page_index"":5,""viewing_time"":5577.700000047684},{""page_index"":6,""viewing_time"":7133.5},{""page_index"":7,""viewing_time"":6848.399999856949},{""page_index"":8,""viewing_time"":7004.100000143051},{""page_index"":9,""viewing_time"":8833.599999904633},{""page_index"":10,""viewing_time"":7443.200000047684},{""page_index"":11,""viewing_time"":7900.400000095367},{""page_index"":12,""viewing_time"":6643.899999856949},{""page_index"":13,""viewing_time"":5496.700000047684}]","95790.20000004768","","","","","","","","","","","","","","","","","","","","","","","",""
"pit-trial","8","117353","0.0-2.0-4.0-0.0","battery-v0.2","","""event"",""trial"",""time""
""fullscreenenter"",""1"",""1003""
","
","
","""event"",""trial"",""time""
""fullscreenenter"",""1"",""1003""
","
","","","585.4000000953674","","","25","17722","440","&#9784;","elianto","#FFFFF080"," "," ","1","&#10004","[1436.2999999523163]","1","0","0","","","","","","","",""
"pit-trial","9","120715","0.0-2.0-4.1-0.1","battery-v0.2","","""event"",""trial"",""time""
""fullscreenenter"",""1"",""1003""
","
","
","""event"",""trial"",""time""
""fullscreenenter"",""1"",""1003""
","
","","","505.2999999523163","","","25","17722","440","&#9784;","elianto","#FFFFF080"," "," ","1","&#10004","[1356.2000000476837]","1","0","0","","","","","","","",""
"pit-trial","10","123977","0.0-2.0-4.2-0.2","battery-v0.2","","""event"",""trial"",""time""
""fullscreenenter"",""1"",""1003""
","
","
","""event"",""trial"",""time""
""fullscreenenter"",""1"",""1003""
","
","","","405.89999985694885","","","25","17722","440","&#9784;","elianto","#FFFFF080"," "," ","1","&#10004","[1257]","1","0","0","","","","","","","",""
"pit-trial","11","127175","0.0-2.0-4.3-0.3","battery-v0.2","","""event"",""trial"",""time""
""fullscreenenter"",""1"",""1003""
","
","
","""event"",""trial"",""time""
""fullscreenenter"",""1"",""1003""
","
","","","343.19999980926514","","","25","17722","440","&#9784;","elianto","#FFFFF080"," "," ","1","&#10004","[1193.7000000476837]","1","0","0","","","","","","","",""
"pit-trial","12","130492","0.0-2.0-4.4-0.4","battery-v0.2","","""event"",""trial"",""time""
""fullscreenenter"",""1"",""1003""
","
","
","""event"",""trial"",""time""
""fullscreenenter"",""1"",""1003""
","
","","","460.40000009536743","","","25","17722","440","&#9784;","elianto","#FFFFF080"," "," ","1","&#10004","[1311.3999998569489]","1","0","0","","","","","","","",""
"pit-instructions","13","152772","0.0-2.0-5.0","battery-v0.2","","""event"",""trial"",""time""
""fullscreenenter"",""1"",""1003""
","
","
","""event"",""trial"",""time""
""fullscreenenter"",""1"",""1003""
","
","","[{""page_index"":0,""viewing_time"":4641.100000143051},{""page_index"":1,""viewing_time"":6380.200000047684},{""page_index"":2,""viewing_time"":5690.799999952316},{""page_index"":3,""viewing_time"":5563.200000047684}]","22275.700000047684","","","","","","","","","","","","","","","","","","","","","","","",""
"pit-trial","14","157627","0.0-2.0-6.0-0.0","battery-v0.2","","""event"",""trial"",""time""
""fullscreenenter"",""1"",""1003""
","
","
","""event"",""trial"",""time""
""fullscreenenter"",""1"",""1003""
","
","","","-1","","","25","17722","440","&#9854;","elianto","#FFFFF080","-1","-1","1","&#10004","[]","0","0","1","","","","","","","",""
"pit-trial","15","162484","0.0-2.0-6.1-0.1","battery-v0.2","","""event"",""trial"",""time""
""fullscreenenter"",""1"",""1003""
","
","
","""event"",""trial"",""time""
""fullscreenenter"",""1"",""1003""
","
","","","-1","","","25","17722","440","&#9854;","elianto","#FFFFF080","-1","-1","1","&#10004","[]","0","0","1","","","","","","","",""
"pit-trial","16","167339","0.0-2.0-6.2-0.2","battery-v0.2","","""event"",""trial"",""time""
""fullscreenenter"",""1"",""1003""
","
","
","""event"",""trial"",""time""
""fullscreenenter"",""1"",""1003""
","
","","","-1","","","25","17722","440","&#9854;","elianto","#FFFFF080","-1","-1","1","&#10004","[]","0","0","1","","","","","","","",""
"pit-trial","17","172194","0.0-2.0-6.3-0.3","battery-v0.2","","""event"",""trial"",""time""
""fullscreenenter"",""1"",""1003""
","
","
","""event"",""trial"",""time""
""fullscreenenter"",""1"",""1003""
","
","","","-1","","","25","17722","440","&#9854;","elianto","#FFFFF080","-1","-1","1","&#10004","[]","0","0","1","","","","","","","",""
"pit-trial","18","177051","0.0-2.0-6.4-0.4","battery-v0.2","","""event"",""trial"",""time""
""fullscreenenter"",""1"",""1003""
","
","
","""event"",""trial"",""time""
""fullscreenenter"",""1"",""1003""
","
","","","-1","","","25","17722","440","&#9854;","elianto","#FFFFF080","-1","-1","1","&#10004","[]","0","0","1","","","","","","","",""
"pit-instructions","19","316550","0.0-2.0-7.0","battery-v0.2","","""event"",""trial"",""time""
""fullscreenenter"",""1"",""1003""
","
","
","""event"",""trial"",""time""
""fullscreenenter"",""1"",""1003""
","
","","[{""page_index"":0,""viewing_time"":5655.5},{""page_index"":1,""viewing_time"":7402.799999952316},{""page_index"":2,""viewing_time"":5863.100000143051},{""page_index"":3,""viewing_time"":6783.299999952316},{""page_index"":4,""viewing_time"":5550.599999904633},{""page_index"":5,""viewing_time"":5675.700000047684},{""page_index"":4,""viewing_time"":1099.1000001430511},{""page_index"":5,""viewing_time"":663.6999998092651},{""page_index"":4,""viewing_time"":348.2000000476837},{""page_index"":3,""viewing_time"":2026.6000001430511},{""page_index"":2,""viewing_time"":173.59999990463257},{""page_index"":1,""viewing_time"":745},{""page_index"":2,""viewing_time"":3907.2000000476837},{""page_index"":3,""viewing_time"":1386.7999999523163},{""page_index"":4,""viewing_time"":4871},{""page_index"":5,""viewing_time"":4436.599999904633},{""page_index"":6,""viewing_time"":4200.5},{""page_index"":7,""viewing_time"":7968},{""page_index"":8,""viewing_time"":6953.800000190735},{""page_index"":9,""viewing_time"":6509.5},{""page_index"":10,""viewing_time"":7293.099999904633},{""page_index"":11,""viewing_time"":5126.5},{""page_index"":12,""viewing_time"":9034.599999904633},{""page_index"":13,""viewing_time"":7369.700000047684},{""page_index"":14,""viewing_time"":7444.299999952316},{""page_index"":15,""viewing_time"":6963.800000190735},{""page_index"":16,""viewing_time"":6695.899999856949},{""page_index"":17,""viewing_time"":7345.600000143051}]","139494.5","","","","","","","","","","","","","","","","","","","","","","","",""
"pit-trial","20","319945","0.0-2.0-8.0-0.0","battery-v0.2","","""event"",""trial"",""time""
""fullscreenenter"",""1"",""1003""
","
","
","""event"",""trial"",""time""
""fullscreenenter"",""1"",""1003""
","
","","","540.3000001907349","","","25","17722","440","&#9776;","elianto","#3366ff99"," "," ","1","+10","[1391]","1","0","1","","","","","","","",""
"pit-trial","21","323199","0.0-2.0-8.0-1.0","battery-v0.2","","""event"",""trial"",""time""
""fullscreenenter"",""1"",""1003""
","
","
","""event"",""trial"",""time""
""fullscreenenter"",""1"",""1003""
","
","","","398.7000000476837","","","25","17722","440","&#9776;","elianto","#3366ff99"," "," ","1","+10","[1249.7999999523163]","1","0","1","","","","","","","",""
"pit-trial","22","326435","0.0-2.0-8.0-2.0","battery-v0.2","","""event"",""trial"",""time""
""fullscreenenter"",""1"",""1003""
","
","
","""event"",""trial"",""time""
""fullscreenenter"",""1"",""1003""
","
","","","380.2000000476837","","","25","17722","440","&#9776;","elianto","#3366ff99"," "," ","1","+10","[1231.1000001430511]","1","0","1","","","","","","","",""
"pit-trial","23","329680","0.0-2.0-8.0-3.0","battery-v0.2","","""event"",""trial"",""time""
""fullscreenenter"",""1"",""1003""
","
","
","""event"",""trial"",""time""
""fullscreenenter"",""1"",""1003""
","
","","","389.5","","","25","17722","440","&#9776;","elianto","#3366ff99"," "," ","1","0","[1240.7000000476837]","1","0","1","","","","","","","",""
"pit-trial","24","332950","0.0-2.0-8.0-4.0","battery-v0.2","","""event"",""trial"",""time""
""fullscreenenter"",""1"",""1003""
","
","
","""event"",""trial"",""time""
""fullscreenenter"",""1"",""1003""
","
","","","416.40000009536743","","","25","17722","440","&#9776;","elianto","#3366ff99"," "," ","1","+10","[1267.2000000476837]","1","0","1","","","","","","","",""
"pit-trial","25","336201","0.0-2.0-8.1-0.1","battery-v0.2","","""event"",""trial"",""time""
""fullscreenenter"",""1"",""1003""
","
","
","""event"",""trial"",""time""
""fullscreenenter"",""1"",""1003""
","
","","","394.7000000476837","","","25","17722","440","&#9776;","elianto","#3366ff99"," "," ","1","+10","[1245.2000000476837]","1","0","1","","","","","","","",""
"pit-trial","26","339456","0.0-2.0-8.1-1.1","battery-v0.2","","""event"",""trial"",""time""
""fullscreenenter"",""1"",""1003""
","
","
","""event"",""trial"",""time""
""fullscreenenter"",""1"",""1003""
","
","","","401.09999990463257","","","25","17722","440","&#9776;","elianto","#3366ff99"," "," ","1","+10","[1251.9000000953674]","1","0","1","","","","","","","",""
"pit-trial","27","342747","0.0-2.0-8.1-2.1","battery-v0.2","","""event"",""trial"",""time""
""fullscreenenter"",""1"",""1003""
","
","
","""event"",""trial"",""time""
""fullscreenenter"",""1"",""1003""
","
","","","436.10000014305115","","","25","17722","440","&#9776;","elianto","#3366ff99"," "," ","1","+10","[1287.0999999046326]","1","0","1","","","","","","","",""
"pit-trial","28","346033","0.0-2.0-8.1-3.1","battery-v0.2","","""event"",""trial"",""time""
""fullscreenenter"",""1"",""1003""
","
","
","""event"",""trial"",""time""
""fullscreenenter"",""1"",""1003""
","
","","","431.09999990463257","","","25","17722","440","&#9776;","elianto","#3366ff99"," "," ","1","0","[1282.5]","1","0","1","","","","","","","",""
"pit-trial","29","349291","0.0-2.0-8.1-4.1","battery-v0.2","","""event"",""trial"",""time""
""fullscreenenter"",""1"",""1003""
","
","
","""event"",""trial"",""time""
""fullscreenenter"",""1"",""1003""
","
","","","403.90000009536743","","","25","17722","440","&#9776;","elianto","#3366ff99"," "," ","1","+10","[1254.0999999046326]","1","0","1","","","","","","","",""
"pit-trial","30","352522","0.0-2.0-8.2-0.2","battery-v0.2","","""event"",""trial"",""time""
""fullscreenenter"",""1"",""1003""
","
","
","""event"",""trial"",""time""
""fullscreenenter"",""1"",""1003""
","
","","","374","","","25","17722","440","&#9776;","elianto","#3366ff99"," "," ","1","+10","[1224.9000000953674]","1","0","1","","","","","","","",""
"pit-trial","31","355777","0.0-2.0-8.2-1.2","battery-v0.2","","""event"",""trial"",""time""
""fullscreenenter"",""1"",""1003""
","
","
","""event"",""trial"",""time""
""fullscreenenter"",""1"",""1003""
","
","","","399.59999990463257","","","25","17722","440","&#9776;","elianto","#3366ff99"," "," ","1","+10","[1249.9000000953674]","1","0","1","","","","","","","",""
"pit-trial","32","359040","0.0-2.0-8.2-2.2","battery-v0.2","","""event"",""trial"",""time""
""fullscreenenter"",""1"",""1003""
","
","
","""event"",""trial"",""time""
""fullscreenenter"",""1"",""1003""
","
","","","408.2000000476837","","","25","17722","440","&#9776;","elianto","#3366ff99"," "," ","1","+10","[1259.3000001907349]","1","0","1","","","","","","","",""
"pit-trial","33","362354","0.0-2.0-8.2-3.2","battery-v0.2","","""event"",""trial"",""time""
""fullscreenenter"",""1"",""1003""
","
","
","""event"",""trial"",""time""
""fullscreenenter"",""1"",""1003""
","
","","","458.7000000476837","","","25","17722","440","&#9776;","elianto","#3366ff99"," "," ","1","0","[1309.5999999046326]","1","0","1","","","","","","","",""
"pit-trial","34","365655","0.0-2.0-8.2-4.2","battery-v0.2","","""event"",""trial"",""time""
""fullscreenenter"",""1"",""1003""
","
","
","""event"",""trial"",""time""
""fullscreenenter"",""1"",""1003""
","
","","","446.7000000476837","","","25","17722","440","&#9776;","elianto","#3366ff99"," "," ","1","+10","[1297.5]","1","0","1","","","","","","","",""
"call-function","35","365658","0.0-2.0-9.0","battery-v0.2","","""event"",""trial"",""time""
""fullscreenenter"",""1"",""1003""
","
","
","""event"",""trial"",""time""
""fullscreenenter"",""1"",""1003""
","
","","","","","","","","","","","","","","","","","","","","","","","","","","",""
"pit-instructions","36","406145","0.0-2.0-10.0","battery-v0.2","","""event"",""trial"",""time""
""fullscreenenter"",""1"",""1003""
","
","
","""event"",""trial"",""time""
""fullscreenenter"",""1"",""1003""
","
","","[{""page_index"":0,""viewing_time"":6623.400000095367},{""page_index"":1,""viewing_time"":6243.200000047684},{""page_index"":2,""viewing_time"":9702},{""page_index"":3,""viewing_time"":9817},{""page_index"":4,""viewing_time"":8100}]","40485.799999952316","","","","","","","","","","","","","","","","","","","","","","","",""
"pit-trial","37","410269","0.0-2.0-11.0-0.0","battery-v0.2","","""event"",""trial"",""time""
""fullscreenenter"",""1"",""1003""
","
","
","""event"",""trial"",""time""
""fullscreenenter"",""1"",""1003""
","
","","","1269.5999999046326","","","25","17722","440","&#9761;","elianto","#3366ff99","-1"," ","0","0","[2121.2000000476837]","1","0","2","","","","","","","",""
"pit-trial","38","413713","0.0-2.0-11.0-1.0","battery-v0.2","","""event"",""trial"",""time""
""fullscreenenter"",""1"",""1003""
","
","
","""event"",""trial"",""time""
""fullscreenenter"",""1"",""1003""
","
","","","588.8999998569489","","","25","17722","440","&#9761;","elianto","#3366ff99","-1"," ","0","0","[1439.7999999523163]","1","0","2","","","","","","","",""
"pit-trial","39","417056","0.0-2.0-11.0-2.0","battery-v0.2","","""event"",""trial"",""time""
""fullscreenenter"",""1"",""1003""
","
","
","""event"",""trial"",""time""
""fullscreenenter"",""1"",""1003""
","
","","","487.09999990463257","","","25","17722","440","&#9761;","elianto","#3366ff99","-1"," ","0","0","[1338.7000000476837]","1","0","2","","","","","","","",""
"pit-trial","40","421912","0.0-2.0-11.0-3.0","battery-v0.2","","""event"",""trial"",""time""
""fullscreenenter"",""1"",""1003""
","
","
","""event"",""trial"",""time""
""fullscreenenter"",""1"",""1003""
","
","","","-1","","","25","17722","440","&#9761;","elianto","#3366ff99","-1","-1","1","0","[]","0","0","2","","","","","","","",""
"pit-trial","41","425402","0.0-2.0-11.0-4.0","battery-v0.2","","""event"",""trial"",""time""
""fullscreenenter"",""1"",""1003""
","
","
","""event"",""trial"",""time""
""fullscreenenter"",""1"",""1003""
","
","","","635.0999999046326","","","25","17722","440","&#9761;","elianto","#3366ff99","-1"," ","0","0","[1486.2000000476837]","1","0","2","","","","","","","",""
"pit-trial","42","430260","0.0-2.0-11.1-0.1","battery-v0.2","","""event"",""trial"",""time""
""fullscreenenter"",""1"",""1003""
","
","
","""event"",""trial"",""time""
""fullscreenenter"",""1"",""1003""
","
","","","-1","","","25","17722","440","&#9761;","elianto","#3366ff99","-1","-1","1","+10","[]","0","0","2","","","","","","","",""
"pit-trial","43","435115","0.0-2.0-11.1-1.1","battery-v0.2","","""event"",""trial"",""time""
""fullscreenenter"",""1"",""1003""
","
","
","""event"",""trial"",""time""
""fullscreenenter"",""1"",""1003""
","
","","","-1","","","25","17722","440","&#9761;","elianto","#3366ff99","-1","-1","1","+10","[]","0","0","2","","","","","","","",""
"pit-trial","44","439971","0.0-2.0-11.1-2.1","battery-v0.2","","""event"",""trial"",""time""
""fullscreenenter"",""1"",""1003""
","
","
","""event"",""trial"",""time""
""fullscreenenter"",""1"",""1003""
","
","","","-1","","","25","17722","440","&#9761;","elianto","#3366ff99","-1","-1","1","+10","[]","0","0","2","","","","","","","",""
"pit-trial","45","444826","0.0-2.0-11.1-3.1","battery-v0.2","","""event"",""trial"",""time""
""fullscreenenter"",""1"",""1003""
","
","
","""event"",""trial"",""time""
""fullscreenenter"",""1"",""1003""
","
","","","-1","","","25","17722","440","&#9761;","elianto","#3366ff99","-1","-1","1","0","[]","0","0","2","","","","","","","",""
"pit-trial","46","449680","0.0-2.0-11.1-4.1","battery-v0.2","","""event"",""trial"",""time""
""fullscreenenter"",""1"",""1003""
","
","
","""event"",""trial"",""time""
""fullscreenenter"",""1"",""1003""
","
","","","-1","","","25","17722","440","&#9761;","elianto","#3366ff99","-1","-1","1","+10","[]","0","0","2","","","","","","","",""
"pit-trial","47","454537","0.0-2.0-11.2-0.2","battery-v0.2","","""event"",""trial"",""time""
""fullscreenenter"",""1"",""1003""
","
","
","""event"",""trial"",""time""
""fullscreenenter"",""1"",""1003""
","
","","","-1","","","25","17722","440","&#9761;","elianto","#3366ff99","-1","-1","1","+10","[]","0","0","2","","","","","","","",""
"pit-trial","48","459391","0.0-2.0-11.2-1.2","battery-v0.2","","""event"",""trial"",""time""
""fullscreenenter"",""1"",""1003""
","
","
","""event"",""trial"",""time""
""fullscreenenter"",""1"",""1003""
","
","","","-1","","","25","17722","440","&#9761;","elianto","#3366ff99","-1","-1","1","+10","[]","0","0","2","","","","","","","",""
"pit-trial","49","464247","0.0-2.0-11.2-2.2","battery-v0.2","","""event"",""trial"",""time""
""fullscreenenter"",""1"",""1003""
","
","
","""event"",""trial"",""time""
""fullscreenenter"",""1"",""1003""
","
","","","-1","","","25","17722","440","&#9761;","elianto","#3366ff99","-1","-1","1","+10","[]","0","0","2","","","","","","","",""
"pit-trial","50","469102","0.0-2.0-11.2-3.2","battery-v0.2","","""event"",""trial"",""time""
""fullscreenenter"",""1"",""1003""
","
","
","""event"",""trial"",""time""
""fullscreenenter"",""1"",""1003""
","
","","","-1","","","25","17722","440","&#9761;","elianto","#3366ff99","-1","-1","1","0","[]","0","0","2","","","","","","","",""
"pit-trial","51","473957","0.0-2.0-11.2-4.2","battery-v0.2","","""event"",""trial"",""time""
""fullscreenenter"",""1"",""1003""
","
","
","""event"",""trial"",""time""
""fullscreenenter"",""1"",""1003""
","
","","","-1","","","25","17722","440","&#9761;","elianto","#3366ff99","-1","-1","1","+10","[]","0","0","2","","","","","","","",""
"pit-trial","52","478814","0.0-2.0-11.3-0.3","battery-v0.2","","""event"",""trial"",""time""
""fullscreenenter"",""1"",""1003""
","
","
","""event"",""trial"",""time""
""fullscreenenter"",""1"",""1003""
","
","","","-1","","","25","17722","440","&#9761;","elianto","#3366ff99","-1","-1","1","+10","[]","0","0","2","","","","","","","",""
"pit-trial","53","483670","0.0-2.0-11.3-1.3","battery-v0.2","","""event"",""trial"",""time""
""fullscreenenter"",""1"",""1003""
","
","
","""event"",""trial"",""time""
""fullscreenenter"",""1"",""1003""
","
","","","-1","","","25","17722","440","&#9761;","elianto","#3366ff99","-1","-1","1","+10","[]","0","0","2","","","","","","","",""
"pit-trial","54","488525","0.0-2.0-11.3-2.3","battery-v0.2","","""event"",""trial"",""time""
""fullscreenenter"",""1"",""1003""
","
","
","""event"",""trial"",""time""
""fullscreenenter"",""1"",""1003""
","
","","","-1","","","25","17722","440","&#9761;","elianto","#3366ff99","-1","-1","1","+10","[]","0","0","2","","","","","","","",""
"pit-trial","55","493381","0.0-2.0-11.3-3.3","battery-v0.2","","""event"",""trial"",""time""
""fullscreenenter"",""1"",""1003""
","
","
","""event"",""trial"",""time""
""fullscreenenter"",""1"",""1003""
","
","","","-1","","","25","17722","440","&#9761;","elianto","#3366ff99","-1","-1","1","0","[]","0","0","2","","","","","","","",""
"pit-trial","56","498236","0.0-2.0-11.3-4.3","battery-v0.2","","""event"",""trial"",""time""
""fullscreenenter"",""1"",""1003""
","
","
","""event"",""trial"",""time""
""fullscreenenter"",""1"",""1003""
","
","","","-1","","","25","17722","440","&#9761;","elianto","#3366ff99","-1","-1","1","+10","[]","0","0","2","","","","","","","",""
"call-function","57","498238","0.0-2.0-12.0","battery-v0.2","","""event"",""trial"",""time""
""fullscreenenter"",""1"",""1003""
","
","
","""event"",""trial"",""time""
""fullscreenenter"",""1"",""1003""
","
","","","","","","","","","","","","","","","","","","","","","","","","","","",""
"pit-instructions","58","527359","0.0-2.0-13.0","battery-v0.2","","""event"",""trial"",""time""
""fullscreenenter"",""1"",""1003""
","
","
","""event"",""trial"",""time""
""fullscreenenter"",""1"",""1003""
","
","","[{""page_index"":0,""viewing_time"":4639.299999952316},{""page_index"":1,""viewing_time"":6862},{""page_index"":2,""viewing_time"":3421.5999999046326},{""page_index"":3,""viewing_time"":10180.700000047684},{""page_index"":4,""viewing_time"":4015.5}]","29119.5","","","","","","","","","","","","","","","","","","","","","","","",""
"pit-trial","59","532213","0.0-2.0-14.0-0.0","battery-v0.2","","""event"",""trial"",""time""
""fullscreenenter"",""1"",""1003""
","
","
","""event"",""trial"",""time""
""fullscreenenter"",""1"",""1003""
","
","","","-1","","","25","17722","440","&#9826;","elianto","#f73b6a7A","-1","-1","1","0","[]","0","0","3","","","","","","","",""
"pit-trial","60","537069","0.0-2.0-14.0-1.0","battery-v0.2","","""event"",""trial"",""time""
""fullscreenenter"",""1"",""1003""
","
","
","""event"",""trial"",""time""
""fullscreenenter"",""1"",""1003""
","
","","","-1","","","25","17722","440","&#9826;","elianto","#f73b6a7A","-1","-1","1","0","[]","0","0","3","","","","","","","",""
"pit-trial","61","541925","0.0-2.0-14.0-2.0","battery-v0.2","","""event"",""trial"",""time""
""fullscreenenter"",""1"",""1003""
","
","
","""event"",""trial"",""time""
""fullscreenenter"",""1"",""1003""
","
","","","-1","","","25","17722","440","&#9826;","elianto","#f73b6a7A","-1","-1","1","0","[]","0","0","3","","","","","","","",""
"pit-trial","62","545222","0.0-2.0-14.0-3.0","battery-v0.2","","""event"",""trial"",""time""
""fullscreenenter"",""1"",""1003""
","
","
","""event"",""trial"",""time""
""fullscreenenter"",""1"",""1003""
","
","","","443.7000000476837","","","25","17722","440","&#9826;","elianto","#f73b6a7A","-1"," ","0","0","[1294]","1","0","3","","","","","","","",""
"pit-trial","63","549996","0.0-2.0-14.0-4.0","battery-v0.2","","""event"",""trial"",""time""
""fullscreenenter"",""1"",""1003""
","
","
","""event"",""trial"",""time""
""fullscreenenter"",""1"",""1003""
","
","","","1917.5999999046326","","","25","17722","440","&#9826;","elianto","#f73b6a7A","-1"," ","0","-10","[2769.2000000476837]","1","0","3","","","","","","","",""
"pit-trial","64","554852","0.0-2.0-14.1-0.1","battery-v0.2","","""event"",""trial"",""time""
""fullscreenenter"",""1"",""1003""
","
","
","""event"",""trial"",""time""
""fullscreenenter"",""1"",""1003""
","
","","","-1","","","25","17722","440","&#9826;","elianto","#f73b6a7A","-1","-1","1","0","[]","0","0","3","","","","","","","",""
"pit-trial","65","559707","0.0-2.0-14.1-1.1","battery-v0.2","","""event"",""trial"",""time""
""fullscreenenter"",""1"",""1003""
","
","
","""event"",""trial"",""time""
""fullscreenenter"",""1"",""1003""
","
","","","-1","","","25","17722","440","&#9826;","elianto","#f73b6a7A","-1","-1","1","0","[]","0","0","3","","","","","","","",""
"pit-trial","66","564563","0.0-2.0-14.1-2.1","battery-v0.2","","""event"",""trial"",""time""
""fullscreenenter"",""1"",""1003""
","
","
","""event"",""trial"",""time""
""fullscreenenter"",""1"",""1003""
","
","","","-1","","","25","17722","440","&#9826;","elianto","#f73b6a7A","-1","-1","1","0","[]","0","0","3","","","","","","","",""
"pit-trial","67","569419","0.0-2.0-14.1-3.1","battery-v0.2","","""event"",""trial"",""time""
""fullscreenenter"",""1"",""1003""
","
","
","""event"",""trial"",""time""
""fullscreenenter"",""1"",""1003""
","
","","","-1","","","25","17722","440","&#9826;","elianto","#f73b6a7A","-1","-1","1","-10","[]","0","0","3","","","","","","","",""
"pit-trial","68","573542","0.0-2.0-14.1-4.1","battery-v0.2","","""event"",""trial"",""time""
""fullscreenenter"",""1"",""1003""
","
","
","""event"",""trial"",""time""
""fullscreenenter"",""1"",""1003""
","
","","","1268.0999999046326","","","25","17722","440","&#9826;","elianto","#f73b6a7A","-1"," ","0","-10","[2118.800000190735]","1","0","3","","","","","","","",""
"pit-trial","69","578397","0.0-2.0-14.2-0.2","battery-v0.2","","""event"",""trial"",""time""
""fullscreenenter"",""1"",""1003""
","
","
","""event"",""trial"",""time""
""fullscreenenter"",""1"",""1003""
","
","","","-1","","","25","17722","440","&#9826;","elianto","#f73b6a7A","-1","-1","1","0","[]","0","0","3","","","","","","","",""
"pit-trial","70","583252","0.0-2.0-14.2-1.2","battery-v0.2","","""event"",""trial"",""time""
""fullscreenenter"",""1"",""1003""
","
","
","""event"",""trial"",""time""
""fullscreenenter"",""1"",""1003""
","
","","","-1","","","25","17722","440","&#9826;","elianto","#f73b6a7A","-1","-1","1","0","[]","0","0","3","","","","","","","",""
"pit-trial","71","588108","0.0-2.0-14.2-2.2","battery-v0.2","","""event"",""trial"",""time""
""fullscreenenter"",""1"",""1003""
","
","
","""event"",""trial"",""time""
""fullscreenenter"",""1"",""1003""
","
","","","-1","","","25","17722","440","&#9826;","elianto","#f73b6a7A","-1","-1","1","0","[]","0","0","3","","","","","","","",""
"pit-trial","72","592964","0.0-2.0-14.2-3.2","battery-v0.2","","""event"",""trial"",""time""
""fullscreenenter"",""1"",""1003""
","
","
","""event"",""trial"",""time""
""fullscreenenter"",""1"",""1003""
","
","","","-1","","","25","17722","440","&#9826;","elianto","#f73b6a7A","-1","-1","1","-10","[]","0","0","3","","","","","","","",""
"pit-trial","73","597820","0.0-2.0-14.2-4.2","battery-v0.2","","""event"",""trial"",""time""
""fullscreenenter"",""1"",""1003""
","
","
","""event"",""trial"",""time""
""fullscreenenter"",""1"",""1003""
","
","","","-1","","","25","17722","440","&#9826;","elianto","#f73b6a7A","-1","-1","1","0","[]","0","0","3","","","","","","","",""
"pit-trial","74","602676","0.0-2.0-14.3-0.3","battery-v0.2","","""event"",""trial"",""time""
""fullscreenenter"",""1"",""1003""
","
","
","""event"",""trial"",""time""
""fullscreenenter"",""1"",""1003""
","
","","","-1","","","25","17722","440","&#9826;","elianto","#f73b6a7A","-1","-1","1","0","[]","0","0","3","","","","","","","",""
"pit-trial","75","607531","0.0-2.0-14.3-1.3","battery-v0.2","","""event"",""trial"",""time""
""fullscreenenter"",""1"",""1003""
","
","
","""event"",""trial"",""time""
""fullscreenenter"",""1"",""1003""
","
","","","-1","","","25","17722","440","&#9826;","elianto","#f73b6a7A","-1","-1","1","0","[]","0","0","3","","","","","","","",""
"pit-trial","76","612388","0.0-2.0-14.3-2.3","battery-v0.2","","""event"",""trial"",""time""
""fullscreenenter"",""1"",""1003""
","
","
","""event"",""trial"",""time""
""fullscreenenter"",""1"",""1003""
","
","","","-1","","","25","17722","440","&#9826;","elianto","#f73b6a7A","-1","-1","1","0","[]","0","0","3","","","","","","","",""
"pit-trial","77","617243","0.0-2.0-14.3-3.3","battery-v0.2","","""event"",""trial"",""time""
""fullscreenenter"",""1"",""1003""
","
","
","""event"",""trial"",""time""
""fullscreenenter"",""1"",""1003""
","
","","","-1","","","25","17722","440","&#9826;","elianto","#f73b6a7A","-1","-1","1","-10","[]","0","0","3","","","","","","","",""
"pit-trial","78","622098","0.0-2.0-14.3-4.3","battery-v0.2","","""event"",""trial"",""time""
""fullscreenenter"",""1"",""1003""
","
","
","""event"",""trial"",""time""
""fullscreenenter"",""1"",""1003""
","
","","","-1","","","25","17722","440","&#9826;","elianto","#f73b6a7A","-1","-1","1","0","[]","0","0","3","","","","","","","",""
"call-function","79","622100","0.0-2.0-15.0","battery-v0.2","","""event"",""trial"",""time""
""fullscreenenter"",""1"",""1003""
","
","
","""event"",""trial"",""time""
""fullscreenenter"",""1"",""1003""
","
","","","","","","","","","","","","","","","","","","","","","","","","","","",""
"pit-instructions","80","645004","0.0-2.0-16.0","battery-v0.2","","""event"",""trial"",""time""
""fullscreenenter"",""1"",""1003""
","
","
","""event"",""trial"",""time""
""fullscreenenter"",""1"",""1003""
","
","","[{""page_index"":0,""viewing_time"":6447.900000095367},{""page_index"":1,""viewing_time"":8114.5},{""page_index"":2,""viewing_time"":4188.700000047684},{""page_index"":3,""viewing_time"":4152}]","22903.300000190735","","","","","","","","","","","","","","","","","","","","","","","",""
"pit-trial","81","648476","0.0-2.0-17.0-0.0","battery-v0.2","","""event"",""trial"",""time""
""fullscreenenter"",""1"",""1003""
","
","
","""event"",""trial"",""time""
""fullscreenenter"",""1"",""1003""
","
","","","617.7000000476837","","","25","17722","440","&#9789;","elianto","#f73b6a7A"," "," ","1","0","[1468.7000000476837]","1","0","4","","","","","","","",""
"pit-trial","82","653331","0.0-2.0-17.0-1.0","battery-v0.2","","""event"",""trial"",""time""
""fullscreenenter"",""1"",""1003""
","
","
","""event"",""trial"",""time""
""fullscreenenter"",""1"",""1003""
","
","","","-1","","","25","17722","440","&#9789;","elianto","#f73b6a7A"," ","-1","0","-10","[]","0","0","4","","","","","","","",""
"pit-trial","83","656584","0.0-2.0-17.0-2.0","battery-v0.2","","""event"",""trial"",""time""
""fullscreenenter"",""1"",""1003""
","
","
","""event"",""trial"",""time""
""fullscreenenter"",""1"",""1003""
","
","","","398.80000019073486","","","25","17722","440","&#9789;","elianto","#f73b6a7A"," "," ","1","0","[1249.8999998569489]","1","0","4","","","","","","","",""
"pit-trial","84","659837","0.0-2.0-17.0-3.0","battery-v0.2","","""event"",""trial"",""time""
""fullscreenenter"",""1"",""1003""
","
","
","""event"",""trial"",""time""
""fullscreenenter"",""1"",""1003""
","
","","","398.60000014305115","","","25","17722","440","&#9789;","elianto","#f73b6a7A"," "," ","1","-10","[1249.5]","1","0","4","","","","","","","",""
"pit-trial","85","663037","0.0-2.0-17.0-4.0","battery-v0.2","","""event"",""trial"",""time""
""fullscreenenter"",""1"",""1003""
","
","
","""event"",""trial"",""time""
""fullscreenenter"",""1"",""1003""
","
","","","345","","","25","17722","440","&#9789;","elianto","#f73b6a7A"," "," ","1","0","[1195.7000000476837]","1","0","4","","","","","","","",""
"pit-trial","86","665998","0.0-2.0-17.1-0.1","battery-v0.2","","""event"",""trial"",""time""
""fullscreenenter"",""1"",""1003""
","
","
","""event"",""trial"",""time""
""fullscreenenter"",""1"",""1003""
","
","","","104.60000014305115","","","25","17722","440","&#9789;","elianto","#f73b6a7A"," "," ","1","0","[955.9000000953674]","1","0","4","","","","","","","",""
"pit-trial","87","670854","0.0-2.0-17.1-1.1","battery-v0.2","","""event"",""trial"",""time""
""fullscreenenter"",""1"",""1003""
","
","
","""event"",""trial"",""time""
""fullscreenenter"",""1"",""1003""
","
","","","-1","","","25","17722","440","&#9789;","elianto","#f73b6a7A"," ","-1","0","-10","[]","0","0","4","","","","","","","",""
"pit-trial","88","674015","0.0-2.0-17.1-2.1","battery-v0.2","","""event"",""trial"",""time""
""fullscreenenter"",""1"",""1003""
","
","
","""event"",""trial"",""time""
""fullscreenenter"",""1"",""1003""
","
","","","306.10000014305115","","","25","17722","440","&#9789;","elianto","#f73b6a7A"," "," ","1","0","[1157.5]","1","0","4","","","","","","","",""
"pit-trial","89","677053","0.0-2.0-17.1-3.1","battery-v0.2","","""event"",""trial"",""time""
""fullscreenenter"",""1"",""1003""
","
","
","""event"",""trial"",""time""
""fullscreenenter"",""1"",""1003""
","
","","","182.09999990463257","","","25","17722","440","&#9789;","elianto","#f73b6a7A"," "," ","1","-10","[1032.8999998569489]","1","0","4","","","","","","","",""
"pit-trial","90","680559","0.0-2.0-17.1-4.1","battery-v0.2","","""event"",""trial"",""time""
""fullscreenenter"",""1"",""1003""
","
","
","""event"",""trial"",""time""
""fullscreenenter"",""1"",""1003""
","
","","","651.0999999046326","","","25","17722","440","&#9789;","elianto","#f73b6a7A"," "," ","1","0","[1502.1999998092651]","1","0","4","","","","","","","",""
"pit-trial","91","683577","0.0-2.0-17.2-0.2","battery-v0.2","","""event"",""trial"",""time""
""fullscreenenter"",""1"",""1003""
","
","
","""event"",""trial"",""time""
""fullscreenenter"",""1"",""1003""
","
","","","162.80000019073486","","","25","17722","440","&#9789;","elianto","#f73b6a7A"," "," ","1","0","[1013.5]","1","0","4","","","","","","","",""
"pit-trial","92","686895","0.0-2.0-17.2-1.2","battery-v0.2","","""event"",""trial"",""time""
""fullscreenenter"",""1"",""1003""
","
","
","""event"",""trial"",""time""
""fullscreenenter"",""1"",""1003""
","
","","","464","","","25","17722","440","&#9789;","elianto","#f73b6a7A"," "," ","1","0","[1314.7000000476837]","1","0","4","","","","","","","",""
"pit-trial","93","690164","0.0-2.0-17.2-2.2","battery-v0.2","","""event"",""trial"",""time""
""fullscreenenter"",""1"",""1003""
","
","
","""event"",""trial"",""time""
""fullscreenenter"",""1"",""1003""
","
","","","413.59999990463257","","","25","17722","440","&#9789;","elianto","#f73b6a7A"," "," ","1","0","[1264.5]","1","0","4","","","","","","","",""
"pit-trial","94","693568","0.0-2.0-17.2-3.2","battery-v0.2","","""event"",""trial"",""time""
""fullscreenenter"",""1"",""1003""
","
","
","""event"",""trial"",""time""
""fullscreenenter"",""1"",""1003""
","
","","","549.8999998569489","","","25","17722","440","&#9789;","elianto","#f73b6a7A"," "," ","1","-10","[1400.6999998092651]","1","0","4","","","","","","","",""
"pit-trial","95","696716","0.0-2.0-17.2-4.2","battery-v0.2","","""event"",""trial"",""time""
""fullscreenenter"",""1"",""1003""
","
","
","""event"",""trial"",""time""
""fullscreenenter"",""1"",""1003""
","
","","","293.5","","","25","17722","440","&#9789;","elianto","#f73b6a7A"," "," ","1","0","[1144.5]","1","0","4","","","","","","","",""
"pit-trial","96","701573","0.0-2.0-17.3-0.3","battery-v0.2","","""event"",""trial"",""time""
""fullscreenenter"",""1"",""1003""
","
","
","""event"",""trial"",""time""
""fullscreenenter"",""1"",""1003""
","
","","","-1","","","25","17722","440","&#9789;","elianto","#f73b6a7A"," ","-1","0","-10","[]","0","0","4","","","","","","","",""
"pit-trial","97","706429","0.0-2.0-17.3-1.3","battery-v0.2","","""event"",""trial"",""time""
""fullscreenenter"",""1"",""1003""
","
","
","""event"",""trial"",""time""
""fullscreenenter"",""1"",""1003""
","
","","","-1","","","25","17722","440","&#9789;","elianto","#f73b6a7A"," ","-1","0","-10","[]","0","0","4","","","","","","","",""
"pit-trial","98","711285","0.0-2.0-17.3-2.3","battery-v0.2","","""event"",""trial"",""time""
""fullscreenenter"",""1"",""1003""
","
","
","""event"",""trial"",""time""
""fullscreenenter"",""1"",""1003""
","
","","","-1","","","25","17722","440","&#9789;","elianto","#f73b6a7A"," ","-1","0","-10","[]","0","0","4","","","","","","","",""
"pit-trial","99","716141","0.0-2.0-17.3-3.3","battery-v0.2","","""event"",""trial"",""time""
""fullscreenenter"",""1"",""1003""
","
","
","""event"",""trial"",""time""
""fullscreenenter"",""1"",""1003""
","
","","","-1","","","25","17722","440","&#9789;","elianto","#f73b6a7A"," ","-1","0","0","[]","0","0","4","","","","","","","",""
"pit-trial","100","720996","0.0-2.0-17.3-4.3","battery-v0.2","","""event"",""trial"",""time""
""fullscreenenter"",""1"",""1003""
","
","
","""event"",""trial"",""time""
""fullscreenenter"",""1"",""1003""
","
","","","-1","","","25","17722","440","&#9789;","elianto","#f73b6a7A"," ","-1","0","-10","[]","0","0","4","","","","","","","",""
"call-function","101","720998","0.0-2.0-18.0","battery-v0.2","","""event"",""trial"",""time""
""fullscreenenter"",""1"",""1003""
","
","
","""event"",""trial"",""time""
""fullscreenenter"",""1"",""1003""
","
","","","","","","","","","","","","","","","","","","","","","","","","","","",""
"pit-instructions","102","841396","0.0-2.0-19.0","battery-v0.2","","""event"",""trial"",""time""
""fullscreenenter"",""1"",""1003""
","
","
","""event"",""trial"",""time""
""fullscreenenter"",""1"",""1003""
","
","","[{""page_index"":0,""viewing_time"":59088.10000014305},{""page_index"":1,""viewing_time"":21817.799999952316},{""page_index"":2,""viewing_time"":8134.899999856949},{""page_index"":3,""viewing_time"":4059},{""page_index"":4,""viewing_time"":6148.300000190735},{""page_index"":5,""viewing_time"":9098.299999952316},{""page_index"":6,""viewing_time"":4168.5},{""page_index"":7,""viewing_time"":4050.7000000476837},{""page_index"":8,""viewing_time"":3827.399999856949}]","120393.5","","","","","","","","","","","","","","","","","","","","","","","",""
"pit-comprehension","103","845781","0.0-2.0-20.0-0.0","battery-v0.2","","""event"",""trial"",""time""
""fullscreenenter"",""1"",""1003""
","
","
","""event"",""trial"",""time""
""fullscreenenter"",""1"",""1003""
","
","","","4380.5","[""SPACE""]","0","25","17722","440","","","","","","","","","","","","","","","","","","",""
"pit-instructions","104","848182","0.0-2.0-20.0-1.0","battery-v0.2","","""event"",""trial"",""time""
""fullscreenenter"",""1"",""1003""
","
","
","""event"",""trial"",""time""
""fullscreenenter"",""1"",""1003""
","
","","[{""page_index"":0,""viewing_time"":2380.0999999046326}]","2380.2999999523163","","","","","","","","","","","","","","","","","","","","","","","",""
"pit-comprehension","105","853115","0.0-2.0-21.0-0.0","battery-v0.2","","""event"",""trial"",""time""
""fullscreenenter"",""1"",""1003""
","
","
","""event"",""trial"",""time""
""fullscreenenter"",""1"",""1003""
","
","","","4929.900000095367","[""10""]","0","25","17722","440","","","","","","","","","","","","","","","","","","",""
"pit-instructions","106","854719","0.0-2.0-21.0-1.0","battery-v0.2","","""event"",""trial"",""time""
""fullscreenenter"",""1"",""1003""
","
","
","""event"",""trial"",""time""
""fullscreenenter"",""1"",""1003""
","
","","[{""page_index"":0,""viewing_time"":1583.2000000476837}]","1583.5","","","","","","","","","","","","","","","","","","","","","","","",""
"pit-comprehension","107","861148","0.0-2.0-22.0-0.0","battery-v0.2","","""event"",""trial"",""time""
""fullscreenenter"",""1"",""1003""
","
","
","""event"",""trial"",""time""
""fullscreenenter"",""1"",""1003""
","
","","","6425.5","[""-10""]","1","25","17722","440","","","","","","","","","","","","","","","","","","",""
"pit-instructions","108","864800","0.0-2.0-22.0-1.0","battery-v0.2","","""event"",""trial"",""time""
""fullscreenenter"",""1"",""1003""
","
","
","""event"",""trial"",""time""
""fullscreenenter"",""1"",""1003""
","
","","[{""page_index"":0,""viewing_time"":3633.0999999046326}]","3633.2999999523163","","","","","","","","","","","","","","","","","","","","","","","",""
"pit-instructions","109","866084","0.0-2.0-22.0-2.0-0.0","battery-v0.2","","""event"",""trial"",""time""
""fullscreenenter"",""1"",""1003""
","
","
","""event"",""trial"",""time""
""fullscreenenter"",""1"",""1003""
","
","","[{""page_index"":0,""viewing_time"":1282.5}]","1282.7000000476837","","","","","","","","","","","","","","","","","","","","","","","",""
"pit-comprehension","110","872451","0.0-2.0-22.1-0.1","battery-v0.2","","""event"",""trial"",""time""
""fullscreenenter"",""1"",""1003""
","
","
","""event"",""trial"",""time""
""fullscreenenter"",""1"",""1003""
","
","","","6365.099999904633","[""0""]","0","25","17722","440","","","","","","","","","","","","","","","","","","",""
"pit-instructions","111","873958","0.0-2.0-22.1-1.1","battery-v0.2","","""event"",""trial"",""time""
""fullscreenenter"",""1"",""1003""
","
","
","""event"",""trial"",""time""
""fullscreenenter"",""1"",""1003""
","
","","[{""page_index"":0,""viewing_time"":1485.7999999523163}]","1486.2000000476837","","","","","","","","","","","","","","","","","","","","","","","",""
"pit-comprehension","112","882469","0.0-2.0-23.0-0.0","battery-v0.2","","""event"",""trial"",""time""
""fullscreenenter"",""1"",""1003""
","
","
","""event"",""trial"",""time""
""fullscreenenter"",""1"",""1003""
","
","","","8507.399999856949","[""True""]","0","25","17722","440","","","","","","","","","","","","","","","","","","",""
"pit-instructions","113","885800","0.0-2.0-23.0-1.0","battery-v0.2","","""event"",""trial"",""time""
""fullscreenenter"",""1"",""1003""
","
","
","""event"",""trial"",""time""
""fullscreenenter"",""1"",""1003""
","
","","[{""page_index"":0,""viewing_time"":3313}]","3313.300000190735","","","","","","","","","","","","","","","","","","","","","","","",""
"pit-comprehension","114","893309","0.0-2.0-24.0-0.0","battery-v0.2","","""event"",""trial"",""time""
""fullscreenenter"",""1"",""1003""
","
","
","""event"",""trial"",""time""
""fullscreenenter"",""1"",""1003""
","
","","","7505.900000095367","[""True""]","0","25","17722","440","","","","","","","","","","","","","","","","","","",""
"pit-instructions","115","897733","0.0-2.0-24.0-1.0","battery-v0.2","","""event"",""trial"",""time""
""fullscreenenter"",""1"",""1003""
","
","
","""event"",""trial"",""time""
""fullscreenenter"",""1"",""1003""
","
","","[{""page_index"":0,""viewing_time"":4403.900000095367}]","4404.300000190735","","","","","","","","","","","","","","","","","","","","","","","",""
"pit-comprehension","116","904056","0.0-2.0-25.0-0.0","battery-v0.2","","""event"",""trial"",""time""
""fullscreenenter"",""1"",""1003""
","
","
","""event"",""trial"",""time""
""fullscreenenter"",""1"",""1003""
","
","","","6319.900000095367","[""True""]","0","25","17722","440","","","","","","","","","","","","","","","","","","",""
"pit-instructions","117","907107","0.0-2.0-25.0-1.0","battery-v0.2","","""event"",""trial"",""time""
""fullscreenenter"",""1"",""1003""
","
","
","""event"",""trial"",""time""
""fullscreenenter"",""1"",""1003""
","
","","[{""page_index"":0,""viewing_time"":3030.2000000476837}]","3030.5","","","","","","","","","","","","","","","","","","","","","","","",""
"pit-comprehension","118","911900","0.0-2.0-26.0-0.0","battery-v0.2","","""event"",""trial"",""time""
""fullscreenenter"",""1"",""1003""
","
","
","""event"",""trial"",""time""
""fullscreenenter"",""1"",""1003""
","
","","","4789.600000143051","[""False""]","0","25","17722","440","","","","","","","","","","","","","","","","","","",""
"pit-instructions","119","913845","0.0-2.0-26.0-1.0","battery-v0.2","","""event"",""trial"",""time""
""fullscreenenter"",""1"",""1003""
","
","
","""event"",""trial"",""time""
""fullscreenenter"",""1"",""1003""
","
","","[{""page_index"":0,""viewing_time"":1925}]","1925.3000001907349","","","","","","","","","","","","","","","","","","","","","","","",""
"pit-instructions","120","930265","0.0-3.0","battery-v0.2","","""event"",""trial"",""time""
""fullscreenenter"",""1"",""1003""
","
","
","""event"",""trial"",""time""
""fullscreenenter"",""1"",""1003""
","
","","[{""page_index"":0,""viewing_time"":3402},{""page_index"":1,""viewing_time"":5410.800000190735},{""page_index"":2,""viewing_time"":7604.599999904633}]","16417.700000047684","","","","","","","","","","","","","","","","","","","","","","","",""
"pit-trial","121","933718","0.0-4.0","battery-v0.2","","""event"",""trial"",""time""
""fullscreenenter"",""1"",""1003""
","
","
","""event"",""trial"",""time""
""fullscreenenter"",""1"",""1003""
","
","","","595.1000001430511","","","25","17722","440","&#9730;","elianto","#3366ff99"," "," ","1","+10","[1445.8000001907349]","1","1","","","17722","1","1","1","win","go","0"
"pit-trial","122","938573","0.0-5.0","battery-v0.2","","""event"",""trial"",""time""
""fullscreenenter"",""1"",""1003""
","
","
","""event"",""trial"",""time""
""fullscreenenter"",""1"",""1003""
","
","","","-1","","","25","17722","440","&#9728;","elianto","#f73b6a7A","-1","-1","1","0","[]","0","1","","","17722","2","0","4","lose","no-go","0"
"pit-trial","123","941887","0.0-6.0","battery-v0.2","","""event"",""trial"",""time""
""fullscreenenter"",""1"",""1003""
","
","
","""event"",""trial"",""time""
""fullscreenenter"",""1"",""1003""
","
","","","459.2000000476837","","","25","17722","440","&#9733;","elianto","#3366ff99","-1"," ","0","+10","[1309.7000000476837]","1","1","","","17722","3","2","2","win","no-go","1"
"pit-trial","124","946743","0.0-7.0","battery-v0.2","","""event"",""trial"",""time""
""fullscreenenter"",""1"",""1003""
","
","
","""event"",""trial"",""time""
""fullscreenenter"",""1"",""1003""
","
","","","-1","","","25","17722","440","&#9752;","elianto","#f73b6a7A"," ","-1","0","-10","[]","0","1","","","17722","4","3","3","lose","go","0"
"pit-trial","125","950332","0.0-8.0","battery-v0.2","","""event"",""trial"",""time""
""fullscreenenter"",""1"",""1003""
","
","
","""event"",""trial"",""time""
""fullscreenenter"",""1"",""1003""
","
","","","735.0999999046326","","","25","17722","440","&#9730;","elianto","#3366ff99"," "," ","1","+10","[1585.5999999046326]","1","1","","","17722","5","1","1","win","go","0"
"pit-trial","126","953809","0.0-9.0","battery-v0.2","","""event"",""trial"",""time""
""fullscreenenter"",""1"",""1003""
","
","
","""event"",""trial"",""time""
""fullscreenenter"",""1"",""1003""
","
","","","622.7999999523163","","","25","17722","440","&#9733;","elianto","#3366ff99","-1"," ","0","0","[1473.2000000476837]","1","1","","","17722","6","2","2","win","no-go","0"
"pit-trial","127","957629","0.0-10.0","battery-v0.2","","""event"",""trial"",""time""
""fullscreenenter"",""1"",""1003""
","
","
","""event"",""trial"",""time""
""fullscreenenter"",""1"",""1003""
","
","","","963.5999999046326","","","25","17722","440","&#9752;","elianto","#f73b6a7A"," "," ","1","0","[1814.5999999046326]","1","1","","","17722","7","3","3","lose","go","0"
"pit-trial","128","962484","0.0-11.0","battery-v0.2","","""event"",""trial"",""time""
""fullscreenenter"",""1"",""1003""
","
","
","""event"",""trial"",""time""
""fullscreenenter"",""1"",""1003""
","
","","","-1","","","25","17722","440","&#9728;","elianto","#f73b6a7A","-1","-1","1","0","[]","0","1","","","17722","8","0","4","lose","no-go","0"
"pit-trial","129","966353","0.0-12.0","battery-v0.2","","""event"",""trial"",""time""
""fullscreenenter"",""1"",""1003""
","
","
","""event"",""trial"",""time""
""fullscreenenter"",""1"",""1003""
","
","","","1013.4000000953674","","","25","17722","440","&#9752;","elianto","#f73b6a7A"," "," ","1","0","[1864.9000000953674]","1","1","","","17722","9","3","3","lose","go","0"
"pit-trial","130","969668","0.0-13.0","battery-v0.2","","""event"",""trial"",""time""
""fullscreenenter"",""1"",""1003""
","
","
","""event"",""trial"",""time""
""fullscreenenter"",""1"",""1003""
","
","","","459.2999999523163","","","25","17722","440","&#9730;","elianto","#3366ff99"," "," ","1","+10","[1310.5999999046326]","1","1","","","17722","10","1","1","win","go","0"
"pit-trial","131","972979","0.0-14.0","battery-v0.2","","""event"",""trial"",""time""
""fullscreenenter"",""1"",""1003""
","
","
","""event"",""trial"",""time""
""fullscreenenter"",""1"",""1003""
","
","","","456.10000014305115","","","25","17722","440","&#9733;","elianto","#3366ff99","-1"," ","0","0","[1307]","1","1","","","17722","11","2","2","win","no-go","0"
"pit-trial","132","977834","0.0-15.0","battery-v0.2","","""event"",""trial"",""time""
""fullscreenenter"",""1"",""1003""
","
","
","""event"",""trial"",""time""
""fullscreenenter"",""1"",""1003""
","
","","","-1","","","25","17722","440","&#9728;","elianto","#f73b6a7A","-1","-1","1","0","[]","0","1","","","17722","12","0","4","lose","no-go","0"
"pit-trial","133","981494","0.0-16.0","battery-v0.2","","""event"",""trial"",""time""
""fullscreenenter"",""1"",""1003""
","
","
","""event"",""trial"",""time""
""fullscreenenter"",""1"",""1003""
","
","","","806.2999999523163","","","25","17722","440","&#9733;","elianto","#3366ff99","-1"," ","0","+10","[1656.7999999523163]","1","1","","","17722","13","2","2","win","no-go","1"
"pit-trial","134","984995","0.0-17.0","battery-v0.2","","""event"",""trial"",""time""
""fullscreenenter"",""1"",""1003""
","
","
","""event"",""trial"",""time""
""fullscreenenter"",""1"",""1003""
","
","","","647.5999999046326","","","25","17722","440","&#9730;","elianto","#3366ff99"," "," ","1","0","[1497.7999999523163]","1","1","","","17722","14","1","1","win","go","1"
"pit-trial","135","989851","0.0-18.0","battery-v0.2","","""event"",""trial"",""time""
""fullscreenenter"",""1"",""1003""
","
","
","""event"",""trial"",""time""
""fullscreenenter"",""1"",""1003""
","
","","","-1","","","25","17722","440","&#9728;","elianto","#f73b6a7A","-1","-1","1","0","[]","0","1","","","17722","15","0","4","lose","no-go","0"
"pit-trial","136","993191","0.0-19.0","battery-v0.2","","""event"",""trial"",""time""
""fullscreenenter"",""1"",""1003""
","
","
","""event"",""trial"",""time""
""fullscreenenter"",""1"",""1003""
","
","","","484.80000019073486","","","25","17722","440","&#9752;","elianto","#f73b6a7A"," "," ","1","0","[1335.9000000953674]","1","1","","","17722","16","3","3","lose","go","0"
"pit-trial","137","996650","0.0-20.0","battery-v0.2","","""event"",""trial"",""time""
""fullscreenenter"",""1"",""1003""
","
","
","""event"",""trial"",""time""
""fullscreenenter"",""1"",""1003""
","
","","","604.7000000476837","","","25","17722","440","&#9733;","elianto","#3366ff99","-1"," ","0","+10","[1455.2999999523163]","1","1","","","17722","17","2","2","win","no-go","1"
"pit-trial","138","1001506","0.0-21.0","battery-v0.2","","""event"",""trial"",""time""
""fullscreenenter"",""1"",""1003""
","
","
","""event"",""trial"",""time""
""fullscreenenter"",""1"",""1003""
","
","","","-1","","","25","17722","440","&#9728;","elianto","#f73b6a7A","-1","-1","1","0","[]","0","1","","","17722","18","0","4","lose","no-go","0"
"pit-trial","139","1005017","0.0-22.0","battery-v0.2","","""event"",""trial"",""time""
""fullscreenenter"",""1"",""1003""
","
","
","""event"",""trial"",""time""
""fullscreenenter"",""1"",""1003""
","
","","","656.2999999523163","","","25","17722","440","&#9752;","elianto","#f73b6a7A"," "," ","1","-10","[1507.2000000476837]","1","1","","","17722","19","3","3","lose","go","1"
"pit-trial","140","1008483","0.0-23.0","battery-v0.2","","""event"",""trial"",""time""
""fullscreenenter"",""1"",""1003""
","
","
","""event"",""trial"",""time""
""fullscreenenter"",""1"",""1003""
","
","","","610.3999998569489","","","25","17722","440","&#9730;","elianto","#3366ff99"," "," ","1","+10","[1461.2000000476837]","1","1","","","17722","20","1","1","win","go","0"
"pit-instructions","141","1035846","0.0-24.0","battery-v0.2","","""event"",""trial"",""time""
""fullscreenenter"",""1"",""1003""
","
","
","""event"",""trial"",""time""
""fullscreenenter"",""1"",""1003""
","
","","[{""page_index"":0,""viewing_time"":21262.599999904633},{""page_index"":1,""viewing_time"":6097.700000047684}]","27360.5","","","","","","","","","","","","","","","","","","","","","","","",""
"pit-trial","142","1040702","0.0-25.0","battery-v0.2","","""event"",""trial"",""time""
""fullscreenenter"",""1"",""1003""
","
","
","""event"",""trial"",""time""
""fullscreenenter"",""1"",""1003""
","
","","","-1","","","25","17722","440","g","elianto","#f73b6a7A","-1","-1","1","0","[]","0","2","","","17722","21","3","4","lose","no-go","0"
"pit-trial","143","1044057","0.0-26.0","battery-v0.2","","""event"",""trial"",""time""
""fullscreenenter"",""1"",""1003""
","
","
","""event"",""trial"",""time""
""fullscreenenter"",""1"",""1003""
","
","","","499.60000014305115","","","25","17722","440","l","elianto","#3366ff99","-1"," ","0","0","[1350.9000000953674]","1","2","","","17722","22","1","2","win","no-go","0"
"pit-trial","144","1048015","0.0-27.0","battery-v0.2","","""event"",""trial"",""time""
""fullscreenenter"",""1"",""1003""
","
","
","""event"",""trial"",""time""
""fullscreenenter"",""1"",""1003""
","
","","","1103.2999999523163","","","25","17722","440","a","elianto","#f73b6a7A"," "," ","1","0","[1954]","1","2","","","17722","23","2","3","lose","go","0"
"pit-trial","145","1052872","0.0-28.0","battery-v0.2","","""event"",""trial"",""time""
""fullscreenenter"",""1"",""1003""
","
","
","""event"",""trial"",""time""
""fullscreenenter"",""1"",""1003""
","
","","","-1","","","25","17722","440","u","elianto","#f73b6a7A"," ","-1","0","0","[]","0","2","","","17722","24","0","3","lose","go","1"
"pit-trial","146","1056488","0.0-29.0","battery-v0.2","","""event"",""trial"",""time""
""fullscreenenter"",""1"",""1003""
","
","
","""event"",""trial"",""time""
""fullscreenenter"",""1"",""1003""
","
","","","760.4000000953674","","","25","17722","440","a","elianto","#f73b6a7A"," "," ","1","-10","[1612]","1","2","","","17722","25","2","3","lose","go","1"
"pit-trial","147","1061344","0.0-30.0","battery-v0.2","","""event"",""trial"",""time""
""fullscreenenter"",""1"",""1003""
","
","
","""event"",""trial"",""time""
""fullscreenenter"",""1"",""1003""
","
","","","-1","","","25","17722","440","g","elianto","#f73b6a7A","-1","-1","1","0","[]","0","2","","","17722","26","3","4","lose","no-go","0"
"pit-trial","148","1066200","0.0-31.0","battery-v0.2","","""event"",""trial"",""time""
""fullscreenenter"",""1"",""1003""
","
","
","""event"",""trial"",""time""
""fullscreenenter"",""1"",""1003""
","
","","","-1","","","25","17722","440","l","elianto","#3366ff99","-1","-1","1","0","[]","0","2","","","17722","27","1","2","win","no-go","1"
"pit-trial","149","1071056","0.0-32.0","battery-v0.2","","""event"",""trial"",""time""
""fullscreenenter"",""1"",""1003""
","
","
","""event"",""trial"",""time""
""fullscreenenter"",""1"",""1003""
","
","","","-1","","","25","17722","440","u","elianto","#f73b6a7A"," ","-1","0","-10","[]","0","2","","","17722","28","0","3","lose","go","0"
"pit-trial","150","1075911","0.0-33.0","battery-v0.2","","""event"",""trial"",""time""
""fullscreenenter"",""1"",""1003""
","
","
","""event"",""trial"",""time""
""fullscreenenter"",""1"",""1003""
","
","","","-1","","","25","17722","440","g","elianto","#f73b6a7A","-1","-1","1","0","[]","0","2","","","17722","29","3","4","lose","no-go","0"
"pit-trial","151","1079718","0.0-34.0","battery-v0.2","","""event"",""trial"",""time""
""fullscreenenter"",""1"",""1003""
","
","
","""event"",""trial"",""time""
""fullscreenenter"",""1"",""1003""
","
","","","951.8999998569489","","","25","17722","440","a","elianto","#f73b6a7A"," "," ","1","0","[1802.1000001430511]","1","2","","","17722","30","2","3","lose","go","0"
"pit-trial","152","1083447","0.0-35.0","battery-v0.2","","""event"",""trial"",""time""
""fullscreenenter"",""1"",""1003""
","
","
","""event"",""trial"",""time""
""fullscreenenter"",""1"",""1003""
","
","","","873.1000001430511","","","25","17722","440","l","elianto","#3366ff99","-1"," ","0","0","[1724.3999998569489]","1","2","","","17722","31","1","2","win","no-go","0"
"pit-trial","153","1086913","0.0-36.0","battery-v0.2","","""event"",""trial"",""time""
""fullscreenenter"",""1"",""1003""
","
","
","""event"",""trial"",""time""
""fullscreenenter"",""1"",""1003""
","
","","","611.5","","","25","17722","440","u","elianto","#f73b6a7A"," "," ","1","0","[1461.9000000953674]","1","2","","","17722","32","0","3","lose","go","0"
"pit-trial","154","1090663","0.0-37.0","battery-v0.2","","""event"",""trial"",""time""
""fullscreenenter"",""1"",""1003""
","
","
","""event"",""trial"",""time""
""fullscreenenter"",""1"",""1003""
","
","","","895","","","25","17722","440","a","elianto","#f73b6a7A"," "," ","1","0","[1746]","1","2","","","17722","33","2","3","lose","go","0"
"pit-trial","155","1095519","0.0-38.0","battery-v0.2","","""event"",""trial"",""time""
""fullscreenenter"",""1"",""1003""
","
","
","""event"",""trial"",""time""
""fullscreenenter"",""1"",""1003""
","
","","","-1","","","25","17722","440","g","elianto","#f73b6a7A","-1","-1","1","0","[]","0","2","","","17722","34","3","4","lose","no-go","0"
"pit-trial","156","1099014","0.0-39.0","battery-v0.2","","""event"",""trial"",""time""
""fullscreenenter"",""1"",""1003""
","
","
","""event"",""trial"",""time""
""fullscreenenter"",""1"",""1003""
","
","","","640.2000000476837","","","25","17722","440","u","elianto","#f73b6a7A"," "," ","1","-10","[1490.5999999046326]","1","2","","","17722","35","0","3","lose","go","1"
"pit-trial","157","1102711","0.0-40.0","battery-v0.2","","""event"",""trial"",""time""
""fullscreenenter"",""1"",""1003""
","
","
","""event"",""trial"",""time""
""fullscreenenter"",""1"",""1003""
","
","","","841.8999998569489","","","25","17722","440","l","elianto","#3366ff99","-1"," ","0","0","[1692.5]","1","2","","","17722","36","1","2","win","no-go","0"
"pit-trial","158","1106580","0.0-41.0","battery-v0.2","","""event"",""trial"",""time""
""fullscreenenter"",""1"",""1003""
","
","
","""event"",""trial"",""time""
""fullscreenenter"",""1"",""1003""
","
","","","1013.7000000476837","","","25","17722","440","l","elianto","#3366ff99","-1"," ","0","0","[1864.6000001430511]","1","2","","","17722","37","1","2","win","no-go","0"
"pit-trial","159","1110093","0.0-42.0","battery-v0.2","","""event"",""trial"",""time""
""fullscreenenter"",""1"",""1003""
","
","
","""event"",""trial"",""time""
""fullscreenenter"",""1"",""1003""
","
","","","658.0999999046326","","","25","17722","440","a","elianto","#f73b6a7A"," "," ","1","0","[1508.9000000953674]","1","2","","","17722","38","2","3","lose","go","0"
"pit-trial","160","1113582","0.0-43.0","battery-v0.2","","""event"",""trial"",""time""
""fullscreenenter"",""1"",""1003""
","
","
","""event"",""trial"",""time""
""fullscreenenter"",""1"",""1003""
","
","","","633.2000000476837","","","25","17722","440","u","elianto","#f73b6a7A"," "," ","1","0","[1484.0999999046326]","1","2","","","17722","39","0","3","lose","go","0"
"pit-trial","161","1118437","0.0-44.0","battery-v0.2","","""event"",""trial"",""time""
""fullscreenenter"",""1"",""1003""
","
","
","""event"",""trial"",""time""
""fullscreenenter"",""1"",""1003""
","
","","","-1","","","25","17722","440","g","elianto","#f73b6a7A","-1","-1","1","0","[]","0","2","","","17722","40","3","4","lose","no-go","0"
"pit-trial","162","1122278","0.0-45.0","battery-v0.2","","""event"",""trial"",""time""
""fullscreenenter"",""1"",""1003""
","
","
","""event"",""trial"",""time""
""fullscreenenter"",""1"",""1003""
","
","","","986.2999999523163","","","25","17722","440","a","elianto","#f73b6a7A"," "," ","1","0","[1836.9000000953674]","1","2","","","17722","41","2","3","lose","go","0"
"pit-trial","163","1126271","0.0-46.0","battery-v0.2","","""event"",""trial"",""time""
""fullscreenenter"",""1"",""1003""
","
","
","""event"",""trial"",""time""
""fullscreenenter"",""1"",""1003""
","
","","","1138.7000000476837","","","25","17722","440","l","elianto","#3366ff99","-1"," ","0","0","[1989.0999999046326]","1","2","","","17722","42","1","2","win","no-go","0"
"pit-trial","164","1130296","0.0-47.0","battery-v0.2","","""event"",""trial"",""time""
""fullscreenenter"",""1"",""1003""
","
","
","""event"",""trial"",""time""
""fullscreenenter"",""1"",""1003""
","
","","","1169.5","","","25","17722","440","u","elianto","#f73b6a7A"," "," ","1","0","[2020.5]","1","2","","","17722","43","0","3","lose","go","0"
"pit-trial","165","1135151","0.0-48.0","battery-v0.2","","""event"",""trial"",""time""
""fullscreenenter"",""1"",""1003""
","
","
","""event"",""trial"",""time""
""fullscreenenter"",""1"",""1003""
","
","","","-1","","","25","17722","440","g","elianto","#f73b6a7A","-1","-1","1","0","[]","0","2","","","17722","44","3","4","lose","no-go","0"
"pit-trial","166","1138549","0.0-49.0","battery-v0.2","","""event"",""trial"",""time""
""fullscreenenter"",""1"",""1003""
","
","
","""event"",""trial"",""time""
""fullscreenenter"",""1"",""1003""
","
","","","543.3000001907349","","","25","17722","440","l","elianto","#3366ff99","-1"," ","0","+10","[1393.7000000476837]","1","2","","","17722","45","1","2","win","no-go","1"
"pit-trial","167","1143405","0.0-50.0","battery-v0.2","","""event"",""trial"",""time""
""fullscreenenter"",""1"",""1003""
","
","
","""event"",""trial"",""time""
""fullscreenenter"",""1"",""1003""
","
","","","-1","","","25","17722","440","g","elianto","#f73b6a7A","-1","-1","1","0","[]","0","2","","","17722","46","3","4","lose","no-go","0"
"pit-trial","168","1146736","0.0-51.0","battery-v0.2","","""event"",""trial"",""time""
""fullscreenenter"",""1"",""1003""
","
","
","""event"",""trial"",""time""
""fullscreenenter"",""1"",""1003""
","
","","","475.89999985694885","","","25","17722","440","a","elianto","#f73b6a7A"," "," ","1","0","[1326.4000000953674]","1","2","","","17722","47","2","3","lose","go","0"
"pit-trial","169","1150958","0.0-52.0","battery-v0.2","","""event"",""trial"",""time""
""fullscreenenter"",""1"",""1003""
","
","
","""event"",""trial"",""time""
""fullscreenenter"",""1"",""1003""
","
","","","1368.4000000953674","","","25","17722","440","u","elianto","#f73b6a7A"," "," ","1","0","[2219]","1","2","","","17722","48","0","3","lose","go","0"
"pit-trial","170","1155813","0.0-53.0","battery-v0.2","","""event"",""trial"",""time""
""fullscreenenter"",""1"",""1003""
","
","
","""event"",""trial"",""time""
""fullscreenenter"",""1"",""1003""
","
","","","-1","","","25","17722","440","l","elianto","#3366ff99","-1","-1","1","+10","[]","0","2","","","17722","49","1","2","win","no-go","0"
"pit-trial","171","1159317","0.0-54.0","battery-v0.2","","""event"",""trial"",""time""
""fullscreenenter"",""1"",""1003""
","
","
","""event"",""trial"",""time""
""fullscreenenter"",""1"",""1003""
","
","","","648.0999999046326","","","25","17722","440","a","elianto","#f73b6a7A"," "," ","1","0","[1499.8999998569489]","1","2","","","17722","50","2","3","lose","go","0"
"pit-trial","172","1162845","0.0-55.0","battery-v0.2","","""event"",""trial"",""time""
""fullscreenenter"",""1"",""1003""
","
","
","""event"",""trial"",""time""
""fullscreenenter"",""1"",""1003""
","
","","","673.2999999523163","","","25","17722","440","u","elianto","#f73b6a7A"," "," ","1","0","[1523.5]","1","2","","","17722","51","0","3","lose","go","0"
"pit-trial","173","1167700","0.0-56.0","battery-v0.2","","""event"",""trial"",""time""
""fullscreenenter"",""1"",""1003""
","
","
","""event"",""trial"",""time""
""fullscreenenter"",""1"",""1003""
","
","","","-1","","","25","17722","440","g","elianto","#f73b6a7A","-1","-1","1","0","[]","0","2","","","17722","52","3","4","lose","no-go","0"
"pit-trial","174","1172556","0.0-57.0","battery-v0.2","","""event"",""trial"",""time""
""fullscreenenter"",""1"",""1003""
","
","
","""event"",""trial"",""time""
""fullscreenenter"",""1"",""1003""
","
","","","-1","","","25","17722","440","l","elianto","#3366ff99","-1","-1","1","+10","[]","0","2","","","17722","53","1","2","win","no-go","0"
"pit-trial","175","1177411","0.0-58.0","battery-v0.2","","""event"",""trial"",""time""
""fullscreenenter"",""1"",""1003""
","
","
","""event"",""trial"",""time""
""fullscreenenter"",""1"",""1003""
","
","","","-1","","","25","17722","440","g","elianto","#f73b6a7A","-1","-1","1","0","[]","0","2","","","17722","54","3","4","lose","no-go","0"
"pit-trial","176","1180913","0.0-59.0","battery-v0.2","","""event"",""trial"",""time""
""fullscreenenter"",""1"",""1003""
","
","
","""event"",""trial"",""time""
""fullscreenenter"",""1"",""1003""
","
","","","647","","","25","17722","440","a","elianto","#f73b6a7A"," "," ","1","-10","[1497.8999998569489]","1","2","","","17722","55","2","3","lose","go","1"
"pit-trial","177","1184227","0.0-60.0","battery-v0.2","","""event"",""trial"",""time""
""fullscreenenter"",""1"",""1003""
","
","
","""event"",""trial"",""time""
""fullscreenenter"",""1"",""1003""
","
","","","458.60000014305115","","","25","17722","440","u","elianto","#f73b6a7A"," "," ","1","0","[1309.9000000953674]","1","2","","","17722","56","0","3","lose","go","0"
"pit-trial","178","1187878","0.0-61.0","battery-v0.2","","""event"",""trial"",""time""
""fullscreenenter"",""1"",""1003""
","
","
","""event"",""trial"",""time""
""fullscreenenter"",""1"",""1003""
","
","","","796","","","25","17722","440","a","elianto","#f73b6a7A"," "," ","1","-10","[1647.2999999523163]","1","2","","","17722","57","2","3","lose","go","1"
"pit-trial","179","1191494","0.0-62.0","battery-v0.2","","""event"",""trial"",""time""
""fullscreenenter"",""1"",""1003""
","
","
","""event"",""trial"",""time""
""fullscreenenter"",""1"",""1003""
","
","","","760.8000001907349","","","25","17722","440","p","elianto","#3366ff99"," "," ","1","0","[1611.4000000953674]","1","2","","","17722","58","4","1","win","go","1"
"pit-trial","180","1196350","0.0-63.0","battery-v0.2","","""event"",""trial"",""time""
""fullscreenenter"",""1"",""1003""
","
","
","""event"",""trial"",""time""
""fullscreenenter"",""1"",""1003""
","
","","","-1","","","25","17722","440","g","elianto","#f73b6a7A","-1","-1","1","0","[]","0","2","","","17722","59","3","4","lose","no-go","0"
"pit-trial","181","1200199","0.0-64.0","battery-v0.2","","""event"",""trial"",""time""
""fullscreenenter"",""1"",""1003""
","
","
","""event"",""trial"",""time""
""fullscreenenter"",""1"",""1003""
","
","","","993.1999998092651","","","25","17722","440","u","elianto","#f73b6a7A"," "," ","1","0","[1844.2999999523163]","1","2","","","17722","60","0","3","lose","go","0"
"pit-trial","182","1203515","0.0-65.0","battery-v0.2","","""event"",""trial"",""time""
""fullscreenenter"",""1"",""1003""
","
","
","""event"",""trial"",""time""
""fullscreenenter"",""1"",""1003""
","
","","","460.7999999523163","","","25","17722","440","a","elianto","#f73b6a7A"," "," ","1","0","[1311.9000000953674]","1","2","","","17722","61","2","3","lose","go","0"
"pit-trial","183","1207078","0.0-66.0","battery-v0.2","","""event"",""trial"",""time""
""fullscreenenter"",""1"",""1003""
","
","
","""event"",""trial"",""time""
""fullscreenenter"",""1"",""1003""
","
","","","708","","","25","17722","440","p","elianto","#3366ff99"," "," ","1","+10","[1558.2999999523163]","1","2","","","17722","62","4","1","win","go","0"
"pit-trial","184","1210856","0.0-67.0","battery-v0.2","","""event"",""trial"",""time""
""fullscreenenter"",""1"",""1003""
","
","
","""event"",""trial"",""time""
""fullscreenenter"",""1"",""1003""
","
","","","922.5999999046326","","","25","17722","440","l","elianto","#3366ff99","-1"," ","0","0","[1773.4000000953674]","1","2","","","17722","63","1","2","win","no-go","0"
"pit-trial","185","1215713","0.0-68.0","battery-v0.2","","""event"",""trial"",""time""
""fullscreenenter"",""1"",""1003""
","
","
","""event"",""trial"",""time""
""fullscreenenter"",""1"",""1003""
","
","","","-1","","","25","17722","440","g","elianto","#f73b6a7A","-1","-1","1","-10","[]","0","2","","","17722","64","3","4","lose","no-go","1"
"pit-trial","186","1219228","0.0-69.0","battery-v0.2","","""event"",""trial"",""time""
""fullscreenenter"",""1"",""1003""
","
","
","""event"",""trial"",""time""
""fullscreenenter"",""1"",""1003""
","
","","","660.1999998092651","","","25","17722","440","s","elianto","#3366ff99","-1"," ","0","0","[1511.0999999046326]","1","2","","","17722","65","5","2","win","no-go","0"
"pit-trial","187","1224084","0.0-70.0","battery-v0.2","","""event"",""trial"",""time""
""fullscreenenter"",""1"",""1003""
","
","
","""event"",""trial"",""time""
""fullscreenenter"",""1"",""1003""
","
","","","-1","","","25","17722","440","l","elianto","#3366ff99","-1","-1","1","+10","[]","0","2","","","17722","66","1","2","win","no-go","0"
"pit-trial","188","1228660","0.0-71.0","battery-v0.2","","""event"",""trial"",""time""
""fullscreenenter"",""1"",""1003""
","
","
","""event"",""trial"",""time""
""fullscreenenter"",""1"",""1003""
","
","","","1720.9000000953674","","","25","17722","440","p","elianto","#3366ff99"," "," ","1","0","[2571.7999999523163]","1","2","","","17722","67","4","1","win","go","1"
"pit-trial","189","1231556","0.0-72.0","battery-v0.2","","""event"",""trial"",""time""
""fullscreenenter"",""1"",""1003""
","
","
","""event"",""trial"",""time""
""fullscreenenter"",""1"",""1003""
","
","","","41.80000019073486","","","25","17722","440","g","elianto","#f73b6a7A","-1"," ","0","-10","[892.4000000953674]","1","2","","","17722","68","3","4","lose","no-go","0"
"pit-trial","190","1236413","0.0-73.0","battery-v0.2","","""event"",""trial"",""time""
""fullscreenenter"",""1"",""1003""
","
","
","""event"",""trial"",""time""
""fullscreenenter"",""1"",""1003""
","
","","","-1","","","25","17722","440","l","elianto","#3366ff99","-1","-1","1","+10","[]","0","2","","","17722","69","1","2","win","no-go","0"
"pit-trial","191","1240431","0.0-74.0","battery-v0.2","","""event"",""trial"",""time""
""fullscreenenter"",""1"",""1003""
","
","
","""event"",""trial"",""time""
""fullscreenenter"",""1"",""1003""
","
","","","1163","","","25","17722","440","a","elianto","#f73b6a7A"," "," ","1","0","[2013.7999999523163]","1","2","","","17722","70","2","3","lose","go","0"
"pit-trial","192","1245286","0.0-75.0","battery-v0.2","","""event"",""trial"",""time""
""fullscreenenter"",""1"",""1003""
","
","
","""event"",""trial"",""time""
""fullscreenenter"",""1"",""1003""
","
","","","-1","","","25","17722","440","s","elianto","#3366ff99","-1","-1","1","+10","[]","0","2","","","17722","71","5","2","win","no-go","0"
"pit-trial","193","1250142","0.0-76.0","battery-v0.2","","""event"",""trial"",""time""
""fullscreenenter"",""1"",""1003""
","
","
","""event"",""trial"",""time""
""fullscreenenter"",""1"",""1003""
","
","","","-1","","","25","17722","440","p","elianto","#3366ff99"," ","-1","0","0","[]","0","2","","","17722","72","4","1","win","go","0"
"pit-trial","194","1254996","0.0-77.0","battery-v0.2","","""event"",""trial"",""time""
""fullscreenenter"",""1"",""1003""
","
","
","""event"",""trial"",""time""
""fullscreenenter"",""1"",""1003""
","
","","","-1","","","25","17722","440","g","elianto","#f73b6a7A","-1","-1","1","0","[]","0","2","","","17722","73","3","4","lose","no-go","0"
"pit-trial","195","1257975","0.0-78.0","battery-v0.2","","""event"",""trial"",""time""
""fullscreenenter"",""1"",""1003""
","
","
","""event"",""trial"",""time""
""fullscreenenter"",""1"",""1003""
","
","","","123.20000004768372","","","25","17722","440","p","elianto","#3366ff99"," "," ","1","0","[974.2000000476837]","1","2","","","17722","74","4","1","win","go","1"
"pit-trial","196","1262830","0.0-79.0","battery-v0.2","","""event"",""trial"",""time""
""fullscreenenter"",""1"",""1003""
","
","
","""event"",""trial"",""time""
""fullscreenenter"",""1"",""1003""
","
","","","-1","","","25","17722","440","l","elianto","#3366ff99","-1","-1","1","+10","[]","0","2","","","17722","75","1","2","win","no-go","0"
"pit-trial","197","1267686","0.0-80.0","battery-v0.2","","""event"",""trial"",""time""
""fullscreenenter"",""1"",""1003""
","
","
","""event"",""trial"",""time""
""fullscreenenter"",""1"",""1003""
","
","","","-1","","","25","17722","440","s","elianto","#3366ff99","-1","-1","1","0","[]","0","2","","","17722","76","5","2","win","no-go","1"
"pit-trial","198","1272542","0.0-81.0","battery-v0.2","","""event"",""trial"",""time""
""fullscreenenter"",""1"",""1003""
","
","
","""event"",""trial"",""time""
""fullscreenenter"",""1"",""1003""
","
","","","-1","","","25","17722","440","p","elianto","#3366ff99"," ","-1","0","0","[]","0","2","","","17722","77","4","1","win","go","0"
"pit-trial","199","1276392","0.0-82.0","battery-v0.2","","""event"",""trial"",""time""
""fullscreenenter"",""1"",""1003""
","
","
","""event"",""trial"",""time""
""fullscreenenter"",""1"",""1003""
","
","","","995.5999999046326","","","25","17722","440","s","elianto","#3366ff99","-1"," ","0","0","[1845.8999998569489]","1","2","","","17722","78","5","2","win","no-go","0"
"pit-trial","200","1279979","0.0-83.0","battery-v0.2","","""event"",""trial"",""time""
""fullscreenenter"",""1"",""1003""
","
","
","""event"",""trial"",""time""
""fullscreenenter"",""1"",""1003""
","
","","","730.8000001907349","","","25","17722","440","p","elianto","#3366ff99"," "," ","1","+10","[1582.3000001907349]","1","2","","","17722","79","4","1","win","go","0"
"pit-trial","201","1284834","0.0-84.0","battery-v0.2","","""event"",""trial"",""time""
""fullscreenenter"",""1"",""1003""
","
","
","""event"",""trial"",""time""
""fullscreenenter"",""1"",""1003""
","
","","","-1","","","25","17722","440","g","elianto","#f73b6a7A","-1","-1","1","0","[]","0","2","","","17722","80","3","4","lose","no-go","0"
"pit-trial","202","1289690","0.0-85.0","battery-v0.2","","""event"",""trial"",""time""
""fullscreenenter"",""1"",""1003""
","
","
","""event"",""trial"",""time""
""fullscreenenter"",""1"",""1003""
","
","","","-1","","","25","17722","440","g","elianto","#f73b6a7A","-1","-1","1","-10","[]","0","2","","","17722","81","3","4","lose","no-go","1"
"pit-trial","203","1294546","0.0-86.0","battery-v0.2","","""event"",""trial"",""time""
""fullscreenenter"",""1"",""1003""
","
","
","""event"",""trial"",""time""
""fullscreenenter"",""1"",""1003""
","
","","","-1","","","25","17722","440","s","elianto","#3366ff99","-1","-1","1","+10","[]","0","2","","","17722","82","5","2","win","no-go","0"
"pit-trial","204","1299402","0.0-87.0","battery-v0.2","","""event"",""trial"",""time""
""fullscreenenter"",""1"",""1003""
","
","
","""event"",""trial"",""time""
""fullscreenenter"",""1"",""1003""
","
","","","-1","","","25","17722","440","e","elianto","#f73b6a7A","-1","-1","1","0","[]","0","2","","","17722","83","7","4","lose","no-go","0"
"pit-trial","205","1303665","0.0-88.0","battery-v0.2","","""event"",""trial"",""time""
""fullscreenenter"",""1"",""1003""
","
","
","""event"",""trial"",""time""
""fullscreenenter"",""1"",""1003""
","
","","","1408.3000001907349","","","25","17722","440","p","elianto","#3366ff99"," "," ","1","0","[2259.399999856949]","1","2","","","17722","84","4","1","win","go","1"
"pit-trial","206","1308520","0.0-89.0","battery-v0.2","","""event"",""trial"",""time""
""fullscreenenter"",""1"",""1003""
","
","
","""event"",""trial"",""time""
""fullscreenenter"",""1"",""1003""
","
","","","-1","","","25","17722","440","s","elianto","#3366ff99","-1","-1","1","+10","[]","0","2","","","17722","85","5","2","win","no-go","0"
"pit-trial","207","1312519","0.0-90.0","battery-v0.2","","""event"",""trial"",""time""
""fullscreenenter"",""1"",""1003""
","
","
","""event"",""trial"",""time""
""fullscreenenter"",""1"",""1003""
","
","","","1143.2000000476837","","","25","17722","440","e","elianto","#f73b6a7A","-1"," ","0","-10","[1993.9000000953674]","1","2","","","17722","86","7","4","lose","no-go","0"
"pit-trial","208","1317375","0.0-91.0","battery-v0.2","","""event"",""trial"",""time""
""fullscreenenter"",""1"",""1003""
","
","
","""event"",""trial"",""time""
""fullscreenenter"",""1"",""1003""
","
","","","-1","","","25","17722","440","w","elianto","#f73b6a7A"," ","-1","0","-10","[]","0","2","","","17722","87","6","3","lose","go","0"
"pit-trial","209","1322231","0.0-92.0","battery-v0.2","","""event"",""trial"",""time""
""fullscreenenter"",""1"",""1003""
","
","
","""event"",""trial"",""time""
""fullscreenenter"",""1"",""1003""
","
","","","-1","","","25","17722","440","p","elianto","#3366ff99"," ","-1","0","0","[2950.0999999046326]","1","2","","","17722","88","4","1","win","go","0"
"pit-trial","210","1327086","0.0-93.0","battery-v0.2","","""event"",""trial"",""time""
""fullscreenenter"",""1"",""1003""
","
","
","""event"",""trial"",""time""
""fullscreenenter"",""1"",""1003""
","
","","","-1","","","25","17722","440","p","elianto","#3366ff99"," ","-1","0","0","[]","0","2","","","17722","89","4","1","win","go","0"
"pit-trial","211","1331587","0.0-94.0","battery-v0.2","","""event"",""trial"",""time""
""fullscreenenter"",""1"",""1003""
","
","
","""event"",""trial"",""time""
""fullscreenenter"",""1"",""1003""
","
","","","1646.7999999523163","","","25","17722","440","w","elianto","#f73b6a7A"," "," ","1","0","[2497.5]","1","2","","","17722","90","6","3","lose","go","0"
"pit-trial","212","1336443","0.0-95.0","battery-v0.2","","""event"",""trial"",""time""
""fullscreenenter"",""1"",""1003""
","
","
","""event"",""trial"",""time""
""fullscreenenter"",""1"",""1003""
","
","","","-1","","","25","17722","440","e","elianto","#f73b6a7A","-1","-1","1","0","[]","0","2","","","17722","91","7","4","lose","no-go","0"
"pit-trial","213","1341297","0.0-96.0","battery-v0.2","","""event"",""trial"",""time""
""fullscreenenter"",""1"",""1003""
","
","
","""event"",""trial"",""time""
""fullscreenenter"",""1"",""1003""
","
","","","-1","","","25","17722","440","s","elianto","#3366ff99","-1","-1","1","+10","[]","0","2","","","17722","92","5","2","win","no-go","0"
"pit-trial","214","1344192","0.0-97.0","battery-v0.2","","""event"",""trial"",""time""
""fullscreenenter"",""1"",""1003""
","
","
","""event"",""trial"",""time""
""fullscreenenter"",""1"",""1003""
","
","","","39.700000047683716","","","25","17722","440","s","elianto","#3366ff99","-1"," ","0","0","[890.1000001430511]","1","2","","","17722","93","5","2","win","no-go","0"
"pit-trial","215","1348275","0.0-98.0","battery-v0.2","","""event"",""trial"",""time""
""fullscreenenter"",""1"",""1003""
","
","
","""event"",""trial"",""time""
""fullscreenenter"",""1"",""1003""
","
","","","1230.0999999046326","","","25","17722","440","d","elianto","#3366ff99"," "," ","1","+10","[2080.4000000953674]","1","2","","","17722","94","8","1","win","go","0"
"pit-trial","216","1353132","0.0-99.0","battery-v0.2","","""event"",""trial"",""time""
""fullscreenenter"",""1"",""1003""
","
","
","""event"",""trial"",""time""
""fullscreenenter"",""1"",""1003""
","
","","","-1","","","25","17722","440","e","elianto","#f73b6a7A","-1","-1","1","-10","[]","0","2","","","17722","95","7","4","lose","no-go","1"
"pit-trial","217","1356696","0.0-100.0","battery-v0.2","","""event"",""trial"",""time""
""fullscreenenter"",""1"",""1003""
","
","
","""event"",""trial"",""time""
""fullscreenenter"",""1"",""1003""
","
","","","708.2000000476837","","","25","17722","440","w","elianto","#f73b6a7A"," "," ","1","0","[1559.7999999523163]","1","2","","","17722","96","6","3","lose","go","0"
"pit-trial","218","1360259","0.0-101.0","battery-v0.2","","""event"",""trial"",""time""
""fullscreenenter"",""1"",""1003""
","
","
","""event"",""trial"",""time""
""fullscreenenter"",""1"",""1003""
","
","","","708.0999999046326","","","25","17722","440","e","elianto","#f73b6a7A","-1"," ","0","-10","[1559.2999999523163]","1","2","","","17722","97","7","4","lose","no-go","0"
"pit-trial","219","1363764","0.0-102.0","battery-v0.2","","""event"",""trial"",""time""
""fullscreenenter"",""1"",""1003""
","
","
","""event"",""trial"",""time""
""fullscreenenter"",""1"",""1003""
","
","","","649.7999999523163","","","25","17722","440","w","elianto","#f73b6a7A"," "," ","1","0","[1500.3999998569489]","1","2","","","17722","98","6","3","lose","go","0"
"pit-trial","220","1368201","0.0-103.0","battery-v0.2","","""event"",""trial"",""time""
""fullscreenenter"",""1"",""1003""
","
","
","""event"",""trial"",""time""
""fullscreenenter"",""1"",""1003""
","
","","","1581.9000000953674","","","25","17722","440","d","elianto","#3366ff99"," "," ","1","0","[2432.300000190735]","1","2","","","17722","99","8","1","win","go","1"
"pit-trial","221","1373056","0.0-104.0","battery-v0.2","","""event"",""trial"",""time""
""fullscreenenter"",""1"",""1003""
","
","
","""event"",""trial"",""time""
""fullscreenenter"",""1"",""1003""
","
","","","-1","","","25","17722","440","s","elianto","#3366ff99","-1","-1","1","+10","[]","0","2","","","17722","100","5","2","win","no-go","0"
"pit-trial","222","1376971","0.0-105.0","battery-v0.2","","""event"",""trial"",""time""
""fullscreenenter"",""1"",""1003""
","
","
","""event"",""trial"",""time""
""fullscreenenter"",""1"",""1003""
","
","","","1060.6000001430511","","","25","17722","440","j","elianto","#3366ff99"," "," ","1","+10","[1911.6000001430511]","1","2","","","17722","101","9","1","win","go","0"
"pit-trial","223","1381827","0.0-106.0","battery-v0.2","","""event"",""trial"",""time""
""fullscreenenter"",""1"",""1003""
","
","
","""event"",""trial"",""time""
""fullscreenenter"",""1"",""1003""
","
","","","-1","","","25","17722","440","d","elianto","#3366ff99"," ","-1","0","0","[]","0","2","","","17722","102","8","1","win","go","0"
"pit-trial","224","1386683","0.0-107.0","battery-v0.2","","""event"",""trial"",""time""
""fullscreenenter"",""1"",""1003""
","
","
","""event"",""trial"",""time""
""fullscreenenter"",""1"",""1003""
","
","","","-1","","","25","17722","440","s","elianto","#3366ff99","-1","-1","1","0","[]","0","2","","","17722","103","5","2","win","no-go","1"
"pit-trial","225","1390684","0.0-108.0","battery-v0.2","","""event"",""trial"",""time""
""fullscreenenter"",""1"",""1003""
","
","
","""event"",""trial"",""time""
""fullscreenenter"",""1"",""1003""
","
","","","1145.7999999523163","","","25","17722","440","e","elianto","#f73b6a7A","-1"," ","0","-10","[1996.9000000953674]","1","2","","","17722","104","7","4","lose","no-go","0"
"pit-trial","226","1394334","0.0-109.0","battery-v0.2","","""event"",""trial"",""time""
""fullscreenenter"",""1"",""1003""
","
","
","""event"",""trial"",""time""
""fullscreenenter"",""1"",""1003""
","
","","","795","","","25","17722","440","j","elianto","#3366ff99"," "," ","1","+10","[1645.3999998569489]","1","2","","","17722","105","9","1","win","go","0"
"pit-trial","227","1398184","0.0-110.0","battery-v0.2","","""event"",""trial"",""time""
""fullscreenenter"",""1"",""1003""
","
","
","""event"",""trial"",""time""
""fullscreenenter"",""1"",""1003""
","
","","","994.7999999523163","","","25","17722","440","d","elianto","#3366ff99"," "," ","1","+10","[1844.9000000953674]","1","2","","","17722","106","8","1","win","go","0"
"pit-trial","228","1403038","0.0-111.0","battery-v0.2","","""event"",""trial"",""time""
""fullscreenenter"",""1"",""1003""
","
","
","""event"",""trial"",""time""
""fullscreenenter"",""1"",""1003""
","
","","","-1","","","25","17722","440","p","elianto","#3366ff99"," ","-1","0","0","[]","0","2","","","17722","107","4","1","win","go","0"
"pit-trial","229","1407595","0.0-112.0","battery-v0.2","","""event"",""trial"",""time""
""fullscreenenter"",""1"",""1003""
","
","
","""event"",""trial"",""time""
""fullscreenenter"",""1"",""1003""
","
","","","1702.7999999523163","","","25","17722","440","w","elianto","#f73b6a7A"," "," ","1","0","[2553.300000190735]","1","2","","","17722","108","6","3","lose","go","0"
"pit-trial","230","1411518","0.0-113.0","battery-v0.2","","""event"",""trial"",""time""
""fullscreenenter"",""1"",""1003""
","
","
","""event"",""trial"",""time""
""fullscreenenter"",""1"",""1003""
","
","","","1067.3000001907349","","","25","17722","440","w","elianto","#f73b6a7A"," "," ","1","-10","[1918.2999999523163]","1","2","","","17722","109","6","3","lose","go","1"
"pit-trial","231","1416374","0.0-114.0","battery-v0.2","","""event"",""trial"",""time""
""fullscreenenter"",""1"",""1003""
","
","
","""event"",""trial"",""time""
""fullscreenenter"",""1"",""1003""
","
","","","-1","","","25","17722","440","s","elianto","#3366ff99","-1","-1","1","+10","[]","0","2","","","17722","110","5","2","win","no-go","0"
"pit-trial","232","1420052","0.0-115.0","battery-v0.2","","""event"",""trial"",""time""
""fullscreenenter"",""1"",""1003""
","
","
","""event"",""trial"",""time""
""fullscreenenter"",""1"",""1003""
","
","","","823.2999999523163","","","25","17722","440","d","elianto","#3366ff99"," "," ","1","+10","[1674.7000000476837]","1","2","","","17722","111","8","1","win","go","0"
"pit-trial","233","1423814","0.0-116.0","battery-v0.2","","""event"",""trial"",""time""
""fullscreenenter"",""1"",""1003""
","
","
","""event"",""trial"",""time""
""fullscreenenter"",""1"",""1003""
","
","","","905.6999998092651","","","25","17722","440","j","elianto","#3366ff99"," "," ","1","+10","[1757.0999999046326]","1","2","","","17722","112","9","1","win","go","0"
"pit-trial","234","1427632","0.0-117.0","battery-v0.2","","""event"",""trial"",""time""
""fullscreenenter"",""1"",""1003""
","
","
","""event"",""trial"",""time""
""fullscreenenter"",""1"",""1003""
","
","","","962.4000000953674","","","25","17722","440","j","elianto","#3366ff99"," "," ","1","+10","[1813.9000000953674]","1","2","","","17722","113","9","1","win","go","0"
"pit-trial","235","1432487","0.0-118.0","battery-v0.2","","""event"",""trial"",""time""
""fullscreenenter"",""1"",""1003""
","
","
","""event"",""trial"",""time""
""fullscreenenter"",""1"",""1003""
","
","","","-1","","","25","17722","440","d","elianto","#3366ff99"," ","-1","0","0","[]","0","2","","","17722","114","8","1","win","go","0"
"pit-trial","236","1437343","0.0-119.0","battery-v0.2","","""event"",""trial"",""time""
""fullscreenenter"",""1"",""1003""
","
","
","""event"",""trial"",""time""
""fullscreenenter"",""1"",""1003""
","
","","","-1","","","25","17722","440","w","elianto","#f73b6a7A"," ","-1","0","-10","[]","0","2","","","17722","115","6","3","lose","go","0"
"pit-trial","237","1442198","0.0-120.0","battery-v0.2","","""event"",""trial"",""time""
""fullscreenenter"",""1"",""1003""
","
","
","""event"",""trial"",""time""
""fullscreenenter"",""1"",""1003""
","
","","","-1","","","25","17722","440","s","elianto","#3366ff99","-1","-1","1","+10","[]","0","2","","","17722","116","5","2","win","no-go","0"
"pit-trial","238","1447054","0.0-121.0","battery-v0.2","","""event"",""trial"",""time""
""fullscreenenter"",""1"",""1003""
","
","
","""event"",""trial"",""time""
""fullscreenenter"",""1"",""1003""
","
","","","-1","","","25","17722","440","j","elianto","#3366ff99"," ","-1","0","0","[]","0","2","","","17722","117","9","1","win","go","0"
"pit-trial","239","1450758","0.0-122.0","battery-v0.2","","""event"",""trial"",""time""
""fullscreenenter"",""1"",""1003""
","
","
","""event"",""trial"",""time""
""fullscreenenter"",""1"",""1003""
","
","","","849.5999999046326","","","25","17722","440","d","elianto","#3366ff99"," "," ","1","+10","[1700.4000000953674]","1","2","","","17722","118","8","1","win","go","0"
"pit-trial","240","1455614","0.0-123.0","battery-v0.2","","""event"",""trial"",""time""
""fullscreenenter"",""1"",""1003""
","
","
","""event"",""trial"",""time""
""fullscreenenter"",""1"",""1003""
","
","","","-1","","","25","17722","440","s","elianto","#3366ff99","-1","-1","1","+10","[]","0","2","","","17722","119","5","2","win","no-go","0"
"pit-trial","241","1460038","0.0-124.0","battery-v0.2","","""event"",""trial"",""time""
""fullscreenenter"",""1"",""1003""
","
","
","""event"",""trial"",""time""
""fullscreenenter"",""1"",""1003""
","
","","","1569.4000000953674","","","25","17722","440","w","elianto","#f73b6a7A"," "," ","1","0","[2420]","1","2","","","17722","120","6","3","lose","go","0"
"pit-trial","242","1463997","0.0-125.0","battery-v0.2","","""event"",""trial"",""time""
""fullscreenenter"",""1"",""1003""
","
","
","""event"",""trial"",""time""
""fullscreenenter"",""1"",""1003""
","
","","","1104.7999999523163","","","25","17722","440","e","elianto","#f73b6a7A","-1"," ","0","-10","[1955.2000000476837]","1","2","","","17722","121","7","4","lose","no-go","0"
"pit-trial","243","1467856","0.0-126.0","battery-v0.2","","""event"",""trial"",""time""
""fullscreenenter"",""1"",""1003""
","
","
","""event"",""trial"",""time""
""fullscreenenter"",""1"",""1003""
","
","","","1003.1999998092651","","","25","17722","440","w","elianto","#f73b6a7A"," "," ","1","0","[1854.0999999046326]","1","2","","","17722","122","6","3","lose","go","0"
"pit-trial","244","1472404","0.0-127.0","battery-v0.2","","""event"",""trial"",""time""
""fullscreenenter"",""1"",""1003""
","
","
","""event"",""trial"",""time""
""fullscreenenter"",""1"",""1003""
","
","","","1694.4000000953674","","","25","17722","440","d","elianto","#3366ff99"," "," ","1","+10","[2544.5999999046326]","1","2","","","17722","123","8","1","win","go","0"
"pit-trial","245","1476380","0.0-128.0","battery-v0.2","","""event"",""trial"",""time""
""fullscreenenter"",""1"",""1003""
","
","
","""event"",""trial"",""time""
""fullscreenenter"",""1"",""1003""
","
","","","1121.0999999046326","","","25","17722","440","j","elianto","#3366ff99"," "," ","1","+10","[1971.5]","1","2","","","17722","124","9","1","win","go","0"
"pit-trial","246","1480523","0.0-129.0","battery-v0.2","","""event"",""trial"",""time""
""fullscreenenter"",""1"",""1003""
","
","
","""event"",""trial"",""time""
""fullscreenenter"",""1"",""1003""
","
","","","1287.7999999523163","","","25","17722","440","w","elianto","#f73b6a7A"," "," ","1","0","[2138.9000000953674]","1","2","","","17722","125","6","3","lose","go","0"
"pit-trial","247","1484115","0.0-130.0","battery-v0.2","","""event"",""trial"",""time""
""fullscreenenter"",""1"",""1003""
","
","
","""event"",""trial"",""time""
""fullscreenenter"",""1"",""1003""
","
","","","736.1000001430511","","","25","17722","440","j","elianto","#3366ff99"," "," ","1","+10","[1587.3999998569489]","1","2","","","17722","126","9","1","win","go","0"
"pit-trial","248","1488205","0.0-131.0","battery-v0.2","","""event"",""trial"",""time""
""fullscreenenter"",""1"",""1003""
","
","
","""event"",""trial"",""time""
""fullscreenenter"",""1"",""1003""
","
","","","1235.0999999046326","","","25","17722","440","e","elianto","#f73b6a7A","-1"," ","0","-10","[2085.800000190735]","1","2","","","17722","127","7","4","lose","no-go","0"
"pit-trial","249","1491629","0.0-132.0","battery-v0.2","","""event"",""trial"",""time""
""fullscreenenter"",""1"",""1003""
","
","
","""event"",""trial"",""time""
""fullscreenenter"",""1"",""1003""
","
","","","568.7000000476837","","","25","17722","440","d","elianto","#3366ff99"," "," ","1","0","[1419.2999999523163]","1","2","","","17722","128","8","1","win","go","1"
"pit-trial","250","1495284","0.0-133.0","battery-v0.2","","""event"",""trial"",""time""
""fullscreenenter"",""1"",""1003""
","
","
","""event"",""trial"",""time""
""fullscreenenter"",""1"",""1003""
","
","","","799.3999998569489","","","25","17722","440","w","elianto","#f73b6a7A"," "," ","1","0","[1650.4000000953674]","1","2","","","17722","129","6","3","lose","go","0"
"pit-trial","251","1498711","0.0-134.0","battery-v0.2","","""event"",""trial"",""time""
""fullscreenenter"",""1"",""1003""
","
","
","""event"",""trial"",""time""
""fullscreenenter"",""1"",""1003""
","
","","","571.9000000953674","","","25","17722","440","d","elianto","#3366ff99"," "," ","1","+10","[1422.9000000953674]","1","2","","","17722","130","8","1","win","go","0"
"pit-trial","252","1502437","0.0-135.0","battery-v0.2","","""event"",""trial"",""time""
""fullscreenenter"",""1"",""1003""
","
","
","""event"",""trial"",""time""
""fullscreenenter"",""1"",""1003""
","
","","","870.3999998569489","","","25","17722","440","j","elianto","#3366ff99"," "," ","1","+10","[1721.3999998569489]","1","2","","","17722","131","9","1","win","go","0"
"pit-trial","253","1507291","0.0-136.0","battery-v0.2","","""event"",""trial"",""time""
""fullscreenenter"",""1"",""1003""
","
","
","""event"",""trial"",""time""
""fullscreenenter"",""1"",""1003""
","
","","","-1","","","25","17722","440","e","elianto","#f73b6a7A","-1","-1","1","0","[]","0","2","","","17722","132","7","4","lose","no-go","0"
"pit-trial","254","1510841","0.0-137.0","battery-v0.2","","""event"",""trial"",""time""
""fullscreenenter"",""1"",""1003""
","
","
","""event"",""trial"",""time""
""fullscreenenter"",""1"",""1003""
","
","","","696","","","25","17722","440","j","elianto","#3366ff99"," "," ","1","+10","[1546.1999998092651]","1","2","","","17722","133","9","1","win","go","0"
"pit-trial","255","1515227","0.0-138.0","battery-v0.2","","""event"",""trial"",""time""
""fullscreenenter"",""1"",""1003""
","
","
","""event"",""trial"",""time""
""fullscreenenter"",""1"",""1003""
","
","","","1531.2000000476837","","","25","17722","440","w","elianto","#f73b6a7A"," "," ","1","-10","[2381.4000000953674]","1","2","","","17722","134","6","3","lose","go","1"
"pit-trial","256","1518623","0.0-139.0","battery-v0.2","","""event"",""trial"",""time""
""fullscreenenter"",""1"",""1003""
","
","
","""event"",""trial"",""time""
""fullscreenenter"",""1"",""1003""
","
","","","540.5","","","25","17722","440","e","elianto","#f73b6a7A","-1"," ","0","0","[1391.5]","1","2","","","17722","135","7","4","lose","no-go","1"
"pit-trial","257","1523479","0.0-140.0","battery-v0.2","","""event"",""trial"",""time""
""fullscreenenter"",""1"",""1003""
","
","
","""event"",""trial"",""time""
""fullscreenenter"",""1"",""1003""
","
","","","-1","","","25","17722","440","d","elianto","#3366ff99"," ","-1","0","0","[]","0","2","","","17722","136","8","1","win","go","0"
"pit-trial","258","1527231","0.0-141.0","battery-v0.2","","""event"",""trial"",""time""
""fullscreenenter"",""1"",""1003""
","
","
","""event"",""trial"",""time""
""fullscreenenter"",""1"",""1003""
","
","","","897.2999999523163","","","25","17722","440","j","elianto","#3366ff99"," "," ","1","+10","[1747.7000000476837]","1","2","","","17722","137","9","1","win","go","0"
"pit-trial","259","1532087","0.0-142.0","battery-v0.2","","""event"",""trial"",""time""
""fullscreenenter"",""1"",""1003""
","
","
","""event"",""trial"",""time""
""fullscreenenter"",""1"",""1003""
","
","","","-1","","","25","17722","440","w","elianto","#f73b6a7A"," ","-1","0","-10","[]","0","2","","","17722","138","6","3","lose","go","0"
"pit-trial","260","1536943","0.0-143.0","battery-v0.2","","""event"",""trial"",""time""
""fullscreenenter"",""1"",""1003""
","
","
","""event"",""trial"",""time""
""fullscreenenter"",""1"",""1003""
","
","","","-1","","","25","17722","440","e","elianto","#f73b6a7A","-1","-1","1","0","[]","0","2","","","17722","139","7","4","lose","no-go","0"
"pit-trial","261","1541799","0.0-144.0","battery-v0.2","","""event"",""trial"",""time""
""fullscreenenter"",""1"",""1003""
""blur"",""262"",""1855896""
""focus"",""262"",""1864313""
","""event"",""trial"",""time""
""blur"",""262"",""1855896""
","""event"",""trial"",""time""
""focus"",""262"",""1864313""
","""event"",""trial"",""time""
""fullscreenenter"",""1"",""1003""
","
","","","-1","","","25","17722","440","d","elianto","#3366ff99"," ","-1","0","0","[]","0","2","","","17722","140","8","1","win","go","0"
"pit-instructions","262","1875969","0.0-145.0","battery-v0.2","","""event"",""trial"",""time""
""fullscreenenter"",""1"",""1003""
""blur"",""262"",""1855896""
""focus"",""262"",""1864313""
","""event"",""trial"",""time""
""blur"",""262"",""1855896""
","""event"",""trial"",""time""
""focus"",""262"",""1864313""
","""event"",""trial"",""time""
""fullscreenenter"",""1"",""1003""
","
","","[{""page_index"":0,""viewing_time"":325259.59999990463},{""page_index"":1,""viewing_time"":8938.100000143051}]","334198.2000000477","","","","","","","","","","","","","","","","","","","","","","","",""
"pit-trial","263","1880827","0.0-146.0","battery-v0.2","","""event"",""trial"",""time""
""fullscreenenter"",""1"",""1003""
""blur"",""262"",""1855896""
""focus"",""262"",""1864313""
","""event"",""trial"",""time""
""blur"",""262"",""1855896""
","""event"",""trial"",""time""
""focus"",""262"",""1864313""
","""event"",""trial"",""time""
""fullscreenenter"",""1"",""1003""
","
","","","-1","","","25","17722","440","t","elianto","#f73b6a7A","-1","-1","1","-10","[]","0","3","","","17722","141","2","4","lose","no-go","1"
"pit-trial","264","1885679","0.0-147.0","battery-v0.2","","""event"",""trial"",""time""
""fullscreenenter"",""1"",""1003""
""blur"",""262"",""1855896""
""focus"",""262"",""1864313""
","""event"",""trial"",""time""
