"trial_type","trial_index","time_elapsed","internal_node_id","task_version","subject_id","interactions","blur_events","focus_events","fullscreenenter_events","fullscreenexit_events","success","view_history","rt","responses","num_errors","age","subject","participantId","rune","rune_set","hex","correct","choice","accuracy","outcome","keys","total_keys","block","practice","value","sub","trial","stimulus","robot","valence","action","sham"
"pavlovia","0","13","0.0-0.0","battery-v0.2","","""event"",""trial"",""time""
""fullscreenenter"",""1"",""1298""
","
","
","""event"",""trial"",""time""
""fullscreenenter"",""1"",""1298""
","
","","","","","","","","","","","","","","","","","","","","","","","","","","",""
"fullscreen","1","2264","0.0-1.0","battery-v0.2","","""event"",""trial"",""time""
""fullscreenenter"",""1"",""1298""
","
","
","""event"",""trial"",""time""
""fullscreenenter"",""1"",""1298""
","
","true","","","","","","","","","","","","","","","","","","","","","","","","","",""
"pit-instructions","2","12465","0.0-2.0-0.0","battery-v0.2","","""event"",""trial"",""time""
""fullscreenenter"",""1"",""1298""
","
","
","""event"",""trial"",""time""
""fullscreenenter"",""1"",""1298""
","
","","[{""page_index"":0,""viewing_time"":10196.80000000447}]","10197.20000000298","","","","","","","","","","","","","","","","","","","","","","","",""
"pit-comprehension","3","21073","0.0-2.0-1.0-0.0","battery-v0.2","","""event"",""trial"",""time""
""fullscreenenter"",""1"",""1298""
","
","
","""event"",""trial"",""time""
""fullscreenenter"",""1"",""1298""
","
","","","8603.5","[""fish""]","1","24","10375","1787","","","","","","","","","","","","","","","","","","",""
"pit-instructions","4","24435","0.0-2.0-1.0-1.0","battery-v0.2","","""event"",""trial"",""time""
""fullscreenenter"",""1"",""1298""
","
","
","""event"",""trial"",""time""
""fullscreenenter"",""1"",""1298""
","
","","[{""page_index"":0,""viewing_time"":3332.6999999955297}]","3332.89999999851","","","","","","","","","","","","","","","","","","","","","","","",""
"pit-instructions","5","27394","0.0-2.0-1.0-2.0-0.0","battery-v0.2","","""event"",""trial"",""time""
""fullscreenenter"",""1"",""1298""
","
","
","""event"",""trial"",""time""
""fullscreenenter"",""1"",""1298""
","
","","[{""page_index"":0,""viewing_time"":2956.0999999940395}]","2956.5","","","","","","","","","","","","","","","","","","","","","","","",""
"pit-comprehension","6","29454","0.0-2.0-1.1-0.1","battery-v0.2","","""event"",""trial"",""time""
""fullscreenenter"",""1"",""1298""
""fullscreenexit"",""7"",""31439""
""blur"",""7"",""33105""
""focus"",""7"",""43573""
","""event"",""trial"",""time""
""blur"",""7"",""33105""
","""event"",""trial"",""time""
""focus"",""7"",""43573""
","""event"",""trial"",""time""
""fullscreenenter"",""1"",""1298""
","""event"",""trial"",""time""
""fullscreenexit"",""7"",""31439""
","","","2057","[""shark""]","0","24","10375","1787","","","","","","","","","","","","","","","","","","",""
"pit-instructions","7","43684","0.0-2.0-1.1-1.1","battery-v0.2","","""event"",""trial"",""time""
""fullscreenenter"",""1"",""1298""
""fullscreenexit"",""7"",""31439""
""blur"",""7"",""33105""
""focus"",""7"",""43573""
","""event"",""trial"",""time""
""blur"",""7"",""33105""
","""event"",""trial"",""time""
""focus"",""7"",""43573""
","""event"",""trial"",""time""
""fullscreenenter"",""1"",""1298""
","""event"",""trial"",""time""
""fullscreenexit"",""7"",""31439""
","","[{""page_index"":0,""viewing_time"":14225.79999999702}]","14226.09999999404","","","","","","","","","","","","","","","","","","","","","","","",""
"pit-comprehension","8","46273","0.0-2.0-2.0-0.0","battery-v0.2","","""event"",""trial"",""time""
""fullscreenenter"",""1"",""1298""
""fullscreenexit"",""7"",""31439""
""blur"",""7"",""33105""
""focus"",""7"",""43573""
","""event"",""trial"",""time""
""blur"",""7"",""33105""
","""event"",""trial"",""time""
""focus"",""7"",""43573""
","""event"",""trial"",""time""
""fullscreenenter"",""1"",""1298""
","""event"",""trial"",""time""
""fullscreenexit"",""7"",""31439""
","","","2585.10000000149","[""tiger""]","0","24","10375","1787","","","","","","","","","","","","","","","","","","",""
"pit-instructions","9","48410","0.0-2.0-2.0-1.0","battery-v0.2","","""event"",""trial"",""time""
""fullscreenenter"",""1"",""1298""
""fullscreenexit"",""7"",""31439""
""blur"",""7"",""33105""
""focus"",""7"",""43573""
","""event"",""trial"",""time""
""blur"",""7"",""33105""
","""event"",""trial"",""time""
""focus"",""7"",""43573""
","""event"",""trial"",""time""
""fullscreenenter"",""1"",""1298""
","""event"",""trial"",""time""
""fullscreenexit"",""7"",""31439""
","","[{""page_index"":0,""viewing_time"":2131.7000000029802}]","2132.10000000149","","","","","","","","","","","","","","","","","","","","","","","",""
"pit-instructions","10","275647","0.0-2.0-3.0","battery-v0.2","","""event"",""trial"",""time""
""fullscreenenter"",""1"",""1298""
""fullscreenexit"",""7"",""31439""
""blur"",""7"",""33105""
""focus"",""7"",""43573""
","""event"",""trial"",""time""
""blur"",""7"",""33105""
","""event"",""trial"",""time""
""focus"",""7"",""43573""
","""event"",""trial"",""time""
""fullscreenenter"",""1"",""1298""
","""event"",""trial"",""time""
""fullscreenexit"",""7"",""31439""
","","[{""page_index"":0,""viewing_time"":8714.30000000447},{""page_index"":1,""viewing_time"":95594.69999999553},{""page_index"":2,""viewing_time"":8830.80000000447},{""page_index"":3,""viewing_time"":7245.0999999940395},{""page_index"":4,""viewing_time"":11071.30000000447},{""page_index"":5,""viewing_time"":38014.29999999702},{""page_index"":6,""viewing_time"":7402.30000000447},{""page_index"":7,""viewing_time"":7886.19999999553},{""page_index"":8,""viewing_time"":6818.39999999851},{""page_index"":9,""viewing_time"":8462.5},{""page_index"":10,""viewing_time"":7763.10000000149},{""page_index"":11,""viewing_time"":8298.60000000149},{""page_index"":12,""viewing_time"":6443.70000000298},{""page_index"":13,""viewing_time"":4682.0999999940395}]","227227.80000000447","","","","","","","","","","","","","","","","","","","","","","","",""
"pit-trial","11","278663","0.0-2.0-4.0-0.0","battery-v0.2","","""event"",""trial"",""time""
""fullscreenenter"",""1"",""1298""
""fullscreenexit"",""7"",""31439""
""blur"",""7"",""33105""
""focus"",""7"",""43573""
","""event"",""trial"",""time""
""blur"",""7"",""33105""
","""event"",""trial"",""time""
""focus"",""7"",""43573""
","""event"",""trial"",""time""
""fullscreenenter"",""1"",""1298""
","""event"",""trial"",""time""
""fullscreenexit"",""7"",""31439""
","","","150.10000000149012","","","24","10375","1787","&#9784;","elianto","#FFFFF080"," "," ","1","&#10004","[1001]","1","0","0","","","","","","","",""
"pit-trial","12","281686","0.0-2.0-4.1-0.1","battery-v0.2","","""event"",""trial"",""time""
""fullscreenenter"",""1"",""1298""
""fullscreenexit"",""7"",""31439""
""blur"",""7"",""33105""
""focus"",""7"",""43573""
","""event"",""trial"",""time""
""blur"",""7"",""33105""
","""event"",""trial"",""time""
""focus"",""7"",""43573""
","""event"",""trial"",""time""
""fullscreenenter"",""1"",""1298""
","""event"",""trial"",""time""
""fullscreenexit"",""7"",""31439""
","","","155.20000000298023","","","24","10375","1787","&#9784;","elianto","#FFFFF080"," "," ","1","&#10004","[1006]","1","0","0","","","","","","","",""
"pit-trial","13","284910","0.0-2.0-4.2-0.2","battery-v0.2","","""event"",""trial"",""time""
""fullscreenenter"",""1"",""1298""
""fullscreenexit"",""7"",""31439""
""blur"",""7"",""33105""
""focus"",""7"",""43573""
","""event"",""trial"",""time""
""blur"",""7"",""33105""
","""event"",""trial"",""time""
""focus"",""7"",""43573""
","""event"",""trial"",""time""
""fullscreenenter"",""1"",""1298""
","""event"",""trial"",""time""
""fullscreenexit"",""7"",""31439""
","","","366.79999999701977","","","24","10375","1787","&#9784;","elianto","#FFFFF080"," "," ","1","&#10004","[1218.5]","1","0","0","","","","","","","",""
"pit-trial","14","287949","0.0-2.0-4.3-0.3","battery-v0.2","","""event"",""trial"",""time""
""fullscreenenter"",""1"",""1298""
""fullscreenexit"",""7"",""31439""
""blur"",""7"",""33105""
""focus"",""7"",""43573""
","""event"",""trial"",""time""
""blur"",""7"",""33105""
","""event"",""trial"",""time""
""focus"",""7"",""43573""
","""event"",""trial"",""time""
""fullscreenenter"",""1"",""1298""
","""event"",""trial"",""time""
""fullscreenexit"",""7"",""31439""
","","","172","","","24","10375","1787","&#9784;","elianto","#FFFFF080"," "," ","1","&#10004","[1022.7000000029802]","1","0","0","","","","","","","",""
"pit-trial","15","290934","0.0-2.0-4.4-0.4","battery-v0.2","","""event"",""trial"",""time""
""fullscreenenter"",""1"",""1298""
""fullscreenexit"",""7"",""31439""
""blur"",""7"",""33105""
""focus"",""7"",""43573""
","""event"",""trial"",""time""
""blur"",""7"",""33105""
","""event"",""trial"",""time""
""focus"",""7"",""43573""
","""event"",""trial"",""time""
""fullscreenenter"",""1"",""1298""
","""event"",""trial"",""time""
""fullscreenexit"",""7"",""31439""
","","","130.29999999701977","","","24","10375","1787","&#9784;","elianto","#FFFFF080"," "," ","1","&#10004","[982]","1","0","0","","","","","","","",""
"pit-instructions","16","310682","0.0-2.0-5.0","battery-v0.2","","""event"",""trial"",""time""
""fullscreenenter"",""1"",""1298""
""fullscreenexit"",""7"",""31439""
""blur"",""7"",""33105""
""focus"",""7"",""43573""
","""event"",""trial"",""time""
""blur"",""7"",""33105""
","""event"",""trial"",""time""
""focus"",""7"",""43573""
","""event"",""trial"",""time""
""fullscreenenter"",""1"",""1298""
","""event"",""trial"",""time""
""fullscreenexit"",""7"",""31439""
","","[{""page_index"":0,""viewing_time"":4183.30000000447},{""page_index"":1,""viewing_time"":6166.89999999851},{""page_index"":2,""viewing_time"":4082.89999999851},{""page_index"":3,""viewing_time"":5311.30000000447}]","19744.80000000447","","","","","","","","","","","","","","","","","","","","","","","",""
"pit-trial","17","315557","0.0-2.0-6.0-0.0","battery-v0.2","","""event"",""trial"",""time""
""fullscreenenter"",""1"",""1298""
""fullscreenexit"",""7"",""31439""
""blur"",""7"",""33105""
""focus"",""7"",""43573""
","""event"",""trial"",""time""
""blur"",""7"",""33105""
","""event"",""trial"",""time""
""focus"",""7"",""43573""
","""event"",""trial"",""time""
""fullscreenenter"",""1"",""1298""
","""event"",""trial"",""time""
""fullscreenexit"",""7"",""31439""
","","","-1","","","24","10375","1787","&#9854;","elianto","#FFFFF080","-1","-1","1","&#10004","[]","0","0","1","","","","","","","",""
"pit-trial","18","320426","0.0-2.0-6.1-0.1","battery-v0.2","","""event"",""trial"",""time""
""fullscreenenter"",""1"",""1298""
""fullscreenexit"",""7"",""31439""
""blur"",""7"",""33105""
""focus"",""7"",""43573""
","""event"",""trial"",""time""
""blur"",""7"",""33105""
","""event"",""trial"",""time""
""focus"",""7"",""43573""
","""event"",""trial"",""time""
""fullscreenenter"",""1"",""1298""
","""event"",""trial"",""time""
""fullscreenexit"",""7"",""31439""
","","","-1","","","24","10375","1787","&#9854;","elianto","#FFFFF080","-1","-1","1","&#10004","[]","0","0","1","","","","","","","",""
"pit-trial","19","325294","0.0-2.0-6.2-0.2","battery-v0.2","","""event"",""trial"",""time""
""fullscreenenter"",""1"",""1298""
""fullscreenexit"",""7"",""31439""
""blur"",""7"",""33105""
""focus"",""7"",""43573""
","""event"",""trial"",""time""
""blur"",""7"",""33105""
","""event"",""trial"",""time""
""focus"",""7"",""43573""
","""event"",""trial"",""time""
""fullscreenenter"",""1"",""1298""
","""event"",""trial"",""time""
""fullscreenexit"",""7"",""31439""
","","","-1","","","24","10375","1787","&#9854;","elianto","#FFFFF080","-1","-1","1","&#10004","[]","0","0","1","","","","","","","",""
"pit-trial","20","330165","0.0-2.0-6.3-0.3","battery-v0.2","","""event"",""trial"",""time""
""fullscreenenter"",""1"",""1298""
""fullscreenexit"",""7"",""31439""
""blur"",""7"",""33105""
""focus"",""7"",""43573""
","""event"",""trial"",""time""
""blur"",""7"",""33105""
","""event"",""trial"",""time""
""focus"",""7"",""43573""
","""event"",""trial"",""time""
""fullscreenenter"",""1"",""1298""
","""event"",""trial"",""time""
""fullscreenexit"",""7"",""31439""
","","","-1","","","24","10375","1787","&#9854;","elianto","#FFFFF080","-1","-1","1","&#10004","[]","0","0","1","","","","","","","",""
"pit-trial","21","335047","0.0-2.0-6.4-0.4","battery-v0.2","","""event"",""trial"",""time""
""fullscreenenter"",""1"",""1298""
""fullscreenexit"",""7"",""31439""
""blur"",""7"",""33105""
""focus"",""7"",""43573""
","""event"",""trial"",""time""
""blur"",""7"",""33105""
","""event"",""trial"",""time""
""focus"",""7"",""43573""
","""event"",""trial"",""time""
""fullscreenenter"",""1"",""1298""
","""event"",""trial"",""time""
""fullscreenexit"",""7"",""31439""
","","","-1","","","24","10375","1787","&#9854;","elianto","#FFFFF080","-1","-1","1","&#10004","[]","0","0","1","","","","","","","",""
"pit-instructions","22","475911","0.0-2.0-7.0","battery-v0.2","","""event"",""trial"",""time""
""fullscreenenter"",""1"",""1298""
""fullscreenexit"",""7"",""31439""
""blur"",""7"",""33105""
""focus"",""7"",""43573""
","""event"",""trial"",""time""
""blur"",""7"",""33105""
","""event"",""trial"",""time""
""focus"",""7"",""43573""
","""event"",""trial"",""time""
""fullscreenenter"",""1"",""1298""
","""event"",""trial"",""time""
""fullscreenexit"",""7"",""31439""
","","[{""page_index"":0,""viewing_time"":6480.60000000149},{""page_index"":1,""viewing_time"":17740.80000000447},{""page_index"":2,""viewing_time"":7809.79999999702},{""page_index"":3,""viewing_time"":6409.89999999851},{""page_index"":4,""viewing_time"":6969.5},{""page_index"":5,""viewing_time"":6706.30000000447},{""page_index"":6,""viewing_time"":6340.89999999851},{""page_index"":7,""viewing_time"":8612.79999999702},{""page_index"":8,""viewing_time"":8202.10000000149},{""page_index"":9,""viewing_time"":6478.70000000298},{""page_index"":10,""viewing_time"":6216.5},{""page_index"":11,""viewing_time"":7749.89999999851},{""page_index"":12,""viewing_time"":7988.89999999851},{""page_index"":13,""viewing_time"":7514.89999999851},{""page_index"":14,""viewing_time"":7746.30000000447},{""page_index"":15,""viewing_time"":6546.0999999940395},{""page_index"":16,""viewing_time"":6172.20000000298},{""page_index"":17,""viewing_time"":9173.79999999702}]","140860.40000000596","","","","","","","","","","","","","","","","","","","","","","","",""
"pit-trial","23","480750","0.0-2.0-8.0-0.0","battery-v0.2","","""event"",""trial"",""time""
""fullscreenenter"",""1"",""1298""
""fullscreenexit"",""7"",""31439""
""blur"",""7"",""33105""
""focus"",""7"",""43573""
","""event"",""trial"",""time""
""blur"",""7"",""33105""
","""event"",""trial"",""time""
""focus"",""7"",""43573""
","""event"",""trial"",""time""
""fullscreenenter"",""1"",""1298""
","""event"",""trial"",""time""
""fullscreenexit"",""7"",""31439""
","","","1975.6000000014901","","","24","10375","1787","&#9776;","elianto","#3366ff99"," "," ","1","+10","[2832.8000000044703]","1","0","1","","","","","","","",""
"pit-trial","24","484054","0.0-2.0-8.0-1.0","battery-v0.2","","""event"",""trial"",""time""
""fullscreenenter"",""1"",""1298""
""fullscreenexit"",""7"",""31439""
""blur"",""7"",""33105""
""focus"",""7"",""43573""
","""event"",""trial"",""time""
""blur"",""7"",""33105""
","""event"",""trial"",""time""
""focus"",""7"",""43573""
","""event"",""trial"",""time""
""fullscreenenter"",""1"",""1298""
","""event"",""trial"",""time""
""fullscreenexit"",""7"",""31439""
","","","434.8999999985099","","","24","10375","1787","&#9776;","elianto","#3366ff99"," "," ","1","+10","[1286.5]","1","0","1","","","","","","","",""
"pit-trial","25","487388","0.0-2.0-8.0-2.0","battery-v0.2","","""event"",""trial"",""time""
""fullscreenenter"",""1"",""1298""
""fullscreenexit"",""7"",""31439""
""blur"",""7"",""33105""
""focus"",""7"",""43573""
","""event"",""trial"",""time""
""blur"",""7"",""33105""
","""event"",""trial"",""time""
""focus"",""7"",""43573""
","""event"",""trial"",""time""
""fullscreenenter"",""1"",""1298""
","""event"",""trial"",""time""
""fullscreenexit"",""7"",""31439""
","","","469","","","24","10375","1787","&#9776;","elianto","#3366ff99"," "," ","1","+10","[1319.3999999985099]","1","0","1","","","","","","","",""
"pit-trial","26","490604","0.0-2.0-8.0-3.0","battery-v0.2","","""event"",""trial"",""time""
""fullscreenenter"",""1"",""1298""
""fullscreenexit"",""7"",""31439""
""blur"",""7"",""33105""
""focus"",""7"",""43573""
","""event"",""trial"",""time""
""blur"",""7"",""33105""
","""event"",""trial"",""time""
""focus"",""7"",""43573""
","""event"",""trial"",""time""
""fullscreenenter"",""1"",""1298""
","""event"",""trial"",""time""
""fullscreenexit"",""7"",""31439""
","","","351","","","24","10375","1787","&#9776;","elianto","#3366ff99"," "," ","1","0","[1203.1999999955297]","1","0","1","","","","","","","",""
"pit-trial","27","494160","0.0-2.0-8.0-4.0","battery-v0.2","","""event"",""trial"",""time""
""fullscreenenter"",""1"",""1298""
""fullscreenexit"",""7"",""31439""
""blur"",""7"",""33105""
""focus"",""7"",""43573""
","""event"",""trial"",""time""
""blur"",""7"",""33105""
","""event"",""trial"",""time""
""focus"",""7"",""43573""
","""event"",""trial"",""time""
""fullscreenenter"",""1"",""1298""
","""event"",""trial"",""time""
""fullscreenexit"",""7"",""31439""
","","","690.1999999955297","","","24","10375","1787","&#9776;","elianto","#3366ff99"," "," ","1","+10","[1540.5]","1","0","1","","","","","","","",""
"pit-trial","28","497476","0.0-2.0-8.1-0.1","battery-v0.2","","""event"",""trial"",""time""
""fullscreenenter"",""1"",""1298""
""fullscreenexit"",""7"",""31439""
""blur"",""7"",""33105""
""focus"",""7"",""43573""
","""event"",""trial"",""time""
""blur"",""7"",""33105""
","""event"",""trial"",""time""
""focus"",""7"",""43573""
","""event"",""trial"",""time""
""fullscreenenter"",""1"",""1298""
","""event"",""trial"",""time""
""fullscreenexit"",""7"",""31439""
","","","458.30000000447035","","","24","10375","1787","&#9776;","elianto","#3366ff99"," "," ","1","+10","[1309.7000000029802]","1","0","1","","","","","","","",""
"pit-trial","29","500839","0.0-2.0-8.1-1.1","battery-v0.2","","""event"",""trial"",""time""
""fullscreenenter"",""1"",""1298""
""fullscreenexit"",""7"",""31439""
""blur"",""7"",""33105""
""focus"",""7"",""43573""
","""event"",""trial"",""time""
""blur"",""7"",""33105""
","""event"",""trial"",""time""
""focus"",""7"",""43573""
","""event"",""trial"",""time""
""fullscreenenter"",""1"",""1298""
","""event"",""trial"",""time""
""fullscreenexit"",""7"",""31439""
","","","504.8999999985099","","","24","10375","1787","&#9776;","elianto","#3366ff99"," "," ","1","+10","[1355.5]","1","0","1","","","","","","","",""
"pit-trial","30","505179","0.0-2.0-8.1-2.1","battery-v0.2","","""event"",""trial"",""time""
""fullscreenenter"",""1"",""1298""
""fullscreenexit"",""7"",""31439""
""blur"",""7"",""33105""
""focus"",""7"",""43573""
","""event"",""trial"",""time""
""blur"",""7"",""33105""
","""event"",""trial"",""time""
""focus"",""7"",""43573""
","""event"",""trial"",""time""
""fullscreenenter"",""1"",""1298""
","""event"",""trial"",""time""
""fullscreenexit"",""7"",""31439""
","","","1487.3000000044703","","","24","10375","1787","&#9776;","elianto","#3366ff99"," "," ","1","+10","[2337.39999999851]","1","0","1","","","","","","","",""
"pit-trial","31","508795","0.0-2.0-8.1-3.1","battery-v0.2","","""event"",""trial"",""time""
""fullscreenenter"",""1"",""1298""
""fullscreenexit"",""7"",""31439""
""blur"",""7"",""33105""
""focus"",""7"",""43573""
","""event"",""trial"",""time""
""blur"",""7"",""33105""
","""event"",""trial"",""time""
""focus"",""7"",""43573""
","""event"",""trial"",""time""
""fullscreenenter"",""1"",""1298""
","""event"",""trial"",""time""
""fullscreenexit"",""7"",""31439""
","","","763.5999999940395","","","24","10375","1787","&#9776;","elianto","#3366ff99"," "," ","1","0","[1613.6999999955297]","1","0","1","","","","","","","",""
"pit-trial","32","512090","0.0-2.0-8.1-4.1","battery-v0.2","","""event"",""trial"",""time""
""fullscreenenter"",""1"",""1298""
""fullscreenexit"",""7"",""31439""
""blur"",""7"",""33105""
""focus"",""7"",""43573""
","""event"",""trial"",""time""
""blur"",""7"",""33105""
","""event"",""trial"",""time""
""focus"",""7"",""43573""
","""event"",""trial"",""time""
""fullscreenenter"",""1"",""1298""
","""event"",""trial"",""time""
""fullscreenexit"",""7"",""31439""
","","","441.69999999552965","","","24","10375","1787","&#9776;","elianto","#3366ff99"," "," ","1","+10","[1291.7999999970198]","1","0","1","","","","","","","",""
"pit-trial","33","515394","0.0-2.0-8.2-0.2","battery-v0.2","","""event"",""trial"",""time""
""fullscreenenter"",""1"",""1298""
""fullscreenexit"",""7"",""31439""
""blur"",""7"",""33105""
""focus"",""7"",""43573""
","""event"",""trial"",""time""
""blur"",""7"",""33105""
","""event"",""trial"",""time""
""focus"",""7"",""43573""
","""event"",""trial"",""time""
""fullscreenenter"",""1"",""1298""
","""event"",""trial"",""time""
""fullscreenexit"",""7"",""31439""
","","","448.69999999552965","","","24","10375","1787","&#9776;","elianto","#3366ff99"," "," ","1","+10","[136.79999999701977,1300.0999999940395]","2","0","1","","","","","","","",""
"pit-trial","34","518846","0.0-2.0-8.2-1.2","battery-v0.2","","""event"",""trial"",""time""
""fullscreenenter"",""1"",""1298""
""fullscreenexit"",""7"",""31439""
""blur"",""7"",""33105""
""focus"",""7"",""43573""
","""event"",""trial"",""time""
""blur"",""7"",""33105""
","""event"",""trial"",""time""
""focus"",""7"",""43573""
","""event"",""trial"",""time""
""fullscreenenter"",""1"",""1298""
","""event"",""trial"",""time""
""fullscreenexit"",""7"",""31439""
","","","600.1000000014901","","","24","10375","1787","&#9776;","elianto","#3366ff99"," "," ","1","+10","[1450.3000000044703]","1","0","1","","","","","","","",""
"pit-trial","35","522060","0.0-2.0-8.2-2.2","battery-v0.2","","""event"",""trial"",""time""
""fullscreenenter"",""1"",""1298""
""fullscreenexit"",""7"",""31439""
""blur"",""7"",""33105""
""focus"",""7"",""43573""
","""event"",""trial"",""time""
""blur"",""7"",""33105""
","""event"",""trial"",""time""
""focus"",""7"",""43573""
","""event"",""trial"",""time""
""fullscreenenter"",""1"",""1298""
","""event"",""trial"",""time""
""fullscreenexit"",""7"",""31439""
","","","360.1000000014901","","","24","10375","1787","&#9776;","elianto","#3366ff99"," "," ","1","+10","[1210.3999999985099]","1","0","1","","","","","","","",""
"pit-trial","36","525301","0.0-2.0-8.2-3.2","battery-v0.2","","""event"",""trial"",""time""
""fullscreenenter"",""1"",""1298""
""fullscreenexit"",""7"",""31439""
""blur"",""7"",""33105""
""focus"",""7"",""43573""
","""event"",""trial"",""time""
""blur"",""7"",""33105""
","""event"",""trial"",""time""
""focus"",""7"",""43573""
","""event"",""trial"",""time""
""fullscreenenter"",""1"",""1298""
","""event"",""trial"",""time""
""fullscreenexit"",""7"",""31439""
","","","386","","","24","10375","1787","&#9776;","elianto","#3366ff99"," "," ","1","0","[1238.2000000029802]","1","0","1","","","","","","","",""
"pit-trial","37","529125","0.0-2.0-8.2-4.2","battery-v0.2","","""event"",""trial"",""time""
""fullscreenenter"",""1"",""1298""
""fullscreenexit"",""7"",""31439""
""blur"",""7"",""33105""
""focus"",""7"",""43573""
","""event"",""trial"",""time""
""blur"",""7"",""33105""
","""event"",""trial"",""time""
""focus"",""7"",""43573""
","""event"",""trial"",""time""
""fullscreenenter"",""1"",""1298""
","""event"",""trial"",""time""
""fullscreenexit"",""7"",""31439""
","","","971.6999999955297","","","24","10375","1787","&#9776;","elianto","#3366ff99"," "," ","1","+10","[1821.8999999985099]","1","0","1","","","","","","","",""
"call-function","38","529127","0.0-2.0-9.0","battery-v0.2","","""event"",""trial"",""time""
""fullscreenenter"",""1"",""1298""
""fullscreenexit"",""7"",""31439""
""blur"",""7"",""33105""
""focus"",""7"",""43573""
","""event"",""trial"",""time""
""blur"",""7"",""33105""
","""event"",""trial"",""time""
""focus"",""7"",""43573""
","""event"",""trial"",""time""
""fullscreenenter"",""1"",""1298""
","""event"",""trial"",""time""
""fullscreenexit"",""7"",""31439""
","","","","","","","","","","","","","","","","","","","","","","","","","","",""
"pit-instructions","39","571331","0.0-2.0-10.0","battery-v0.2","","""event"",""trial"",""time""
""fullscreenenter"",""1"",""1298""
""fullscreenexit"",""7"",""31439""
""blur"",""7"",""33105""
""focus"",""7"",""43573""
","""event"",""trial"",""time""
""blur"",""7"",""33105""
","""event"",""trial"",""time""
""focus"",""7"",""43573""
","""event"",""trial"",""time""
""fullscreenenter"",""1"",""1298""
","""event"",""trial"",""time""
""fullscreenexit"",""7"",""31439""
","","[{""page_index"":0,""viewing_time"":5255.89999999851},{""page_index"":1,""viewing_time"":8126},{""page_index"":2,""viewing_time"":11217.20000000298},{""page_index"":3,""viewing_time"":10211.69999999553},{""page_index"":4,""viewing_time"":7391.5}]","42202.60000000149","","","","","","","","","","","","","","","","","","","","","","","",""
"pit-trial","40","574732","0.0-2.0-11.0-0.0","battery-v0.2","","""event"",""trial"",""time""
""fullscreenenter"",""1"",""1298""
""fullscreenexit"",""7"",""31439""
""blur"",""7"",""33105""
""focus"",""7"",""43573""
","""event"",""trial"",""time""
""blur"",""7"",""33105""
","""event"",""trial"",""time""
""focus"",""7"",""43573""
","""event"",""trial"",""time""
""fullscreenenter"",""1"",""1298""
","""event"",""trial"",""time""
""fullscreenexit"",""7"",""31439""
","","","535","","","24","10375","1787","&#9761;","elianto","#3366ff99","-1"," ","0","0","[1387]","1","0","2","","","","","","","",""
"pit-trial","41","577846","0.0-2.0-11.0-1.0","battery-v0.2","","""event"",""trial"",""time""
""fullscreenenter"",""1"",""1298""
""fullscreenexit"",""7"",""31439""
""blur"",""7"",""33105""
""focus"",""7"",""43573""
","""event"",""trial"",""time""
""blur"",""7"",""33105""
","""event"",""trial"",""time""
""focus"",""7"",""43573""
","""event"",""trial"",""time""
""fullscreenenter"",""1"",""1298""
","""event"",""trial"",""time""
""fullscreenexit"",""7"",""31439""
","","","259.29999999701977","","","24","10375","1787","&#9761;","elianto","#3366ff99","-1"," ","0","0","[1109.6000000014901]","1","0","2","","","","","","","",""
"pit-trial","42","582712","0.0-2.0-11.0-2.0","battery-v0.2","","""event"",""trial"",""time""
""fullscreenenter"",""1"",""1298""
""fullscreenexit"",""7"",""31439""
""blur"",""7"",""33105""
""focus"",""7"",""43573""
","""event"",""trial"",""time""
""blur"",""7"",""33105""
","""event"",""trial"",""time""
""focus"",""7"",""43573""
","""event"",""trial"",""time""
""fullscreenenter"",""1"",""1298""
","""event"",""trial"",""time""
""fullscreenexit"",""7"",""31439""
","","","-1","","","24","10375","1787","&#9761;","elianto","#3366ff99","-1","-1","1","+10","[]","0","0","2","","","","","","","",""
"pit-trial","43","587582","0.0-2.0-11.0-3.0","battery-v0.2","","""event"",""trial"",""time""
""fullscreenenter"",""1"",""1298""
""fullscreenexit"",""7"",""31439""
""blur"",""7"",""33105""
""focus"",""7"",""43573""
","""event"",""trial"",""time""
""blur"",""7"",""33105""
","""event"",""trial"",""time""
""focus"",""7"",""43573""
","""event"",""trial"",""time""
""fullscreenenter"",""1"",""1298""
","""event"",""trial"",""time""
""fullscreenexit"",""7"",""31439""
","","","-1","","","24","10375","1787","&#9761;","elianto","#3366ff99","-1","-1","1","0","[]","0","0","2","","","","","","","",""
"pit-trial","44","592444","0.0-2.0-11.0-4.0","battery-v0.2","","""event"",""trial"",""time""
""fullscreenenter"",""1"",""1298""
""fullscreenexit"",""7"",""31439""
""blur"",""7"",""33105""
""focus"",""7"",""43573""
","""event"",""trial"",""time""
""blur"",""7"",""33105""
","""event"",""trial"",""time""
""focus"",""7"",""43573""
","""event"",""trial"",""time""
""fullscreenenter"",""1"",""1298""
","""event"",""trial"",""time""
""fullscreenexit"",""7"",""31439""
","","","-1","","","24","10375","1787","&#9761;","elianto","#3366ff99","-1","-1","1","+10","[]","0","0","2","","","","","","","",""
"pit-trial","45","597320","0.0-2.0-11.1-0.1","battery-v0.2","","""event"",""trial"",""time""
""fullscreenenter"",""1"",""1298""
""fullscreenexit"",""7"",""31439""
""blur"",""7"",""33105""
""focus"",""7"",""43573""
","""event"",""trial"",""time""
""blur"",""7"",""33105""
","""event"",""trial"",""time""
""focus"",""7"",""43573""
","""event"",""trial"",""time""
""fullscreenenter"",""1"",""1298""
","""event"",""trial"",""time""
""fullscreenexit"",""7"",""31439""
","","","-1","","","24","10375","1787","&#9761;","elianto","#3366ff99","-1","-1","1","+10","[]","0","0","2","","","","","","","",""
"pit-trial","46","602176","0.0-2.0-11.1-1.1","battery-v0.2","","""event"",""trial"",""time""
""fullscreenenter"",""1"",""1298""
""fullscreenexit"",""7"",""31439""
""blur"",""7"",""33105""
""focus"",""7"",""43573""
","""event"",""trial"",""time""
""blur"",""7"",""33105""
","""event"",""trial"",""time""
""focus"",""7"",""43573""
","""event"",""trial"",""time""
""fullscreenenter"",""1"",""1298""
","""event"",""trial"",""time""
""fullscreenexit"",""7"",""31439""
","","","-1","","","24","10375","1787","&#9761;","elianto","#3366ff99","-1","-1","1","+10","[]","0","0","2","","","","","","","",""
"pit-trial","47","607029","0.0-2.0-11.1-2.1","battery-v0.2","","""event"",""trial"",""time""
""fullscreenenter"",""1"",""1298""
""fullscreenexit"",""7"",""31439""
""blur"",""7"",""33105""
""focus"",""7"",""43573""
","""event"",""trial"",""time""
""blur"",""7"",""33105""
","""event"",""trial"",""time""
""focus"",""7"",""43573""
","""event"",""trial"",""time""
""fullscreenenter"",""1"",""1298""
","""event"",""trial"",""time""
""fullscreenexit"",""7"",""31439""
","","","-1","","","24","10375","1787","&#9761;","elianto","#3366ff99","-1","-1","1","+10","[]","0","0","2","","","","","","","",""
"pit-trial","48","611885","0.0-2.0-11.1-3.1","battery-v0.2","","""event"",""trial"",""time""
""fullscreenenter"",""1"",""1298""
""fullscreenexit"",""7"",""31439""
""blur"",""7"",""33105""
""focus"",""7"",""43573""
","""event"",""trial"",""time""
""blur"",""7"",""33105""
","""event"",""trial"",""time""
""focus"",""7"",""43573""
","""event"",""trial"",""time""
""fullscreenenter"",""1"",""1298""
","""event"",""trial"",""time""
""fullscreenexit"",""7"",""31439""
","","","-1","","","24","10375","1787","&#9761;","elianto","#3366ff99","-1","-1","1","0","[]","0","0","2","","","","","","","",""
"pit-trial","49","616740","0.0-2.0-11.1-4.1","battery-v0.2","","""event"",""trial"",""time""
""fullscreenenter"",""1"",""1298""
""fullscreenexit"",""7"",""31439""
""blur"",""7"",""33105""
""focus"",""7"",""43573""
","""event"",""trial"",""time""
""blur"",""7"",""33105""
","""event"",""trial"",""time""
""focus"",""7"",""43573""
","""event"",""trial"",""time""
""fullscreenenter"",""1"",""1298""
","""event"",""trial"",""time""
""fullscreenexit"",""7"",""31439""
","","","-1","","","24","10375","1787","&#9761;","elianto","#3366ff99","-1","-1","1","+10","[]","0","0","2","","","","","","","",""
"pit-trial","50","621594","0.0-2.0-11.2-0.2","battery-v0.2","","""event"",""trial"",""time""
""fullscreenenter"",""1"",""1298""
""fullscreenexit"",""7"",""31439""
""blur"",""7"",""33105""
""focus"",""7"",""43573""
","""event"",""trial"",""time""
""blur"",""7"",""33105""
","""event"",""trial"",""time""
""focus"",""7"",""43573""
","""event"",""trial"",""time""
""fullscreenenter"",""1"",""1298""
","""event"",""trial"",""time""
""fullscreenexit"",""7"",""31439""
","","","-1","","","24","10375","1787","&#9761;","elianto","#3366ff99","-1","-1","1","+10","[]","0","0","2","","","","","","","",""
"pit-trial","51","626448","0.0-2.0-11.2-1.2","battery-v0.2","","""event"",""trial"",""time""
""fullscreenenter"",""1"",""1298""
""fullscreenexit"",""7"",""31439""
""blur"",""7"",""33105""
""focus"",""7"",""43573""
","""event"",""trial"",""time""
""blur"",""7"",""33105""
","""event"",""trial"",""time""
""focus"",""7"",""43573""
","""event"",""trial"",""time""
""fullscreenenter"",""1"",""1298""
","""event"",""trial"",""time""
""fullscreenexit"",""7"",""31439""
","","","-1","","","24","10375","1787","&#9761;","elianto","#3366ff99","-1","-1","1","+10","[]","0","0","2","","","","","","","",""
"pit-trial","52","631302","0.0-2.0-11.2-2.2","battery-v0.2","","""event"",""trial"",""time""
""fullscreenenter"",""1"",""1298""
""fullscreenexit"",""7"",""31439""
""blur"",""7"",""33105""
""focus"",""7"",""43573""
","""event"",""trial"",""time""
""blur"",""7"",""33105""
","""event"",""trial"",""time""
""focus"",""7"",""43573""
","""event"",""trial"",""time""
""fullscreenenter"",""1"",""1298""
","""event"",""trial"",""time""
""fullscreenexit"",""7"",""31439""
","","","-1","","","24","10375","1787","&#9761;","elianto","#3366ff99","-1","-1","1","+10","[]","0","0","2","","","","","","","",""
"pit-trial","53","636155","0.0-2.0-11.2-3.2","battery-v0.2","","""event"",""trial"",""time""
""fullscreenenter"",""1"",""1298""
""fullscreenexit"",""7"",""31439""
""blur"",""7"",""33105""
""focus"",""7"",""43573""
","""event"",""trial"",""time""
""blur"",""7"",""33105""
","""event"",""trial"",""time""
""focus"",""7"",""43573""
","""event"",""trial"",""time""
""fullscreenenter"",""1"",""1298""
","""event"",""trial"",""time""
""fullscreenexit"",""7"",""31439""
","","","-1","","","24","10375","1787","&#9761;","elianto","#3366ff99","-1","-1","1","0","[]","0","0","2","","","","","","","",""
"pit-trial","54","641008","0.0-2.0-11.2-4.2","battery-v0.2","","""event"",""trial"",""time""
""fullscreenenter"",""1"",""1298""
""fullscreenexit"",""7"",""31439""
""blur"",""7"",""33105""
""focus"",""7"",""43573""
","""event"",""trial"",""time""
""blur"",""7"",""33105""
","""event"",""trial"",""time""
""focus"",""7"",""43573""
","""event"",""trial"",""time""
""fullscreenenter"",""1"",""1298""
","""event"",""trial"",""time""
""fullscreenexit"",""7"",""31439""
","","","-1","","","24","10375","1787","&#9761;","elianto","#3366ff99","-1","-1","1","+10","[]","0","0","2","","","","","","","",""
"pit-trial","55","645865","0.0-2.0-11.3-0.3","battery-v0.2","","""event"",""trial"",""time""
""fullscreenenter"",""1"",""1298""
""fullscreenexit"",""7"",""31439""
""blur"",""7"",""33105""
""focus"",""7"",""43573""
","""event"",""trial"",""time""
""blur"",""7"",""33105""
","""event"",""trial"",""time""
""focus"",""7"",""43573""
","""event"",""trial"",""time""
""fullscreenenter"",""1"",""1298""
","""event"",""trial"",""time""
""fullscreenexit"",""7"",""31439""
","","","-1","","","24","10375","1787","&#9761;","elianto","#3366ff99","-1","-1","1","+10","[]","0","0","2","","","","","","","",""
"pit-trial","56","650719","0.0-2.0-11.3-1.3","battery-v0.2","","""event"",""trial"",""time""
""fullscreenenter"",""1"",""1298""
""fullscreenexit"",""7"",""31439""
""blur"",""7"",""33105""
""focus"",""7"",""43573""
","""event"",""trial"",""time""
""blur"",""7"",""33105""
","""event"",""trial"",""time""
""focus"",""7"",""43573""
","""event"",""trial"",""time""
""fullscreenenter"",""1"",""1298""
","""event"",""trial"",""time""
""fullscreenexit"",""7"",""31439""
","","","-1","","","24","10375","1787","&#9761;","elianto","#3366ff99","-1","-1","1","+10","[]","0","0","2","","","","","","","",""
"pit-trial","57","655584","0.0-2.0-11.3-2.3","battery-v0.2","","""event"",""trial"",""time""
""fullscreenenter"",""1"",""1298""
""fullscreenexit"",""7"",""31439""
""blur"",""7"",""33105""
""focus"",""7"",""43573""
","""event"",""trial"",""time""
""blur"",""7"",""33105""
","""event"",""trial"",""time""
""focus"",""7"",""43573""
","""event"",""trial"",""time""
""fullscreenenter"",""1"",""1298""
","""event"",""trial"",""time""
""fullscreenexit"",""7"",""31439""
","","","-1","","","24","10375","1787","&#9761;","elianto","#3366ff99","-1","-1","1","+10","[]","0","0","2","","","","","","","",""
"pit-trial","58","660438","0.0-2.0-11.3-3.3","battery-v0.2","","""event"",""trial"",""time""
""fullscreenenter"",""1"",""1298""
""fullscreenexit"",""7"",""31439""
""blur"",""7"",""33105""
""focus"",""7"",""43573""
","""event"",""trial"",""time""
""blur"",""7"",""33105""
","""event"",""trial"",""time""
""focus"",""7"",""43573""
","""event"",""trial"",""time""
""fullscreenenter"",""1"",""1298""
","""event"",""trial"",""time""
""fullscreenexit"",""7"",""31439""
","","","-1","","","24","10375","1787","&#9761;","elianto","#3366ff99","-1","-1","1","0","[]","0","0","2","","","","","","","",""
"pit-trial","59","665294","0.0-2.0-11.3-4.3","battery-v0.2","","""event"",""trial"",""time""
""fullscreenenter"",""1"",""1298""
""fullscreenexit"",""7"",""31439""
""blur"",""7"",""33105""
""focus"",""7"",""43573""
","""event"",""trial"",""time""
""blur"",""7"",""33105""
","""event"",""trial"",""time""
""focus"",""7"",""43573""
","""event"",""trial"",""time""
""fullscreenenter"",""1"",""1298""
","""event"",""trial"",""time""
""fullscreenexit"",""7"",""31439""
","","","-1","","","24","10375","1787","&#9761;","elianto","#3366ff99","-1","-1","1","+10","[]","0","0","2","","","","","","","",""
"call-function","60","665296","0.0-2.0-12.0","battery-v0.2","","""event"",""trial"",""time""
""fullscreenenter"",""1"",""1298""
""fullscreenexit"",""7"",""31439""
""blur"",""7"",""33105""
""focus"",""7"",""43573""
","""event"",""trial"",""time""
""blur"",""7"",""33105""
","""event"",""trial"",""time""
""focus"",""7"",""43573""
","""event"",""trial"",""time""
""fullscreenenter"",""1"",""1298""
","""event"",""trial"",""time""
""fullscreenexit"",""7"",""31439""
","","","","","","","","","","","","","","","","","","","","","","","","","","",""
"pit-instructions","61","728037","0.0-2.0-13.0","battery-v0.2","","""event"",""trial"",""time""
""fullscreenenter"",""1"",""1298""
""fullscreenexit"",""7"",""31439""
""blur"",""7"",""33105""
""focus"",""7"",""43573""
","""event"",""trial"",""time""
""blur"",""7"",""33105""
","""event"",""trial"",""time""
""focus"",""7"",""43573""
","""event"",""trial"",""time""
""fullscreenenter"",""1"",""1298""
","""event"",""trial"",""time""
""fullscreenexit"",""7"",""31439""
","","[{""page_index"":0,""viewing_time"":22431.60000000149},{""page_index"":1,""viewing_time"":9022.60000000149},{""page_index"":2,""viewing_time"":6784.10000000149},{""page_index"":3,""viewing_time"":17395.5},{""page_index"":4,""viewing_time"":7107.39999999851}]","62741.39999999851","","","","","","","","","","","","","","","","","","","","","","","",""
"pit-trial","62","732912","0.0-2.0-14.0-0.0","battery-v0.2","","""event"",""trial"",""time""
""fullscreenenter"",""1"",""1298""
""fullscreenexit"",""7"",""31439""
""blur"",""7"",""33105""
""focus"",""7"",""43573""
","""event"",""trial"",""time""
""blur"",""7"",""33105""
","""event"",""trial"",""time""
""focus"",""7"",""43573""
","""event"",""trial"",""time""
""fullscreenenter"",""1"",""1298""
","""event"",""trial"",""time""
""fullscreenexit"",""7"",""31439""
","","","-1","","","24","10375","1787","&#9826;","elianto","#f73b6a7A","-1","-1","1","0","[]","0","0","3","","","","","","","",""
"pit-trial","63","735978","0.0-2.0-14.0-1.0","battery-v0.2","","""event"",""trial"",""time""
""fullscreenenter"",""1"",""1298""
""fullscreenexit"",""7"",""31439""
""blur"",""7"",""33105""
""focus"",""7"",""43573""
","""event"",""trial"",""time""
""blur"",""7"",""33105""
","""event"",""trial"",""time""
""focus"",""7"",""43573""
","""event"",""trial"",""time""
""fullscreenenter"",""1"",""1298""
","""event"",""trial"",""time""
""fullscreenexit"",""7"",""31439""
","","","207.5","","","24","10375","1787","&#9826;","elianto","#f73b6a7A","-1"," ","0","-10","[1059.1000000014901]","1","0","3","","","","","","","",""
"pit-trial","64","740846","0.0-2.0-14.0-2.0","battery-v0.2","","""event"",""trial"",""time""
""fullscreenenter"",""1"",""1298""
""fullscreenexit"",""7"",""31439""
""blur"",""7"",""33105""
""focus"",""7"",""43573""
","""event"",""trial"",""time""
""blur"",""7"",""33105""
","""event"",""trial"",""time""
""focus"",""7"",""43573""
","""event"",""trial"",""time""
""fullscreenenter"",""1"",""1298""
","""event"",""trial"",""time""
""fullscreenexit"",""7"",""31439""
","","","-1","","","24","10375","1787","&#9826;","elianto","#f73b6a7A","-1","-1","1","0","[]","0","0","3","","","","","","","",""
"pit-trial","65","744081","0.0-2.0-14.0-3.0","battery-v0.2","","""event"",""trial"",""time""
""fullscreenenter"",""1"",""1298""
""fullscreenexit"",""7"",""31439""
""blur"",""7"",""33105""
""focus"",""7"",""43573""
","""event"",""trial"",""time""
""blur"",""7"",""33105""
","""event"",""trial"",""time""
""focus"",""7"",""43573""
","""event"",""trial"",""time""
""fullscreenenter"",""1"",""1298""
","""event"",""trial"",""time""
""fullscreenexit"",""7"",""31439""
","","","374.8999999985099","","","24","10375","1787","&#9826;","elianto","#f73b6a7A","-1"," ","0","0","[1225.2999999970198]","1","0","3","","","","","","","",""
"pit-trial","66","747092","0.0-2.0-14.0-4.0","battery-v0.2","","""event"",""trial"",""time""
""fullscreenenter"",""1"",""1298""
""fullscreenexit"",""7"",""31439""
""blur"",""7"",""33105""
""focus"",""7"",""43573""
","""event"",""trial"",""time""
""blur"",""7"",""33105""
","""event"",""trial"",""time""
""focus"",""7"",""43573""
","""event"",""trial"",""time""
""fullscreenenter"",""1"",""1298""
","""event"",""trial"",""time""
""fullscreenexit"",""7"",""31439""
","","","155.29999999701977","","","24","10375","1787","&#9826;","elianto","#f73b6a7A","-1"," ","0","-10","[1005.6999999955297]","1","0","3","","","","","","","",""
"pit-trial","67","751953","0.0-2.0-14.1-0.1","battery-v0.2","","""event"",""trial"",""time""
""fullscreenenter"",""1"",""1298""
""fullscreenexit"",""7"",""31439""
""blur"",""7"",""33105""
""focus"",""7"",""43573""
","""event"",""trial"",""time""
""blur"",""7"",""33105""
","""event"",""trial"",""time""
""focus"",""7"",""43573""
","""event"",""trial"",""time""
""fullscreenenter"",""1"",""1298""
","""event"",""trial"",""time""
""fullscreenexit"",""7"",""31439""
","","","-1","","","24","10375","1787","&#9826;","elianto","#f73b6a7A","-1","-1","1","0","[]","0","0","3","","","","","","","",""
"pit-trial","68","756807","0.0-2.0-14.1-1.1","battery-v0.2","","""event"",""trial"",""time""
""fullscreenenter"",""1"",""1298""
""fullscreenexit"",""7"",""31439""
""blur"",""7"",""33105""
""focus"",""7"",""43573""
","""event"",""trial"",""time""
""blur"",""7"",""33105""
","""event"",""trial"",""time""
""focus"",""7"",""43573""
","""event"",""trial"",""time""
""fullscreenenter"",""1"",""1298""
","""event"",""trial"",""time""
""fullscreenexit"",""7"",""31439""
","","","-1","","","24","10375","1787","&#9826;","elianto","#f73b6a7A","-1","-1","1","0","[]","0","0","3","","","","","","","",""
"pit-trial","69","761661","0.0-2.0-14.1-2.1","battery-v0.2","","""event"",""trial"",""time""
""fullscreenenter"",""1"",""1298""
""fullscreenexit"",""7"",""31439""
""blur"",""7"",""33105""
""focus"",""7"",""43573""
","""event"",""trial"",""time""
""blur"",""7"",""33105""
","""event"",""trial"",""time""
""focus"",""7"",""43573""
","""event"",""trial"",""time""
""fullscreenenter"",""1"",""1298""
","""event"",""trial"",""time""
""fullscreenexit"",""7"",""31439""
","","","-1","","","24","10375","1787","&#9826;","elianto","#f73b6a7A","-1","-1","1","0","[]","0","0","3","","","","","","","",""
"pit-trial","70","766515","0.0-2.0-14.1-3.1","battery-v0.2","","""event"",""trial"",""time""
""fullscreenenter"",""1"",""1298""
""fullscreenexit"",""7"",""31439""
""blur"",""7"",""33105""
""focus"",""7"",""43573""
","""event"",""trial"",""time""
""blur"",""7"",""33105""
","""event"",""trial"",""time""
""focus"",""7"",""43573""
","""event"",""trial"",""time""
""fullscreenenter"",""1"",""1298""
","""event"",""trial"",""time""
""fullscreenexit"",""7"",""31439""
","","","-1","","","24","10375","1787","&#9826;","elianto","#f73b6a7A","-1","-1","1","-10","[]","0","0","3","","","","","","","",""
"pit-trial","71","771368","0.0-2.0-14.1-4.1","battery-v0.2","","""event"",""trial"",""time""
""fullscreenenter"",""1"",""1298""
""fullscreenexit"",""7"",""31439""
""blur"",""7"",""33105""
""focus"",""7"",""43573""
","""event"",""trial"",""time""
""blur"",""7"",""33105""
","""event"",""trial"",""time""
""focus"",""7"",""43573""
","""event"",""trial"",""time""
""fullscreenenter"",""1"",""1298""
","""event"",""trial"",""time""
""fullscreenexit"",""7"",""31439""
","","","-1","","","24","10375","1787","&#9826;","elianto","#f73b6a7A","-1","-1","1","0","[]","0","0","3","","","","","","","",""
"pit-trial","72","776223","0.0-2.0-14.2-0.2","battery-v0.2","","""event"",""trial"",""time""
""fullscreenenter"",""1"",""1298""
""fullscreenexit"",""7"",""31439""
""blur"",""7"",""33105""
""focus"",""7"",""43573""
","""event"",""trial"",""time""
""blur"",""7"",""33105""
","""event"",""trial"",""time""
""focus"",""7"",""43573""
","""event"",""trial"",""time""
""fullscreenenter"",""1"",""1298""
","""event"",""trial"",""time""
""fullscreenexit"",""7"",""31439""
","","","-1","","","24","10375","1787","&#9826;","elianto","#f73b6a7A","-1","-1","1","0","[]","0","0","3","","","","","","","",""
"pit-trial","73","781077","0.0-2.0-14.2-1.2","battery-v0.2","","""event"",""trial"",""time""
""fullscreenenter"",""1"",""1298""
""fullscreenexit"",""7"",""31439""
""blur"",""7"",""33105""
""focus"",""7"",""43573""
","""event"",""trial"",""time""
""blur"",""7"",""33105""
","""event"",""trial"",""time""
""focus"",""7"",""43573""
","""event"",""trial"",""time""
""fullscreenenter"",""1"",""1298""
","""event"",""trial"",""time""
""fullscreenexit"",""7"",""31439""
","","","-1","","","24","10375","1787","&#9826;","elianto","#f73b6a7A","-1","-1","1","0","[]","0","0","3","","","","","","","",""
"pit-trial","74","785931","0.0-2.0-14.2-2.2","battery-v0.2","","""event"",""trial"",""time""
""fullscreenenter"",""1"",""1298""
""fullscreenexit"",""7"",""31439""
""blur"",""7"",""33105""
""focus"",""7"",""43573""
","""event"",""trial"",""time""
""blur"",""7"",""33105""
","""event"",""trial"",""time""
""focus"",""7"",""43573""
","""event"",""trial"",""time""
""fullscreenenter"",""1"",""1298""
","""event"",""trial"",""time""
""fullscreenexit"",""7"",""31439""
","","","-1","","","24","10375","1787","&#9826;","elianto","#f73b6a7A","-1","-1","1","0","[]","0","0","3","","","","","","","",""
"pit-trial","75","790785","0.0-2.0-14.2-3.2","battery-v0.2","","""event"",""trial"",""time""
""fullscreenenter"",""1"",""1298""
""fullscreenexit"",""7"",""31439""
""blur"",""7"",""33105""
""focus"",""7"",""43573""
","""event"",""trial"",""time""
""blur"",""7"",""33105""
","""event"",""trial"",""time""
""focus"",""7"",""43573""
","""event"",""trial"",""time""
""fullscreenenter"",""1"",""1298""
","""event"",""trial"",""time""
""fullscreenexit"",""7"",""31439""
","","","-1","","","24","10375","1787","&#9826;","elianto","#f73b6a7A","-1","-1","1","-10","[]","0","0","3","","","","","","","",""
"pit-trial","76","795639","0.0-2.0-14.2-4.2","battery-v0.2","","""event"",""trial"",""time""
""fullscreenenter"",""1"",""1298""
""fullscreenexit"",""7"",""31439""
""blur"",""7"",""33105""
""focus"",""7"",""43573""
","""event"",""trial"",""time""
""blur"",""7"",""33105""
","""event"",""trial"",""time""
""focus"",""7"",""43573""
","""event"",""trial"",""time""
""fullscreenenter"",""1"",""1298""
","""event"",""trial"",""time""
""fullscreenexit"",""7"",""31439""
","","","-1","","","24","10375","1787","&#9826;","elianto","#f73b6a7A","-1","-1","1","0","[]","0","0","3","","","","","","","",""
"pit-trial","77","800494","0.0-2.0-14.3-0.3","battery-v0.2","","""event"",""trial"",""time""
""fullscreenenter"",""1"",""1298""
""fullscreenexit"",""7"",""31439""
""blur"",""7"",""33105""
""focus"",""7"",""43573""
","""event"",""trial"",""time""
""blur"",""7"",""33105""
","""event"",""trial"",""time""
""focus"",""7"",""43573""
","""event"",""trial"",""time""
""fullscreenenter"",""1"",""1298""
","""event"",""trial"",""time""
""fullscreenexit"",""7"",""31439""
","","","-1","","","24","10375","1787","&#9826;","elianto","#f73b6a7A","-1","-1","1","0","[]","0","0","3","","","","","","","",""
"pit-trial","78","805349","0.0-2.0-14.3-1.3","battery-v0.2","","""event"",""trial"",""time""
""fullscreenenter"",""1"",""1298""
""fullscreenexit"",""7"",""31439""
""blur"",""7"",""33105""
""focus"",""7"",""43573""
","""event"",""trial"",""time""
""blur"",""7"",""33105""
","""event"",""trial"",""time""
""focus"",""7"",""43573""
","""event"",""trial"",""time""
""fullscreenenter"",""1"",""1298""
","""event"",""trial"",""time""
""fullscreenexit"",""7"",""31439""
","","","-1","","","24","10375","1787","&#9826;","elianto","#f73b6a7A","-1","-1","1","0","[]","0","0","3","","","","","","","",""
"pit-trial","79","810204","0.0-2.0-14.3-2.3","battery-v0.2","","""event"",""trial"",""time""
""fullscreenenter"",""1"",""1298""
""fullscreenexit"",""7"",""31439""
""blur"",""7"",""33105""
""focus"",""7"",""43573""
","""event"",""trial"",""time""
""blur"",""7"",""33105""
","""event"",""trial"",""time""
""focus"",""7"",""43573""
","""event"",""trial"",""time""
""fullscreenenter"",""1"",""1298""
","""event"",""trial"",""time""
""fullscreenexit"",""7"",""31439""
","","","-1","","","24","10375","1787","&#9826;","elianto","#f73b6a7A","-1","-1","1","0","[]","0","0","3","","","","","","","",""
"pit-trial","80","815060","0.0-2.0-14.3-3.3","battery-v0.2","","""event"",""trial"",""time""
""fullscreenenter"",""1"",""1298""
""fullscreenexit"",""7"",""31439""
""blur"",""7"",""33105""
""focus"",""7"",""43573""
","""event"",""trial"",""time""
""blur"",""7"",""33105""
","""event"",""trial"",""time""
""focus"",""7"",""43573""
","""event"",""trial"",""time""
""fullscreenenter"",""1"",""1298""
","""event"",""trial"",""time""
""fullscreenexit"",""7"",""31439""
","","","-1","","","24","10375","1787","&#9826;","elianto","#f73b6a7A","-1","-1","1","-10","[]","0","0","3","","","","","","","",""
"pit-trial","81","819914","0.0-2.0-14.3-4.3","battery-v0.2","","""event"",""trial"",""time""
""fullscreenenter"",""1"",""1298""
""fullscreenexit"",""7"",""31439""
""blur"",""7"",""33105""
""focus"",""7"",""43573""
","""event"",""trial"",""time""
""blur"",""7"",""33105""
","""event"",""trial"",""time""
""focus"",""7"",""43573""
","""event"",""trial"",""time""
""fullscreenenter"",""1"",""1298""
","""event"",""trial"",""time""
""fullscreenexit"",""7"",""31439""
","","","-1","","","24","10375","1787","&#9826;","elianto","#f73b6a7A","-1","-1","1","0","[]","0","0","3","","","","","","","",""
"call-function","82","819917","0.0-2.0-15.0","battery-v0.2","","""event"",""trial"",""time""
""fullscreenenter"",""1"",""1298""
""fullscreenexit"",""7"",""31439""
""blur"",""7"",""33105""
""focus"",""7"",""43573""
","""event"",""trial"",""time""
""blur"",""7"",""33105""
","""event"",""trial"",""time""
""focus"",""7"",""43573""
","""event"",""trial"",""time""
""fullscreenenter"",""1"",""1298""
","""event"",""trial"",""time""
""fullscreenexit"",""7"",""31439""
","","","","","","","","","","","","","","","","","","","","","","","","","","",""
"pit-instructions","83","845772","0.0-2.0-16.0","battery-v0.2","","""event"",""trial"",""time""
""fullscreenenter"",""1"",""1298""
""fullscreenexit"",""7"",""31439""
""blur"",""7"",""33105""
""focus"",""7"",""43573""
","""event"",""trial"",""time""
""blur"",""7"",""33105""
","""event"",""trial"",""time""
""focus"",""7"",""43573""
","""event"",""trial"",""time""
""fullscreenenter"",""1"",""1298""
","""event"",""trial"",""time""
""fullscreenexit"",""7"",""31439""
","","[{""page_index"":0,""viewing_time"":7100.20000000298},{""page_index"":1,""viewing_time"":8144.69999999553},{""page_index"":2,""viewing_time"":6232.89999999851},{""page_index"":3,""viewing_time"":4376}]","25854.29999999702","","","","","","","","","","","","","","","","","","","","","","","",""
"pit-trial","84","849656","0.0-2.0-17.0-0.0","battery-v0.2","","""event"",""trial"",""time""
""fullscreenenter"",""1"",""1298""
""fullscreenexit"",""7"",""31439""
""blur"",""7"",""33105""
""focus"",""7"",""43573""
","""event"",""trial"",""time""
""blur"",""7"",""33105""
","""event"",""trial"",""time""
""focus"",""7"",""43573""
","""event"",""trial"",""time""
""fullscreenenter"",""1"",""1298""
","""event"",""trial"",""time""
""fullscreenexit"",""7"",""31439""
","","","1022","","","24","10375","1787","&#9789;","elianto","#f73b6a7A"," "," ","1","0","[1872.3999999985099]","1","0","4","","","","","","","",""
"pit-trial","85","853505","0.0-2.0-17.0-1.0","battery-v0.2","","""event"",""trial"",""time""
""fullscreenenter"",""1"",""1298""
""fullscreenexit"",""7"",""31439""
""blur"",""7"",""33105""
""focus"",""7"",""43573""
","""event"",""trial"",""time""
""blur"",""7"",""33105""
","""event"",""trial"",""time""
""focus"",""7"",""43573""
","""event"",""trial"",""time""
""fullscreenenter"",""1"",""1298""
","""event"",""trial"",""time""
""fullscreenexit"",""7"",""31439""
","","","994.5","","","24","10375","1787","&#9789;","elianto","#f73b6a7A"," "," ","1","0","[1845.5]","1","0","4","","","","","","","",""
"pit-trial","86","856606","0.0-2.0-17.0-2.0","battery-v0.2","","""event"",""trial"",""time""
""fullscreenenter"",""1"",""1298""
""fullscreenexit"",""7"",""31439""
""blur"",""7"",""33105""
""focus"",""7"",""43573""
","""event"",""trial"",""time""
""blur"",""7"",""33105""
","""event"",""trial"",""time""
""focus"",""7"",""43573""
","""event"",""trial"",""time""
""fullscreenenter"",""1"",""1298""
","""event"",""trial"",""time""
""fullscreenexit"",""7"",""31439""
","","","242.5","","","24","10375","1787","&#9789;","elianto","#f73b6a7A"," "," ","1","0","[1093]","1","0","4","","","","","","","",""
"pit-trial","87","859537","0.0-2.0-17.0-3.0","battery-v0.2","","""event"",""trial"",""time""
""fullscreenenter"",""1"",""1298""
""fullscreenexit"",""7"",""31439""
""blur"",""7"",""33105""
""focus"",""7"",""43573""
","""event"",""trial"",""time""
""blur"",""7"",""33105""
","""event"",""trial"",""time""
""focus"",""7"",""43573""
","""event"",""trial"",""time""
""fullscreenenter"",""1"",""1298""
","""event"",""trial"",""time""
""fullscreenexit"",""7"",""31439""
","","","75.79999999701977","","","24","10375","1787","&#9789;","elianto","#f73b6a7A"," "," ","1","-10","[925.8999999985099]","1","0","4","","","","","","","",""
"pit-trial","88","863769","0.0-2.0-17.0-4.0","battery-v0.2","","""event"",""trial"",""time""
""fullscreenenter"",""1"",""1298""
""fullscreenexit"",""7"",""31439""
""blur"",""7"",""33105""
""focus"",""7"",""43573""
","""event"",""trial"",""time""
""blur"",""7"",""33105""
","""event"",""trial"",""time""
""focus"",""7"",""43573""
","""event"",""trial"",""time""
""fullscreenenter"",""1"",""1298""
","""event"",""trial"",""time""
""fullscreenexit"",""7"",""31439""
","","","1379.2999999970198","","","24","10375","1787","&#9789;","elianto","#f73b6a7A"," "," ","1","0","[770.1000000014901,2229.60000000149]","2","0","4","","","","","","","",""
"pit-trial","89","868633","0.0-2.0-17.1-0.1","battery-v0.2","","""event"",""trial"",""time""
""fullscreenenter"",""1"",""1298""
""fullscreenexit"",""7"",""31439""
""blur"",""7"",""33105""
""focus"",""7"",""43573""
","""event"",""trial"",""time""
""blur"",""7"",""33105""
","""event"",""trial"",""time""
""focus"",""7"",""43573""
","""event"",""trial"",""time""
""fullscreenenter"",""1"",""1298""
","""event"",""trial"",""time""
""fullscreenexit"",""7"",""31439""
","","","-1","","","24","10375","1787","&#9789;","elianto","#f73b6a7A"," ","-1","0","-10","[]","0","0","4","","","","","","","",""
"pit-trial","90","871993","0.0-2.0-17.1-1.1","battery-v0.2","","""event"",""trial"",""time""
""fullscreenenter"",""1"",""1298""
""fullscreenexit"",""7"",""31439""
""blur"",""7"",""33105""
""focus"",""7"",""43573""
","""event"",""trial"",""time""
""blur"",""7"",""33105""
","""event"",""trial"",""time""
""focus"",""7"",""43573""
","""event"",""trial"",""time""
""fullscreenenter"",""1"",""1298""
","""event"",""trial"",""time""
""fullscreenexit"",""7"",""31439""
","","","497.8999999985099","","","24","10375","1787","&#9789;","elianto","#f73b6a7A"," "," ","1","0","[806.3999999985099,1348.2000000029802]","2","0","4","","","","","","","",""
"pit-trial","91","875565","0.0-2.0-17.1-2.1","battery-v0.2","","""event"",""trial"",""time""
""fullscreenenter"",""1"",""1298""
""fullscreenexit"",""7"",""31439""
""blur"",""7"",""33105""
""focus"",""7"",""43573""
","""event"",""trial"",""time""
""blur"",""7"",""33105""
","""event"",""trial"",""time""
""focus"",""7"",""43573""
","""event"",""trial"",""time""
""fullscreenenter"",""1"",""1298""
","""event"",""trial"",""time""
""fullscreenexit"",""7"",""31439""
","","","713","","","24","10375","1787","&#9789;","elianto","#f73b6a7A"," "," ","1","0","[1563.1999999955297]","1","0","4","","","","","","","",""
"pit-trial","92","878546","0.0-2.0-17.1-3.1","battery-v0.2","","""event"",""trial"",""time""
""fullscreenenter"",""1"",""1298""
""fullscreenexit"",""7"",""31439""
""blur"",""7"",""33105""
""focus"",""7"",""43573""
","""event"",""trial"",""time""
""blur"",""7"",""33105""
","""event"",""trial"",""time""
""focus"",""7"",""43573""
","""event"",""trial"",""time""
""fullscreenenter"",""1"",""1298""
","""event"",""trial"",""time""
""fullscreenexit"",""7"",""31439""
","","","127.79999999701977","","","24","10375","1787","&#9789;","elianto","#f73b6a7A"," "," ","1","-10","[977.8999999985099,2129.1999999955297,2614.2999999970198]","3","0","4","","","","","","","",""
"pit-trial","93","881677","0.0-2.0-17.1-4.1","battery-v0.2","","""event"",""trial"",""time""
""fullscreenenter"",""1"",""1298""
""fullscreenexit"",""7"",""31439""
""blur"",""7"",""33105""
""focus"",""7"",""43573""
","""event"",""trial"",""time""
""blur"",""7"",""33105""
","""event"",""trial"",""time""
""focus"",""7"",""43573""
","""event"",""trial"",""time""
""fullscreenenter"",""1"",""1298""
","""event"",""trial"",""time""
""fullscreenexit"",""7"",""31439""
","","","278","","","24","10375","1787","&#9789;","elianto","#f73b6a7A"," "," ","1","0","[119.29999999701977,1128.3999999985099]","2","0","4","","","","","","","",""
"pit-trial","94","884768","0.0-2.0-17.2-0.2","battery-v0.2","","""event"",""trial"",""time""
""fullscreenenter"",""1"",""1298""
""fullscreenexit"",""7"",""31439""
""blur"",""7"",""33105""
""focus"",""7"",""43573""
","""event"",""trial"",""time""
""blur"",""7"",""33105""
","""event"",""trial"",""time""
""focus"",""7"",""43573""
","""event"",""trial"",""time""
""fullscreenenter"",""1"",""1298""
","""event"",""trial"",""time""
""fullscreenexit"",""7"",""31439""
","","","234.5","","","24","10375","1787","&#9789;","elianto","#f73b6a7A"," "," ","1","0","[1086.8000000044703]","1","0","4","","","","","","","",""
"pit-trial","95","887778","0.0-2.0-17.2-1.2","battery-v0.2","","""event"",""trial"",""time""
""fullscreenenter"",""1"",""1298""
""fullscreenexit"",""7"",""31439""
""blur"",""7"",""33105""
""focus"",""7"",""43573""
","""event"",""trial"",""time""
""blur"",""7"",""33105""
","""event"",""trial"",""time""
""focus"",""7"",""43573""
","""event"",""trial"",""time""
""fullscreenenter"",""1"",""1298""
","""event"",""trial"",""time""
""fullscreenexit"",""7"",""31439""
","","","157","","","24","10375","1787","&#9789;","elianto","#f73b6a7A"," "," ","1","0","[626.7999999970198,1007.2000000029802]","2","0","4","","","","","","","",""
"pit-trial","96","890758","0.0-2.0-17.2-2.2","battery-v0.2","","""event"",""trial"",""time""
""fullscreenenter"",""1"",""1298""
""fullscreenexit"",""7"",""31439""
""blur"",""7"",""33105""
""focus"",""7"",""43573""
","""event"",""trial"",""time""
""blur"",""7"",""33105""
","""event"",""trial"",""time""
""focus"",""7"",""43573""
","""event"",""trial"",""time""
""fullscreenenter"",""1"",""1298""
","""event"",""trial"",""time""
""fullscreenexit"",""7"",""31439""
","","","126.60000000149012","","","24","10375","1787","&#9789;","elianto","#f73b6a7A"," "," ","1","0","[976.7999999970198]","1","0","4","","","","","","","",""
"pit-trial","97","893781","0.0-2.0-17.2-3.2","battery-v0.2","","""event"",""trial"",""time""
""fullscreenenter"",""1"",""1298""
""fullscreenexit"",""7"",""31439""
""blur"",""7"",""33105""
""focus"",""7"",""43573""
","""event"",""trial"",""time""
""blur"",""7"",""33105""
","""event"",""trial"",""time""
""focus"",""7"",""43573""
","""event"",""trial"",""time""
""fullscreenenter"",""1"",""1298""
","""event"",""trial"",""time""
""fullscreenexit"",""7"",""31439""
","","","169","","","24","10375","1787","&#9789;","elianto","#f73b6a7A"," "," ","1","-10","[1019.3999999985099]","1","0","4","","","","","","","",""
"pit-trial","98","896759","0.0-2.0-17.2-4.2","battery-v0.2","","""event"",""trial"",""time""
""fullscreenenter"",""1"",""1298""
""fullscreenexit"",""7"",""31439""
""blur"",""7"",""33105""
""focus"",""7"",""43573""
","""event"",""trial"",""time""
""blur"",""7"",""33105""
","""event"",""trial"",""time""
""focus"",""7"",""43573""
","""event"",""trial"",""time""
""fullscreenenter"",""1"",""1298""
","""event"",""trial"",""time""
""fullscreenexit"",""7"",""31439""
","","","125.19999999552965","","","24","10375","1787","&#9789;","elianto","#f73b6a7A"," "," ","1","0","[975.4000000059605]","1","0","4","","","","","","","",""
"pit-trial","99","899804","0.0-2.0-17.3-0.3","battery-v0.2","","""event"",""trial"",""time""
""fullscreenenter"",""1"",""1298""
""fullscreenexit"",""7"",""31439""
""blur"",""7"",""33105""
""focus"",""7"",""43573""
","""event"",""trial"",""time""
""blur"",""7"",""33105""
","""event"",""trial"",""time""
""focus"",""7"",""43573""
","""event"",""trial"",""time""
""fullscreenenter"",""1"",""1298""
","""event"",""trial"",""time""
""fullscreenexit"",""7"",""31439""
","","","188.79999999701977","","","24","10375","1787","&#9789;","elianto","#f73b6a7A"," "," ","1","0","[1040.6999999955297]","1","0","4","","","","","","","",""
"pit-trial","100","902726","0.0-2.0-17.3-1.3","battery-v0.2","","""event"",""trial"",""time""
""fullscreenenter"",""1"",""1298""
""fullscreenexit"",""7"",""31439""
""blur"",""7"",""33105""
""focus"",""7"",""43573""
","""event"",""trial"",""time""
""blur"",""7"",""33105""
","""event"",""trial"",""time""
""focus"",""7"",""43573""
","""event"",""trial"",""time""
""fullscreenenter"",""1"",""1298""
","""event"",""trial"",""time""
""fullscreenexit"",""7"",""31439""
","","","67.10000000149012","","","24","10375","1787","&#9789;","elianto","#f73b6a7A"," "," ","1","0","[918.7000000029802]","1","0","4","","","","","","","",""
"pit-trial","101","906552","0.0-2.0-17.3-2.3","battery-v0.2","","""event"",""trial"",""time""
""fullscreenenter"",""1"",""1298""
""fullscreenexit"",""7"",""31439""
""blur"",""7"",""33105""
""focus"",""7"",""43573""
","""event"",""trial"",""time""
""blur"",""7"",""33105""
","""event"",""trial"",""time""
""focus"",""7"",""43573""
","""event"",""trial"",""time""
""fullscreenenter"",""1"",""1298""
","""event"",""trial"",""time""
""fullscreenexit"",""7"",""31439""
","","","972.9000000059605","","","24","10375","1787","&#9789;","elianto","#f73b6a7A"," "," ","1","0","[1823]","1","0","4","","","","","","","",""
"pit-trial","102","910137","0.0-2.0-17.3-3.3","battery-v0.2","","""event"",""trial"",""time""
""fullscreenenter"",""1"",""1298""
""fullscreenexit"",""7"",""31439""
""blur"",""7"",""33105""
""focus"",""7"",""43573""
""blur"",""103"",""913091""
","""event"",""trial"",""time""
""blur"",""7"",""33105""
""blur"",""103"",""913091""
","""event"",""trial"",""time""
""focus"",""7"",""43573""
","""event"",""trial"",""time""
""fullscreenenter"",""1"",""1298""
","""event"",""trial"",""time""
""fullscreenexit"",""7"",""31439""
","","","709.1000000014901","","","24","10375","1787","&#9789;","elianto","#f73b6a7A"," "," ","1","-10","[1565.1000000014901]","1","0","4","","","","","","","",""
"pit-trial","103","913711","0.0-2.0-17.3-4.3","battery-v0.2","","""event"",""trial"",""time""
""fullscreenenter"",""1"",""1298""
""fullscreenexit"",""7"",""31439""
""blur"",""7"",""33105""
""focus"",""7"",""43573""
""blur"",""103"",""913091""
","""event"",""trial"",""time""
""blur"",""7"",""33105""
""blur"",""103"",""913091""
","""event"",""trial"",""time""
""focus"",""7"",""43573""
","""event"",""trial"",""time""
""fullscreenenter"",""1"",""1298""
","""event"",""trial"",""time""
""fullscreenexit"",""7"",""31439""
","","","554","","","24","10375","1787","&#9789;","elianto","#f73b6a7A"," "," ","1","0","[1406.1999999955297]","1","0","4","","","","","","","",""
"call-function","104","913713","0.0-2.0-18.0","battery-v0.2","","""event"",""trial"",""time""
""fullscreenenter"",""1"",""1298""
""fullscreenexit"",""7"",""31439""
""blur"",""7"",""33105""
""focus"",""7"",""43573""
""blur"",""103"",""913091""
""focus"",""105"",""914441""
""blur"",""105"",""918525""
""focus"",""105"",""923107""
","""event"",""trial"",""time""
""blur"",""7"",""33105""
""blur"",""103"",""913091""
""blur"",""105"",""918525""
","""event"",""trial"",""time""
""focus"",""7"",""43573""
""focus"",""105"",""914441""
""focus"",""105"",""923107""
","""event"",""trial"",""time""
""fullscreenenter"",""1"",""1298""
","""event"",""trial"",""time""
""fullscreenexit"",""7"",""31439""
","","","","","","","","","","","","","","","","","","","","","","","","","","",""
"pit-instructions","105","975725","0.0-2.0-19.0","battery-v0.2","","""event"",""trial"",""time""
""fullscreenenter"",""1"",""1298""
""fullscreenexit"",""7"",""31439""
""blur"",""7"",""33105""
""focus"",""7"",""43573""
""blur"",""103"",""913091""
""focus"",""105"",""914441""
""blur"",""105"",""918525""
""focus"",""105"",""923107""
","""event"",""trial"",""time""
""blur"",""7"",""33105""
""blur"",""103"",""913091""
""blur"",""105"",""918525""
","""event"",""trial"",""time""
""focus"",""7"",""43573""
""focus"",""105"",""914441""
""focus"",""105"",""923107""
","""event"",""trial"",""time""
""fullscreenenter"",""1"",""1298""
","""event"",""trial"",""time""
""fullscreenexit"",""7"",""31439""
","","[{""page_index"":0,""viewing_time"":9493.90000000596},{""page_index"":1,""viewing_time"":8348.5},{""page_index"":2,""viewing_time"":10441},{""page_index"":3,""viewing_time"":6003.39999999851},{""page_index"":4,""viewing_time"":6190.10000000149},{""page_index"":5,""viewing_time"":9169.89999999851},{""page_index"":6,""viewing_time"":4275.69999999553},{""page_index"":7,""viewing_time"":4623.30000000447},{""page_index"":8,""viewing_time"":3465}]","62011.20000000298","","","","","","","","","","","","","","","","","","","","","","","",""
"pit-comprehension","106","979877","0.0-2.0-20.0-0.0","battery-v0.2","","""event"",""trial"",""time""
""fullscreenenter"",""1"",""1298""
""fullscreenexit"",""7"",""31439""
""blur"",""7"",""33105""
""focus"",""7"",""43573""
""blur"",""103"",""913091""
""focus"",""105"",""914441""
""blur"",""105"",""918525""
""focus"",""105"",""923107""
","""event"",""trial"",""time""
""blur"",""7"",""33105""
""blur"",""103"",""913091""
""blur"",""105"",""918525""
","""event"",""trial"",""time""
""focus"",""7"",""43573""
""focus"",""105"",""914441""
""focus"",""105"",""923107""
","""event"",""trial"",""time""
""fullscreenenter"",""1"",""1298""
","""event"",""trial"",""time""
""fullscreenexit"",""7"",""31439""
","","","4148.4000000059605","[""SPACE""]","0","24","10375","1787","","","","","","","","","","","","","","","","","","",""
"pit-instructions","107","982419","0.0-2.0-20.0-1.0","battery-v0.2","","""event"",""trial"",""time""
""fullscreenenter"",""1"",""1298""
""fullscreenexit"",""7"",""31439""
""blur"",""7"",""33105""
""focus"",""7"",""43573""
""blur"",""103"",""913091""
""focus"",""105"",""914441""
""blur"",""105"",""918525""
""focus"",""105"",""923107""
","""event"",""trial"",""time""
""blur"",""7"",""33105""
""blur"",""103"",""913091""
""blur"",""105"",""918525""
","""event"",""trial"",""time""
""focus"",""7"",""43573""
""focus"",""105"",""914441""
""focus"",""105"",""923107""
","""event"",""trial"",""time""
""fullscreenenter"",""1"",""1298""
","""event"",""trial"",""time""
""fullscreenexit"",""7"",""31439""
","","[{""page_index"":0,""viewing_time"":2471.6999999955297}]","2472","","","","","","","","","","","","","","","","","","","","","","","",""
"pit-comprehension","108","987617","0.0-2.0-21.0-0.0","battery-v0.2","","""event"",""trial"",""time""
""fullscreenenter"",""1"",""1298""
""fullscreenexit"",""7"",""31439""
""blur"",""7"",""33105""
""focus"",""7"",""43573""
""blur"",""103"",""913091""
""focus"",""105"",""914441""
""blur"",""105"",""918525""
""focus"",""105"",""923107""
","""event"",""trial"",""time""
""blur"",""7"",""33105""
""blur"",""103"",""913091""
""blur"",""105"",""918525""
","""event"",""trial"",""time""
""focus"",""7"",""43573""
""focus"",""105"",""914441""
""focus"",""105"",""923107""
","""event"",""trial"",""time""
""fullscreenenter"",""1"",""1298""
","""event"",""trial"",""time""
""fullscreenexit"",""7"",""31439""
","","","5194.79999999702","[""10""]","0","24","10375","1787","","","","","","","","","","","","","","","","","","",""
"pit-instructions","109","990091","0.0-2.0-21.0-1.0","battery-v0.2","","""event"",""trial"",""time""
""fullscreenenter"",""1"",""1298""
""fullscreenexit"",""7"",""31439""
""blur"",""7"",""33105""
""focus"",""7"",""43573""
""blur"",""103"",""913091""
""focus"",""105"",""914441""
""blur"",""105"",""918525""
""focus"",""105"",""923107""
","""event"",""trial"",""time""
""blur"",""7"",""33105""
""blur"",""103"",""913091""
""blur"",""105"",""918525""
","""event"",""trial"",""time""
""focus"",""7"",""43573""
""focus"",""105"",""914441""
""focus"",""105"",""923107""
","""event"",""trial"",""time""
""fullscreenenter"",""1"",""1298""
","""event"",""trial"",""time""
""fullscreenexit"",""7"",""31439""
","","[{""page_index"":0,""viewing_time"":2401.2999999970198}]","2401.7999999970198","","","","","","","","","","","","","","","","","","","","","","","",""
"pit-comprehension","110","996133","0.0-2.0-22.0-0.0","battery-v0.2","","""event"",""trial"",""time""
""fullscreenenter"",""1"",""1298""
""fullscreenexit"",""7"",""31439""
""blur"",""7"",""33105""
""focus"",""7"",""43573""
""blur"",""103"",""913091""
""focus"",""105"",""914441""
""blur"",""105"",""918525""
""focus"",""105"",""923107""
","""event"",""trial"",""time""
""blur"",""7"",""33105""
""blur"",""103"",""913091""
""blur"",""105"",""918525""
","""event"",""trial"",""time""
""focus"",""7"",""43573""
""focus"",""105"",""914441""
""focus"",""105"",""923107""
","""event"",""trial"",""time""
""fullscreenenter"",""1"",""1298""
","""event"",""trial"",""time""
""fullscreenexit"",""7"",""31439""
","","","6038.19999999553","[""0""]","0","24","10375","1787","","","","","","","","","","","","","","","","","","",""
"pit-instructions","111","998180","0.0-2.0-22.0-1.0","battery-v0.2","","""event"",""trial"",""time""
""fullscreenenter"",""1"",""1298""
""fullscreenexit"",""7"",""31439""
""blur"",""7"",""33105""
""focus"",""7"",""43573""
""blur"",""103"",""913091""
""focus"",""105"",""914441""
""blur"",""105"",""918525""
""focus"",""105"",""923107""
","""event"",""trial"",""time""
""blur"",""7"",""33105""
""blur"",""103"",""913091""
""blur"",""105"",""918525""
","""event"",""trial"",""time""
""focus"",""7"",""43573""
""focus"",""105"",""914441""
""focus"",""105"",""923107""
","""event"",""trial"",""time""
""fullscreenenter"",""1"",""1298""
","""event"",""trial"",""time""
""fullscreenexit"",""7"",""31439""
","","[{""page_index"":0,""viewing_time"":1980.3999999985099}]","1980.6000000014901","","","","","","","","","","","","","","","","","","","","","","","",""
"pit-comprehension","112","1006517","0.0-2.0-23.0-0.0","battery-v0.2","","""event"",""trial"",""time""
""fullscreenenter"",""1"",""1298""
""fullscreenexit"",""7"",""31439""
""blur"",""7"",""33105""
""focus"",""7"",""43573""
""blur"",""103"",""913091""
""focus"",""105"",""914441""
""blur"",""105"",""918525""
""focus"",""105"",""923107""
","""event"",""trial"",""time""
""blur"",""7"",""33105""
""blur"",""103"",""913091""
""blur"",""105"",""918525""
","""event"",""trial"",""time""
""focus"",""7"",""43573""
""focus"",""105"",""914441""
""focus"",""105"",""923107""
","""event"",""trial"",""time""
""fullscreenenter"",""1"",""1298""
","""event"",""trial"",""time""
""fullscreenexit"",""7"",""31439""
","","","8334.10000000149","[""True""]","0","24","10375","1787","","","","","","","","","","","","","","","","","","",""
"pit-instructions","113","1009115","0.0-2.0-23.0-1.0","battery-v0.2","","""event"",""trial"",""time""
""fullscreenenter"",""1"",""1298""
""fullscreenexit"",""7"",""31439""
""blur"",""7"",""33105""
""focus"",""7"",""43573""
""blur"",""103"",""913091""
""focus"",""105"",""914441""
""blur"",""105"",""918525""
""focus"",""105"",""923107""
","""event"",""trial"",""time""
""blur"",""7"",""33105""
""blur"",""103"",""913091""
""blur"",""105"",""918525""
","""event"",""trial"",""time""
""focus"",""7"",""43573""
""focus"",""105"",""914441""
""focus"",""105"",""923107""
","""event"",""trial"",""time""
""fullscreenenter"",""1"",""1298""
","""event"",""trial"",""time""
""fullscreenexit"",""7"",""31439""
","","[{""page_index"":0,""viewing_time"":2519.7999999970198}]","2520","","","","","","","","","","","","","","","","","","","","","","","",""
"pit-comprehension","114","1016462","0.0-2.0-24.0-0.0","battery-v0.2","","""event"",""trial"",""time""
""fullscreenenter"",""1"",""1298""
""fullscreenexit"",""7"",""31439""
""blur"",""7"",""33105""
""focus"",""7"",""43573""
""blur"",""103"",""913091""
""focus"",""105"",""914441""
""blur"",""105"",""918525""
""focus"",""105"",""923107""
","""event"",""trial"",""time""
""blur"",""7"",""33105""
""blur"",""103"",""913091""
""blur"",""105"",""918525""
","""event"",""trial"",""time""
""focus"",""7"",""43573""
""focus"",""105"",""914441""
""focus"",""105"",""923107""
","""event"",""trial"",""time""
""fullscreenenter"",""1"",""1298""
","""event"",""trial"",""time""
""fullscreenexit"",""7"",""31439""
","","","7343.10000000149","[""True""]","0","24","10375","1787","","","","","","","","","","","","","","","","","","",""
"pit-instructions","115","1020298","0.0-2.0-24.0-1.0","battery-v0.2","","""event"",""trial"",""time""
""fullscreenenter"",""1"",""1298""
""fullscreenexit"",""7"",""31439""
""blur"",""7"",""33105""
""focus"",""7"",""43573""
""blur"",""103"",""913091""
""focus"",""105"",""914441""
""blur"",""105"",""918525""
""focus"",""105"",""923107""
","""event"",""trial"",""time""
""blur"",""7"",""33105""
""blur"",""103"",""913091""
""blur"",""105"",""918525""
","""event"",""trial"",""time""
""focus"",""7"",""43573""
""focus"",""105"",""914441""
""focus"",""105"",""923107""
","""event"",""trial"",""time""
""fullscreenenter"",""1"",""1298""
","""event"",""trial"",""time""
""fullscreenexit"",""7"",""31439""
","","[{""page_index"":0,""viewing_time"":3766.0999999940395}]","3766.2999999970198","","","","","","","","","","","","","","","","","","","","","","","",""
"pit-comprehension","116","1026486","0.0-2.0-25.0-0.0","battery-v0.2","","""event"",""trial"",""time""
""fullscreenenter"",""1"",""1298""
""fullscreenexit"",""7"",""31439""
""blur"",""7"",""33105""
""focus"",""7"",""43573""
""blur"",""103"",""913091""
""focus"",""105"",""914441""
""blur"",""105"",""918525""
""focus"",""105"",""923107""
","""event"",""trial"",""time""
""blur"",""7"",""33105""
""blur"",""103"",""913091""
""blur"",""105"",""918525""
","""event"",""trial"",""time""
""focus"",""7"",""43573""
""focus"",""105"",""914441""
""focus"",""105"",""923107""
","""event"",""trial"",""time""
""fullscreenenter"",""1"",""1298""
","""event"",""trial"",""time""
""fullscreenexit"",""7"",""31439""
","","","6185","[""True""]","0","24","10375","1787","","","","","","","","","","","","","","","","","","",""
"pit-instructions","117","1030434","0.0-2.0-25.0-1.0","battery-v0.2","","""event"",""trial"",""time""
""fullscreenenter"",""1"",""1298""
""fullscreenexit"",""7"",""31439""
""blur"",""7"",""33105""
""focus"",""7"",""43573""
""blur"",""103"",""913091""
""focus"",""105"",""914441""
""blur"",""105"",""918525""
""focus"",""105"",""923107""
","""event"",""trial"",""time""
""blur"",""7"",""33105""
""blur"",""103"",""913091""
""blur"",""105"",""918525""
","""event"",""trial"",""time""
""focus"",""7"",""43573""
""focus"",""105"",""914441""
""focus"",""105"",""923107""
","""event"",""trial"",""time""
""fullscreenenter"",""1"",""1298""
","""event"",""trial"",""time""
""fullscreenexit"",""7"",""31439""
","","[{""page_index"":0,""viewing_time"":3874.10000000149}]","3874.39999999851","","","","","","","","","","","","","","","","","","","","","","","",""
"pit-comprehension","118","1038839","0.0-2.0-26.0-0.0","battery-v0.2","","""event"",""trial"",""time""
""fullscreenenter"",""1"",""1298""
""fullscreenexit"",""7"",""31439""
""blur"",""7"",""33105""
""focus"",""7"",""43573""
""blur"",""103"",""913091""
""focus"",""105"",""914441""
""blur"",""105"",""918525""
""focus"",""105"",""923107""
","""event"",""trial"",""time""
""blur"",""7"",""33105""
""blur"",""103"",""913091""
""blur"",""105"",""918525""
","""event"",""trial"",""time""
""focus"",""7"",""43573""
""focus"",""105"",""914441""
""focus"",""105"",""923107""
","""event"",""trial"",""time""
""fullscreenenter"",""1"",""1298""
","""event"",""trial"",""time""
""fullscreenexit"",""7"",""31439""
","","","8401.59999999404","[""False""]","0","24","10375","1787","","","","","","","","","","","","","","","","","","",""
"pit-instructions","119","1047186","0.0-2.0-26.0-1.0","battery-v0.2","","""event"",""trial"",""time""
""fullscreenenter"",""1"",""1298""
""fullscreenexit"",""7"",""31439""
""blur"",""7"",""33105""
""focus"",""7"",""43573""
""blur"",""103"",""913091""
""focus"",""105"",""914441""
""blur"",""105"",""918525""
""focus"",""105"",""923107""
","""event"",""trial"",""time""
""blur"",""7"",""33105""
""blur"",""103"",""913091""
""blur"",""105"",""918525""
","""event"",""trial"",""time""
""focus"",""7"",""43573""
""focus"",""105"",""914441""
""focus"",""105"",""923107""
","""event"",""trial"",""time""
""fullscreenenter"",""1"",""1298""
","""event"",""trial"",""time""
""fullscreenexit"",""7"",""31439""
","","[{""page_index"":0,""viewing_time"":8274.5}]","8274.90000000596","","","","","","","","","","","","","","","","","","","","","","","",""
"pit-instructions","120","1064240","0.0-3.0","battery-v0.2","","""event"",""trial"",""time""
""fullscreenenter"",""1"",""1298""
""fullscreenexit"",""7"",""31439""
""blur"",""7"",""33105""
""focus"",""7"",""43573""
""blur"",""103"",""913091""
""focus"",""105"",""914441""
""blur"",""105"",""918525""
""focus"",""105"",""923107""
","""event"",""trial"",""time""
""blur"",""7"",""33105""
""blur"",""103"",""913091""
""blur"",""105"",""918525""
","""event"",""trial"",""time""
""focus"",""7"",""43573""
""focus"",""105"",""914441""
""focus"",""105"",""923107""
","""event"",""trial"",""time""
""fullscreenenter"",""1"",""1298""
","""event"",""trial"",""time""
""fullscreenexit"",""7"",""31439""
","","[{""page_index"":0,""viewing_time"":5204.69999999553},{""page_index"":1,""viewing_time"":5041.20000000298},{""page_index"":2,""viewing_time"":6805.89999999851}]","17052","","","","","","","","","","","","","","","","","","","","","","","",""
"pit-trial","121","1067874","0.0-4.0","battery-v0.2","","""event"",""trial"",""time""
""fullscreenenter"",""1"",""1298""
""fullscreenexit"",""7"",""31439""
""blur"",""7"",""33105""
""focus"",""7"",""43573""
""blur"",""103"",""913091""
""focus"",""105"",""914441""
""blur"",""105"",""918525""
""focus"",""105"",""923107""
","""event"",""trial"",""time""
""blur"",""7"",""33105""
""blur"",""103"",""913091""
""blur"",""105"",""918525""
","""event"",""trial"",""time""
""focus"",""7"",""43573""
""focus"",""105"",""914441""
""focus"",""105"",""923107""
","""event"",""trial"",""time""
""fullscreenenter"",""1"",""1298""
","""event"",""trial"",""time""
""fullscreenexit"",""7"",""31439""
","","","768.7999999970198","","","24","10375","1787","&#9728;","elianto","#f73b6a7A","-1"," ","0","0","[1621.1000000014901]","1","1","","","10375","1","0","4","lose","no-go","1"
"pit-trial","122","1071401","0.0-5.0","battery-v0.2","","""event"",""trial"",""time""
""fullscreenenter"",""1"",""1298""
""fullscreenexit"",""7"",""31439""
""blur"",""7"",""33105""
""focus"",""7"",""43573""
""blur"",""103"",""913091""
""focus"",""105"",""914441""
""blur"",""105"",""918525""
""focus"",""105"",""923107""
","""event"",""trial"",""time""
""blur"",""7"",""33105""
""blur"",""103"",""913091""
""blur"",""105"",""918525""
","""event"",""trial"",""time""
""focus"",""7"",""43573""
""focus"",""105"",""914441""
""focus"",""105"",""923107""
","""event"",""trial"",""time""
""fullscreenenter"",""1"",""1298""
","""event"",""trial"",""time""
""fullscreenexit"",""7"",""31439""
","","","654.3999999985099","","","24","10375","1787","&#9752;","elianto","#f73b6a7A"," "," ","1","0","[1515.7999999970198]","1","1","","","10375","2","3","3","lose","go","0"
"pit-trial","123","1075246","0.0-6.0","battery-v0.2","","""event"",""trial"",""time""
""fullscreenenter"",""1"",""1298""
""fullscreenexit"",""7"",""31439""
""blur"",""7"",""33105""
""focus"",""7"",""43573""
""blur"",""103"",""913091""
""focus"",""105"",""914441""
""blur"",""105"",""918525""
""focus"",""105"",""923107""
","""event"",""trial"",""time""
""blur"",""7"",""33105""
""blur"",""103"",""913091""
""blur"",""105"",""918525""
","""event"",""trial"",""time""
""focus"",""7"",""43573""
""focus"",""105"",""914441""
""focus"",""105"",""923107""
","""event"",""trial"",""time""
""fullscreenenter"",""1"",""1298""
","""event"",""trial"",""time""
""fullscreenexit"",""7"",""31439""
","","","981.3000000044703","","","24","10375","1787","&#9733;","elianto","#3366ff99","-1"," ","0","0","[1831.3000000044703]","1","1","","","10375","3","2","2","win","no-go","0"
"pit-trial","124","1079597","0.0-7.0","battery-v0.2","","""event"",""trial"",""time""
""fullscreenenter"",""1"",""1298""
""fullscreenexit"",""7"",""31439""
""blur"",""7"",""33105""
""focus"",""7"",""43573""
""blur"",""103"",""913091""
""focus"",""105"",""914441""
""blur"",""105"",""918525""
""focus"",""105"",""923107""
","""event"",""trial"",""time""
""blur"",""7"",""33105""
""blur"",""103"",""913091""
""blur"",""105"",""918525""
","""event"",""trial"",""time""
""focus"",""7"",""43573""
""focus"",""105"",""914441""
""focus"",""105"",""923107""
","""event"",""trial"",""time""
""fullscreenenter"",""1"",""1298""
","""event"",""trial"",""time""
""fullscreenexit"",""7"",""31439""
","","","1495.5","","","24","10375","1787","&#9730;","elianto","#3366ff99"," "," ","1","0","[2347.3000000044703]","1","1","","","10375","4","1","1","win","go","1"
"pit-trial","125","1083142","0.0-8.0","battery-v0.2","","""event"",""trial"",""time""
""fullscreenenter"",""1"",""1298""
""fullscreenexit"",""7"",""31439""
""blur"",""7"",""33105""
""focus"",""7"",""43573""
""blur"",""103"",""913091""
""focus"",""105"",""914441""
""blur"",""105"",""918525""
""focus"",""105"",""923107""
","""event"",""trial"",""time""
""blur"",""7"",""33105""
""blur"",""103"",""913091""
""blur"",""105"",""918525""
","""event"",""trial"",""time""
""focus"",""7"",""43573""
""focus"",""105"",""914441""
""focus"",""105"",""923107""
","""event"",""trial"",""time""
""fullscreenenter"",""1"",""1298""
","""event"",""trial"",""time""
""fullscreenexit"",""7"",""31439""
","","","677.3999999985099","","","24","10375","1787","&#9728;","elianto","#f73b6a7A","-1"," ","0","-10","[1529.5]","1","1","","","10375","5","0","4","lose","no-go","0"
"pit-trial","126","1086580","0.0-9.0","battery-v0.2","","""event"",""trial"",""time""
""fullscreenenter"",""1"",""1298""
""fullscreenexit"",""7"",""31439""
""blur"",""7"",""33105""
""focus"",""7"",""43573""
""blur"",""103"",""913091""
""focus"",""105"",""914441""
""blur"",""105"",""918525""
""focus"",""105"",""923107""
","""event"",""trial"",""time""
""blur"",""7"",""33105""
""blur"",""103"",""913091""
""blur"",""105"",""918525""
","""event"",""trial"",""time""
""focus"",""7"",""43573""
""focus"",""105"",""914441""
""focus"",""105"",""923107""
","""event"",""trial"",""time""
""fullscreenenter"",""1"",""1298""
","""event"",""trial"",""time""
""fullscreenexit"",""7"",""31439""
","","","570.5","","","24","10375","1787","&#9752;","elianto","#f73b6a7A"," "," ","1","0","[1422.8000000044703]","1","1","","","10375","6","3","3","lose","go","0"
"pit-trial","127","1091056","0.0-10.0","battery-v0.2","","""event"",""trial"",""time""
""fullscreenenter"",""1"",""1298""
""fullscreenexit"",""7"",""31439""
""blur"",""7"",""33105""
""focus"",""7"",""43573""
""blur"",""103"",""913091""
""focus"",""105"",""914441""
""blur"",""105"",""918525""
""focus"",""105"",""923107""
","""event"",""trial"",""time""
""blur"",""7"",""33105""
""blur"",""103"",""913091""
""blur"",""105"",""918525""
","""event"",""trial"",""time""
""focus"",""7"",""43573""
""focus"",""105"",""914441""
""focus"",""105"",""923107""
","""event"",""trial"",""time""
""fullscreenenter"",""1"",""1298""
","""event"",""trial"",""time""
""fullscreenexit"",""7"",""31439""
","","","1608.5999999940395","","","24","10375","1787","&#9733;","elianto","#3366ff99","-1"," ","0","+10","[2461]","1","1","","","10375","7","2","2","win","no-go","1"
"pit-trial","128","1094151","0.0-11.0","battery-v0.2","","""event"",""trial"",""time""
""fullscreenenter"",""1"",""1298""
""fullscreenexit"",""7"",""31439""
""blur"",""7"",""33105""
""focus"",""7"",""43573""
""blur"",""103"",""913091""
""focus"",""105"",""914441""
""blur"",""105"",""918525""
""focus"",""105"",""923107""
","""event"",""trial"",""time""
""blur"",""7"",""33105""
""blur"",""103"",""913091""
""blur"",""105"",""918525""
","""event"",""trial"",""time""
""focus"",""7"",""43573""
""focus"",""105"",""914441""
""focus"",""105"",""923107""
","""event"",""trial"",""time""
""fullscreenenter"",""1"",""1298""
","""event"",""trial"",""time""
""fullscreenexit"",""7"",""31439""
","","","237.59999999403954","","","24","10375","1787","&#9730;","elianto","#3366ff99"," "," ","1","+10","[1090.4000000059605]","1","1","","","10375","8","1","1","win","go","0"
"pit-trial","129","1099004","0.0-12.0","battery-v0.2","","""event"",""trial"",""time""
""fullscreenenter"",""1"",""1298""
""fullscreenexit"",""7"",""31439""
""blur"",""7"",""33105""
""focus"",""7"",""43573""
""blur"",""103"",""913091""
""focus"",""105"",""914441""
""blur"",""105"",""918525""
""focus"",""105"",""923107""
","""event"",""trial"",""time""
""blur"",""7"",""33105""
""blur"",""103"",""913091""
""blur"",""105"",""918525""
","""event"",""trial"",""time""
""focus"",""7"",""43573""
""focus"",""105"",""914441""
""focus"",""105"",""923107""
","""event"",""trial"",""time""
""fullscreenenter"",""1"",""1298""
","""event"",""trial"",""time""
""fullscreenexit"",""7"",""31439""
","","","-1","","","24","10375","1787","&#9728;","elianto","#f73b6a7A","-1","-1","1","0","[]","0","1","","","10375","9","0","4","lose","no-go","0"
"pit-trial","130","1102619","0.0-13.0","battery-v0.2","","""event"",""trial"",""time""
""fullscreenenter"",""1"",""1298""
""fullscreenexit"",""7"",""31439""
""blur"",""7"",""33105""
""focus"",""7"",""43573""
""blur"",""103"",""913091""
""focus"",""105"",""914441""
""blur"",""105"",""918525""
""focus"",""105"",""923107""
","""event"",""trial"",""time""
""blur"",""7"",""33105""
""blur"",""103"",""913091""
""blur"",""105"",""918525""
","""event"",""trial"",""time""
""focus"",""7"",""43573""
""focus"",""105"",""914441""
""focus"",""105"",""923107""
","""event"",""trial"",""time""
""fullscreenenter"",""1"",""1298""
","""event"",""trial"",""time""
""fullscreenexit"",""7"",""31439""
","","","761.6000000014901","","","24","10375","1787","&#9752;","elianto","#f73b6a7A"," "," ","1","0","[1611.8999999985099]","1","1","","","10375","10","3","3","lose","go","0"
"pit-trial","131","1107475","0.0-14.0","battery-v0.2","","""event"",""trial"",""time""
""fullscreenenter"",""1"",""1298""
""fullscreenexit"",""7"",""31439""
""blur"",""7"",""33105""
""focus"",""7"",""43573""
""blur"",""103"",""913091""
""focus"",""105"",""914441""
""blur"",""105"",""918525""
""focus"",""105"",""923107""
","""event"",""trial"",""time""
""blur"",""7"",""33105""
""blur"",""103"",""913091""
""blur"",""105"",""918525""
","""event"",""trial"",""time""
""focus"",""7"",""43573""
""focus"",""105"",""914441""
""focus"",""105"",""923107""
","""event"",""trial"",""time""
""fullscreenenter"",""1"",""1298""
","""event"",""trial"",""time""
""fullscreenexit"",""7"",""31439""
","","","-1","","","24","10375","1787","&#9730;","elianto","#3366ff99"," ","-1","0","0","[]","0","1","","","10375","11","1","1","win","go","0"
"pit-trial","132","1110516","0.0-15.0","battery-v0.2","","""event"",""trial"",""time""
""fullscreenenter"",""1"",""1298""
""fullscreenexit"",""7"",""31439""
""blur"",""7"",""33105""
""focus"",""7"",""43573""
""blur"",""103"",""913091""
""focus"",""105"",""914441""
""blur"",""105"",""918525""
""focus"",""105"",""923107""
","""event"",""trial"",""time""
""blur"",""7"",""33105""
""blur"",""103"",""913091""
""blur"",""105"",""918525""
","""event"",""trial"",""time""
""focus"",""7"",""43573""
""focus"",""105"",""914441""
""focus"",""105"",""923107""
","""event"",""trial"",""time""
""fullscreenenter"",""1"",""1298""
","""event"",""trial"",""time""
""fullscreenexit"",""7"",""31439""
","","","187.5","","","24","10375","1787","&#9733;","elianto","#3366ff99","-1"," ","0","0","[1037.7999999970198]","1","1","","","10375","12","2","2","win","no-go","0"
"pit-trial","133","1114338","0.0-16.0","battery-v0.2","","""event"",""trial"",""time""
""fullscreenenter"",""1"",""1298""
""fullscreenexit"",""7"",""31439""
""blur"",""7"",""33105""
""focus"",""7"",""43573""
""blur"",""103"",""913091""
""focus"",""105"",""914441""
""blur"",""105"",""918525""
""focus"",""105"",""923107""
","""event"",""trial"",""time""
""blur"",""7"",""33105""
""blur"",""103"",""913091""
""blur"",""105"",""918525""
","""event"",""trial"",""time""
""focus"",""7"",""43573""
""focus"",""105"",""914441""
""focus"",""105"",""923107""
","""event"",""trial"",""time""
""fullscreenenter"",""1"",""1298""
","""event"",""trial"",""time""
""fullscreenexit"",""7"",""31439""
","","","968.3999999985099","","","24","10375","1787","&#9733;","elianto","#3366ff99","-1"," ","0","0","[1818.3999999985099]","1","1","","","10375","13","2","2","win","no-go","0"
"pit-trial","134","1118491","0.0-17.0","battery-v0.2","","""event"",""trial"",""time""
""fullscreenenter"",""1"",""1298""
""fullscreenexit"",""7"",""31439""
""blur"",""7"",""33105""
""focus"",""7"",""43573""
""blur"",""103"",""913091""
""focus"",""105"",""914441""
""blur"",""105"",""918525""
""focus"",""105"",""923107""
","""event"",""trial"",""time""
""blur"",""7"",""33105""
""blur"",""103"",""913091""
""blur"",""105"",""918525""
","""event"",""trial"",""time""
""focus"",""7"",""43573""
""focus"",""105"",""914441""
""focus"",""105"",""923107""
","""event"",""trial"",""time""
""fullscreenenter"",""1"",""1298""
","""event"",""trial"",""time""
""fullscreenexit"",""7"",""31439""
","","","1299","","","24","10375","1787","&#9728;","elianto","#f73b6a7A","-1"," ","0","-10","[2149.0999999940395]","1","1","","","10375","14","0","4","lose","no-go","0"
"pit-trial","135","1122459","0.0-18.0","battery-v0.2","","""event"",""trial"",""time""
""fullscreenenter"",""1"",""1298""
""fullscreenexit"",""7"",""31439""
""blur"",""7"",""33105""
""focus"",""7"",""43573""
""blur"",""103"",""913091""
""focus"",""105"",""914441""
""blur"",""105"",""918525""
""focus"",""105"",""923107""
","""event"",""trial"",""time""
""blur"",""7"",""33105""
""blur"",""103"",""913091""
""blur"",""105"",""918525""
","""event"",""trial"",""time""
""focus"",""7"",""43573""
""focus"",""105"",""914441""
""focus"",""105"",""923107""
","""event"",""trial"",""time""
""fullscreenenter"",""1"",""1298""
","""event"",""trial"",""time""
""fullscreenexit"",""7"",""31439""
","","","1113.2000000029802","","","24","10375","1787","&#9730;","elianto","#3366ff99"," "," ","1","+10","[1965.1000000014901]","1","1","","","10375","15","1","1","win","go","0"
"pit-trial","136","1127257","0.0-19.0","battery-v0.2","","""event"",""trial"",""time""
""fullscreenenter"",""1"",""1298""
""fullscreenexit"",""7"",""31439""
""blur"",""7"",""33105""
""focus"",""7"",""43573""
""blur"",""103"",""913091""
""focus"",""105"",""914441""
""blur"",""105"",""918525""
""focus"",""105"",""923107""
","""event"",""trial"",""time""
""blur"",""7"",""33105""
""blur"",""103"",""913091""
""blur"",""105"",""918525""
","""event"",""trial"",""time""
""focus"",""7"",""43573""
""focus"",""105"",""914441""
""focus"",""105"",""923107""
","""event"",""trial"",""time""
""fullscreenenter"",""1"",""1298""
","""event"",""trial"",""time""
""fullscreenexit"",""7"",""31439""
","","","1945.2000000029802","","","24","10375","1787","&#9752;","elianto","#f73b6a7A"," "," ","1","0","[2795.2999999970198]","1","1","","","10375","16","3","3","lose","go","0"
"pit-trial","137","1130713","0.0-20.0","battery-v0.2","","""event"",""trial"",""time""
""fullscreenenter"",""1"",""1298""
""fullscreenexit"",""7"",""31439""
""blur"",""7"",""33105""
""focus"",""7"",""43573""
""blur"",""103"",""913091""
""focus"",""105"",""914441""
""blur"",""105"",""918525""
""focus"",""105"",""923107""
","""event"",""trial"",""time""
""blur"",""7"",""33105""
""blur"",""103"",""913091""
""blur"",""105"",""918525""
","""event"",""trial"",""time""
""focus"",""7"",""43573""
""focus"",""105"",""914441""
""focus"",""105"",""923107""
","""event"",""trial"",""time""
""fullscreenenter"",""1"",""1298""
","""event"",""trial"",""time""
""fullscreenexit"",""7"",""31439""
","","","601.7000000029802","","","24","10375","1787","&#9733;","elianto","#3366ff99","-1"," ","0","0","[1451.8999999985099]","1","1","","","10375","17","2","2","win","no-go","0"
"pit-trial","138","1135569","0.0-21.0","battery-v0.2","","""event"",""trial"",""time""
""fullscreenenter"",""1"",""1298""
""fullscreenexit"",""7"",""31439""
""blur"",""7"",""33105""
""focus"",""7"",""43573""
""blur"",""103"",""913091""
""focus"",""105"",""914441""
""blur"",""105"",""918525""
""focus"",""105"",""923107""
","""event"",""trial"",""time""
""blur"",""7"",""33105""
""blur"",""103"",""913091""
""blur"",""105"",""918525""
","""event"",""trial"",""time""
""focus"",""7"",""43573""
""focus"",""105"",""914441""
""focus"",""105"",""923107""
","""event"",""trial"",""time""
""fullscreenenter"",""1"",""1298""
","""event"",""trial"",""time""
""fullscreenexit"",""7"",""31439""
","","","-1","","","24","10375","1787","&#9730;","elianto","#3366ff99"," ","-1","0","0","[3254]","1","1","","","10375","18","1","1","win","go","0"
"pit-trial","139","1140424","0.0-22.0","battery-v0.2","","""event"",""trial"",""time""
""fullscreenenter"",""1"",""1298""
""fullscreenexit"",""7"",""31439""
""blur"",""7"",""33105""
""focus"",""7"",""43573""
""blur"",""103"",""913091""
""focus"",""105"",""914441""
""blur"",""105"",""918525""
""focus"",""105"",""923107""
","""event"",""trial"",""time""
""blur"",""7"",""33105""
""blur"",""103"",""913091""
""blur"",""105"",""918525""
","""event"",""trial"",""time""
""focus"",""7"",""43573""
""focus"",""105"",""914441""
""focus"",""105"",""923107""
","""event"",""trial"",""time""
""fullscreenenter"",""1"",""1298""
","""event"",""trial"",""time""
""fullscreenexit"",""7"",""31439""
","","","-1","","","24","10375","1787","&#9728;","elianto","#f73b6a7A","-1","-1","1","0","[]","0","1","","","10375","19","0","4","lose","no-go","0"
"pit-trial","140","1144183","0.0-23.0","battery-v0.2","","""event"",""trial"",""time""
""fullscreenenter"",""1"",""1298""
""fullscreenexit"",""7"",""31439""
""blur"",""7"",""33105""
""focus"",""7"",""43573""
""blur"",""103"",""913091""
""focus"",""105"",""914441""
""blur"",""105"",""918525""
""focus"",""105"",""923107""
","""event"",""trial"",""time""
""blur"",""7"",""33105""
""blur"",""103"",""913091""
""blur"",""105"",""918525""
","""event"",""trial"",""time""
""focus"",""7"",""43573""
""focus"",""105"",""914441""
""focus"",""105"",""923107""
","""event"",""trial"",""time""
""fullscreenenter"",""1"",""1298""
","""event"",""trial"",""time""
""fullscreenexit"",""7"",""31439""
","","","904.8999999985099","","","24","10375","1787","&#9752;","elianto","#f73b6a7A"," "," ","1","0","[1755.2000000029802]","1","1","","","10375","20","3","3","lose","go","0"
"pit-instructions","141","1155469","0.0-24.0","battery-v0.2","","""event"",""trial"",""time""
""fullscreenenter"",""1"",""1298""
""fullscreenexit"",""7"",""31439""
""blur"",""7"",""33105""
""focus"",""7"",""43573""
""blur"",""103"",""913091""
""focus"",""105"",""914441""
""blur"",""105"",""918525""
""focus"",""105"",""923107""
","""event"",""trial"",""time""
""blur"",""7"",""33105""
""blur"",""103"",""913091""
""blur"",""105"",""918525""
","""event"",""trial"",""time""
""focus"",""7"",""43573""
""focus"",""105"",""914441""
""focus"",""105"",""923107""
","""event"",""trial"",""time""
""fullscreenenter"",""1"",""1298""
","""event"",""trial"",""time""
""fullscreenexit"",""7"",""31439""
","","[{""page_index"":0,""viewing_time"":5209},{""page_index"":1,""viewing_time"":6075.5}]","11284.79999999702","","","","","","","","","","","","","","","","","","","","","","","",""
"pit-trial","142","1159320","0.0-25.0","battery-v0.2","","""event"",""trial"",""time""
""fullscreenenter"",""1"",""1298""
""fullscreenexit"",""7"",""31439""
""blur"",""7"",""33105""
""focus"",""7"",""43573""
""blur"",""103"",""913091""
""focus"",""105"",""914441""
""blur"",""105"",""918525""
""focus"",""105"",""923107""
","""event"",""trial"",""time""
""blur"",""7"",""33105""
""blur"",""103"",""913091""
""blur"",""105"",""918525""
","""event"",""trial"",""time""
""focus"",""7"",""43573""
""focus"",""105"",""914441""
""focus"",""105"",""923107""
","""event"",""trial"",""time""
""fullscreenenter"",""1"",""1298""
","""event"",""trial"",""time""
""fullscreenexit"",""7"",""31439""
","","","974.1999999955297","","","24","10375","1787","b","elianto","#f73b6a7A","-1"," ","0","-10","[1834]","1","2","","","10375","21","3","4","lose","no-go","0"
