"trial_type","trial_index","time_elapsed","internal_node_id","task_version","subject_id","interactions","blur_events","focus_events","fullscreenenter_events","fullscreenexit_events","success","view_history","rt","responses","num_errors","age","subject","participantId","rune","rune_set","hex","correct","choice","accuracy","outcome","keys","total_keys","block","practice","value","sub","trial","stimulus","robot","valence","action","sham"
"pavlovia","0","20","0.0-0.0","battery-v0.2","","""event"",""trial"",""time""
""blur"",""1"",""364""
""focus"",""1"",""429""
""fullscreenenter"",""1"",""4071""
","""event"",""trial"",""time""
""blur"",""1"",""364""
","""event"",""trial"",""time""
""focus"",""1"",""429""
","""event"",""trial"",""time""
""fullscreenenter"",""1"",""4071""
","
","","","","","","","","","","","","","","","","","","","","","","","","","","",""
"fullscreen","1","5065","0.0-1.0","battery-v0.2","","""event"",""trial"",""time""
""blur"",""1"",""364""
""focus"",""1"",""429""
""fullscreenenter"",""1"",""4071""
","""event"",""trial"",""time""
""blur"",""1"",""364""
","""event"",""trial"",""time""
""focus"",""1"",""429""
","""event"",""trial"",""time""
""fullscreenenter"",""1"",""4071""
","
","true","","","","","","","","","","","","","","","","","","","","","","","","","",""
"pit-instructions","2","9414","0.0-2.0-0.0","battery-v0.2","","""event"",""trial"",""time""
""blur"",""1"",""364""
""focus"",""1"",""429""
""fullscreenenter"",""1"",""4071""
","""event"",""trial"",""time""
""blur"",""1"",""364""
","""event"",""trial"",""time""
""focus"",""1"",""429""
","""event"",""trial"",""time""
""fullscreenenter"",""1"",""4071""
","
","","[{""page_index"":0,""viewing_time"":4345.199999928474}]","4345.899999976158","","","","","","","","","","","","","","","","","","","","","","","",""
"pit-comprehension","3","11793","0.0-2.0-1.0-0.0","battery-v0.2","","""event"",""trial"",""time""
""blur"",""1"",""364""
""focus"",""1"",""429""
""fullscreenenter"",""1"",""4071""
","""event"",""trial"",""time""
""blur"",""1"",""364""
","""event"",""trial"",""time""
""focus"",""1"",""429""
","""event"",""trial"",""time""
""fullscreenenter"",""1"",""4071""
","
","","","2368.6999999284744","[""shark""]","0","24","12161","5495","","","","","","","","","","","","","","","","","","",""
"pit-instructions","4","16110","0.0-2.0-1.0-1.0","battery-v0.2","","""event"",""trial"",""time""
""blur"",""1"",""364""
""focus"",""1"",""429""
""fullscreenenter"",""1"",""4071""
","""event"",""trial"",""time""
""blur"",""1"",""364""
","""event"",""trial"",""time""
""focus"",""1"",""429""
","""event"",""trial"",""time""
""fullscreenenter"",""1"",""4071""
","
","","[{""page_index"":0,""viewing_time"":4304.5}]","4305.800000071526","","","","","","","","","","","","","","","","","","","","","","","",""
"pit-comprehension","5","18177","0.0-2.0-2.0-0.0","battery-v0.2","","""event"",""trial"",""time""
""blur"",""1"",""364""
""focus"",""1"",""429""
""fullscreenenter"",""1"",""4071""
","""event"",""trial"",""time""
""blur"",""1"",""364""
","""event"",""trial"",""time""
""focus"",""1"",""429""
","""event"",""trial"",""time""
""fullscreenenter"",""1"",""4071""
","
","","","2060.100000023842","[""tiger""]","0","24","12161","5495","","","","","","","","","","","","","","","","","","",""
"pit-instructions","6","18981","0.0-2.0-2.0-1.0","battery-v0.2","","""event"",""trial"",""time""
""blur"",""1"",""364""
""focus"",""1"",""429""
""fullscreenenter"",""1"",""4071""
","""event"",""trial"",""time""
""blur"",""1"",""364""
","""event"",""trial"",""time""
""focus"",""1"",""429""
","""event"",""trial"",""time""
""fullscreenenter"",""1"",""4071""
","
","","[{""page_index"":0,""viewing_time"":798.6000000238419}]","798.8999999761581","","","","","","","","","","","","","","","","","","","","","","","",""
"pit-instructions","7","130882","0.0-2.0-3.0","battery-v0.2","","""event"",""trial"",""time""
""blur"",""1"",""364""
""focus"",""1"",""429""
""fullscreenenter"",""1"",""4071""
","""event"",""trial"",""time""
""blur"",""1"",""364""
","""event"",""trial"",""time""
""focus"",""1"",""429""
","""event"",""trial"",""time""
""fullscreenenter"",""1"",""4071""
","
","","[{""page_index"":0,""viewing_time"":23386.200000047684},{""page_index"":1,""viewing_time"":6696.299999952316},{""page_index"":2,""viewing_time"":7585.600000023842},{""page_index"":3,""viewing_time"":6436.399999976158},{""page_index"":4,""viewing_time"":6110.5},{""page_index"":5,""viewing_time"":7750.100000023842},{""page_index"":6,""viewing_time"":5327.399999976158},{""page_index"":7,""viewing_time"":8668.800000071526},{""page_index"":8,""viewing_time"":7396.399999976158},{""page_index"":9,""viewing_time"":5267.700000047684},{""page_index"":10,""viewing_time"":8718.199999928474},{""page_index"":11,""viewing_time"":6615},{""page_index"":12,""viewing_time"":6517.5},{""page_index"":13,""viewing_time"":5422.100000023842}]","111898.5","","","","","","","","","","","","","","","","","","","","","","","",""
"pit-trial","8","134323","0.0-2.0-4.0-0.0","battery-v0.2","","""event"",""trial"",""time""
""blur"",""1"",""364""
""focus"",""1"",""429""
""fullscreenenter"",""1"",""4071""
","""event"",""trial"",""time""
""blur"",""1"",""364""
","""event"",""trial"",""time""
""focus"",""1"",""429""
","""event"",""trial"",""time""
""fullscreenenter"",""1"",""4071""
","
","","","581.3999999761581","","","24","12161","5495","&#9784;","elianto","#FFFFF080"," "," ","1","&#10004","[1431.7999999523163]","1","0","0","","","","","","","",""
"pit-trial","9","137944","0.0-2.0-4.1-0.1","battery-v0.2","","""event"",""trial"",""time""
""blur"",""1"",""364""
""focus"",""1"",""429""
""fullscreenenter"",""1"",""4071""
","""event"",""trial"",""time""
""blur"",""1"",""364""
","""event"",""trial"",""time""
""focus"",""1"",""429""
","""event"",""trial"",""time""
""fullscreenenter"",""1"",""4071""
","
","","","759.0999999046326","","","24","12161","5495","&#9784;","elianto","#FFFFF080"," "," ","1","&#10004","[1613.6999999284744]","1","0","0","","","","","","","",""
"pit-trial","10","141522","0.0-2.0-4.2-0.2","battery-v0.2","","""event"",""trial"",""time""
""blur"",""1"",""364""
""focus"",""1"",""429""
""fullscreenenter"",""1"",""4071""
","""event"",""trial"",""time""
""blur"",""1"",""364""
","""event"",""trial"",""time""
""focus"",""1"",""429""
","""event"",""trial"",""time""
""fullscreenenter"",""1"",""4071""
","
","","","722","","","24","12161","5495","&#9784;","elianto","#FFFFF080"," "," ","1","&#10004","[1572.7000000476837]","1","0","0","","","","","","","",""
"pit-trial","11","145123","0.0-2.0-4.3-0.3","battery-v0.2","","""event"",""trial"",""time""
""blur"",""1"",""364""
""focus"",""1"",""429""
""fullscreenenter"",""1"",""4071""
","""event"",""trial"",""time""
""blur"",""1"",""364""
","""event"",""trial"",""time""
""focus"",""1"",""429""
","""event"",""trial"",""time""
""fullscreenenter"",""1"",""4071""
","
","","","742.6999999284744","","","24","12161","5495","&#9784;","elianto","#FFFFF080"," "," ","1","&#10004","[1592.6999999284744]","1","0","0","","","","","","","",""
"pit-trial","12","148503","0.0-2.0-4.4-0.4","battery-v0.2","","""event"",""trial"",""time""
""blur"",""1"",""364""
""focus"",""1"",""429""
""fullscreenenter"",""1"",""4071""
","""event"",""trial"",""time""
""blur"",""1"",""364""
","""event"",""trial"",""time""
""focus"",""1"",""429""
","""event"",""trial"",""time""
""fullscreenenter"",""1"",""4071""
","
","","","520.3999999761581","","","24","12161","5495","&#9784;","elianto","#FFFFF080"," "," ","1","&#10004","[1371.2999999523163]","1","0","0","","","","","","","",""
"pit-instructions","13","170354","0.0-2.0-5.0","battery-v0.2","","""event"",""trial"",""time""
""blur"",""1"",""364""
""focus"",""1"",""429""
""fullscreenenter"",""1"",""4071""
","""event"",""trial"",""time""
""blur"",""1"",""364""
","""event"",""trial"",""time""
""focus"",""1"",""429""
","""event"",""trial"",""time""
""fullscreenenter"",""1"",""4071""
","
","","[{""page_index"":0,""viewing_time"":4908.299999952316},{""page_index"":1,""viewing_time"":5321.200000047684},{""page_index"":2,""viewing_time"":4949.200000047684},{""page_index"":3,""viewing_time"":6666.5}]","21845.899999976158","","","","","","","","","","","","","","","","","","","","","","","",""
"pit-trial","14","175217","0.0-2.0-6.0-0.0","battery-v0.2","","""event"",""trial"",""time""
""blur"",""1"",""364""
""focus"",""1"",""429""
""fullscreenenter"",""1"",""4071""
","""event"",""trial"",""time""
""blur"",""1"",""364""
","""event"",""trial"",""time""
""focus"",""1"",""429""
","""event"",""trial"",""time""
""fullscreenenter"",""1"",""4071""
","
","","","-1","","","24","12161","5495","&#9854;","elianto","#FFFFF080","-1","-1","1","&#10004","[]","0","0","1","","","","","","","",""
"pit-trial","15","180078","0.0-2.0-6.1-0.1","battery-v0.2","","""event"",""trial"",""time""
""blur"",""1"",""364""
""focus"",""1"",""429""
""fullscreenenter"",""1"",""4071""
","""event"",""trial"",""time""
""blur"",""1"",""364""
","""event"",""trial"",""time""
""focus"",""1"",""429""
","""event"",""trial"",""time""
""fullscreenenter"",""1"",""4071""
","
","","","-1","","","24","12161","5495","&#9854;","elianto","#FFFFF080","-1","-1","1","&#10004","[]","0","0","1","","","","","","","",""
"pit-trial","16","184939","0.0-2.0-6.2-0.2","battery-v0.2","","""event"",""trial"",""time""
""blur"",""1"",""364""
""focus"",""1"",""429""
""fullscreenenter"",""1"",""4071""
","""event"",""trial"",""time""
""blur"",""1"",""364""
","""event"",""trial"",""time""
""focus"",""1"",""429""
","""event"",""trial"",""time""
""fullscreenenter"",""1"",""4071""
","
","","","-1","","","24","12161","5495","&#9854;","elianto","#FFFFF080","-1","-1","1","&#10004","[]","0","0","1","","","","","","","",""
"pit-trial","17","189803","0.0-2.0-6.3-0.3","battery-v0.2","","""event"",""trial"",""time""
""blur"",""1"",""364""
""focus"",""1"",""429""
""fullscreenenter"",""1"",""4071""
","""event"",""trial"",""time""
""blur"",""1"",""364""
","""event"",""trial"",""time""
""focus"",""1"",""429""
","""event"",""trial"",""time""
""fullscreenenter"",""1"",""4071""
","
","","","-1","","","24","12161","5495","&#9854;","elianto","#FFFFF080","-1","-1","1","&#10004","[]","0","0","1","","","","","","","",""
"pit-trial","18","194661","0.0-2.0-6.4-0.4","battery-v0.2","","""event"",""trial"",""time""
""blur"",""1"",""364""
""focus"",""1"",""429""
""fullscreenenter"",""1"",""4071""
","""event"",""trial"",""time""
""blur"",""1"",""364""
","""event"",""trial"",""time""
""focus"",""1"",""429""
","""event"",""trial"",""time""
""fullscreenenter"",""1"",""4071""
","
","","","-1","","","24","12161","5495","&#9854;","elianto","#FFFFF080","-1","-1","1","&#10004","[]","0","0","1","","","","","","","",""
"pit-instructions","19","407165","0.0-2.0-7.0","battery-v0.2","","""event"",""trial"",""time""
""blur"",""1"",""364""
""focus"",""1"",""429""
""fullscreenenter"",""1"",""4071""
","""event"",""trial"",""time""
""blur"",""1"",""364""
","""event"",""trial"",""time""
""focus"",""1"",""429""
","""event"",""trial"",""time""
""fullscreenenter"",""1"",""4071""
","
","","[{""page_index"":0,""viewing_time"":12901.800000071526},{""page_index"":1,""viewing_time"":6988.600000023842},{""page_index"":2,""viewing_time"":6547.099999904633},{""page_index"":3,""viewing_time"":15634.800000071526},{""page_index"":4,""viewing_time"":10288.299999952316},{""page_index"":5,""viewing_time"":15502.800000071526},{""page_index"":6,""viewing_time"":8701.399999976158},{""page_index"":7,""viewing_time"":24370},{""page_index"":8,""viewing_time"":17897.899999976158},{""page_index"":9,""viewing_time"":9374.100000023842},{""page_index"":10,""viewing_time"":11553.600000023842},{""page_index"":11,""viewing_time"":10282.899999976158},{""page_index"":12,""viewing_time"":15112.899999976158},{""page_index"":13,""viewing_time"":16606},{""page_index"":14,""viewing_time"":6296.399999976158},{""page_index"":15,""viewing_time"":6463.899999976158},{""page_index"":16,""viewing_time"":10774.800000071526},{""page_index"":17,""viewing_time"":7202.799999952316}]","212501.60000002384","","","","","","","","","","","","","","","","","","","","","","","",""
"pit-trial","20","411117","0.0-2.0-8.0-0.0","battery-v0.2","","""event"",""trial"",""time""
""blur"",""1"",""364""
""focus"",""1"",""429""
""fullscreenenter"",""1"",""4071""
","""event"",""trial"",""time""
""blur"",""1"",""364""
","""event"",""trial"",""time""
""focus"",""1"",""429""
","""event"",""trial"",""time""
""fullscreenenter"",""1"",""4071""
","
","","","1092.1000000238419","","","24","12161","5495","&#9776;","elianto","#3366ff99"," "," ","1","+10","[1943]","1","0","1","","","","","","","",""
"pit-trial","21","414542","0.0-2.0-8.0-1.0","battery-v0.2","","""event"",""trial"",""time""
""blur"",""1"",""364""
""focus"",""1"",""429""
""fullscreenenter"",""1"",""4071""
","""event"",""trial"",""time""
""blur"",""1"",""364""
","""event"",""trial"",""time""
""focus"",""1"",""429""
","""event"",""trial"",""time""
""fullscreenenter"",""1"",""4071""
","
","","","565.5","","","24","12161","5495","&#9776;","elianto","#3366ff99"," "," ","1","+10","[1416.8000000715256]","1","0","1","","","","","","","",""
"pit-trial","22","418055","0.0-2.0-8.0-2.0","battery-v0.2","","""event"",""trial"",""time""
""blur"",""1"",""364""
""focus"",""1"",""429""
""fullscreenenter"",""1"",""4071""
","""event"",""trial"",""time""
""blur"",""1"",""364""
","""event"",""trial"",""time""
""focus"",""1"",""429""
","""event"",""trial"",""time""
""fullscreenenter"",""1"",""4071""
","
","","","656.3999999761581","","","24","12161","5495","&#9776;","elianto","#3366ff99"," "," ","1","+10","[1507.1000000238419]","1","0","1","","","","","","","",""
"pit-trial","23","421404","0.0-2.0-8.0-3.0","battery-v0.2","","""event"",""trial"",""time""
""blur"",""1"",""364""
""focus"",""1"",""429""
""fullscreenenter"",""1"",""4071""
","""event"",""trial"",""time""
""blur"",""1"",""364""
","""event"",""trial"",""time""
""focus"",""1"",""429""
","""event"",""trial"",""time""
""fullscreenenter"",""1"",""4071""
","
","","","489.3000000715256","","","24","12161","5495","&#9776;","elianto","#3366ff99"," "," ","1","0","[1340.9000000953674]","1","0","1","","","","","","","",""
"pit-trial","24","424823","0.0-2.0-8.0-4.0","battery-v0.2","","""event"",""trial"",""time""
""blur"",""1"",""364""
""focus"",""1"",""429""
""fullscreenenter"",""1"",""4071""
","""event"",""trial"",""time""
""blur"",""1"",""364""
","""event"",""trial"",""time""
""focus"",""1"",""429""
","""event"",""trial"",""time""
""fullscreenenter"",""1"",""4071""
","
","","","561.2000000476837","","","24","12161","5495","&#9776;","elianto","#3366ff99"," "," ","1","+10","[1413]","1","0","1","","","","","","","",""
"pit-trial","25","428145","0.0-2.0-8.1-0.1","battery-v0.2","","""event"",""trial"",""time""
""blur"",""1"",""364""
""focus"",""1"",""429""
""fullscreenenter"",""1"",""4071""
","""event"",""trial"",""time""
""blur"",""1"",""364""
","""event"",""trial"",""time""
""focus"",""1"",""429""
","""event"",""trial"",""time""
""fullscreenenter"",""1"",""4071""
","
","","","460.5","","","24","12161","5495","&#9776;","elianto","#3366ff99"," "," ","1","+10","[1310.6999999284744]","1","0","1","","","","","","","",""
"pit-trial","26","431489","0.0-2.0-8.1-1.1","battery-v0.2","","""event"",""trial"",""time""
""blur"",""1"",""364""
""focus"",""1"",""429""
""fullscreenenter"",""1"",""4071""
","""event"",""trial"",""time""
""blur"",""1"",""364""
","""event"",""trial"",""time""
""focus"",""1"",""429""
","""event"",""trial"",""time""
""fullscreenenter"",""1"",""4071""
","
","","","488.39999997615814","","","24","12161","5495","&#9776;","elianto","#3366ff99"," "," ","1","+10","[1339]","1","0","1","","","","","","","",""
"pit-trial","27","434813","0.0-2.0-8.1-2.1","battery-v0.2","","""event"",""trial"",""time""
""blur"",""1"",""364""
""focus"",""1"",""429""
""fullscreenenter"",""1"",""4071""
","""event"",""trial"",""time""
""blur"",""1"",""364""
","""event"",""trial"",""time""
""focus"",""1"",""429""
","""event"",""trial"",""time""
""fullscreenenter"",""1"",""4071""
","
","","","467.7000000476837","","","24","12161","5495","&#9776;","elianto","#3366ff99"," "," ","1","+10","[1318.8999999761581]","1","0","1","","","","","","","",""
"pit-trial","28","438103","0.0-2.0-8.1-3.1","battery-v0.2","","""event"",""trial"",""time""
""blur"",""1"",""364""
""focus"",""1"",""429""
""fullscreenenter"",""1"",""4071""
","""event"",""trial"",""time""
""blur"",""1"",""364""
","""event"",""trial"",""time""
""focus"",""1"",""429""
","""event"",""trial"",""time""
""fullscreenenter"",""1"",""4071""
","
","","","433.5","","","24","12161","5495","&#9776;","elianto","#3366ff99"," "," ","1","0","[1285.5]","1","0","1","","","","","","","",""
"pit-trial","29","441417","0.0-2.0-8.1-4.1","battery-v0.2","","""event"",""trial"",""time""
""blur"",""1"",""364""
""focus"",""1"",""429""
""fullscreenenter"",""1"",""4071""
","""event"",""trial"",""time""
""blur"",""1"",""364""
","""event"",""trial"",""time""
""focus"",""1"",""429""
","""event"",""trial"",""time""
""fullscreenenter"",""1"",""4071""
","
","","","457.7000000476837","","","24","12161","5495","&#9776;","elianto","#3366ff99"," "," ","1","+10","[1309.2999999523163]","1","0","1","","","","","","","",""
"pit-trial","30","444861","0.0-2.0-8.2-0.2","battery-v0.2","","""event"",""trial"",""time""
""blur"",""1"",""364""
""focus"",""1"",""429""
""fullscreenenter"",""1"",""4071""
","""event"",""trial"",""time""
""blur"",""1"",""364""
","""event"",""trial"",""time""
""focus"",""1"",""429""
","""event"",""trial"",""time""
""fullscreenenter"",""1"",""4071""
","
","","","582.3999999761581","","","24","12161","5495","&#9776;","elianto","#3366ff99"," "," ","1","+10","[1432.8999999761581]","1","0","1","","","","","","","",""
"pit-trial","31","448334","0.0-2.0-8.2-1.2","battery-v0.2","","""event"",""trial"",""time""
""blur"",""1"",""364""
""focus"",""1"",""429""
""fullscreenenter"",""1"",""4071""
","""event"",""trial"",""time""
""blur"",""1"",""364""
","""event"",""trial"",""time""
""focus"",""1"",""429""
","""event"",""trial"",""time""
""fullscreenenter"",""1"",""4071""
","
","","","614.5999999046326","","","24","12161","5495","&#9776;","elianto","#3366ff99"," "," ","1","+10","[1464.5]","1","0","1","","","","","","","",""
"pit-trial","32","453198","0.0-2.0-8.2-2.2","battery-v0.2","","""event"",""trial"",""time""
""blur"",""1"",""364""
""focus"",""1"",""429""
""fullscreenenter"",""1"",""4071""
","""event"",""trial"",""time""
""blur"",""1"",""364""
","""event"",""trial"",""time""
""focus"",""1"",""429""
","""event"",""trial"",""time""
""fullscreenenter"",""1"",""4071""
","
","","","-1","","","24","12161","5495","&#9776;","elianto","#3366ff99"," ","-1","0","0","[]","0","0","1","","","","","","","",""
"pit-trial","33","456589","0.0-2.0-8.2-3.2","battery-v0.2","","""event"",""trial"",""time""
""blur"",""1"",""364""
""focus"",""1"",""429""
""fullscreenenter"",""1"",""4071""
","""event"",""trial"",""time""
""blur"",""1"",""364""
","""event"",""trial"",""time""
""focus"",""1"",""429""
","""event"",""trial"",""time""
""fullscreenenter"",""1"",""4071""
","
","","","535","","","24","12161","5495","&#9776;","elianto","#3366ff99"," "," ","1","0","[1386.8000000715256]","1","0","1","","","","","","","",""
"pit-trial","34","460014","0.0-2.0-8.2-4.2","battery-v0.2","","""event"",""trial"",""time""
""blur"",""1"",""364""
""focus"",""1"",""429""
""fullscreenenter"",""1"",""4071""
","""event"",""trial"",""time""
""blur"",""1"",""364""
","""event"",""trial"",""time""
""focus"",""1"",""429""
","""event"",""trial"",""time""
""fullscreenenter"",""1"",""4071""
","
","","","564.5","","","24","12161","5495","&#9776;","elianto","#3366ff99"," "," ","1","+10","[1416.6000000238419]","1","0","1","","","","","","","",""
"call-function","35","460017","0.0-2.0-9.0","battery-v0.2","","""event"",""trial"",""time""
""blur"",""1"",""364""
""focus"",""1"",""429""
""fullscreenenter"",""1"",""4071""
","""event"",""trial"",""time""
""blur"",""1"",""364""
","""event"",""trial"",""time""
""focus"",""1"",""429""
","""event"",""trial"",""time""
""fullscreenenter"",""1"",""4071""
","
","","","","","","","","","","","","","","","","","","","","","","","","","","",""
"pit-instructions","36","511697","0.0-2.0-10.0","battery-v0.2","","""event"",""trial"",""time""
""blur"",""1"",""364""
""focus"",""1"",""429""
""fullscreenenter"",""1"",""4071""
","""event"",""trial"",""time""
""blur"",""1"",""364""
","""event"",""trial"",""time""
""focus"",""1"",""429""
","""event"",""trial"",""time""
""fullscreenenter"",""1"",""4071""
","
","","[{""page_index"":0,""viewing_time"":11506},{""page_index"":1,""viewing_time"":10257.700000047684},{""page_index"":2,""viewing_time"":9931.700000047684},{""page_index"":3,""viewing_time"":11683.599999904633},{""page_index"":4,""viewing_time"":8300.400000095367}]","51680.700000047684","","","","","","","","","","","","","","","","","","","","","","","",""
"pit-trial","37","515253","0.0-2.0-11.0-0.0","battery-v0.2","","""event"",""trial"",""time""
""blur"",""1"",""364""
""focus"",""1"",""429""
""fullscreenenter"",""1"",""4071""
","""event"",""trial"",""time""
""blur"",""1"",""364""
","""event"",""trial"",""time""
""focus"",""1"",""429""
","""event"",""trial"",""time""
""fullscreenenter"",""1"",""4071""
","
","","","698.7000000476837","","","24","12161","5495","&#9761;","elianto","#3366ff99","-1"," ","0","0","[1549.7000000476837]","1","0","2","","","","","","","",""
"pit-trial","38","520109","0.0-2.0-11.0-1.0","battery-v0.2","","""event"",""trial"",""time""
""blur"",""1"",""364""
""focus"",""1"",""429""
""fullscreenenter"",""1"",""4071""
","""event"",""trial"",""time""
""blur"",""1"",""364""
","""event"",""trial"",""time""
""focus"",""1"",""429""
","""event"",""trial"",""time""
""fullscreenenter"",""1"",""4071""
","
","","","-1","","","24","12161","5495","&#9761;","elianto","#3366ff99","-1","-1","1","+10","[]","0","0","2","","","","","","","",""
"pit-trial","39","524971","0.0-2.0-11.0-2.0","battery-v0.2","","""event"",""trial"",""time""
""blur"",""1"",""364""
""focus"",""1"",""429""
""fullscreenenter"",""1"",""4071""
","""event"",""trial"",""time""
""blur"",""1"",""364""
","""event"",""trial"",""time""
""focus"",""1"",""429""
","""event"",""trial"",""time""
""fullscreenenter"",""1"",""4071""
","
","","","-1","","","24","12161","5495","&#9761;","elianto","#3366ff99","-1","-1","1","+10","[]","0","0","2","","","","","","","",""
"pit-trial","40","529835","0.0-2.0-11.0-3.0","battery-v0.2","","""event"",""trial"",""time""
""blur"",""1"",""364""
""focus"",""1"",""429""
""fullscreenenter"",""1"",""4071""
","""event"",""trial"",""time""
""blur"",""1"",""364""
","""event"",""trial"",""time""
""focus"",""1"",""429""
","""event"",""trial"",""time""
""fullscreenenter"",""1"",""4071""
","
","","","-1","","","24","12161","5495","&#9761;","elianto","#3366ff99","-1","-1","1","0","[]","0","0","2","","","","","","","",""
"pit-trial","41","534695","0.0-2.0-11.0-4.0","battery-v0.2","","""event"",""trial"",""time""
""blur"",""1"",""364""
""focus"",""1"",""429""
""fullscreenenter"",""1"",""4071""
","""event"",""trial"",""time""
""blur"",""1"",""364""
","""event"",""trial"",""time""
""focus"",""1"",""429""
","""event"",""trial"",""time""
""fullscreenenter"",""1"",""4071""
","
","","","-1","","","24","12161","5495","&#9761;","elianto","#3366ff99","-1","-1","1","+10","[]","0","0","2","","","","","","","",""
"pit-trial","42","539558","0.0-2.0-11.1-0.1","battery-v0.2","","""event"",""trial"",""time""
""blur"",""1"",""364""
""focus"",""1"",""429""
""fullscreenenter"",""1"",""4071""
","""event"",""trial"",""time""
""blur"",""1"",""364""
","""event"",""trial"",""time""
""focus"",""1"",""429""
","""event"",""trial"",""time""
""fullscreenenter"",""1"",""4071""
","
","","","-1","","","24","12161","5495","&#9761;","elianto","#3366ff99","-1","-1","1","+10","[]","0","0","2","","","","","","","",""
"pit-trial","43","544412","0.0-2.0-11.1-1.1","battery-v0.2","","""event"",""trial"",""time""
""blur"",""1"",""364""
""focus"",""1"",""429""
""fullscreenenter"",""1"",""4071""
","""event"",""trial"",""time""
""blur"",""1"",""364""
","""event"",""trial"",""time""
""focus"",""1"",""429""
","""event"",""trial"",""time""
""fullscreenenter"",""1"",""4071""
","
","","","-1","","","24","12161","5495","&#9761;","elianto","#3366ff99","-1","-1","1","+10","[]","0","0","2","","","","","","","",""
"pit-trial","44","549268","0.0-2.0-11.1-2.1","battery-v0.2","","""event"",""trial"",""time""
""blur"",""1"",""364""
""focus"",""1"",""429""
""fullscreenenter"",""1"",""4071""
","""event"",""trial"",""time""
""blur"",""1"",""364""
","""event"",""trial"",""time""
""focus"",""1"",""429""
","""event"",""trial"",""time""
""fullscreenenter"",""1"",""4071""
","
","","","-1","","","24","12161","5495","&#9761;","elianto","#3366ff99","-1","-1","1","+10","[]","0","0","2","","","","","","","",""
"pit-trial","45","554129","0.0-2.0-11.1-3.1","battery-v0.2","","""event"",""trial"",""time""
""blur"",""1"",""364""
""focus"",""1"",""429""
""fullscreenenter"",""1"",""4071""
","""event"",""trial"",""time""
""blur"",""1"",""364""
","""event"",""trial"",""time""
""focus"",""1"",""429""
","""event"",""trial"",""time""
""fullscreenenter"",""1"",""4071""
","
","","","-1","","","24","12161","5495","&#9761;","elianto","#3366ff99","-1","-1","1","0","[]","0","0","2","","","","","","","",""
"pit-trial","46","558993","0.0-2.0-11.1-4.1","battery-v0.2","","""event"",""trial"",""time""
""blur"",""1"",""364""
""focus"",""1"",""429""
""fullscreenenter"",""1"",""4071""
","""event"",""trial"",""time""
""blur"",""1"",""364""
","""event"",""trial"",""time""
""focus"",""1"",""429""
","""event"",""trial"",""time""
""fullscreenenter"",""1"",""4071""
","
","","","-1","","","24","12161","5495","&#9761;","elianto","#3366ff99","-1","-1","1","+10","[]","0","0","2","","","","","","","",""
"pit-trial","47","563857","0.0-2.0-11.2-0.2","battery-v0.2","","""event"",""trial"",""time""
""blur"",""1"",""364""
""focus"",""1"",""429""
""fullscreenenter"",""1"",""4071""
","""event"",""trial"",""time""
""blur"",""1"",""364""
","""event"",""trial"",""time""
""focus"",""1"",""429""
","""event"",""trial"",""time""
""fullscreenenter"",""1"",""4071""
","
","","","-1","","","24","12161","5495","&#9761;","elianto","#3366ff99","-1","-1","1","+10","[]","0","0","2","","","","","","","",""
"pit-trial","48","568720","0.0-2.0-11.2-1.2","battery-v0.2","","""event"",""trial"",""time""
""blur"",""1"",""364""
""focus"",""1"",""429""
""fullscreenenter"",""1"",""4071""
","""event"",""trial"",""time""
""blur"",""1"",""364""
","""event"",""trial"",""time""
""focus"",""1"",""429""
","""event"",""trial"",""time""
""fullscreenenter"",""1"",""4071""
","
","","","-1","","","24","12161","5495","&#9761;","elianto","#3366ff99","-1","-1","1","+10","[]","0","0","2","","","","","","","",""
"pit-trial","49","573583","0.0-2.0-11.2-2.2","battery-v0.2","","""event"",""trial"",""time""
""blur"",""1"",""364""
""focus"",""1"",""429""
""fullscreenenter"",""1"",""4071""
","""event"",""trial"",""time""
""blur"",""1"",""364""
","""event"",""trial"",""time""
""focus"",""1"",""429""
","""event"",""trial"",""time""
""fullscreenenter"",""1"",""4071""
","
","","","-1","","","24","12161","5495","&#9761;","elianto","#3366ff99","-1","-1","1","+10","[]","0","0","2","","","","","","","",""
"pit-trial","50","578443","0.0-2.0-11.2-3.2","battery-v0.2","","""event"",""trial"",""time""
""blur"",""1"",""364""
""focus"",""1"",""429""
""fullscreenenter"",""1"",""4071""
","""event"",""trial"",""time""
""blur"",""1"",""364""
","""event"",""trial"",""time""
""focus"",""1"",""429""
","""event"",""trial"",""time""
""fullscreenenter"",""1"",""4071""
","
","","","-1","","","24","12161","5495","&#9761;","elianto","#3366ff99","-1","-1","1","0","[]","0","0","2","","","","","","","",""
"pit-trial","51","583306","0.0-2.0-11.2-4.2","battery-v0.2","","""event"",""trial"",""time""
""blur"",""1"",""364""
""focus"",""1"",""429""
""fullscreenenter"",""1"",""4071""
","""event"",""trial"",""time""
""blur"",""1"",""364""
","""event"",""trial"",""time""
""focus"",""1"",""429""
","""event"",""trial"",""time""
""fullscreenenter"",""1"",""4071""
","
","","","-1","","","24","12161","5495","&#9761;","elianto","#3366ff99","-1","-1","1","+10","[]","0","0","2","","","","","","","",""
"pit-trial","52","588164","0.0-2.0-11.3-0.3","battery-v0.2","","""event"",""trial"",""time""
""blur"",""1"",""364""
""focus"",""1"",""429""
""fullscreenenter"",""1"",""4071""
","""event"",""trial"",""time""
""blur"",""1"",""364""
","""event"",""trial"",""time""
""focus"",""1"",""429""
","""event"",""trial"",""time""
""fullscreenenter"",""1"",""4071""
","
","","","-1","","","24","12161","5495","&#9761;","elianto","#3366ff99","-1","-1","1","+10","[]","0","0","2","","","","","","","",""
"pit-trial","53","593024","0.0-2.0-11.3-1.3","battery-v0.2","","""event"",""trial"",""time""
""blur"",""1"",""364""
""focus"",""1"",""429""
""fullscreenenter"",""1"",""4071""
","""event"",""trial"",""time""
""blur"",""1"",""364""
","""event"",""trial"",""time""
""focus"",""1"",""429""
","""event"",""trial"",""time""
""fullscreenenter"",""1"",""4071""
","
","","","-1","","","24","12161","5495","&#9761;","elianto","#3366ff99","-1","-1","1","+10","[]","0","0","2","","","","","","","",""
"pit-trial","54","596458","0.0-2.0-11.3-2.3","battery-v0.2","","""event"",""trial"",""time""
""blur"",""1"",""364""
""focus"",""1"",""429""
""fullscreenenter"",""1"",""4071""
","""event"",""trial"",""time""
""blur"",""1"",""364""
","""event"",""trial"",""time""
""focus"",""1"",""429""
","""event"",""trial"",""time""
""fullscreenenter"",""1"",""4071""
","
","","","577.1999999284744","","","24","12161","5495","&#9761;","elianto","#3366ff99","-1"," ","0","0","[1428.4000000953674]","1","0","2","","","","","","","",""
"pit-trial","55","600442","0.0-2.0-11.3-3.3","battery-v0.2","","""event"",""trial"",""time""
""blur"",""1"",""364""
""focus"",""1"",""429""
""fullscreenenter"",""1"",""4071""
","""event"",""trial"",""time""
""blur"",""1"",""364""
","""event"",""trial"",""time""
""focus"",""1"",""429""
","""event"",""trial"",""time""
""fullscreenenter"",""1"",""4071""
","
","","","1129.2999999523163","","","24","12161","5495","&#9761;","elianto","#3366ff99","-1"," ","0","+10","[1980.6000000238419]","1","0","2","","","","","","","",""
"pit-trial","56","605304","0.0-2.0-11.3-4.3","battery-v0.2","","""event"",""trial"",""time""
""blur"",""1"",""364""
""focus"",""1"",""429""
""fullscreenenter"",""1"",""4071""
","""event"",""trial"",""time""
""blur"",""1"",""364""
","""event"",""trial"",""time""
""focus"",""1"",""429""
","""event"",""trial"",""time""
""fullscreenenter"",""1"",""4071""
","
","","","-1","","","24","12161","5495","&#9761;","elianto","#3366ff99","-1","-1","1","+10","[]","0","0","2","","","","","","","",""
"call-function","57","605307","0.0-2.0-12.0","battery-v0.2","","""event"",""trial"",""time""
""blur"",""1"",""364""
""focus"",""1"",""429""
""fullscreenenter"",""1"",""4071""
","""event"",""trial"",""time""
""blur"",""1"",""364""
","""event"",""trial"",""time""
""focus"",""1"",""429""
","""event"",""trial"",""time""
""fullscreenenter"",""1"",""4071""
","
","","","","","","","","","","","","","","","","","","","","","","","","","","",""
"pit-instructions","58","656387","0.0-2.0-13.0","battery-v0.2","","""event"",""trial"",""time""
""blur"",""1"",""364""
""focus"",""1"",""429""
""fullscreenenter"",""1"",""4071""
","""event"",""trial"",""time""
""blur"",""1"",""364""
","""event"",""trial"",""time""
""focus"",""1"",""429""
","""event"",""trial"",""time""
""fullscreenenter"",""1"",""4071""
","
","","[{""page_index"":0,""viewing_time"":22475.699999928474},{""page_index"":1,""viewing_time"":7778.600000023842},{""page_index"":2,""viewing_time"":4745.800000071526},{""page_index"":3,""viewing_time"":10432.099999904633},{""page_index"":4,""viewing_time"":5648}]","51081.10000002384","","","","","","","","","","","","","","","","","","","","","","","",""
"pit-trial","59","660929","0.0-2.0-14.0-0.0","battery-v0.2","","""event"",""trial"",""time""
""blur"",""1"",""364""
""focus"",""1"",""429""
""fullscreenenter"",""1"",""4071""
","""event"",""trial"",""time""
""blur"",""1"",""364""
","""event"",""trial"",""time""
""focus"",""1"",""429""
","""event"",""trial"",""time""
""fullscreenenter"",""1"",""4071""
","
","","","1684.8000000715256","","","24","12161","5495","&#9826;","elianto","#f73b6a7A","-1"," ","0","-10","[2535.600000023842]","1","0","3","","","","","","","",""
"pit-trial","60","665787","0.0-2.0-14.0-1.0","battery-v0.2","","""event"",""trial"",""time""
""blur"",""1"",""364""
""focus"",""1"",""429""
""fullscreenenter"",""1"",""4071""
","""event"",""trial"",""time""
""blur"",""1"",""364""
","""event"",""trial"",""time""
""focus"",""1"",""429""
","""event"",""trial"",""time""
""fullscreenenter"",""1"",""4071""
","
","","","-1","","","24","12161","5495","&#9826;","elianto","#f73b6a7A","-1","-1","1","0","[]","0","0","3","","","","","","","",""
"pit-trial","61","670643","0.0-2.0-14.0-2.0","battery-v0.2","","""event"",""trial"",""time""
""blur"",""1"",""364""
""focus"",""1"",""429""
""fullscreenenter"",""1"",""4071""
","""event"",""trial"",""time""
""blur"",""1"",""364""
","""event"",""trial"",""time""
""focus"",""1"",""429""
","""event"",""trial"",""time""
""fullscreenenter"",""1"",""4071""
","
","","","-1","","","24","12161","5495","&#9826;","elianto","#f73b6a7A","-1","-1","1","0","[]","0","0","3","","","","","","","",""
"pit-trial","62","674038","0.0-2.0-14.0-3.0","battery-v0.2","","""event"",""trial"",""time""
""blur"",""1"",""364""
""focus"",""1"",""429""
""fullscreenenter"",""1"",""4071""
","""event"",""trial"",""time""
""blur"",""1"",""364""
","""event"",""trial"",""time""
""focus"",""1"",""429""
","""event"",""trial"",""time""
""fullscreenenter"",""1"",""4071""
","
","","","537.3999999761581","","","24","12161","5495","&#9826;","elianto","#f73b6a7A","-1"," ","0","0","[1388.2999999523163]","1","0","3","","","","","","","",""
"pit-trial","63","678896","0.0-2.0-14.0-4.0","battery-v0.2","","""event"",""trial"",""time""
""blur"",""1"",""364""
""focus"",""1"",""429""
""fullscreenenter"",""1"",""4071""
","""event"",""trial"",""time""
""blur"",""1"",""364""
","""event"",""trial"",""time""
""focus"",""1"",""429""
","""event"",""trial"",""time""
""fullscreenenter"",""1"",""4071""
","
","","","-1","","","24","12161","5495","&#9826;","elianto","#f73b6a7A","-1","-1","1","0","[]","0","0","3","","","","","","","",""
"pit-trial","64","683760","0.0-2.0-14.1-0.1","battery-v0.2","","""event"",""trial"",""time""
""blur"",""1"",""364""
""focus"",""1"",""429""
""fullscreenenter"",""1"",""4071""
","""event"",""trial"",""time""
""blur"",""1"",""364""
","""event"",""trial"",""time""
""focus"",""1"",""429""
","""event"",""trial"",""time""
""fullscreenenter"",""1"",""4071""
","
","","","-1","","","24","12161","5495","&#9826;","elianto","#f73b6a7A","-1","-1","1","0","[]","0","0","3","","","","","","","",""
"pit-trial","65","688621","0.0-2.0-14.1-1.1","battery-v0.2","","""event"",""trial"",""time""
""blur"",""1"",""364""
""focus"",""1"",""429""
""fullscreenenter"",""1"",""4071""
","""event"",""trial"",""time""
""blur"",""1"",""364""
","""event"",""trial"",""time""
""focus"",""1"",""429""
","""event"",""trial"",""time""
""fullscreenenter"",""1"",""4071""
","
","","","-1","","","24","12161","5495","&#9826;","elianto","#f73b6a7A","-1","-1","1","0","[]","0","0","3","","","","","","","",""
"pit-trial","66","693482","0.0-2.0-14.1-2.1","battery-v0.2","","""event"",""trial"",""time""
""blur"",""1"",""364""
""focus"",""1"",""429""
""fullscreenenter"",""1"",""4071""
","""event"",""trial"",""time""
""blur"",""1"",""364""
","""event"",""trial"",""time""
""focus"",""1"",""429""
","""event"",""trial"",""time""
""fullscreenenter"",""1"",""4071""
","
","","","-1","","","24","12161","5495","&#9826;","elianto","#f73b6a7A","-1","-1","1","0","[]","0","0","3","","","","","","","",""
"pit-trial","67","698340","0.0-2.0-14.1-3.1","battery-v0.2","","""event"",""trial"",""time""
""blur"",""1"",""364""
""focus"",""1"",""429""
""fullscreenenter"",""1"",""4071""
","""event"",""trial"",""time""
""blur"",""1"",""364""
","""event"",""trial"",""time""
""focus"",""1"",""429""
","""event"",""trial"",""time""
""fullscreenenter"",""1"",""4071""
","
","","","-1","","","24","12161","5495","&#9826;","elianto","#f73b6a7A","-1","-1","1","-10","[]","0","0","3","","","","","","","",""
"pit-trial","68","703200","0.0-2.0-14.1-4.1","battery-v0.2","","""event"",""trial"",""time""
""blur"",""1"",""364""
""focus"",""1"",""429""
""fullscreenenter"",""1"",""4071""
","""event"",""trial"",""time""
""blur"",""1"",""364""
","""event"",""trial"",""time""
""focus"",""1"",""429""
","""event"",""trial"",""time""
""fullscreenenter"",""1"",""4071""
","
","","","-1","","","24","12161","5495","&#9826;","elianto","#f73b6a7A","-1","-1","1","0","[4146.399999976158]","1","0","3","","","","","","","",""
"pit-trial","69","708059","0.0-2.0-14.2-0.2","battery-v0.2","","""event"",""trial"",""time""
""blur"",""1"",""364""
""focus"",""1"",""429""
""fullscreenenter"",""1"",""4071""
","""event"",""trial"",""time""
""blur"",""1"",""364""
","""event"",""trial"",""time""
""focus"",""1"",""429""
","""event"",""trial"",""time""
""fullscreenenter"",""1"",""4071""
","
","","","-1","","","24","12161","5495","&#9826;","elianto","#f73b6a7A","-1","-1","1","0","[]","0","0","3","","","","","","","",""
"pit-trial","70","711244","0.0-2.0-14.2-1.2","battery-v0.2","","""event"",""trial"",""time""
""blur"",""1"",""364""
""focus"",""1"",""429""
""fullscreenenter"",""1"",""4071""
","""event"",""trial"",""time""
""blur"",""1"",""364""
","""event"",""trial"",""time""
""focus"",""1"",""429""
","""event"",""trial"",""time""
""fullscreenenter"",""1"",""4071""
","
","","","328.5","","","24","12161","5495","&#9826;","elianto","#f73b6a7A","-1"," ","0","-10","[1179.3999999761581]","1","0","3","","","","","","","",""
"pit-trial","71","716108","0.0-2.0-14.2-2.2","battery-v0.2","","""event"",""trial"",""time""
""blur"",""1"",""364""
""focus"",""1"",""429""
""fullscreenenter"",""1"",""4071""
","""event"",""trial"",""time""
""blur"",""1"",""364""
","""event"",""trial"",""time""
""focus"",""1"",""429""
","""event"",""trial"",""time""
""fullscreenenter"",""1"",""4071""
","
","","","-1","","","24","12161","5495","&#9826;","elianto","#f73b6a7A","-1","-1","1","0","[]","0","0","3","","","","","","","",""
"pit-trial","72","720972","0.0-2.0-14.2-3.2","battery-v0.2","","""event"",""trial"",""time""
""blur"",""1"",""364""
""focus"",""1"",""429""
""fullscreenenter"",""1"",""4071""
","""event"",""trial"",""time""
""blur"",""1"",""364""
","""event"",""trial"",""time""
""focus"",""1"",""429""
","""event"",""trial"",""time""
""fullscreenenter"",""1"",""4071""
","
","","","-1","","","24","12161","5495","&#9826;","elianto","#f73b6a7A","-1","-1","1","-10","[]","0","0","3","","","","","","","",""
"pit-trial","73","725832","0.0-2.0-14.2-4.2","battery-v0.2","","""event"",""trial"",""time""
""blur"",""1"",""364""
""focus"",""1"",""429""
""fullscreenenter"",""1"",""4071""
","""event"",""trial"",""time""
""blur"",""1"",""364""
","""event"",""trial"",""time""
""focus"",""1"",""429""
","""event"",""trial"",""time""
""fullscreenenter"",""1"",""4071""
","
","","","-1","","","24","12161","5495","&#9826;","elianto","#f73b6a7A","-1","-1","1","0","[]","0","0","3","","","","","","","",""
"pit-trial","74","730694","0.0-2.0-14.3-0.3","battery-v0.2","","""event"",""trial"",""time""
""blur"",""1"",""364""
""focus"",""1"",""429""
""fullscreenenter"",""1"",""4071""
","""event"",""trial"",""time""
""blur"",""1"",""364""
","""event"",""trial"",""time""
""focus"",""1"",""429""
","""event"",""trial"",""time""
""fullscreenenter"",""1"",""4071""
","
","","","-1","","","24","12161","5495","&#9826;","elianto","#f73b6a7A","-1","-1","1","0","[]","0","0","3","","","","","","","",""
"pit-trial","75","735547","0.0-2.0-14.3-1.3","battery-v0.2","","""event"",""trial"",""time""
""blur"",""1"",""364""
""focus"",""1"",""429""
""fullscreenenter"",""1"",""4071""
","""event"",""trial"",""time""
""blur"",""1"",""364""
","""event"",""trial"",""time""
""focus"",""1"",""429""
","""event"",""trial"",""time""
""fullscreenenter"",""1"",""4071""
","
","","","-1","","","24","12161","5495","&#9826;","elianto","#f73b6a7A","-1","-1","1","0","[]","0","0","3","","","","","","","",""
"pit-trial","76","740411","0.0-2.0-14.3-2.3","battery-v0.2","","""event"",""trial"",""time""
""blur"",""1"",""364""
""focus"",""1"",""429""
""fullscreenenter"",""1"",""4071""
","""event"",""trial"",""time""
""blur"",""1"",""364""
","""event"",""trial"",""time""
""focus"",""1"",""429""
","""event"",""trial"",""time""
""fullscreenenter"",""1"",""4071""
","
","","","-1","","","24","12161","5495","&#9826;","elianto","#f73b6a7A","-1","-1","1","0","[]","0","0","3","","","","","","","",""
"pit-trial","77","745275","0.0-2.0-14.3-3.3","battery-v0.2","","""event"",""trial"",""time""
""blur"",""1"",""364""
""focus"",""1"",""429""
""fullscreenenter"",""1"",""4071""
","""event"",""trial"",""time""
""blur"",""1"",""364""
","""event"",""trial"",""time""
""focus"",""1"",""429""
","""event"",""trial"",""time""
""fullscreenenter"",""1"",""4071""
","
","","","-1","","","24","12161","5495","&#9826;","elianto","#f73b6a7A","-1","-1","1","-10","[]","0","0","3","","","","","","","",""
"pit-trial","78","750135","0.0-2.0-14.3-4.3","battery-v0.2","","""event"",""trial"",""time""
""blur"",""1"",""364""
""focus"",""1"",""429""
""fullscreenenter"",""1"",""4071""
","""event"",""trial"",""time""
""blur"",""1"",""364""
","""event"",""trial"",""time""
""focus"",""1"",""429""
","""event"",""trial"",""time""
""fullscreenenter"",""1"",""4071""
","
","","","-1","","","24","12161","5495","&#9826;","elianto","#f73b6a7A","-1","-1","1","0","[]","0","0","3","","","","","","","",""
"call-function","79","750138","0.0-2.0-15.0","battery-v0.2","","""event"",""trial"",""time""
""blur"",""1"",""364""
""focus"",""1"",""429""
""fullscreenenter"",""1"",""4071""
","""event"",""trial"",""time""
""blur"",""1"",""364""
","""event"",""trial"",""time""
""focus"",""1"",""429""
","""event"",""trial"",""time""
""fullscreenenter"",""1"",""4071""
","
","","","","","","","","","","","","","","","","","","","","","","","","","","",""
"pit-instructions","80","788385","0.0-2.0-16.0","battery-v0.2","","""event"",""trial"",""time""
""blur"",""1"",""364""
""focus"",""1"",""429""
""fullscreenenter"",""1"",""4071""
","""event"",""trial"",""time""
""blur"",""1"",""364""
","""event"",""trial"",""time""
""focus"",""1"",""429""
","""event"",""trial"",""time""
""fullscreenenter"",""1"",""4071""
","
","","[{""page_index"":0,""viewing_time"":15117.699999928474},{""page_index"":1,""viewing_time"":11210.300000071526},{""page_index"":2,""viewing_time"":5295.799999952316},{""page_index"":3,""viewing_time"":6622.600000023842}]","38247.39999997616","","","","","","","","","","","","","","","","","","","","","","","",""
"pit-trial","81","792342","0.0-2.0-17.0-0.0","battery-v0.2","","""event"",""trial"",""time""
""blur"",""1"",""364""
""focus"",""1"",""429""
""fullscreenenter"",""1"",""4071""
","""event"",""trial"",""time""
""blur"",""1"",""364""
","""event"",""trial"",""time""
""focus"",""1"",""429""
","""event"",""trial"",""time""
""fullscreenenter"",""1"",""4071""
","
","","","1096.8999999761581","","","24","12161","5495","&#9789;","elianto","#f73b6a7A"," "," ","1","0","[1947.7000000476837]","1","0","4","","","","","","","",""
"pit-trial","82","795516","0.0-2.0-17.0-1.0","battery-v0.2","","""event"",""trial"",""time""
""blur"",""1"",""364""
""focus"",""1"",""429""
""fullscreenenter"",""1"",""4071""
","""event"",""trial"",""time""
""blur"",""1"",""364""
","""event"",""trial"",""time""
""focus"",""1"",""429""
","""event"",""trial"",""time""
""fullscreenenter"",""1"",""4071""
","
","","","315.59999990463257","","","24","12161","5495","&#9789;","elianto","#f73b6a7A"," "," ","1","0","[1166.5999999046326]","1","0","4","","","","","","","",""
"pit-trial","83","798542","0.0-2.0-17.0-2.0","battery-v0.2","","""event"",""trial"",""time""
""blur"",""1"",""364""
""focus"",""1"",""429""
""fullscreenenter"",""1"",""4071""
","""event"",""trial"",""time""
""blur"",""1"",""364""
","""event"",""trial"",""time""
""focus"",""1"",""429""
","""event"",""trial"",""time""
""fullscreenenter"",""1"",""4071""
","
","","","171.70000004768372","","","24","12161","5495","&#9789;","elianto","#f73b6a7A"," "," ","1","0","[1022.2000000476837]","1","0","4","","","","","","","",""
"pit-trial","84","803403","0.0-2.0-17.0-3.0","battery-v0.2","","""event"",""trial"",""time""
""blur"",""1"",""364""
""focus"",""1"",""429""
""fullscreenenter"",""1"",""4071""
","""event"",""trial"",""time""
""blur"",""1"",""364""
","""event"",""trial"",""time""
""focus"",""1"",""429""
","""event"",""trial"",""time""
""fullscreenenter"",""1"",""4071""
","
","","","-1","","","24","12161","5495","&#9789;","elianto","#f73b6a7A"," ","-1","0","0","[]","0","0","4","","","","","","","",""
"pit-trial","85","806891","0.0-2.0-17.0-4.0","battery-v0.2","","""event"",""trial"",""time""
""blur"",""1"",""364""
""focus"",""1"",""429""
""fullscreenenter"",""1"",""4071""
","""event"",""trial"",""time""
""blur"",""1"",""364""
","""event"",""trial"",""time""
""focus"",""1"",""429""
","""event"",""trial"",""time""
""fullscreenenter"",""1"",""4071""
","
","","","627.7000000476837","","","24","12161","5495","&#9789;","elianto","#f73b6a7A"," "," ","1","0","[1479.1000000238419]","1","0","4","","","","","","","",""
"pit-trial","86","811755","0.0-2.0-17.1-0.1","battery-v0.2","","""event"",""trial"",""time""
""blur"",""1"",""364""
""focus"",""1"",""429""
""fullscreenenter"",""1"",""4071""
","""event"",""trial"",""time""
""blur"",""1"",""364""
","""event"",""trial"",""time""
""focus"",""1"",""429""
","""event"",""trial"",""time""
""fullscreenenter"",""1"",""4071""
","
","","","-1","","","24","12161","5495","&#9789;","elianto","#f73b6a7A"," ","-1","0","-10","[]","0","0","4","","","","","","","",""
"pit-trial","87","814925","0.0-2.0-17.1-1.1","battery-v0.2","","""event"",""trial"",""time""
""blur"",""1"",""364""
""focus"",""1"",""429""
""fullscreenenter"",""1"",""4071""
","""event"",""trial"",""time""
""blur"",""1"",""364""
","""event"",""trial"",""time""
""focus"",""1"",""429""
","""event"",""trial"",""time""
""fullscreenenter"",""1"",""4071""
","
","","","305.89999997615814","","","24","12161","5495","&#9789;","elianto","#f73b6a7A"," "," ","1","0","[1157.3000000715256]","1","0","4","","","","","","","",""
"pit-trial","88","818029","0.0-2.0-17.1-2.1","battery-v0.2","","""event"",""trial"",""time""
""blur"",""1"",""364""
""focus"",""1"",""429""
""fullscreenenter"",""1"",""4071""
","""event"",""trial"",""time""
""blur"",""1"",""364""
","""event"",""trial"",""time""
""focus"",""1"",""429""
","""event"",""trial"",""time""
""fullscreenenter"",""1"",""4071""
","
","","","245.40000009536743","","","24","12161","5495","&#9789;","elianto","#f73b6a7A"," "," ","1","0","[1097.6000000238419]","1","0","4","","","","","","","",""
"pit-trial","89","821026","0.0-2.0-17.1-3.1","battery-v0.2","","""event"",""trial"",""time""
""blur"",""1"",""364""
""focus"",""1"",""429""
""fullscreenenter"",""1"",""4071""
","""event"",""trial"",""time""
""blur"",""1"",""364""
","""event"",""trial"",""time""
""focus"",""1"",""429""
","""event"",""trial"",""time""
""fullscreenenter"",""1"",""4071""
","
","","","136.89999997615814","","","24","12161","5495","&#9789;","elianto","#f73b6a7A"," "," ","1","-10","[990.5]","1","0","4","","","","","","","",""
"pit-trial","90","824100","0.0-2.0-17.1-4.1","battery-v0.2","","""event"",""trial"",""time""
""blur"",""1"",""364""
""focus"",""1"",""429""
""fullscreenenter"",""1"",""4071""
","""event"",""trial"",""time""
""blur"",""1"",""364""
","""event"",""trial"",""time""
""focus"",""1"",""429""
","""event"",""trial"",""time""
""fullscreenenter"",""1"",""4071""
","
","","","216.10000002384186","","","24","12161","5495","&#9789;","elianto","#f73b6a7A"," "," ","1","0","[1068.1000000238419]","1","0","4","","","","","","","",""
"pit-trial","91","827377","0.0-2.0-17.2-0.2","battery-v0.2","","""event"",""trial"",""time""
""blur"",""1"",""364""
""focus"",""1"",""429""
""fullscreenenter"",""1"",""4071""
","""event"",""trial"",""time""
""blur"",""1"",""364""
","""event"",""trial"",""time""
""focus"",""1"",""429""
","""event"",""trial"",""time""
""fullscreenenter"",""1"",""4071""
","
","","","420.8000000715256","","","24","12161","5495","&#9789;","elianto","#f73b6a7A"," "," ","1","0","[1272.2999999523163]","1","0","4","","","","","","","",""
"pit-trial","92","831245","0.0-2.0-17.2-1.2","battery-v0.2","","""event"",""trial"",""time""
""blur"",""1"",""364""
""focus"",""1"",""429""
""fullscreenenter"",""1"",""4071""
","""event"",""trial"",""time""
""blur"",""1"",""364""
","""event"",""trial"",""time""
""focus"",""1"",""429""
","""event"",""trial"",""time""
""fullscreenenter"",""1"",""4071""
","
","","","1006.8000000715256","","","24","12161","5495","&#9789;","elianto","#f73b6a7A"," "," ","1","0","[1858.1000000238419]","1","0","4","","","","","","","",""
"pit-trial","93","834386","0.0-2.0-17.2-2.2","battery-v0.2","","""event"",""trial"",""time""
""blur"",""1"",""364""
""focus"",""1"",""429""
""fullscreenenter"",""1"",""4071""
","""event"",""trial"",""time""
""blur"",""1"",""364""
","""event"",""trial"",""time""
""focus"",""1"",""429""
","""event"",""trial"",""time""
""fullscreenenter"",""1"",""4071""
","
","","","281.39999997615814","","","24","12161","5495","&#9789;","elianto","#f73b6a7A"," "," ","1","0","[1133.1000000238419]","1","0","4","","","","","","","",""
"pit-trial","94","837441","0.0-2.0-17.2-3.2","battery-v0.2","","""event"",""trial"",""time""
""blur"",""1"",""364""
""focus"",""1"",""429""
""fullscreenenter"",""1"",""4071""
","""event"",""trial"",""time""
""blur"",""1"",""364""
","""event"",""trial"",""time""
""focus"",""1"",""429""
","""event"",""trial"",""time""
""fullscreenenter"",""1"",""4071""
","
","","","198.10000002384186","","","24","12161","5495","&#9789;","elianto","#f73b6a7A"," "," ","1","-10","[1050.2000000476837]","1","0","4","","","","","","","",""
"pit-trial","95","840521","0.0-2.0-17.2-4.2","battery-v0.2","","""event"",""trial"",""time""
""blur"",""1"",""364""
""focus"",""1"",""429""
""fullscreenenter"",""1"",""4071""
","""event"",""trial"",""time""
""blur"",""1"",""364""
","""event"",""trial"",""time""
""focus"",""1"",""429""
","""event"",""trial"",""time""
""fullscreenenter"",""1"",""4071""
","
","","","219.20000004768372","","","24","12161","5495","&#9789;","elianto","#f73b6a7A"," "," ","1","0","[1070.3999999761581]","1","0","4","","","","","","","",""
"pit-trial","96","843452","0.0-2.0-17.3-0.3","battery-v0.2","","""event"",""trial"",""time""
""blur"",""1"",""364""
""focus"",""1"",""429""
""fullscreenenter"",""1"",""4071""
","""event"",""trial"",""time""
""blur"",""1"",""364""
","""event"",""trial"",""time""
""focus"",""1"",""429""
","""event"",""trial"",""time""
""fullscreenenter"",""1"",""4071""
","
","","","73.69999992847443","","","24","12161","5495","&#9789;","elianto","#f73b6a7A"," "," ","1","0","[923.8999999761581]","1","0","4","","","","","","","",""
"pit-trial","97","846481","0.0-2.0-17.3-1.3","battery-v0.2","","""event"",""trial"",""time""
""blur"",""1"",""364""
""focus"",""1"",""429""
""fullscreenenter"",""1"",""4071""
","""event"",""trial"",""time""
""blur"",""1"",""364""
","""event"",""trial"",""time""
""focus"",""1"",""429""
","""event"",""trial"",""time""
""fullscreenenter"",""1"",""4071""
","
","","","171.5","","","24","12161","5495","&#9789;","elianto","#f73b6a7A"," "," ","1","0","[1022.5999999046326]","1","0","4","","","","","","","",""
"pit-trial","98","849537","0.0-2.0-17.3-2.3","battery-v0.2","","""event"",""trial"",""time""
""blur"",""1"",""364""
""focus"",""1"",""429""
""fullscreenenter"",""1"",""4071""
","""event"",""trial"",""time""
""blur"",""1"",""364""
","""event"",""trial"",""time""
""focus"",""1"",""429""
","""event"",""trial"",""time""
""fullscreenenter"",""1"",""4071""
","
","","","201.5","","","24","12161","5495","&#9789;","elianto","#f73b6a7A"," "," ","1","0","[1052.8999999761581]","1","0","4","","","","","","","",""
"pit-trial","99","852584","0.0-2.0-17.3-3.3","battery-v0.2","","""event"",""trial"",""time""
""blur"",""1"",""364""
""focus"",""1"",""429""
""fullscreenenter"",""1"",""4071""
","""event"",""trial"",""time""
""blur"",""1"",""364""
","""event"",""trial"",""time""
""focus"",""1"",""429""
","""event"",""trial"",""time""
""fullscreenenter"",""1"",""4071""
","
","","","191.5","","","24","12161","5495","&#9789;","elianto","#f73b6a7A"," "," ","1","-10","[1043.3999999761581]","1","0","4","","","","","","","",""
"pit-trial","100","855595","0.0-2.0-17.3-4.3","battery-v0.2","","""event"",""trial"",""time""
""blur"",""1"",""364""
""focus"",""1"",""429""
""fullscreenenter"",""1"",""4071""
","""event"",""trial"",""time""
""blur"",""1"",""364""
","""event"",""trial"",""time""
""focus"",""1"",""429""
","""event"",""trial"",""time""
""fullscreenenter"",""1"",""4071""
","
","","","152.89999997615814","","","24","12161","5495","&#9789;","elianto","#f73b6a7A"," "," ","1","0","[1005.1999999284744]","1","0","4","","","","","","","",""
"call-function","101","855598","0.0-2.0-18.0","battery-v0.2","","""event"",""trial"",""time""
""blur"",""1"",""364""
""focus"",""1"",""429""
""fullscreenenter"",""1"",""4071""
","""event"",""trial"",""time""
""blur"",""1"",""364""
","""event"",""trial"",""time""
""focus"",""1"",""429""
","""event"",""trial"",""time""
""fullscreenenter"",""1"",""4071""
","
","","","","","","","","","","","","","","","","","","","","","","","","","","",""
"pit-instructions","102","923923","0.0-2.0-19.0","battery-v0.2","","""event"",""trial"",""time""
""blur"",""1"",""364""
""focus"",""1"",""429""
""fullscreenenter"",""1"",""4071""
","""event"",""trial"",""time""
""blur"",""1"",""364""
","""event"",""trial"",""time""
""focus"",""1"",""429""
","""event"",""trial"",""time""
""fullscreenenter"",""1"",""4071""
","
","","[{""page_index"":0,""viewing_time"":8330.800000071526},{""page_index"":1,""viewing_time"":7040.799999952316},{""page_index"":2,""viewing_time"":11108.5},{""page_index"":3,""viewing_time"":6025.399999976158},{""page_index"":4,""viewing_time"":9016.100000023842},{""page_index"":5,""viewing_time"":11745},{""page_index"":6,""viewing_time"":4040},{""page_index"":7,""viewing_time"":4180.299999952316},{""page_index"":8,""viewing_time"":6838.900000095367}]","68326.20000004768","","","","","","","","","","","","","","","","","","","","","","","",""
"pit-comprehension","103","929036","0.0-2.0-20.0-0.0","battery-v0.2","","""event"",""trial"",""time""
""blur"",""1"",""364""
""focus"",""1"",""429""
""fullscreenenter"",""1"",""4071""
","""event"",""trial"",""time""
""blur"",""1"",""364""
","""event"",""trial"",""time""
""focus"",""1"",""429""
","""event"",""trial"",""time""
""fullscreenenter"",""1"",""4071""
","
","","","5104.899999976158","[""SPACE""]","0","24","12161","5495","","","","","","","","","","","","","","","","","","",""
"pit-instructions","104","934245","0.0-2.0-20.0-1.0","battery-v0.2","","""event"",""trial"",""time""
""blur"",""1"",""364""
""focus"",""1"",""429""
""fullscreenenter"",""1"",""4071""
","""event"",""trial"",""time""
""blur"",""1"",""364""
","""event"",""trial"",""time""
""focus"",""1"",""429""
","""event"",""trial"",""time""
""fullscreenenter"",""1"",""4071""
","
","","[{""page_index"":0,""viewing_time"":5156.799999952316}]","5157.600000023842","","","","","","","","","","","","","","","","","","","","","","","",""
"pit-comprehension","105","945184","0.0-2.0-21.0-0.0","battery-v0.2","","""event"",""trial"",""time""
""blur"",""1"",""364""
""focus"",""1"",""429""
""fullscreenenter"",""1"",""4071""
","""event"",""trial"",""time""
""blur"",""1"",""364""
","""event"",""trial"",""time""
""focus"",""1"",""429""
","""event"",""trial"",""time""
""fullscreenenter"",""1"",""4071""
","
","","","10932.399999976158","[""10""]","0","24","12161","5495","","","","","","","","","","","","","","","","","","",""
"pit-instructions","106","959630","0.0-2.0-21.0-1.0","battery-v0.2","","""event"",""trial"",""time""
""blur"",""1"",""364""
""focus"",""1"",""429""
""fullscreenenter"",""1"",""4071""
","""event"",""trial"",""time""
""blur"",""1"",""364""
","""event"",""trial"",""time""
""focus"",""1"",""429""
","""event"",""trial"",""time""
""fullscreenenter"",""1"",""4071""
","
","","[{""page_index"":0,""viewing_time"":14393.199999928474}]","14393.799999952316","","","","","","","","","","","","","","","","","","","","","","","",""
"pit-comprehension","107","968397","0.0-2.0-22.0-0.0","battery-v0.2","","""event"",""trial"",""time""
""blur"",""1"",""364""
""focus"",""1"",""429""
""fullscreenenter"",""1"",""4071""
","""event"",""trial"",""time""
""blur"",""1"",""364""
","""event"",""trial"",""time""
""focus"",""1"",""429""
","""event"",""trial"",""time""
""fullscreenenter"",""1"",""4071""
","
","","","8759.5","[""0""]","0","24","12161","5495","","","","","","","","","","","","","","","","","","",""
"pit-instructions","108","974534","0.0-2.0-22.0-1.0","battery-v0.2","","""event"",""trial"",""time""
""blur"",""1"",""364""
""focus"",""1"",""429""
""fullscreenenter"",""1"",""4071""
","""event"",""trial"",""time""
""blur"",""1"",""364""
","""event"",""trial"",""time""
""focus"",""1"",""429""
","""event"",""trial"",""time""
""fullscreenenter"",""1"",""4071""
","
","","[{""page_index"":0,""viewing_time"":6086.800000071526}]","6087.600000023842","","","","","","","","","","","","","","","","","","","","","","","",""
"pit-comprehension","109","1015308","0.0-2.0-23.0-0.0","battery-v0.2","","""event"",""trial"",""time""
""blur"",""1"",""364""
""focus"",""1"",""429""
""fullscreenenter"",""1"",""4071""
""fullscreenexit"",""110"",""1018841""
""blur"",""110"",""1021764""
""focus"",""110"",""1031890""
","""event"",""trial"",""time""
""blur"",""1"",""364""
""blur"",""110"",""1021764""
","""event"",""trial"",""time""
""focus"",""1"",""429""
""focus"",""110"",""1031890""
","""event"",""trial"",""time""
""fullscreenenter"",""1"",""4071""
","""event"",""trial"",""time""
""fullscreenexit"",""110"",""1018841""
","","","40768.5","[""True""]","0","24","12161","5495","","","","","","","","","","","","","","","","","","",""
"pit-instructions","110","1143163","0.0-2.0-23.0-1.0","battery-v0.2","","""event"",""trial"",""time""
""blur"",""1"",""364""
""focus"",""1"",""429""
""fullscreenenter"",""1"",""4071""
""fullscreenexit"",""110"",""1018841""
""blur"",""110"",""1021764""
""focus"",""110"",""1031890""
","""event"",""trial"",""time""
""blur"",""1"",""364""
""blur"",""110"",""1021764""
","""event"",""trial"",""time""
""focus"",""1"",""429""
""focus"",""110"",""1031890""
","""event"",""trial"",""time""
""fullscreenenter"",""1"",""4071""
","""event"",""trial"",""time""
""fullscreenexit"",""110"",""1018841""
","","[{""page_index"":0,""viewing_time"":127814}]","127814.59999990463","","","","","","","","","","","","","","","","","","","","","","","",""
"pit-comprehension","111","1151378","0.0-2.0-24.0-0.0","battery-v0.2","","""event"",""trial"",""time""
""blur"",""1"",""364""
""focus"",""1"",""429""
""fullscreenenter"",""1"",""4071""
""fullscreenexit"",""110"",""1018841""
""blur"",""110"",""1021764""
""focus"",""110"",""1031890""
","""event"",""trial"",""time""
""blur"",""1"",""364""
""blur"",""110"",""1021764""
","""event"",""trial"",""time""
""focus"",""1"",""429""
""focus"",""110"",""1031890""
","""event"",""trial"",""time""
""fullscreenenter"",""1"",""4071""
","""event"",""trial"",""time""
""fullscreenexit"",""110"",""1018841""
","","","8207.5","[""True""]","0","24","12161","5495","","","","","","","","","","","","","","","","","","",""
"pit-instructions","112","1158379","0.0-2.0-24.0-1.0","battery-v0.2","","""event"",""trial"",""time""
""blur"",""1"",""364""
""focus"",""1"",""429""
""fullscreenenter"",""1"",""4071""
""fullscreenexit"",""110"",""1018841""
""blur"",""110"",""1021764""
""focus"",""110"",""1031890""
","""event"",""trial"",""time""
""blur"",""1"",""364""
""blur"",""110"",""1021764""
","""event"",""trial"",""time""
""focus"",""1"",""429""
""focus"",""110"",""1031890""
","""event"",""trial"",""time""
""fullscreenenter"",""1"",""4071""
","""event"",""trial"",""time""
""fullscreenexit"",""110"",""1018841""
","","[{""page_index"":0,""viewing_time"":6938.5}]","6939","","","","","","","","","","","","","","","","","","","","","","","",""
"pit-comprehension","113","1165963","0.0-2.0-25.0-0.0","battery-v0.2","","""event"",""trial"",""time""
""blur"",""1"",""364""
""focus"",""1"",""429""
""fullscreenenter"",""1"",""4071""
""fullscreenexit"",""110"",""1018841""
""blur"",""110"",""1021764""
""focus"",""110"",""1031890""
","""event"",""trial"",""time""
""blur"",""1"",""364""
""blur"",""110"",""1021764""
","""event"",""trial"",""time""
""focus"",""1"",""429""
""focus"",""110"",""1031890""
","""event"",""trial"",""time""
""fullscreenenter"",""1"",""4071""
","""event"",""trial"",""time""
""fullscreenexit"",""110"",""1018841""
","","","7573.200000047684","[""True""]","0","24","12161","5495","","","","","","","","","","","","","","","","","","",""
"pit-instructions","114","1181007","0.0-2.0-25.0-1.0","battery-v0.2","","""event"",""trial"",""time""
""blur"",""1"",""364""
""focus"",""1"",""429""
""fullscreenenter"",""1"",""4071""
""fullscreenexit"",""110"",""1018841""
""blur"",""110"",""1021764""
""focus"",""110"",""1031890""
","""event"",""trial"",""time""
""blur"",""1"",""364""
""blur"",""110"",""1021764""
","""event"",""trial"",""time""
""focus"",""1"",""429""
""focus"",""110"",""1031890""
","""event"",""trial"",""time""
""fullscreenenter"",""1"",""4071""
","""event"",""trial"",""time""
""fullscreenexit"",""110"",""1018841""
","","[{""page_index"":0,""viewing_time"":14993.299999952316}]","14993.799999952316","","","","","","","","","","","","","","","","","","","","","","","",""
"pit-comprehension","115","1193646","0.0-2.0-26.0-0.0","battery-v0.2","","""event"",""trial"",""time""
""blur"",""1"",""364""
""focus"",""1"",""429""
""fullscreenenter"",""1"",""4071""
""fullscreenexit"",""110"",""1018841""
""blur"",""110"",""1021764""
""focus"",""110"",""1031890""
","""event"",""trial"",""time""
""blur"",""1"",""364""
""blur"",""110"",""1021764""
","""event"",""trial"",""time""
""focus"",""1"",""429""
""focus"",""110"",""1031890""
","""event"",""trial"",""time""
""fullscreenenter"",""1"",""4071""
","""event"",""trial"",""time""
""fullscreenexit"",""110"",""1018841""
","","","12632.700000047684","[""False""]","0","24","12161","5495","","","","","","","","","","","","","","","","","","",""
"pit-instructions","116","1207588","0.0-2.0-26.0-1.0","battery-v0.2","","""event"",""trial"",""time""
""blur"",""1"",""364""
""focus"",""1"",""429""
""fullscreenenter"",""1"",""4071""
""fullscreenexit"",""110"",""1018841""
""blur"",""110"",""1021764""
""focus"",""110"",""1031890""
","""event"",""trial"",""time""
""blur"",""1"",""364""
""blur"",""110"",""1021764""
","""event"",""trial"",""time""
""focus"",""1"",""429""
""focus"",""110"",""1031890""
","""event"",""trial"",""time""
""fullscreenenter"",""1"",""4071""
","""event"",""trial"",""time""
""fullscreenexit"",""110"",""1018841""
","","[{""page_index"":0,""viewing_time"":13886.299999952316}]","13886.799999952316","","","","","","","","","","","","","","","","","","","","","","","",""
"pit-instructions","117","1243958","0.0-3.0","battery-v0.2","","""event"",""trial"",""time""
""blur"",""1"",""364""
""focus"",""1"",""429""
""fullscreenenter"",""1"",""4071""
""fullscreenexit"",""110"",""1018841""
""blur"",""110"",""1021764""
""focus"",""110"",""1031890""
","""event"",""trial"",""time""
""blur"",""1"",""364""
""blur"",""110"",""1021764""
","""event"",""trial"",""time""
""focus"",""1"",""429""
""focus"",""110"",""1031890""
","""event"",""trial"",""time""
""fullscreenenter"",""1"",""4071""
","""event"",""trial"",""time""
""fullscreenexit"",""110"",""1018841""
","","[{""page_index"":0,""viewing_time"":12602.399999976158},{""page_index"":1,""viewing_time"":12810.799999952316},{""page_index"":2,""viewing_time"":10952.200000047684}]","36366","","","","","","","","","","","","","","","","","","","","","","","",""
"pit-trial","118","1247536","0.0-4.0","battery-v0.2","","""event"",""trial"",""time""
""blur"",""1"",""364""
""focus"",""1"",""429""
""fullscreenenter"",""1"",""4071""
""fullscreenexit"",""110"",""1018841""
""blur"",""110"",""1021764""
""focus"",""110"",""1031890""
","""event"",""trial"",""time""
""blur"",""1"",""364""
""blur"",""110"",""1021764""
","""event"",""trial"",""time""
""focus"",""1"",""429""
""focus"",""110"",""1031890""
","""event"",""trial"",""time""
""fullscreenenter"",""1"",""4071""
","""event"",""trial"",""time""
""fullscreenexit"",""110"",""1018841""
","","","714.3000000715256","","","24","12161","5495","&#9752;","elianto","#f73b6a7A"," "," ","1","0","[1565.1000000238419]","1","1","","","12161","1","3","3","lose","go","0"
"pit-trial","119","1251488","0.0-5.0","battery-v0.2","","""event"",""trial"",""time""
""blur"",""1"",""364""
""focus"",""1"",""429""
""fullscreenenter"",""1"",""4071""
""fullscreenexit"",""110"",""1018841""
""blur"",""110"",""1021764""
""focus"",""110"",""1031890""
","""event"",""trial"",""time""
""blur"",""1"",""364""
""blur"",""110"",""1021764""
","""event"",""trial"",""time""
""focus"",""1"",""429""
""focus"",""110"",""1031890""
","""event"",""trial"",""time""
""fullscreenenter"",""1"",""4071""
","""event"",""trial"",""time""
""fullscreenexit"",""110"",""1018841""
","","","1092.1000000238419","","","24","12161","5495","&#9730;","elianto","#3366ff99"," "," ","1","+10","[1946.6000000238419]","1","1","","","12161","2","1","1","win","go","0"
"pit-trial","120","1255264","0.0-6.0","battery-v0.2","","""event"",""trial"",""time""
""blur"",""1"",""364""
""focus"",""1"",""429""
""fullscreenenter"",""1"",""4071""
""fullscreenexit"",""110"",""1018841""
""blur"",""110"",""1021764""
""focus"",""110"",""1031890""
","""event"",""trial"",""time""
""blur"",""1"",""364""
""blur"",""110"",""1021764""
","""event"",""trial"",""time""
""focus"",""1"",""429""
""focus"",""110"",""1031890""
","""event"",""trial"",""time""
""fullscreenenter"",""1"",""4071""
","""event"",""trial"",""time""
""fullscreenexit"",""110"",""1018841""
","","","919.5","","","24","12161","5495","&#9733;","elianto","#3366ff99","-1"," ","0","0","[1770.7999999523163]","1","1","","","12161","3","2","2","win","no-go","0"
"pit-trial","121","1259515","0.0-7.0","battery-v0.2","","""event"",""trial"",""time""
""blur"",""1"",""364""
""focus"",""1"",""429""
""fullscreenenter"",""1"",""4071""
""fullscreenexit"",""110"",""1018841""
""blur"",""110"",""1021764""
""focus"",""110"",""1031890""
","""event"",""trial"",""time""
""blur"",""1"",""364""
""blur"",""110"",""1021764""
","""event"",""trial"",""time""
""focus"",""1"",""429""
""focus"",""110"",""1031890""
","""event"",""trial"",""time""
""fullscreenenter"",""1"",""4071""
","""event"",""trial"",""time""
""fullscreenexit"",""110"",""1018841""
","","","1390.6999999284744","","","24","12161","5495","&#9728;","elianto","#f73b6a7A","-1"," ","0","0","[2243.3000000715256]","1","1","","","12161","4","0","4","lose","no-go","1"
"pit-trial","122","1263333","0.0-8.0","battery-v0.2","","""event"",""trial"",""time""
""blur"",""1"",""364""
""focus"",""1"",""429""
""fullscreenenter"",""1"",""4071""
""fullscreenexit"",""110"",""1018841""
""blur"",""110"",""1021764""
""focus"",""110"",""1031890""
","""event"",""trial"",""time""
""blur"",""1"",""364""
""blur"",""110"",""1021764""
","""event"",""trial"",""time""
""focus"",""1"",""429""
""focus"",""110"",""1031890""
","""event"",""trial"",""time""
""fullscreenenter"",""1"",""4071""
","""event"",""trial"",""time""
""fullscreenexit"",""110"",""1018841""
","","","963.3999999761581","","","24","12161","5495","&#9752;","elianto","#f73b6a7A"," "," ","1","0","[1814.3999999761581]","1","1","","","12161","5","3","3","lose","go","0"
"pit-trial","123","1267040","0.0-9.0","battery-v0.2","","""event"",""trial"",""time""
""blur"",""1"",""364""
""focus"",""1"",""429""
""fullscreenenter"",""1"",""4071""
""fullscreenexit"",""110"",""1018841""
""blur"",""110"",""1021764""
""focus"",""110"",""1031890""
","""event"",""trial"",""time""
""blur"",""1"",""364""
""blur"",""110"",""1021764""
","""event"",""trial"",""time""
""focus"",""1"",""429""
""focus"",""110"",""1031890""
","""event"",""trial"",""time""
""fullscreenenter"",""1"",""4071""
","""event"",""trial"",""time""
""fullscreenexit"",""110"",""1018841""
","","","849.8999999761581","","","24","12161","5495","&#9733;","elianto","#3366ff99","-1"," ","0","+10","[1700.7999999523163]","1","1","","","12161","6","2","2","win","no-go","1"
"pit-trial","124","1270776","0.0-10.0","battery-v0.2","","""event"",""trial"",""time""
""blur"",""1"",""364""
""focus"",""1"",""429""
""fullscreenenter"",""1"",""4071""
""fullscreenexit"",""110"",""1018841""
""blur"",""110"",""1021764""
""focus"",""110"",""1031890""
","""event"",""trial"",""time""
""blur"",""1"",""364""
""blur"",""110"",""1021764""
","""event"",""trial"",""time""
""focus"",""1"",""429""
""focus"",""110"",""1031890""
","""event"",""trial"",""time""
""fullscreenenter"",""1"",""4071""
","""event"",""trial"",""time""
""fullscreenexit"",""110"",""1018841""
","","","879.7000000476837","","","24","12161","5495","&#9730;","elianto","#3366ff99"," "," ","1","+10","[1730.9000000953674]","1","1","","","12161","7","1","1","win","go","0"
"pit-trial","125","1275633","0.0-11.0","battery-v0.2","","""event"",""trial"",""time""
""blur"",""1"",""364""
""focus"",""1"",""429""
""fullscreenenter"",""1"",""4071""
""fullscreenexit"",""110"",""1018841""
""blur"",""110"",""1021764""
""focus"",""110"",""1031890""
","""event"",""trial"",""time""
""blur"",""1"",""364""
""blur"",""110"",""1021764""
","""event"",""trial"",""time""
""focus"",""1"",""429""
""focus"",""110"",""1031890""
","""event"",""trial"",""time""
""fullscreenenter"",""1"",""4071""
","""event"",""trial"",""time""
""fullscreenexit"",""110"",""1018841""
","","","-1","","","24","12161","5495","&#9728;","elianto","#f73b6a7A","-1","-1","1","0","[]","0","1","","","12161","8","0","4","lose","no-go","0"
"pit-trial","126","1279639","0.0-12.0","battery-v0.2","","""event"",""trial"",""time""
""blur"",""1"",""364""
""focus"",""1"",""429""
""fullscreenenter"",""1"",""4071""
""fullscreenexit"",""110"",""1018841""
""blur"",""110"",""1021764""
""focus"",""110"",""1031890""
","""event"",""trial"",""time""
""blur"",""1"",""364""
""blur"",""110"",""1021764""
","""event"",""trial"",""time""
""focus"",""1"",""429""
""focus"",""110"",""1031890""
","""event"",""trial"",""time""
""fullscreenenter"",""1"",""4071""
","""event"",""trial"",""time""
""fullscreenexit"",""110"",""1018841""
","","","1150.8999999761581","","","24","12161","5495","&#9730;","elianto","#3366ff99"," "," ","1","+10","[2002.2000000476837]","1","1","","","12161","9","1","1","win","go","0"
"pit-trial","127","1284483","0.0-13.0","battery-v0.2","","""event"",""trial"",""time""
""blur"",""1"",""364""
""focus"",""1"",""429""
""fullscreenenter"",""1"",""4071""
""fullscreenexit"",""110"",""1018841""
""blur"",""110"",""1021764""
""focus"",""110"",""1031890""
","""event"",""trial"",""time""
""blur"",""1"",""364""
""blur"",""110"",""1021764""
","""event"",""trial"",""time""
""focus"",""1"",""429""
""focus"",""110"",""1031890""
","""event"",""trial"",""time""
""fullscreenenter"",""1"",""4071""
","""event"",""trial"",""time""
""fullscreenexit"",""110"",""1018841""
","","","1988.4000000953674","","","24","12161","5495","&#9728;","elianto","#f73b6a7A","-1"," ","0","-10","[2839.2000000476837]","1","1","","","12161","10","0","4","lose","no-go","0"
"pit-trial","128","1288236","0.0-14.0","battery-v0.2","","""event"",""trial"",""time""
""blur"",""1"",""364""
""focus"",""1"",""429""
""fullscreenenter"",""1"",""4071""
""fullscreenexit"",""110"",""1018841""
""blur"",""110"",""1021764""
""focus"",""110"",""1031890""
","""event"",""trial"",""time""
""blur"",""1"",""364""
""blur"",""110"",""1021764""
","""event"",""trial"",""time""
""focus"",""1"",""429""
""focus"",""110"",""1031890""
","""event"",""trial"",""time""
""fullscreenenter"",""1"",""4071""
","""event"",""trial"",""time""
""fullscreenexit"",""110"",""1018841""
","","","893","","","24","12161","5495","&#9752;","elianto","#f73b6a7A"," "," ","1","0","[1745.6000000238419]","1","1","","","12161","11","3","3","lose","go","0"
"pit-trial","129","1292976","0.0-15.0","battery-v0.2","","""event"",""trial"",""time""
""blur"",""1"",""364""
""focus"",""1"",""429""
""fullscreenenter"",""1"",""4071""
""fullscreenexit"",""110"",""1018841""
""blur"",""110"",""1021764""
""focus"",""110"",""1031890""
","""event"",""trial"",""time""
""blur"",""1"",""364""
""blur"",""110"",""1021764""
","""event"",""trial"",""time""
""focus"",""1"",""429""
""focus"",""110"",""1031890""
","""event"",""trial"",""time""
""fullscreenenter"",""1"",""4071""
","""event"",""trial"",""time""
""fullscreenexit"",""110"",""1018841""
","","","1879.2000000476837","","","24","12161","5495","&#9733;","elianto","#3366ff99","-1"," ","0","0","[2732.7999999523163]","1","1","","","12161","12","2","2","win","no-go","0"
"pit-trial","130","1297837","0.0-16.0","battery-v0.2","","""event"",""trial"",""time""
""blur"",""1"",""364""
""focus"",""1"",""429""
""fullscreenenter"",""1"",""4071""
""fullscreenexit"",""110"",""1018841""
""blur"",""110"",""1021764""
""focus"",""110"",""1031890""
","""event"",""trial"",""time""
""blur"",""1"",""364""
""blur"",""110"",""1021764""
","""event"",""trial"",""time""
""focus"",""1"",""429""
""focus"",""110"",""1031890""
","""event"",""trial"",""time""
""fullscreenenter"",""1"",""4071""
","""event"",""trial"",""time""
""fullscreenexit"",""110"",""1018841""
","","","-1","","","24","12161","5495","&#9733;","elianto","#3366ff99","-1","-1","1","+10","[]","0","1","","","12161","13","2","2","win","no-go","0"
"pit-trial","131","1302309","0.0-17.0","battery-v0.2","","""event"",""trial"",""time""
""blur"",""1"",""364""
""focus"",""1"",""429""
""fullscreenenter"",""1"",""4071""
""fullscreenexit"",""110"",""1018841""
""blur"",""110"",""1021764""
""focus"",""110"",""1031890""
","""event"",""trial"",""time""
""blur"",""1"",""364""
""blur"",""110"",""1021764""
","""event"",""trial"",""time""
""focus"",""1"",""429""
""focus"",""110"",""1031890""
","""event"",""trial"",""time""
""fullscreenenter"",""1"",""4071""
","""event"",""trial"",""time""
""fullscreenexit"",""110"",""1018841""
","","","1613.5","","","24","12161","5495","&#9728;","elianto","#f73b6a7A","-1"," ","0","-10","[2465.100000023842]","1","1","","","12161","14","0","4","lose","no-go","0"
"pit-trial","132","1307168","0.0-18.0","battery-v0.2","","""event"",""trial"",""time""
""blur"",""1"",""364""
""focus"",""1"",""429""
""fullscreenenter"",""1"",""4071""
""fullscreenexit"",""110"",""1018841""
""blur"",""110"",""1021764""
""focus"",""110"",""1031890""
","""event"",""trial"",""time""
""blur"",""1"",""364""
""blur"",""110"",""1021764""
","""event"",""trial"",""time""
""focus"",""1"",""429""
""focus"",""110"",""1031890""
","""event"",""trial"",""time""
""fullscreenenter"",""1"",""4071""
","""event"",""trial"",""time""
""fullscreenexit"",""110"",""1018841""
","","","-1","","","24","12161","5495","&#9752;","elianto","#f73b6a7A"," ","-1","0","-10","[]","0","1","","","12161","15","3","3","lose","go","0"
"pit-trial","133","1310770","0.0-19.0","battery-v0.2","","""event"",""trial"",""time""
""blur"",""1"",""364""
""focus"",""1"",""429""
""fullscreenenter"",""1"",""4071""
""fullscreenexit"",""110"",""1018841""
""blur"",""110"",""1021764""
""focus"",""110"",""1031890""
","""event"",""trial"",""time""
""blur"",""1"",""364""
""blur"",""110"",""1021764""
","""event"",""trial"",""time""
""focus"",""1"",""429""
""focus"",""110"",""1031890""
","""event"",""trial"",""time""
""fullscreenenter"",""1"",""4071""
","""event"",""trial"",""time""
""fullscreenexit"",""110"",""1018841""
","","","740.9000000953674","","","24","12161","5495","&#9730;","elianto","#3366ff99"," "," ","1","+10","[1593.7000000476837]","1","1","","","12161","16","1","1","win","go","0"
"pit-trial","134","1315387","0.0-20.0","battery-v0.2","","""event"",""trial"",""time""
""blur"",""1"",""364""
""focus"",""1"",""429""
""fullscreenenter"",""1"",""4071""
""fullscreenexit"",""110"",""1018841""
""blur"",""110"",""1021764""
""focus"",""110"",""1031890""
","""event"",""trial"",""time""
""blur"",""1"",""364""
""blur"",""110"",""1021764""
","""event"",""trial"",""time""
""focus"",""1"",""429""
""focus"",""110"",""1031890""
","""event"",""trial"",""time""
""fullscreenenter"",""1"",""4071""
","""event"",""trial"",""time""
""fullscreenexit"",""110"",""1018841""
","","","1757.1000000238419","","","24","12161","5495","&#9730;","elianto","#3366ff99"," "," ","1","+10","[2609.2999999523163]","1","1","","","12161","17","1","1","win","go","0"
"pit-trial","135","1320251","0.0-21.0","battery-v0.2","","""event"",""trial"",""time""
""blur"",""1"",""364""
""focus"",""1"",""429""
""fullscreenenter"",""1"",""4071""
""fullscreenexit"",""110"",""1018841""
""blur"",""110"",""1021764""
""focus"",""110"",""1031890""
","""event"",""trial"",""time""
""blur"",""1"",""364""
""blur"",""110"",""1021764""
","""event"",""trial"",""time""
""focus"",""1"",""429""
""focus"",""110"",""1031890""
","""event"",""trial"",""time""
""fullscreenenter"",""1"",""4071""
","""event"",""trial"",""time""
""fullscreenexit"",""110"",""1018841""
","","","-1","","","24","12161","5495","&#9752;","elianto","#f73b6a7A"," ","-1","0","0","[]","0","1","","","12161","18","3","3","lose","go","1"
"pit-trial","136","1325109","0.0-22.0","battery-v0.2","","""event"",""trial"",""time""
""blur"",""1"",""364""
""focus"",""1"",""429""
""fullscreenenter"",""1"",""4071""
""fullscreenexit"",""110"",""1018841""
""blur"",""110"",""1021764""
""focus"",""110"",""1031890""
","""event"",""trial"",""time""
""blur"",""1"",""364""
""blur"",""110"",""1021764""
","""event"",""trial"",""time""
""focus"",""1"",""429""
""focus"",""110"",""1031890""
","""event"",""trial"",""time""
""fullscreenenter"",""1"",""4071""
","""event"",""trial"",""time""
""fullscreenexit"",""110"",""1018841""
","","","-1","","","24","12161","5495","&#9728;","elianto","#f73b6a7A","-1","-1","1","0","[]","0","1","","","12161","19","0","4","lose","no-go","0"
"pit-trial","137","1328590","0.0-23.0","battery-v0.2","","""event"",""trial"",""time""
""blur"",""1"",""364""
""focus"",""1"",""429""
""fullscreenenter"",""1"",""4071""
""fullscreenexit"",""110"",""1018841""
""blur"",""110"",""1021764""
""focus"",""110"",""1031890""
","""event"",""trial"",""time""
""blur"",""1"",""364""
""blur"",""110"",""1021764""
","""event"",""trial"",""time""
""focus"",""1"",""429""
""focus"",""110"",""1031890""
","""event"",""trial"",""time""
""fullscreenenter"",""1"",""4071""
","""event"",""trial"",""time""
""fullscreenexit"",""110"",""1018841""
","","","620.8000000715256","","","24","12161","5495","&#9733;","elianto","#3366ff99","-1"," ","0","0","[1472.3999999761581]","1","1","","","12161","20","2","2","win","no-go","0"
"pit-instructions","138","1390096","0.0-24.0","battery-v0.2","","""event"",""trial"",""time""
""blur"",""1"",""364""
""focus"",""1"",""429""
""fullscreenenter"",""1"",""4071""
""fullscreenexit"",""110"",""1018841""
""blur"",""110"",""1021764""
""focus"",""110"",""1031890""
","""event"",""trial"",""time""
""blur"",""1"",""364""
""blur"",""110"",""1021764""
","""event"",""trial"",""time""
""focus"",""1"",""429""
""focus"",""110"",""1031890""
","""event"",""trial"",""time""
""fullscreenenter"",""1"",""4071""
","""event"",""trial"",""time""
""fullscreenexit"",""110"",""1018841""
","","[{""page_index"":0,""viewing_time"":51646.39999997616},{""page_index"":1,""viewing_time"":9856.600000023842}]","61504.299999952316","","","","","","","","","","","","","","","","","","","","","","","",""
"pit-trial","139","1393552","0.0-25.0","battery-v0.2","","""event"",""trial"",""time""
""blur"",""1"",""364""
""focus"",""1"",""429""
""fullscreenenter"",""1"",""4071""
""fullscreenexit"",""110"",""1018841""
""blur"",""110"",""1021764""
""focus"",""110"",""1031890""
","""event"",""trial"",""time""
""blur"",""1"",""364""
""blur"",""110"",""1021764""
","""event"",""trial"",""time""
""focus"",""1"",""429""
""focus"",""110"",""1031890""
","""event"",""trial"",""time""
""fullscreenenter"",""1"",""4071""
","""event"",""trial"",""time""
""fullscreenexit"",""110"",""1018841""
","","","592.1000000238419","","","24","12161","5495","d","elianto","#3366ff99","-1"," ","0","0","[1446.8999999761581]","1","2","","","12161","21","1","2","win","no-go","0"
"pit-trial","140","1398415","0.0-26.0","battery-v0.2","","""event"",""trial"",""time""
""blur"",""1"",""364""
""focus"",""1"",""429""
""fullscreenenter"",""1"",""4071""
""fullscreenexit"",""110"",""1018841""
""blur"",""110"",""1021764""
""focus"",""110"",""1031890""
","""event"",""trial"",""time""
""blur"",""1"",""364""
""blur"",""110"",""1021764""
","""event"",""trial"",""time""
""focus"",""1"",""429""
""focus"",""110"",""1031890""
","""event"",""trial"",""time""
""fullscreenenter"",""1"",""4071""
","""event"",""trial"",""time""
""fullscreenexit"",""110"",""1018841""
","","","-1","","","24","12161","5495","j","elianto","#f73b6a7A"," ","-1","0","-10","[]","0","2","","","12161","22","0","3","lose","go","0"
"pit-trial","141","1402085","0.0-27.0","battery-v0.2","","""event"",""trial"",""time""
""blur"",""1"",""364""
""focus"",""1"",""429""
""fullscreenenter"",""1"",""4071""
""fullscreenexit"",""110"",""1018841""
""blur"",""110"",""1021764""
""focus"",""110"",""1031890""
","""event"",""trial"",""time""
""blur"",""1"",""364""
""blur"",""110"",""1021764""
","""event"",""trial"",""time""
""focus"",""1"",""429""
""focus"",""110"",""1031890""
","""event"",""trial"",""time""
""fullscreenenter"",""1"",""4071""
","""event"",""trial"",""time""
""fullscreenexit"",""110"",""1018841""
","","","813.4000000953674","","","24","12161","5495","w","elianto","#f73b6a7A","-1"," ","0","-10","[1664]","1","2","","","12161","23","3","4","lose","no-go","0"
"pit-trial","142","1405797","0.0-28.0","battery-v0.2","","""event"",""trial"",""time""
""blur"",""1"",""364""
""focus"",""1"",""429""
""fullscreenenter"",""1"",""4071""
""fullscreenexit"",""110"",""1018841""
""blur"",""110"",""1021764""
""focus"",""110"",""1031890""
","""event"",""trial"",""time""
""blur"",""1"",""364""
""blur"",""110"",""1021764""
","""event"",""trial"",""time""
""focus"",""1"",""429""
""focus"",""110"",""1031890""
","""event"",""trial"",""time""
""fullscreenenter"",""1"",""4071""
","""event"",""trial"",""time""
""fullscreenexit"",""110"",""1018841""
","","","855.2999999523163","","","24","12161","5495","e","elianto","#f73b6a7A"," "," ","1","-10","[1705.8000000715256]","1","2","","","12161","24","2","3","lose","go","1"
"pit-trial","143","1409422","0.0-29.0","battery-v0.2","","""event"",""trial"",""time""
""blur"",""1"",""364""
""focus"",""1"",""429""
""fullscreenenter"",""1"",""4071""
""fullscreenexit"",""110"",""1018841""
""blur"",""110"",""1021764""
""focus"",""110"",""1031890""
","""event"",""trial"",""time""
""blur"",""1"",""364""
""blur"",""110"",""1021764""
","""event"",""trial"",""time""
""focus"",""1"",""429""
""focus"",""110"",""1031890""
","""event"",""trial"",""time""
""fullscreenenter"",""1"",""4071""
","""event"",""trial"",""time""
""fullscreenexit"",""110"",""1018841""
","","","765","","","24","12161","5495","j","elianto","#f73b6a7A"," "," ","1","0","[1616]","1","2","","","12161","25","0","3","lose","go","0"
"pit-trial","144","1413077","0.0-30.0","battery-v0.2","","""event"",""trial"",""time""
""blur"",""1"",""364""
""focus"",""1"",""429""
""fullscreenenter"",""1"",""4071""
""fullscreenexit"",""110"",""1018841""
""blur"",""110"",""1021764""
""focus"",""110"",""1031890""
","""event"",""trial"",""time""
""blur"",""1"",""364""
""blur"",""110"",""1021764""
","""event"",""trial"",""time""
""focus"",""1"",""429""
""focus"",""110"",""1031890""
","""event"",""trial"",""time""
""fullscreenenter"",""1"",""4071""
","""event"",""trial"",""time""
""fullscreenexit"",""110"",""1018841""
","","","797.7999999523163","","","24","12161","5495","e","elianto","#f73b6a7A"," "," ","1","0","[1648.7999999523163]","1","2","","","12161","26","2","3","lose","go","0"
"pit-trial","145","1416803","0.0-31.0","battery-v0.2","","""event"",""trial"",""time""
""blur"",""1"",""364""
""focus"",""1"",""429""
""fullscreenenter"",""1"",""4071""
""fullscreenexit"",""110"",""1018841""
""blur"",""110"",""1021764""
""focus"",""110"",""1031890""
","""event"",""trial"",""time""
""blur"",""1"",""364""
""blur"",""110"",""1021764""
","""event"",""trial"",""time""
""focus"",""1"",""429""
""focus"",""110"",""1031890""
","""event"",""trial"",""time""
""fullscreenenter"",""1"",""4071""
","""event"",""trial"",""time""
""fullscreenexit"",""110"",""1018841""
","","","868.7000000476837","","","24","12161","5495","w","elianto","#f73b6a7A","-1"," ","0","-10","[1719.6000000238419]","1","2","","","12161","27","3","4","lose","no-go","0"
"pit-trial","146","1420353","0.0-32.0","battery-v0.2","","""event"",""trial"",""time""
""blur"",""1"",""364""
""focus"",""1"",""429""
""fullscreenenter"",""1"",""4071""
""fullscreenexit"",""110"",""1018841""
""blur"",""110"",""1021764""
""focus"",""110"",""1031890""
","""event"",""trial"",""time""
""blur"",""1"",""364""
""blur"",""110"",""1021764""
","""event"",""trial"",""time""
""focus"",""1"",""429""
""focus"",""110"",""1031890""
","""event"",""trial"",""time""
""fullscreenenter"",""1"",""4071""
","""event"",""trial"",""time""
""fullscreenexit"",""110"",""1018841""
","","","693.0999999046326","","","24","12161","5495","d","elianto","#3366ff99","-1"," ","0","+10","[1543]","1","2","","","12161","28","1","2","win","no-go","1"
"pit-trial","147","1425212","0.0-33.0","battery-v0.2","","""event"",""trial"",""time""
""blur"",""1"",""364""
""focus"",""1"",""429""
""fullscreenenter"",""1"",""4071""
""fullscreenexit"",""110"",""1018841""
""blur"",""110"",""1021764""
""focus"",""110"",""1031890""
","""event"",""trial"",""time""
""blur"",""1"",""364""
""blur"",""110"",""1021764""
","""event"",""trial"",""time""
""focus"",""1"",""429""
""focus"",""110"",""1031890""
","""event"",""trial"",""time""
""fullscreenenter"",""1"",""4071""
","""event"",""trial"",""time""
""fullscreenexit"",""110"",""1018841""
","","","-1","","","24","12161","5495","j","elianto","#f73b6a7A"," ","-1","0","-10","[]","0","2","","","12161","29","0","3","lose","go","0"
"pit-trial","148","1428725","0.0-34.0","battery-v0.2","","""event"",""trial"",""time""
""blur"",""1"",""364""
""focus"",""1"",""429""
""fullscreenenter"",""1"",""4071""
""fullscreenexit"",""110"",""1018841""
""blur"",""110"",""1021764""
""focus"",""110"",""1031890""
","""event"",""trial"",""time""
""blur"",""1"",""364""
""blur"",""110"",""1021764""
","""event"",""trial"",""time""
""focus"",""1"",""429""
""focus"",""110"",""1031890""
","""event"",""trial"",""time""
""fullscreenenter"",""1"",""4071""
","""event"",""trial"",""time""
""fullscreenexit"",""110"",""1018841""
","","","657.8000000715256","","","24","12161","5495","d","elianto","#3366ff99","-1"," ","0","0","[1508.2000000476837]","1","2","","","12161","30","1","2","win","no-go","0"
"pit-trial","149","1432203","0.0-35.0","battery-v0.2","","""event"",""trial"",""time""
""blur"",""1"",""364""
""focus"",""1"",""429""
""fullscreenenter"",""1"",""4071""
""fullscreenexit"",""110"",""1018841""
""blur"",""110"",""1021764""
""focus"",""110"",""1031890""
","""event"",""trial"",""time""
""blur"",""1"",""364""
""blur"",""110"",""1021764""
","""event"",""trial"",""time""
""focus"",""1"",""429""
""focus"",""110"",""1031890""
","""event"",""trial"",""time""
""fullscreenenter"",""1"",""4071""
","""event"",""trial"",""time""
""fullscreenexit"",""110"",""1018841""
","","","621.1999999284744","","","24","12161","5495","w","elianto","#f73b6a7A","-1"," ","0","-10","[1472]","1","2","","","12161","31","3","4","lose","no-go","0"
"pit-trial","150","1435585","0.0-36.0","battery-v0.2","","""event"",""trial"",""time""
""blur"",""1"",""364""
""focus"",""1"",""429""
""fullscreenenter"",""1"",""4071""
""fullscreenexit"",""110"",""1018841""
""blur"",""110"",""1021764""
""focus"",""110"",""1031890""
","""event"",""trial"",""time""
""blur"",""1"",""364""
""blur"",""110"",""1021764""
","""event"",""trial"",""time""
""focus"",""1"",""429""
""focus"",""110"",""1031890""
","""event"",""trial"",""time""
""fullscreenenter"",""1"",""4071""
","""event"",""trial"",""time""
""fullscreenexit"",""110"",""1018841""
","","","522.1000000238419","","","24","12161","5495","e","elianto","#f73b6a7A"," "," ","1","-10","[1373.3999999761581]","1","2","","","12161","32","2","3","lose","go","1"
"pit-trial","151","1440449","0.0-37.0","battery-v0.2","","""event"",""trial"",""time""
""blur"",""1"",""364""
""focus"",""1"",""429""
""fullscreenenter"",""1"",""4071""
""fullscreenexit"",""110"",""1018841""
""blur"",""110"",""1021764""
""focus"",""110"",""1031890""
","""event"",""trial"",""time""
""blur"",""1"",""364""
""blur"",""110"",""1021764""
","""event"",""trial"",""time""
""focus"",""1"",""429""
""focus"",""110"",""1031890""
","""event"",""trial"",""time""
""fullscreenenter"",""1"",""4071""
","""event"",""trial"",""time""
""fullscreenexit"",""110"",""1018841""
","","","-1","","","24","12161","5495","w","elianto","#f73b6a7A","-1","-1","1","-10","[]","0","2","","","12161","33","3","4","lose","no-go","1"
"pit-trial","152","1444102","0.0-38.0","battery-v0.2","","""event"",""trial"",""time""
""blur"",""1"",""364""
""focus"",""1"",""429""
""fullscreenenter"",""1"",""4071""
""fullscreenexit"",""110"",""1018841""
""blur"",""110"",""1021764""
""focus"",""110"",""1031890""
","""event"",""trial"",""time""
""blur"",""1"",""364""
""blur"",""110"",""1021764""
","""event"",""trial"",""time""
""focus"",""1"",""429""
""focus"",""110"",""1031890""
","""event"",""trial"",""time""
""fullscreenenter"",""1"",""4071""
","""event"",""trial"",""time""
""fullscreenexit"",""110"",""1018841""
","","","793.8000000715256","","","24","12161","5495","d","elianto","#3366ff99","-1"," ","0","0","[1646.2000000476837]","1","2","","","12161","34","1","2","win","no-go","0"
"pit-trial","153","1448081","0.0-39.0","battery-v0.2","","""event"",""trial"",""time""
""blur"",""1"",""364""
""focus"",""1"",""429""
""fullscreenenter"",""1"",""4071""
""fullscreenexit"",""110"",""1018841""
""blur"",""110"",""1021764""
""focus"",""110"",""1031890""
","""event"",""trial"",""time""
""blur"",""1"",""364""
""blur"",""110"",""1021764""
","""event"",""trial"",""time""
""focus"",""1"",""429""
""focus"",""110"",""1031890""
","""event"",""trial"",""time""
""fullscreenenter"",""1"",""4071""
","""event"",""trial"",""time""
""fullscreenexit"",""110"",""1018841""
","","","1125.5","","","24","12161","5495","j","elianto","#f73b6a7A"," "," ","1","0","[1976.1999999284744]","1","2","","","12161","35","0","3","lose","go","0"
"pit-trial","154","1451818","0.0-40.0","battery-v0.2","","""event"",""trial"",""time""
""blur"",""1"",""364""
""focus"",""1"",""429""
""fullscreenenter"",""1"",""4071""
""fullscreenexit"",""110"",""1018841""
""blur"",""110"",""1021764""
""focus"",""110"",""1031890""
","""event"",""trial"",""time""
""blur"",""1"",""364""
""blur"",""110"",""1021764""
","""event"",""trial"",""time""
""focus"",""1"",""429""
""focus"",""110"",""1031890""
","""event"",""trial"",""time""
""fullscreenenter"",""1"",""4071""
","""event"",""trial"",""time""
""fullscreenexit"",""110"",""1018841""
","","","880.2000000476837","","","24","12161","5495","e","elianto","#f73b6a7A"," "," ","1","0","[1732.3999999761581]","1","2","","","12161","36","2","3","lose","go","0"
"pit-trial","155","1455397","0.0-41.0","battery-v0.2","","""event"",""trial"",""time""
""blur"",""1"",""364""
""focus"",""1"",""429""
""fullscreenenter"",""1"",""4071""
""fullscreenexit"",""110"",""1018841""
""blur"",""110"",""1021764""
""focus"",""110"",""1031890""
","""event"",""trial"",""time""
""blur"",""1"",""364""
""blur"",""110"",""1021764""
","""event"",""trial"",""time""
""focus"",""1"",""429""
""focus"",""110"",""1031890""
","""event"",""trial"",""time""
""fullscreenenter"",""1"",""4071""
","""event"",""trial"",""time""
""fullscreenexit"",""110"",""1018841""
","","","723","","","24","12161","5495","e","elianto","#f73b6a7A"," "," ","1","0","[1574.9000000953674]","1","2","","","12161","37","2","3","lose","go","0"
"pit-trial","156","1458997","0.0-42.0","battery-v0.2","","""event"",""trial"",""time""
""blur"",""1"",""364""
""focus"",""1"",""429""
""fullscreenenter"",""1"",""4071""
""fullscreenexit"",""110"",""1018841""
""blur"",""110"",""1021764""
""focus"",""110"",""1031890""
","""event"",""trial"",""time""
""blur"",""1"",""364""
""blur"",""110"",""1021764""
","""event"",""trial"",""time""
""focus"",""1"",""429""
""focus"",""110"",""1031890""
","""event"",""trial"",""time""
""fullscreenenter"",""1"",""4071""
","""event"",""trial"",""time""
""fullscreenexit"",""110"",""1018841""
","","","740.6999999284744","","","24","12161","5495","w","elianto","#f73b6a7A","-1"," ","0","-10","[1591.6999999284744]","1","2","","","12161","38","3","4","lose","no-go","0"
"pit-trial","157","1463141","0.0-43.0","battery-v0.2","","""event"",""trial"",""time""
""blur"",""1"",""364""
""focus"",""1"",""429""
""fullscreenenter"",""1"",""4071""
""fullscreenexit"",""110"",""1018841""
""blur"",""110"",""1021764""
""focus"",""110"",""1031890""
","""event"",""trial"",""time""
""blur"",""1"",""364""
""blur"",""110"",""1021764""
","""event"",""trial"",""time""
""focus"",""1"",""429""
""focus"",""110"",""1031890""
","""event"",""trial"",""time""
""fullscreenenter"",""1"",""4071""
","""event"",""trial"",""time""
""fullscreenexit"",""110"",""1018841""
","","","1285","","","24","12161","5495","j","elianto","#f73b6a7A"," "," ","1","0","[2137.399999976158]","1","2","","","12161","39","0","3","lose","go","0"
"pit-trial","158","1468002","0.0-44.0","battery-v0.2","","""event"",""trial"",""time""
""blur"",""1"",""364""
""focus"",""1"",""429""
""fullscreenenter"",""1"",""4071""
""fullscreenexit"",""110"",""1018841""
""blur"",""110"",""1021764""
""focus"",""110"",""1031890""
","""event"",""trial"",""time""
""blur"",""1"",""364""
""blur"",""110"",""1021764""
","""event"",""trial"",""time""
""focus"",""1"",""429""
""focus"",""110"",""1031890""
","""event"",""trial"",""time""
""fullscreenenter"",""1"",""4071""
","""event"",""trial"",""time""
""fullscreenexit"",""110"",""1018841""
","","","-1","","","24","12161","5495","d","elianto","#3366ff99","-1","-1","1","0","[]","0","2","","","12161","40","1","2","win","no-go","1"
"pit-trial","159","1471785","0.0-45.0","battery-v0.2","","""event"",""trial"",""time""
""blur"",""1"",""364""
""focus"",""1"",""429""
""fullscreenenter"",""1"",""4071""
""fullscreenexit"",""110"",""1018841""
""blur"",""110"",""1021764""
""focus"",""110"",""1031890""
","""event"",""trial"",""time""
""blur"",""1"",""364""
""blur"",""110"",""1021764""
","""event"",""trial"",""time""
""focus"",""1"",""429""
""focus"",""110"",""1031890""
","""event"",""trial"",""time""
""fullscreenenter"",""1"",""4071""
","""event"",""trial"",""time""
""fullscreenexit"",""110"",""1018841""
","","","927.2999999523163","","","24","12161","5495","j","elianto","#f73b6a7A"," "," ","1","0","[1778.0999999046326]","1","2","","","12161","41","0","3","lose","go","0"
"pit-trial","160","1475178","0.0-46.0","battery-v0.2","","""event"",""trial"",""time""
""blur"",""1"",""364""
""focus"",""1"",""429""
""fullscreenenter"",""1"",""4071""
""fullscreenexit"",""110"",""1018841""
""blur"",""110"",""1021764""
""focus"",""110"",""1031890""
","""event"",""trial"",""time""
""blur"",""1"",""364""
""blur"",""110"",""1021764""
","""event"",""trial"",""time""
""focus"",""1"",""429""
""focus"",""110"",""1031890""
","""event"",""trial"",""time""
""fullscreenenter"",""1"",""4071""
","""event"",""trial"",""time""
""fullscreenexit"",""110"",""1018841""
","","","536.6000000238419","","","24","12161","5495","e","elianto","#f73b6a7A"," "," ","1","0","[1387.7999999523163]","1","2","","","12161","42","2","3","lose","go","0"
"pit-trial","161","1479157","0.0-47.0","battery-v0.2","","""event"",""trial"",""time""
""blur"",""1"",""364""
""focus"",""1"",""429""
""fullscreenenter"",""1"",""4071""
""fullscreenexit"",""110"",""1018841""
""blur"",""110"",""1021764""
""focus"",""110"",""1031890""
","""event"",""trial"",""time""
""blur"",""1"",""364""
""blur"",""110"",""1021764""
","""event"",""trial"",""time""
""focus"",""1"",""429""
""focus"",""110"",""1031890""
","""event"",""trial"",""time""
""fullscreenenter"",""1"",""4071""
","""event"",""trial"",""time""
""fullscreenexit"",""110"",""1018841""
","","","1122.7000000476837","","","24","12161","5495","w","elianto","#f73b6a7A","-1"," ","0","-10","[1973.5]","1","2","","","12161","43","3","4","lose","no-go","0"
"pit-trial","162","1482908","0.0-48.0","battery-v0.2","","""event"",""trial"",""time""
""blur"",""1"",""364""
""focus"",""1"",""429""
""fullscreenenter"",""1"",""4071""
""fullscreenexit"",""110"",""1018841""
""blur"",""110"",""1021764""
""focus"",""110"",""1031890""
","""event"",""trial"",""time""
""blur"",""1"",""364""
""blur"",""110"",""1021764""
","""event"",""trial"",""time""
""focus"",""1"",""429""
""focus"",""110"",""1031890""
","""event"",""trial"",""time""
""fullscreenenter"",""1"",""4071""
","""event"",""trial"",""time""
""fullscreenexit"",""110"",""1018841""
","","","891.7000000476837","","","24","12161","5495","d","elianto","#3366ff99","-1"," ","0","+10","[1742.7999999523163]","1","2","","","12161","44","1","2","win","no-go","1"
"pit-trial","163","1487770","0.0-49.0","battery-v0.2","","""event"",""trial"",""time""
""blur"",""1"",""364""
""focus"",""1"",""429""
""fullscreenenter"",""1"",""4071""
