"trial_type","trial_index","time_elapsed","internal_node_id","task_version","subject_id","interactions","blur_events","focus_events","fullscreenenter_events","fullscreenexit_events","success","view_history","rt","responses","num_errors","age","subject","participantId","rune","rune_set","hex","correct","choice","accuracy","outcome","keys","total_keys","block","practice","value","sub","trial","stimulus","robot","valence","action","sham"
"pavlovia","0","36","0.0-0.0","battery-v0.2","","""event"",""trial"",""time""
""fullscreenenter"",""1"",""2383""
","
","
","""event"",""trial"",""time""
""fullscreenenter"",""1"",""2383""
","
","","","","","","","","","","","","","","","","","","","","","","","","","","",""
"fullscreen","1","3345","0.0-1.0","battery-v0.2","","""event"",""trial"",""time""
""fullscreenenter"",""1"",""2383""
","
","
","""event"",""trial"",""time""
""fullscreenenter"",""1"",""2383""
","
","true","","","","","","","","","","","","","","","","","","","","","","","","","",""
"pit-instructions","2","16542","0.0-2.0-0.0","battery-v0.2","","""event"",""trial"",""time""
""fullscreenenter"",""1"",""2383""
","
","
","""event"",""trial"",""time""
""fullscreenenter"",""1"",""2383""
","
","","[{""page_index"":0,""viewing_time"":13180.5}]","13182","","","","","","","","","","","","","","","","","","","","","","","",""
"pit-comprehension","3","26415","0.0-2.0-1.0-0.0","battery-v0.2","","""event"",""trial"",""time""
""fullscreenenter"",""1"",""2383""
","
","
","""event"",""trial"",""time""
""fullscreenenter"",""1"",""2383""
","
","","","9860.399999999907","[""shark""]","0","10","6119","1321","","","","","","","","","","","","","","","","","","",""
"pit-instructions","4","29133","0.0-2.0-1.0-1.0","battery-v0.2","","""event"",""trial"",""time""
""fullscreenenter"",""1"",""2383""
","
","
","""event"",""trial"",""time""
""fullscreenenter"",""1"",""2383""
","
","","[{""page_index"":0,""viewing_time"":2697.2000000001863}]","2699.399999999907","","","","","","","","","","","","","","","","","","","","","","","",""
"pit-comprehension","5","44836","0.0-2.0-2.0-0.0","battery-v0.2","","""event"",""trial"",""time""
""fullscreenenter"",""1"",""2383""
","
","
","""event"",""trial"",""time""
""fullscreenenter"",""1"",""2383""
","
","","","15691.5","[""tiger""]","0","10","6119","1321","","","","","","","","","","","","","","","","","","",""
"pit-instructions","6","46376","0.0-2.0-2.0-1.0","battery-v0.2","","""event"",""trial"",""time""
""fullscreenenter"",""1"",""2383""
","
","
","""event"",""trial"",""time""
""fullscreenenter"",""1"",""2383""
","
","","[{""page_index"":0,""viewing_time"":1530}]","1532.1999999997206","","","","","","","","","","","","","","","","","","","","","","","",""
"pit-instructions","7","168509","0.0-2.0-3.0","battery-v0.2","","""event"",""trial"",""time""
""fullscreenenter"",""1"",""2383""
","
","
","""event"",""trial"",""time""
""fullscreenenter"",""1"",""2383""
","
","","[{""page_index"":0,""viewing_time"":10571.200000000186},{""page_index"":1,""viewing_time"":8871.899999999907},{""page_index"":2,""viewing_time"":8177.5},{""page_index"":3,""viewing_time"":12125.69999999972},{""page_index"":4,""viewing_time"":10323.700000000186},{""page_index"":3,""viewing_time"":957.2999999998137},{""page_index"":4,""viewing_time"":6272.9000000003725},{""page_index"":5,""viewing_time"":6278},{""page_index"":6,""viewing_time"":7239},{""page_index"":7,""viewing_time"":7069.5999999996275},{""page_index"":8,""viewing_time"":6271.5},{""page_index"":9,""viewing_time"":8630.400000000373},{""page_index"":10,""viewing_time"":8952},{""page_index"":11,""viewing_time"":7884.899999999907},{""page_index"":12,""viewing_time"":6632.199999999721},{""page_index"":13,""viewing_time"":5863.5}]","122124.3999999999","","","","","","","","","","","","","","","","","","","","","","","",""
"pit-trial","8","172235","0.0-2.0-4.0-0.0","battery-v0.2","","""event"",""trial"",""time""
""fullscreenenter"",""1"",""2383""
","
","
","""event"",""trial"",""time""
""fullscreenenter"",""1"",""2383""
","
","","","859.1000000000931","","","10","6119","1321","&#9784;","elianto","#FFFFF080"," "," ","1","&#10004","[1713]","1","0","0","","","","","","","",""
"pit-trial","9","175875","0.0-2.0-4.1-0.1","battery-v0.2","","""event"",""trial"",""time""
""fullscreenenter"",""1"",""2383""
","
","
","""event"",""trial"",""time""
""fullscreenenter"",""1"",""2383""
","
","","","770.3999999999069","","","10","6119","1321","&#9784;","elianto","#FFFFF080"," "," ","1","&#10004","[1625.3000000002794]","1","0","0","","","","","","","",""
"pit-trial","10","179412","0.0-2.0-4.2-0.2","battery-v0.2","","""event"",""trial"",""time""
""fullscreenenter"",""1"",""2383""
","
","
","""event"",""trial"",""time""
""fullscreenenter"",""1"",""2383""
","
","","","665.8000000002794","","","10","6119","1321","&#9784;","elianto","#FFFFF080"," "," ","1","&#10004","[1525.4000000003725]","1","0","0","","","","","","","",""
"pit-trial","11","182970","0.0-2.0-4.3-0.3","battery-v0.2","","""event"",""trial"",""time""
""fullscreenenter"",""1"",""2383""
","
","
","""event"",""trial"",""time""
""fullscreenenter"",""1"",""2383""
","
","","","686.0999999996275","","","10","6119","1321","&#9784;","elianto","#FFFFF080"," "," ","1","&#10004","[1542.1000000000931]","1","0","0","","","","","","","",""
"pit-trial","12","186427","0.0-2.0-4.4-0.4","battery-v0.2","","""event"",""trial"",""time""
""fullscreenenter"",""1"",""2383""
","
","
","""event"",""trial"",""time""
""fullscreenenter"",""1"",""2383""
","
","","","589.6999999997206","","","10","6119","1321","&#9784;","elianto","#FFFFF080"," "," ","1","&#10004","[1441.8999999999069]","1","0","0","","","","","","","",""
"pit-instructions","13","213876","0.0-2.0-5.0","battery-v0.2","","""event"",""trial"",""time""
""fullscreenenter"",""1"",""2383""
","
","
","""event"",""trial"",""time""
""fullscreenenter"",""1"",""2383""
","
","","[{""page_index"":0,""viewing_time"":6733.699999999721},{""page_index"":1,""viewing_time"":7762.9000000003725},{""page_index"":2,""viewing_time"":6539.399999999907},{""page_index"":3,""viewing_time"":6402.699999999721}]","27441.799999999814","","","","","","","","","","","","","","","","","","","","","","","",""
"pit-trial","14","218747","0.0-2.0-6.0-0.0","battery-v0.2","","""event"",""trial"",""time""
""fullscreenenter"",""1"",""2383""
","
","
","""event"",""trial"",""time""
""fullscreenenter"",""1"",""2383""
","
","","","-1","","","10","6119","1321","&#9854;","elianto","#FFFFF080","-1","-1","1","&#10004","[]","0","0","1","","","","","","","",""
"pit-trial","15","223618","0.0-2.0-6.1-0.1","battery-v0.2","","""event"",""trial"",""time""
""fullscreenenter"",""1"",""2383""
","
","
","""event"",""trial"",""time""
""fullscreenenter"",""1"",""2383""
","
","","","-1","","","10","6119","1321","&#9854;","elianto","#FFFFF080","-1","-1","1","&#10004","[]","0","0","1","","","","","","","",""
"pit-trial","16","228490","0.0-2.0-6.2-0.2","battery-v0.2","","""event"",""trial"",""time""
""fullscreenenter"",""1"",""2383""
","
","
","""event"",""trial"",""time""
""fullscreenenter"",""1"",""2383""
","
","","","-1","","","10","6119","1321","&#9854;","elianto","#FFFFF080","-1","-1","1","&#10004","[]","0","0","1","","","","","","","",""
"pit-trial","17","233363","0.0-2.0-6.3-0.3","battery-v0.2","","""event"",""trial"",""time""
""fullscreenenter"",""1"",""2383""
","
","
","""event"",""trial"",""time""
""fullscreenenter"",""1"",""2383""
","
","","","-1","","","10","6119","1321","&#9854;","elianto","#FFFFF080","-1","-1","1","&#10004","[]","0","0","1","","","","","","","",""
"pit-trial","18","238235","0.0-2.0-6.4-0.4","battery-v0.2","","""event"",""trial"",""time""
""fullscreenenter"",""1"",""2383""
","
","
","""event"",""trial"",""time""
""fullscreenenter"",""1"",""2383""
","
","","","-1","","","10","6119","1321","&#9854;","elianto","#FFFFF080","-1","-1","1","&#10004","[]","0","0","1","","","","","","","",""
"pit-instructions","19","516384","0.0-2.0-7.0","battery-v0.2","","""event"",""trial"",""time""
""fullscreenenter"",""1"",""2383""
","
","
","""event"",""trial"",""time""
""fullscreenenter"",""1"",""2383""
","
","","[{""page_index"":0,""viewing_time"":49101.60000000009},{""page_index"":1,""viewing_time"":18146.80000000028},{""page_index"":2,""viewing_time"":7939.5999999996275},{""page_index"":3,""viewing_time"":7912},{""page_index"":4,""viewing_time"":88585},{""page_index"":5,""viewing_time"":8091.300000000279},{""page_index"":6,""viewing_time"":6059.600000000093},{""page_index"":7,""viewing_time"":8625.899999999907},{""page_index"":8,""viewing_time"":10521.5},{""page_index"":9,""viewing_time"":8056.299999999814},{""page_index"":10,""viewing_time"":8015.899999999907},{""page_index"":11,""viewing_time"":7447.9000000003725},{""page_index"":12,""viewing_time"":8359.099999999627},{""page_index"":13,""viewing_time"":9933.5},{""page_index"":14,""viewing_time"":8822},{""page_index"":15,""viewing_time"":7270.5},{""page_index"":16,""viewing_time"":6676.700000000186},{""page_index"":17,""viewing_time"":8572.799999999814}]","278140","","","","","","","","","","","","","","","","","","","","","","","",""
"pit-trial","20","520523","0.0-2.0-8.0-0.0","battery-v0.2","","""event"",""trial"",""time""
""fullscreenenter"",""1"",""2383""
","
","
","""event"",""trial"",""time""
""fullscreenenter"",""1"",""2383""
","
","","","1272.2000000001863","","","10","6119","1321","&#9776;","elianto","#3366ff99"," "," ","1","+10","[2126.5]","1","0","1","","","","","","","",""
"pit-trial","21","524075","0.0-2.0-8.0-1.0","battery-v0.2","","""event"",""trial"",""time""
""fullscreenenter"",""1"",""2383""
","
","
","""event"",""trial"",""time""
""fullscreenenter"",""1"",""2383""
","
","","","682.4000000003725","","","10","6119","1321","&#9776;","elianto","#3366ff99"," "," ","1","+10","[1540.2000000001863]","1","0","1","","","","","","","",""
"pit-trial","22","527523","0.0-2.0-8.0-2.0","battery-v0.2","","""event"",""trial"",""time""
""fullscreenenter"",""1"",""2383""
","
","
","""event"",""trial"",""time""
""fullscreenenter"",""1"",""2383""
","
","","","584.8000000002794","","","10","6119","1321","&#9776;","elianto","#3366ff99"," "," ","1","+10","[1435.3999999999069]","1","0","1","","","","","","","",""
"pit-trial","23","531082","0.0-2.0-8.0-3.0","battery-v0.2","","""event"",""trial"",""time""
""fullscreenenter"",""1"",""2383""
","
","
","""event"",""trial"",""time""
""fullscreenenter"",""1"",""2383""
","
","","","698.2000000001863","","","10","6119","1321","&#9776;","elianto","#3366ff99"," "," ","1","0","[1550.3999999999069]","1","0","1","","","","","","","",""
"pit-trial","24","535018","0.0-2.0-8.0-4.0","battery-v0.2","","""event"",""trial"",""time""
""fullscreenenter"",""1"",""2383""
","
","
","""event"",""trial"",""time""
""fullscreenenter"",""1"",""2383""
","
","","","1060.9000000003725","","","10","6119","1321","&#9776;","elianto","#3366ff99"," "," ","1","+10","[1920.3000000002794]","1","0","1","","","","","","","",""
"pit-trial","25","538643","0.0-2.0-8.1-0.1","battery-v0.2","","""event"",""trial"",""time""
""fullscreenenter"",""1"",""2383""
","
","
","""event"",""trial"",""time""
""fullscreenenter"",""1"",""2383""
","
","","","748.3999999999069","","","10","6119","1321","&#9776;","elianto","#3366ff99"," "," ","1","+10","[1609.5999999996275]","1","0","1","","","","","","","",""
"pit-trial","26","542171","0.0-2.0-8.1-1.1","battery-v0.2","","""event"",""trial"",""time""
""fullscreenenter"",""1"",""2383""
","
","
","""event"",""trial"",""time""
""fullscreenenter"",""1"",""2383""
","
","","","664.8000000002794","","","10","6119","1321","&#9776;","elianto","#3366ff99"," "," ","1","+10","[1515.3000000002794]","1","0","1","","","","","","","",""
"pit-trial","27","545571","0.0-2.0-8.1-2.1","battery-v0.2","","""event"",""trial"",""time""
""fullscreenenter"",""1"",""2383""
","
","
","""event"",""trial"",""time""
""fullscreenenter"",""1"",""2383""
","
","","","528.2000000001863","","","10","6119","1321","&#9776;","elianto","#3366ff99"," "," ","1","+10","[1389.3999999999069]","1","0","1","","","","","","","",""
"pit-trial","28","549059","0.0-2.0-8.1-3.1","battery-v0.2","","""event"",""trial"",""time""
""fullscreenenter"",""1"",""2383""
","
","
","""event"",""trial"",""time""
""fullscreenenter"",""1"",""2383""
","
","","","621.7999999998137","","","10","6119","1321","&#9776;","elianto","#3366ff99"," "," ","1","0","[1479.4000000003725]","1","0","1","","","","","","","",""
"pit-trial","29","552315","0.0-2.0-8.1-4.1","battery-v0.2","","""event"",""trial"",""time""
""fullscreenenter"",""1"",""2383""
","
","
","""event"",""trial"",""time""
""fullscreenenter"",""1"",""2383""
","
","","","382.8000000002794","","","10","6119","1321","&#9776;","elianto","#3366ff99"," "," ","1","+10","[1247.3000000002794]","1","0","1","","","","","","","",""
"pit-trial","30","555635","0.0-2.0-8.2-0.2","battery-v0.2","","""event"",""trial"",""time""
""fullscreenenter"",""1"",""2383""
","
","
","""event"",""trial"",""time""
""fullscreenenter"",""1"",""2383""
","
","","","448.90000000037253","","","10","6119","1321","&#9776;","elianto","#3366ff99"," "," ","1","+10","[1302.8000000002794]","1","0","1","","","","","","","",""
"pit-trial","31","558979","0.0-2.0-8.2-1.2","battery-v0.2","","""event"",""trial"",""time""
""fullscreenenter"",""1"",""2383""
","
","
","""event"",""trial"",""time""
""fullscreenenter"",""1"",""2383""
","
","","","475.5","","","10","6119","1321","&#9776;","elianto","#3366ff99"," "," ","1","+10","[1331.5999999996275]","1","0","1","","","","","","","",""
"pit-trial","32","562155","0.0-2.0-8.2-2.2","battery-v0.2","","""event"",""trial"",""time""
""fullscreenenter"",""1"",""2383""
","
","
","""event"",""trial"",""time""
""fullscreenenter"",""1"",""2383""
","
","","","308.20000000018626","","","10","6119","1321","&#9776;","elianto","#3366ff99"," "," ","1","+10","[1164.7999999998137]","1","0","1","","","","","","","",""
"pit-trial","33","565603","0.0-2.0-8.2-3.2","battery-v0.2","","""event"",""trial"",""time""
""fullscreenenter"",""1"",""2383""
","
","
","""event"",""trial"",""time""
""fullscreenenter"",""1"",""2383""
","
","","","583","","","10","6119","1321","&#9776;","elianto","#3366ff99"," "," ","1","0","[1439.1999999997206]","1","0","1","","","","","","","",""
"pit-trial","34","569196","0.0-2.0-8.2-4.2","battery-v0.2","","""event"",""trial"",""time""
""fullscreenenter"",""1"",""2383""
","
","
","""event"",""trial"",""time""
""fullscreenenter"",""1"",""2383""
","
","","","715.6000000000931","","","10","6119","1321","&#9776;","elianto","#3366ff99"," "," ","1","+10","[1578.1000000000931]","1","0","1","","","","","","","",""
"call-function","35","569203","0.0-2.0-9.0","battery-v0.2","","""event"",""trial"",""time""
""fullscreenenter"",""1"",""2383""
","
","
","""event"",""trial"",""time""
""fullscreenenter"",""1"",""2383""
","
","","","","","","","","","","","","","","","","","","","","","","","","","","",""
"pit-instructions","36","621108","0.0-2.0-10.0","battery-v0.2","","""event"",""trial"",""time""
""fullscreenenter"",""1"",""2383""
","
","
","""event"",""trial"",""time""
""fullscreenenter"",""1"",""2383""
","
","","[{""page_index"":0,""viewing_time"":8103},{""page_index"":1,""viewing_time"":8197.700000000186},{""page_index"":2,""viewing_time"":12608},{""page_index"":3,""viewing_time"":11328},{""page_index"":4,""viewing_time"":11660.200000000186}]","51901.700000000186","","","","","","","","","","","","","","","","","","","","","","","",""
"pit-trial","37","624450","0.0-2.0-11.0-0.0","battery-v0.2","","""event"",""trial"",""time""
""fullscreenenter"",""1"",""2383""
","
","
","""event"",""trial"",""time""
""fullscreenenter"",""1"",""2383""
","
","","","475.8000000002794","","","10","6119","1321","&#9761;","elianto","#3366ff99","-1"," ","0","0","[1331.3000000002794]","1","0","2","","","","","","","",""
"pit-trial","38","627498","0.0-2.0-11.0-1.0","battery-v0.2","","""event"",""trial"",""time""
""fullscreenenter"",""1"",""2383""
","
","
","""event"",""trial"",""time""
""fullscreenenter"",""1"",""2383""
","
","","","188.3000000002794","","","10","6119","1321","&#9761;","elianto","#3366ff99","-1"," ","0","0","[1039.3000000002794]","1","0","2","","","","","","","",""
"pit-trial","39","632372","0.0-2.0-11.0-2.0","battery-v0.2","","""event"",""trial"",""time""
""fullscreenenter"",""1"",""2383""
","
","
","""event"",""trial"",""time""
""fullscreenenter"",""1"",""2383""
","
","","","-1","","","10","6119","1321","&#9761;","elianto","#3366ff99","-1","-1","1","+10","[]","0","0","2","","","","","","","",""
"pit-trial","40","636675","0.0-2.0-11.0-3.0","battery-v0.2","","""event"",""trial"",""time""
""fullscreenenter"",""1"",""2383""
","
","
","""event"",""trial"",""time""
""fullscreenenter"",""1"",""2383""
","
","","","1430.6000000000931","","","10","6119","1321","&#9761;","elianto","#3366ff99","-1"," ","0","+10","[2288.0999999996275]","1","0","2","","","","","","","",""
"pit-trial","41","640178","0.0-2.0-11.0-4.0","battery-v0.2","","""event"",""trial"",""time""
""fullscreenenter"",""1"",""2383""
","
","
","""event"",""trial"",""time""
""fullscreenenter"",""1"",""2383""
","
","","","640.3000000002794","","","10","6119","1321","&#9761;","elianto","#3366ff99","-1"," ","0","0","[1491.1000000000931]","1","0","2","","","","","","","",""
"pit-trial","42","644258","0.0-2.0-11.1-0.1","battery-v0.2","","""event"",""trial"",""time""
""fullscreenenter"",""1"",""2383""
","
","
","""event"",""trial"",""time""
""fullscreenenter"",""1"",""2383""
","
","","","1216.5","","","10","6119","1321","&#9761;","elianto","#3366ff99","-1"," ","0","0","[2068.100000000093]","1","0","2","","","","","","","",""
"pit-trial","43","647779","0.0-2.0-11.1-1.1","battery-v0.2","","""event"",""trial"",""time""
""fullscreenenter"",""1"",""2383""
","
","
","""event"",""trial"",""time""
""fullscreenenter"",""1"",""2383""
","
","","","655.1999999997206","","","10","6119","1321","&#9761;","elianto","#3366ff99","-1"," ","0","0","[1506.9000000003725,2059.100000000093]","2","0","2","","","","","","","",""
"pit-trial","44","652651","0.0-2.0-11.1-2.1","battery-v0.2","","""event"",""trial"",""time""
""fullscreenenter"",""1"",""2383""
","
","
","""event"",""trial"",""time""
""fullscreenenter"",""1"",""2383""
","
","","","-1","","","10","6119","1321","&#9761;","elianto","#3366ff99","-1","-1","1","+10","[]","0","0","2","","","","","","","",""
"pit-trial","45","657523","0.0-2.0-11.1-3.1","battery-v0.2","","""event"",""trial"",""time""
""fullscreenenter"",""1"",""2383""
","
","
","""event"",""trial"",""time""
""fullscreenenter"",""1"",""2383""
","
","","","-1","","","10","6119","1321","&#9761;","elianto","#3366ff99","-1","-1","1","0","[]","0","0","2","","","","","","","",""
"pit-trial","46","662394","0.0-2.0-11.1-4.1","battery-v0.2","","""event"",""trial"",""time""
""fullscreenenter"",""1"",""2383""
","
","
","""event"",""trial"",""time""
""fullscreenenter"",""1"",""2383""
","
","","","-1","","","10","6119","1321","&#9761;","elianto","#3366ff99","-1","-1","1","+10","[]","0","0","2","","","","","","","",""
"pit-trial","47","666244","0.0-2.0-11.2-0.2","battery-v0.2","","""event"",""trial"",""time""
""fullscreenenter"",""1"",""2383""
","
","
","""event"",""trial"",""time""
""fullscreenenter"",""1"",""2383""
","
","","","976.1000000000931","","","10","6119","1321","&#9761;","elianto","#3366ff99","-1"," ","0","0","[1831]","1","0","2","","","","","","","",""
"pit-trial","48","671115","0.0-2.0-11.2-1.2","battery-v0.2","","""event"",""trial"",""time""
""fullscreenenter"",""1"",""2383""
","
","
","""event"",""trial"",""time""
""fullscreenenter"",""1"",""2383""
","
","","","-1","","","10","6119","1321","&#9761;","elianto","#3366ff99","-1","-1","1","+10","[4157.799999999814,4667.399999999907]","2","0","2","","","","","","","",""
"pit-trial","49","675955","0.0-2.0-11.2-2.2","battery-v0.2","","""event"",""trial"",""time""
""fullscreenenter"",""1"",""2383""
","
","
","""event"",""trial"",""time""
""fullscreenenter"",""1"",""2383""
","
","","","1973.4000000003725","","","10","6119","1321","&#9761;","elianto","#3366ff99","-1"," ","0","0","[107.89999999990687,404.89999999990687,2829.7000000001863,4230.399999999907]","4","0","2","","","","","","","",""
"pit-trial","50","679500","0.0-2.0-11.2-3.2","battery-v0.2","","""event"",""trial"",""time""
""fullscreenenter"",""1"",""2383""
","
","
","""event"",""trial"",""time""
""fullscreenenter"",""1"",""2383""
","
","","","678.7999999998137","","","10","6119","1321","&#9761;","elianto","#3366ff99","-1"," ","0","+10","[1534.8999999999069]","1","0","2","","","","","","","",""
"pit-trial","51","684372","0.0-2.0-11.2-4.2","battery-v0.2","","""event"",""trial"",""time""
""fullscreenenter"",""1"",""2383""
","
","
","""event"",""trial"",""time""
""fullscreenenter"",""1"",""2383""
","
","","","-1","","","10","6119","1321","&#9761;","elianto","#3366ff99","-1","-1","1","+10","[]","0","0","2","","","","","","","",""
"pit-trial","52","689243","0.0-2.0-11.3-0.3","battery-v0.2","","""event"",""trial"",""time""
""fullscreenenter"",""1"",""2383""
","
","
","""event"",""trial"",""time""
""fullscreenenter"",""1"",""2383""
","
","","","-1","","","10","6119","1321","&#9761;","elianto","#3366ff99","-1","-1","1","+10","[]","0","0","2","","","","","","","",""
"pit-trial","53","693307","0.0-2.0-11.3-1.3","battery-v0.2","","""event"",""trial"",""time""
""fullscreenenter"",""1"",""2383""
","
","
","""event"",""trial"",""time""
""fullscreenenter"",""1"",""2383""
","
","","","1198.2000000001863","","","10","6119","1321","&#9761;","elianto","#3366ff99","-1"," ","0","0","[2048.1999999997206]","1","0","2","","","","","","","",""
"pit-trial","54","696548","0.0-2.0-11.3-2.3","battery-v0.2","","""event"",""trial"",""time""
""fullscreenenter"",""1"",""2383""
","
","
","""event"",""trial"",""time""
""fullscreenenter"",""1"",""2383""
","
","","","371.29999999981374","","","10","6119","1321","&#9761;","elianto","#3366ff99","-1"," ","0","0","[1222.6000000000931]","1","0","2","","","","","","","",""
"pit-trial","55","700211","0.0-2.0-11.3-3.3","battery-v0.2","","""event"",""trial"",""time""
""fullscreenenter"",""1"",""2383""
","
","
","""event"",""trial"",""time""
""fullscreenenter"",""1"",""2383""
","
","","","793","","","10","6119","1321","&#9761;","elianto","#3366ff99","-1"," ","0","+10","[1648]","1","0","2","","","","","","","",""
"pit-trial","56","703331","0.0-2.0-11.3-4.3","battery-v0.2","","""event"",""trial"",""time""
""fullscreenenter"",""1"",""2383""
","
","
","""event"",""trial"",""time""
""fullscreenenter"",""1"",""2383""
","
","","","255.5","","","10","6119","1321","&#9761;","elianto","#3366ff99","-1"," ","0","0","[1108.5]","1","0","2","","","","","","","",""
"call-function","57","703337","0.0-2.0-12.0","battery-v0.2","","""event"",""trial"",""time""
""fullscreenenter"",""1"",""2383""
","
","
","""event"",""trial"",""time""
""fullscreenenter"",""1"",""2383""
","
","","","","","","","","","","","","","","","","","","","","","","","","","","",""
"pit-instructions","58","861974","0.0-2.0-13.0","battery-v0.2","","""event"",""trial"",""time""
""fullscreenenter"",""1"",""2383""
","
","
","""event"",""trial"",""time""
""fullscreenenter"",""1"",""2383""
","
","","[{""page_index"":0,""viewing_time"":9111.19999999972},{""page_index"":1,""viewing_time"":8134.700000000186},{""page_index"":2,""viewing_time"":3475.2999999998137},{""page_index"":3,""viewing_time"":131579.80000000028},{""page_index"":4,""viewing_time"":6328.799999999814}]","158633.09999999963","","","","","","","","","","","","","","","","","","","","","","","",""
"pit-trial","59","866843","0.0-2.0-14.0-0.0","battery-v0.2","","""event"",""trial"",""time""
""fullscreenenter"",""1"",""2383""
","
","
","""event"",""trial"",""time""
""fullscreenenter"",""1"",""2383""
","
","","","-1","","","10","6119","1321","&#9826;","elianto","#f73b6a7A","-1","-1","1","0","[]","0","0","3","","","","","","","",""
"pit-trial","60","871713","0.0-2.0-14.0-1.0","battery-v0.2","","""event"",""trial"",""time""
""fullscreenenter"",""1"",""2383""
","
","
","""event"",""trial"",""time""
""fullscreenenter"",""1"",""2383""
","
","","","-1","","","10","6119","1321","&#9826;","elianto","#f73b6a7A","-1","-1","1","0","[]","0","0","3","","","","","","","",""
"pit-trial","61","876578","0.0-2.0-14.0-2.0","battery-v0.2","","""event"",""trial"",""time""
""fullscreenenter"",""1"",""2383""
","
","
","""event"",""trial"",""time""
""fullscreenenter"",""1"",""2383""
","
","","","-1","","","10","6119","1321","&#9826;","elianto","#f73b6a7A","-1","-1","1","0","[]","0","0","3","","","","","","","",""
"pit-trial","62","881441","0.0-2.0-14.0-3.0","battery-v0.2","","""event"",""trial"",""time""
""fullscreenenter"",""1"",""2383""
","
","
","""event"",""trial"",""time""
""fullscreenenter"",""1"",""2383""
","
","","","-1","","","10","6119","1321","&#9826;","elianto","#f73b6a7A","-1","-1","1","-10","[]","0","0","3","","","","","","","",""
"pit-trial","63","886306","0.0-2.0-14.0-4.0","battery-v0.2","","""event"",""trial"",""time""
""fullscreenenter"",""1"",""2383""
","
","
","""event"",""trial"",""time""
""fullscreenenter"",""1"",""2383""
","
","","","-1","","","10","6119","1321","&#9826;","elianto","#f73b6a7A","-1","-1","1","0","[]","0","0","3","","","","","","","",""
"pit-trial","64","891180","0.0-2.0-14.1-0.1","battery-v0.2","","""event"",""trial"",""time""
""fullscreenenter"",""1"",""2383""
","
","
","""event"",""trial"",""time""
""fullscreenenter"",""1"",""2383""
","
","","","-1","","","10","6119","1321","&#9826;","elianto","#f73b6a7A","-1","-1","1","0","[]","0","0","3","","","","","","","",""
"pit-trial","65","896050","0.0-2.0-14.1-1.1","battery-v0.2","","""event"",""trial"",""time""
""fullscreenenter"",""1"",""2383""
","
","
","""event"",""trial"",""time""
""fullscreenenter"",""1"",""2383""
","
","","","-1","","","10","6119","1321","&#9826;","elianto","#f73b6a7A","-1","-1","1","0","[]","0","0","3","","","","","","","",""
"pit-trial","66","900922","0.0-2.0-14.1-2.1","battery-v0.2","","""event"",""trial"",""time""
""fullscreenenter"",""1"",""2383""
","
","
","""event"",""trial"",""time""
""fullscreenenter"",""1"",""2383""
","
","","","-1","","","10","6119","1321","&#9826;","elianto","#f73b6a7A","-1","-1","1","0","[]","0","0","3","","","","","","","",""
"pit-trial","67","905795","0.0-2.0-14.1-3.1","battery-v0.2","","""event"",""trial"",""time""
""fullscreenenter"",""1"",""2383""
","
","
","""event"",""trial"",""time""
""fullscreenenter"",""1"",""2383""
","
","","","-1","","","10","6119","1321","&#9826;","elianto","#f73b6a7A","-1","-1","1","-10","[]","0","0","3","","","","","","","",""
"pit-trial","68","910667","0.0-2.0-14.1-4.1","battery-v0.2","","""event"",""trial"",""time""
""fullscreenenter"",""1"",""2383""
","
","
","""event"",""trial"",""time""
""fullscreenenter"",""1"",""2383""
","
","","","-1","","","10","6119","1321","&#9826;","elianto","#f73b6a7A","-1","-1","1","0","[]","0","0","3","","","","","","","",""
"pit-trial","69","915538","0.0-2.0-14.2-0.2","battery-v0.2","","""event"",""trial"",""time""
""fullscreenenter"",""1"",""2383""
","
","
","""event"",""trial"",""time""
""fullscreenenter"",""1"",""2383""
","
","","","-1","","","10","6119","1321","&#9826;","elianto","#f73b6a7A","-1","-1","1","0","[]","0","0","3","","","","","","","",""
"pit-trial","70","920411","0.0-2.0-14.2-1.2","battery-v0.2","","""event"",""trial"",""time""
""fullscreenenter"",""1"",""2383""
","
","
","""event"",""trial"",""time""
""fullscreenenter"",""1"",""2383""
","
","","","-1","","","10","6119","1321","&#9826;","elianto","#f73b6a7A","-1","-1","1","0","[]","0","0","3","","","","","","","",""
"pit-trial","71","925282","0.0-2.0-14.2-2.2","battery-v0.2","","""event"",""trial"",""time""
""fullscreenenter"",""1"",""2383""
","
","
","""event"",""trial"",""time""
""fullscreenenter"",""1"",""2383""
","
","","","-1","","","10","6119","1321","&#9826;","elianto","#f73b6a7A","-1","-1","1","0","[]","0","0","3","","","","","","","",""
"pit-trial","72","930155","0.0-2.0-14.2-3.2","battery-v0.2","","""event"",""trial"",""time""
""fullscreenenter"",""1"",""2383""
","
","
","""event"",""trial"",""time""
""fullscreenenter"",""1"",""2383""
","
","","","-1","","","10","6119","1321","&#9826;","elianto","#f73b6a7A","-1","-1","1","-10","[]","0","0","3","","","","","","","",""
"pit-trial","73","935027","0.0-2.0-14.2-4.2","battery-v0.2","","""event"",""trial"",""time""
""fullscreenenter"",""1"",""2383""
","
","
","""event"",""trial"",""time""
""fullscreenenter"",""1"",""2383""
","
","","","-1","","","10","6119","1321","&#9826;","elianto","#f73b6a7A","-1","-1","1","0","[]","0","0","3","","","","","","","",""
"pit-trial","74","939899","0.0-2.0-14.3-0.3","battery-v0.2","","""event"",""trial"",""time""
""fullscreenenter"",""1"",""2383""
","
","
","""event"",""trial"",""time""
""fullscreenenter"",""1"",""2383""
","
","","","-1","","","10","6119","1321","&#9826;","elianto","#f73b6a7A","-1","-1","1","0","[]","0","0","3","","","","","","","",""
"pit-trial","75","944771","0.0-2.0-14.3-1.3","battery-v0.2","","""event"",""trial"",""time""
""fullscreenenter"",""1"",""2383""
","
","
","""event"",""trial"",""time""
""fullscreenenter"",""1"",""2383""
","
","","","-1","","","10","6119","1321","&#9826;","elianto","#f73b6a7A","-1","-1","1","0","[]","0","0","3","","","","","","","",""
"pit-trial","76","949643","0.0-2.0-14.3-2.3","battery-v0.2","","""event"",""trial"",""time""
""fullscreenenter"",""1"",""2383""
","
","
","""event"",""trial"",""time""
""fullscreenenter"",""1"",""2383""
","
","","","-1","","","10","6119","1321","&#9826;","elianto","#f73b6a7A","-1","-1","1","0","[]","0","0","3","","","","","","","",""
"pit-trial","77","954515","0.0-2.0-14.3-3.3","battery-v0.2","","""event"",""trial"",""time""
""fullscreenenter"",""1"",""2383""
","
","
","""event"",""trial"",""time""
""fullscreenenter"",""1"",""2383""
","
","","","-1","","","10","6119","1321","&#9826;","elianto","#f73b6a7A","-1","-1","1","-10","[]","0","0","3","","","","","","","",""
"pit-trial","78","959387","0.0-2.0-14.3-4.3","battery-v0.2","","""event"",""trial"",""time""
""fullscreenenter"",""1"",""2383""
","
","
","""event"",""trial"",""time""
""fullscreenenter"",""1"",""2383""
","
","","","-1","","","10","6119","1321","&#9826;","elianto","#f73b6a7A","-1","-1","1","0","[]","0","0","3","","","","","","","",""
"call-function","79","959393","0.0-2.0-15.0","battery-v0.2","","""event"",""trial"",""time""
""fullscreenenter"",""1"",""2383""
","
","
","""event"",""trial"",""time""
""fullscreenenter"",""1"",""2383""
","
","","","","","","","","","","","","","","","","","","","","","","","","","","",""
"pit-instructions","80","1093233","0.0-2.0-16.0","battery-v0.2","","""event"",""trial"",""time""
""fullscreenenter"",""1"",""2383""
","
","
","""event"",""trial"",""time""
""fullscreenenter"",""1"",""2383""
","
","","[{""page_index"":0,""viewing_time"":42067.10000000009},{""page_index"":1,""viewing_time"":22431.299999999814},{""page_index"":2,""viewing_time"":7936.100000000093},{""page_index"":3,""viewing_time"":61400.39999999991}]","133837.1000000001","","","","","","","","","","","","","","","","","","","","","","","",""
"pit-trial","81","1098106","0.0-2.0-17.0-0.0","battery-v0.2","","""event"",""trial"",""time""
""fullscreenenter"",""1"",""2383""
","
","
","""event"",""trial"",""time""
""fullscreenenter"",""1"",""2383""
","
","","","-1","","","10","6119","1321","&#9789;","elianto","#f73b6a7A"," ","-1","0","-10","[]","0","0","4","","","","","","","",""
"pit-trial","82","1102970","0.0-2.0-17.0-1.0","battery-v0.2","","""event"",""trial"",""time""
""fullscreenenter"",""1"",""2383""
","
","
","""event"",""trial"",""time""
""fullscreenenter"",""1"",""2383""
","
","","","-1","","","10","6119","1321","&#9789;","elianto","#f73b6a7A"," ","-1","0","-10","[]","0","0","4","","","","","","","",""
"pit-trial","83","1107842","0.0-2.0-17.0-2.0","battery-v0.2","","""event"",""trial"",""time""
""fullscreenenter"",""1"",""2383""
","
","
","""event"",""trial"",""time""
""fullscreenenter"",""1"",""2383""
","
","","","-1","","","10","6119","1321","&#9789;","elianto","#f73b6a7A"," ","-1","0","-10","[]","0","0","4","","","","","","","",""
"pit-trial","84","1112715","0.0-2.0-17.0-3.0","battery-v0.2","","""event"",""trial"",""time""
""fullscreenenter"",""1"",""2383""
","
","
","""event"",""trial"",""time""
""fullscreenenter"",""1"",""2383""
","
","","","-1","","","10","6119","1321","&#9789;","elianto","#f73b6a7A"," ","-1","0","0","[]","0","0","4","","","","","","","",""
"pit-trial","85","1117587","0.0-2.0-17.0-4.0","battery-v0.2","","""event"",""trial"",""time""
""fullscreenenter"",""1"",""2383""
","
","
","""event"",""trial"",""time""
""fullscreenenter"",""1"",""2383""
","
","","","-1","","","10","6119","1321","&#9789;","elianto","#f73b6a7A"," ","-1","0","-10","[]","0","0","4","","","","","","","",""
"pit-trial","86","1122459","0.0-2.0-17.1-0.1","battery-v0.2","","""event"",""trial"",""time""
""fullscreenenter"",""1"",""2383""
","
","
","""event"",""trial"",""time""
""fullscreenenter"",""1"",""2383""
","
","","","-1","","","10","6119","1321","&#9789;","elianto","#f73b6a7A"," ","-1","0","-10","[]","0","0","4","","","","","","","",""
"pit-trial","87","1127331","0.0-2.0-17.1-1.1","battery-v0.2","","""event"",""trial"",""time""
""fullscreenenter"",""1"",""2383""
","
","
","""event"",""trial"",""time""
""fullscreenenter"",""1"",""2383""
","
","","","-1","","","10","6119","1321","&#9789;","elianto","#f73b6a7A"," ","-1","0","-10","[]","0","0","4","","","","","","","",""
"pit-trial","88","1132201","0.0-2.0-17.1-2.1","battery-v0.2","","""event"",""trial"",""time""
""fullscreenenter"",""1"",""2383""
","
","
","""event"",""trial"",""time""
""fullscreenenter"",""1"",""2383""
","
","","","-1","","","10","6119","1321","&#9789;","elianto","#f73b6a7A"," ","-1","0","-10","[]","0","0","4","","","","","","","",""
"pit-trial","89","1137067","0.0-2.0-17.1-3.1","battery-v0.2","","""event"",""trial"",""time""
""fullscreenenter"",""1"",""2383""
","
","
","""event"",""trial"",""time""
""fullscreenenter"",""1"",""2383""
","
","","","-1","","","10","6119","1321","&#9789;","elianto","#f73b6a7A"," ","-1","0","0","[]","0","0","4","","","","","","","",""
"pit-trial","90","1141939","0.0-2.0-17.1-4.1","battery-v0.2","","""event"",""trial"",""time""
""fullscreenenter"",""1"",""2383""
","
","
","""event"",""trial"",""time""
""fullscreenenter"",""1"",""2383""
","
","","","-1","","","10","6119","1321","&#9789;","elianto","#f73b6a7A"," ","-1","0","-10","[]","0","0","4","","","","","","","",""
"pit-trial","91","1146811","0.0-2.0-17.2-0.2","battery-v0.2","","""event"",""trial"",""time""
""fullscreenenter"",""1"",""2383""
","
","
","""event"",""trial"",""time""
""fullscreenenter"",""1"",""2383""
","
","","","-1","","","10","6119","1321","&#9789;","elianto","#f73b6a7A"," ","-1","0","-10","[]","0","0","4","","","","","","","",""
"pit-trial","92","1151683","0.0-2.0-17.2-1.2","battery-v0.2","","""event"",""trial"",""time""
""fullscreenenter"",""1"",""2383""
","
","
","""event"",""trial"",""time""
""fullscreenenter"",""1"",""2383""
","
","","","-1","","","10","6119","1321","&#9789;","elianto","#f73b6a7A"," ","-1","0","-10","[]","0","0","4","","","","","","","",""
"pit-trial","93","1156555","0.0-2.0-17.2-2.2","battery-v0.2","","""event"",""trial"",""time""
""fullscreenenter"",""1"",""2383""
","
","
","""event"",""trial"",""time""
""fullscreenenter"",""1"",""2383""
","
","","","-1","","","10","6119","1321","&#9789;","elianto","#f73b6a7A"," ","-1","0","-10","[]","0","0","4","","","","","","","",""
"pit-trial","94","1161427","0.0-2.0-17.2-3.2","battery-v0.2","","""event"",""trial"",""time""
""fullscreenenter"",""1"",""2383""
","
","
","""event"",""trial"",""time""
""fullscreenenter"",""1"",""2383""
","
","","","-1","","","10","6119","1321","&#9789;","elianto","#f73b6a7A"," ","-1","0","0","[]","0","0","4","","","","","","","",""
"pit-trial","95","1166299","0.0-2.0-17.2-4.2","battery-v0.2","","""event"",""trial"",""time""
""fullscreenenter"",""1"",""2383""
","
","
","""event"",""trial"",""time""
""fullscreenenter"",""1"",""2383""
","
","","","-1","","","10","6119","1321","&#9789;","elianto","#f73b6a7A"," ","-1","0","-10","[]","0","0","4","","","","","","","",""
"pit-trial","96","1171171","0.0-2.0-17.3-0.3","battery-v0.2","","""event"",""trial"",""time""
""fullscreenenter"",""1"",""2383""
","
","
","""event"",""trial"",""time""
""fullscreenenter"",""1"",""2383""
","
","","","-1","","","10","6119","1321","&#9789;","elianto","#f73b6a7A"," ","-1","0","-10","[]","0","0","4","","","","","","","",""
"pit-trial","97","1176042","0.0-2.0-17.3-1.3","battery-v0.2","","""event"",""trial"",""time""
""fullscreenenter"",""1"",""2383""
","
","
","""event"",""trial"",""time""
""fullscreenenter"",""1"",""2383""
","
","","","-1","","","10","6119","1321","&#9789;","elianto","#f73b6a7A"," ","-1","0","-10","[]","0","0","4","","","","","","","",""
"pit-trial","98","1180907","0.0-2.0-17.3-2.3","battery-v0.2","","""event"",""trial"",""time""
""fullscreenenter"",""1"",""2383""
","
","
","""event"",""trial"",""time""
""fullscreenenter"",""1"",""2383""
","
","","","-1","","","10","6119","1321","&#9789;","elianto","#f73b6a7A"," ","-1","0","-10","[]","0","0","4","","","","","","","",""
"pit-trial","99","1185778","0.0-2.0-17.3-3.3","battery-v0.2","","""event"",""trial"",""time""
""fullscreenenter"",""1"",""2383""
","
","
","""event"",""trial"",""time""
""fullscreenenter"",""1"",""2383""
","
","","","-1","","","10","6119","1321","&#9789;","elianto","#f73b6a7A"," ","-1","0","0","[]","0","0","4","","","","","","","",""
"pit-trial","100","1190650","0.0-2.0-17.3-4.3","battery-v0.2","","""event"",""trial"",""time""
""fullscreenenter"",""1"",""2383""
","
","
","""event"",""trial"",""time""
""fullscreenenter"",""1"",""2383""
","
","","","-1","","","10","6119","1321","&#9789;","elianto","#f73b6a7A"," ","-1","0","-10","[]","0","0","4","","","","","","","",""
"call-function","101","1190656","0.0-2.0-18.0","battery-v0.2","","""event"",""trial"",""time""
""fullscreenenter"",""1"",""2383""
","
","
","""event"",""trial"",""time""
""fullscreenenter"",""1"",""2383""
","
","","","","","","","","","","","","","","","","","","","","","","","","","","",""
"pit-instructions","102","1281285","0.0-2.0-19.0","battery-v0.2","","""event"",""trial"",""time""
""fullscreenenter"",""1"",""2383""
","
","
","""event"",""trial"",""time""
""fullscreenenter"",""1"",""2383""
","
","","[{""page_index"":0,""viewing_time"":8189.199999999721},{""page_index"":1,""viewing_time"":8494.5},{""page_index"":2,""viewing_time"":15303.700000000186},{""page_index"":3,""viewing_time"":12003.100000000093},{""page_index"":4,""viewing_time"":16646.5},{""page_index"":5,""viewing_time"":8948.799999999814},{""page_index"":6,""viewing_time"":9140.5},{""page_index"":7,""viewing_time"":6708.700000000186},{""page_index"":8,""viewing_time"":5189.699999999721}]","90627.19999999972","","","","","","","","","","","","","","","","","","","","","","","",""
"pit-comprehension","103","1290969","0.0-2.0-20.0-0.0","battery-v0.2","","""event"",""trial"",""time""
""fullscreenenter"",""1"",""2383""
","
","
","""event"",""trial"",""time""
""fullscreenenter"",""1"",""2383""
","
","","","9670.799999999814","[""SPACE""]","0","10","6119","1321","","","","","","","","","","","","","","","","","","",""
"pit-instructions","104","1294500","0.0-2.0-20.0-1.0","battery-v0.2","","""event"",""trial"",""time""
""fullscreenenter"",""1"",""2383""
","
","
","""event"",""trial"",""time""
""fullscreenenter"",""1"",""2383""
","
","","[{""page_index"":0,""viewing_time"":3463.100000000093}]","3466.2000000001863","","","","","","","","","","","","","","","","","","","","","","","",""
"pit-comprehension","105","1301033","0.0-2.0-21.0-0.0","battery-v0.2","","""event"",""trial"",""time""
""fullscreenenter"",""1"",""2383""
","
","
","""event"",""trial"",""time""
""fullscreenenter"",""1"",""2383""
","
","","","6520.399999999907","[""10""]","0","10","6119","1321","","","","","","","","","","","","","","","","","","",""
"pit-instructions","106","1302726","0.0-2.0-21.0-1.0","battery-v0.2","","""event"",""trial"",""time""
""fullscreenenter"",""1"",""2383""
","
","
","""event"",""trial"",""time""
""fullscreenenter"",""1"",""2383""
","
","","[{""page_index"":0,""viewing_time"":1620.7000000001863}]","1623.6000000000931","","","","","","","","","","","","","","","","","","","","","","","",""
"pit-comprehension","107","1308866","0.0-2.0-22.0-0.0","battery-v0.2","","""event"",""trial"",""time""
""fullscreenenter"",""1"",""2383""
","
","
","""event"",""trial"",""time""
""fullscreenenter"",""1"",""2383""
","
","","","6128.100000000093","[""0""]","0","10","6119","1321","","","","","","","","","","","","","","","","","","",""
"pit-instructions","108","1310278","0.0-2.0-22.0-1.0","battery-v0.2","","""event"",""trial"",""time""
""fullscreenenter"",""1"",""2383""
","
","
","""event"",""trial"",""time""
""fullscreenenter"",""1"",""2383""
","
","","[{""page_index"":0,""viewing_time"":1355.5}]","1357","","","","","","","","","","","","","","","","","","","","","","","",""
"pit-comprehension","109","1322749","0.0-2.0-23.0-0.0","battery-v0.2","","""event"",""trial"",""time""
""fullscreenenter"",""1"",""2383""
","
","
","""event"",""trial"",""time""
""fullscreenenter"",""1"",""2383""
","
","","","12461.200000000186","[""False""]","1","10","6119","1321","","","","","","","","","","","","","","","","","","",""
"pit-instructions","110","1324296","0.0-2.0-23.0-1.0","battery-v0.2","","""event"",""trial"",""time""
""fullscreenenter"",""1"",""2383""
","
","
","""event"",""trial"",""time""
""fullscreenenter"",""1"",""2383""
","
","","[{""page_index"":0,""viewing_time"":1473.3999999999069}]","1476.1999999997206","","","","","","","","","","","","","","","","","","","","","","","",""
"pit-instructions","111","1325500","0.0-2.0-23.0-2.0-0.0","battery-v0.2","","""event"",""trial"",""time""
""fullscreenenter"",""1"",""2383""
","
","
","""event"",""trial"",""time""
""fullscreenenter"",""1"",""2383""
","
","","[{""page_index"":0,""viewing_time"":1197.3999999999069}]","1199.3999999999069","","","","","","","","","","","","","","","","","","","","","","","",""
"pit-comprehension","112","1333552","0.0-2.0-23.1-0.1","battery-v0.2","","""event"",""trial"",""time""
""fullscreenenter"",""1"",""2383""
","
","
","""event"",""trial"",""time""
""fullscreenenter"",""1"",""2383""
","
","","","8041.5","[""True""]","0","10","6119","1321","","","","","","","","","","","","","","","","","","",""
"pit-instructions","113","1338887","0.0-2.0-23.1-1.1","battery-v0.2","","""event"",""trial"",""time""
""fullscreenenter"",""1"",""2383""
","
","
","""event"",""trial"",""time""
""fullscreenenter"",""1"",""2383""
","
","","[{""page_index"":0,""viewing_time"":5259.499999999534}]","5260.699999999721","","","","","","","","","","","","","","","","","","","","","","","",""
"pit-comprehension","114","1354050","0.0-2.0-24.0-0.0","battery-v0.2","","""event"",""trial"",""time""
""fullscreenenter"",""1"",""2383""
","
","
","""event"",""trial"",""time""
""fullscreenenter"",""1"",""2383""
","
","","","15151.599999999627","[""True""]","0","10","6119","1321","","","","","","","","","","","","","","","","","","",""
"pit-instructions","115","1358060","0.0-2.0-24.0-1.0","battery-v0.2","","""event"",""trial"",""time""
""fullscreenenter"",""1"",""2383""
","
","
","""event"",""trial"",""time""
""fullscreenenter"",""1"",""2383""
","
","","[{""page_index"":0,""viewing_time"":3944.7000000001863}]","3947.4000000003725","","","","","","","","","","","","","","","","","","","","","","","",""
"pit-comprehension","116","1370473","0.0-2.0-25.0-0.0","battery-v0.2","","""event"",""trial"",""time""
""fullscreenenter"",""1"",""2383""
","
","
","""event"",""trial"",""time""
""fullscreenenter"",""1"",""2383""
","
","","","12400.200000000186","[""True""]","0","10","6119","1321","","","","","","","","","","","","","","","","","","",""
"pit-instructions","117","1374976","0.0-2.0-25.0-1.0","battery-v0.2","","""event"",""trial"",""time""
""fullscreenenter"",""1"",""2383""
","
","
","""event"",""trial"",""time""
""fullscreenenter"",""1"",""2383""
","
","","[{""page_index"":0,""viewing_time"":4429.399999999441}]","4432.0999999996275","","","","","","","","","","","","","","","","","","","","","","","",""
"pit-comprehension","118","1401797","0.0-2.0-26.0-0.0","battery-v0.2","","""event"",""trial"",""time""
""fullscreenenter"",""1"",""2383""
","
","
","""event"",""trial"",""time""
""fullscreenenter"",""1"",""2383""
","
","","","26810","[""True""]","1","10","6119","1321","","","","","","","","","","","","","","","","","","",""
"pit-instructions","119","1410273","0.0-2.0-26.0-1.0","battery-v0.2","","""event"",""trial"",""time""
""fullscreenenter"",""1"",""2383""
","
","
","""event"",""trial"",""time""
""fullscreenenter"",""1"",""2383""
","
","","[{""page_index"":0,""viewing_time"":8399.800000000745}]","8400.900000000373","","","","","","","","","","","","","","","","","","","","","","","",""
"pit-instructions","120","1411274","0.0-2.0-26.0-2.0-0.0","battery-v0.2","","""event"",""trial"",""time""
""fullscreenenter"",""1"",""2383""
","
","
","""event"",""trial"",""time""
""fullscreenenter"",""1"",""2383""
","
","","[{""page_index"":0,""viewing_time"":994.5}]","995.8999999994412","","","","","","","","","","","","","","","","","","","","","","","",""
"pit-comprehension","121","1418668","0.0-2.0-26.1-0.1","battery-v0.2","","""event"",""trial"",""time""
""fullscreenenter"",""1"",""2383""
","
","
","""event"",""trial"",""time""
""fullscreenenter"",""1"",""2383""
","
","","","7368","[""False""]","0","10","6119","1321","","","","","","","","","","","","","","","","","","",""
"pit-instructions","122","1425776","0.0-2.0-26.1-1.1","battery-v0.2","","""event"",""trial"",""time""
""fullscreenenter"",""1"",""2383""
","
","
","""event"",""trial"",""time""
""fullscreenenter"",""1"",""2383""
","
","","[{""page_index"":0,""viewing_time"":7043.9000000003725}]","7045.9000000003725","","","","","","","","","","","","","","","","","","","","","","","",""
"pit-instructions","123","1447392","0.0-3.0","battery-v0.2","","""event"",""trial"",""time""
""fullscreenenter"",""1"",""2383""
","
","
","""event"",""trial"",""time""
""fullscreenenter"",""1"",""2383""
","
","","[{""page_index"":0,""viewing_time"":6580.799999999814},{""page_index"":1,""viewing_time"":6931.9000000003725},{""page_index"":2,""viewing_time"":8095.299999999814}]","21611","","","","","","","","","","","","","","","","","","","","","","","",""
"pit-trial","124","1451401","0.0-4.0","battery-v0.2","","""event"",""trial"",""time""
""fullscreenenter"",""1"",""2383""
","
","
","""event"",""trial"",""time""
""fullscreenenter"",""1"",""2383""
","
","","","1138.5999999996275","","","10","6119","1321","&#9730;","elianto","#3366ff99"," "," ","1","0","[1989.7000000001863]","1","1","","","6119","1","1","1","win","go","1"
"pit-trial","125","1455378","0.0-5.0","battery-v0.2","","""event"",""trial"",""time""
""fullscreenenter"",""1"",""2383""
","
","
","""event"",""trial"",""time""
""fullscreenenter"",""1"",""2383""
","
","","","1115.5","","","10","6119","1321","&#9733;","elianto","#3366ff99","-1"," ","0","0","[1966.1000000005588]","1","1","","","6119","2","2","2","win","no-go","0"
"pit-trial","126","1460249","0.0-6.0","battery-v0.2","","""event"",""trial"",""time""
""fullscreenenter"",""1"",""2383""
","
","
","""event"",""trial"",""time""
""fullscreenenter"",""1"",""2383""
","
","","","-1","","","10","6119","1321","&#9752;","elianto","#f73b6a7A"," ","-1","0","-10","[]","0","1","","","6119","3","3","3","lose","go","0"
"pit-trial","127","1465114","0.0-7.0","battery-v0.2","","""event"",""trial"",""time""
""fullscreenenter"",""1"",""2383""
","
","
","""event"",""trial"",""time""
""fullscreenenter"",""1"",""2383""
","
","","","-1","","","10","6119","1321","&#9728;","elianto","#f73b6a7A","-1","-1","1","-10","[]","0","1","","","6119","4","0","4","lose","no-go","1"
"pit-trial","128","1469978","0.0-8.0","battery-v0.2","","""event"",""trial"",""time""
""fullscreenenter"",""1"",""2383""
","
","
","""event"",""trial"",""time""
""fullscreenenter"",""1"",""2383""
","
","","","-1","","","10","6119","1321","&#9728;","elianto","#f73b6a7A","-1","-1","1","0","[]","0","1","","","6119","5","0","4","lose","no-go","0"
"pit-trial","129","1474849","0.0-9.0","battery-v0.2","","""event"",""trial"",""time""
""fullscreenenter"",""1"",""2383""
","
","
","""event"",""trial"",""time""
""fullscreenenter"",""1"",""2383""
","
","","","-1","","","10","6119","1321","&#9730;","elianto","#3366ff99"," ","-1","0","0","[3910.7999999998137]","1","1","","","6119","6","1","1","win","go","0"
"pit-trial","130","1478851","0.0-10.0","battery-v0.2","","""event"",""trial"",""time""
""fullscreenenter"",""1"",""2383""
","
","
","""event"",""trial"",""time""
""fullscreenenter"",""1"",""2383""
","
","","","1142.2000000001863","","","10","6119","1321","&#9733;","elianto","#3366ff99","-1"," ","0","0","[1993.7999999998137]","1","1","","","6119","7","2","2","win","no-go","0"
"pit-trial","131","1483723","0.0-11.0","battery-v0.2","","""event"",""trial"",""time""
""fullscreenenter"",""1"",""2383""
","
","
","""event"",""trial"",""time""
""fullscreenenter"",""1"",""2383""
","
","","","-1","","","10","6119","1321","&#9752;","elianto","#f73b6a7A"," ","-1","0","-10","[]","0","1","","","6119","8","3","3","lose","go","0"
"pit-trial","132","1487803","0.0-12.0","battery-v0.2","","""event"",""trial"",""time""
""fullscreenenter"",""1"",""2383""
","
","
","""event"",""trial"",""time""
""fullscreenenter"",""1"",""2383""
","
","","","1212.7999999998137","","","10","6119","1321","&#9730;","elianto","#3366ff99"," "," ","1","0","[2068.4000000003725]","1","1","","","6119","9","1","1","win","go","1"
"pit-trial","133","1492674","0.0-13.0","battery-v0.2","","""event"",""trial"",""time""
""fullscreenenter"",""1"",""2383""
","
","
","""event"",""trial"",""time""
""fullscreenenter"",""1"",""2383""
","
","","","-1","","","10","6119","1321","&#9728;","elianto","#f73b6a7A","-1","-1","1","0","[]","0","1","","","6119","10","0","4","lose","no-go","0"
"pit-trial","134","1497547","0.0-14.0","battery-v0.2","","""event"",""trial"",""time""
""fullscreenenter"",""1"",""2383""
","
","
","""event"",""trial"",""time""
""fullscreenenter"",""1"",""2383""
","
","","","-1","","","10","6119","1321","&#9733;","elianto","#3366ff99","-1","-1","1","+10","[]","0","1","","","6119","11","2","2","win","no-go","0"
"pit-trial","135","1502419","0.0-15.0","battery-v0.2","","""event"",""trial"",""time""
""fullscreenenter"",""1"",""2383""
","
","
","""event"",""trial"",""time""
""fullscreenenter"",""1"",""2383""
","
","","","-1","","","10","6119","1321","&#9752;","elianto","#f73b6a7A"," ","-1","0","-10","[]","0","1","","","6119","12","3","3","lose","go","0"
"pit-trial","136","1507291","0.0-16.0","battery-v0.2","","""event"",""trial"",""time""
""fullscreenenter"",""1"",""2383""
","
","
","""event"",""trial"",""time""
""fullscreenenter"",""1"",""2383""
","
","","","-1","","","10","6119","1321","&#9752;","elianto","#f73b6a7A"," ","-1","0","-10","[]","0","1","","","6119","13","3","3","lose","go","0"
"pit-trial","137","1512163","0.0-17.0","battery-v0.2","","""event"",""trial"",""time""
""fullscreenenter"",""1"",""2383""
","
","
","""event"",""trial"",""time""
""fullscreenenter"",""1"",""2383""
","
","","","-1","","","10","6119","1321","&#9733;","elianto","#3366ff99","-1","-1","1","+10","[]","0","1","","","6119","14","2","2","win","no-go","0"
"pit-trial","138","1517035","0.0-18.0","battery-v0.2","","""event"",""trial"",""time""
""fullscreenenter"",""1"",""2383""
","
","
","""event"",""trial"",""time""
""fullscreenenter"",""1"",""2383""
","
","","","-1","","","10","6119","1321","&#9730;","elianto","#3366ff99"," ","-1","0","0","[]","0","1","","","6119","15","1","1","win","go","0"
"pit-trial","139","1521907","0.0-19.0","battery-v0.2","","""event"",""trial"",""time""
""fullscreenenter"",""1"",""2383""
","
","
","""event"",""trial"",""time""
""fullscreenenter"",""1"",""2383""
","
","","","-1","","","10","6119","1321","&#9728;","elianto","#f73b6a7A","-1","-1","1","0","[]","0","1","","","6119","16","0","4","lose","no-go","0"
"pit-trial","140","1526779","0.0-20.0","battery-v0.2","","""event"",""trial"",""time""
""fullscreenenter"",""1"",""2383""
","
","
","""event"",""trial"",""time""
""fullscreenenter"",""1"",""2383""
","
","","","-1","","","10","6119","1321","&#9733;","elianto","#3366ff99","-1","-1","1","+10","[]","0","1","","","6119","17","2","2","win","no-go","0"
"pit-trial","141","1531651","0.0-21.0","battery-v0.2","","""event"",""trial"",""time""
""fullscreenenter"",""1"",""2383""
","
","
","""event"",""trial"",""time""
""fullscreenenter"",""1"",""2383""
","
","","","-1","","","10","6119","1321","&#9728;","elianto","#f73b6a7A","-1","-1","1","0","[]","0","1","","","6119","18","0","4","lose","no-go","0"
"pit-trial","142","1536523","0.0-22.0","battery-v0.2","","""event"",""trial"",""time""
""fullscreenenter"",""1"",""2383""
","
","
","""event"",""trial"",""time""
""fullscreenenter"",""1"",""2383""
","
","","","-1","","","10","6119","1321","&#9752;","elianto","#f73b6a7A"," ","-1","0","-10","[171.5]","1","1","","","6119","19","3","3","lose","go","0"
"pit-trial","143","1540483","0.0-23.0","battery-v0.2","","""event"",""trial"",""time""
""fullscreenenter"",""1"",""2383""
","
","
","""event"",""trial"",""time""
""fullscreenenter"",""1"",""2383""
","
","","","1096.0999999996275","","","10","6119","1321","&#9730;","elianto","#3366ff99"," "," ","1","0","[1947.2000000001863]","1","1","","","6119","20","1","1","win","go","1"
"pit-instructions","144","1616748","0.0-24.0","battery-v0.2","","""event"",""trial"",""time""
""fullscreenenter"",""1"",""2383""
","
","
","""event"",""trial"",""time""
""fullscreenenter"",""1"",""2383""
","
","","[{""page_index"":0,""viewing_time"":69219.79999999981},{""page_index"":1,""viewing_time"":7038}]","76259.90000000037","","","","","","","","","","","","","","","","","","","","","","","",""
"pit-trial","145","1621618","0.0-25.0","battery-v0.2","","""event"",""trial"",""time""
""fullscreenenter"",""1"",""2383""
","
","
","""event"",""trial"",""time""
""fullscreenenter"",""1"",""2383""
","
","","","-1","","","10","6119","1321","e","elianto","#f73b6a7A","-1","-1","1","0","[]","0","2","","","6119","21","2","4","lose","no-go","0"
"pit-trial","146","1626482","0.0-26.0","battery-v0.2","","""event"",""trial"",""time""
""fullscreenenter"",""1"",""2383""
","
","
","""event"",""trial"",""time""
""fullscreenenter"",""1"",""2383""
","
","","","-1","","","10","6119","1321","j","elianto","#f73b6a7A","-1","-1","1","0","[]","0","2","","","6119","22","0","4","lose","no-go","0"
"pit-trial","147","1630905","0.0-27.0","battery-v0.2","","""event"",""trial"",""time""
""fullscreenenter"",""1"",""2383""
","
","
","""event"",""trial"",""time""
""fullscreenenter"",""1"",""2383""
","
","","","1557.0999999996275","","","10","6119","1321","d","elianto","#3366ff99"," "," ","1","+10","[2413.2000000001863]","1","2","","","6119","23","1","1","win","go","0"
"pit-trial","148","1635771","0.0-28.0","battery-v0.2","","""event"",""trial"",""time""
""fullscreenenter"",""1"",""2383""
","
","
","""event"",""trial"",""time""
""fullscreenenter"",""1"",""2383""
","
","","","-1","","","10","6119","1321","w","elianto","#f73b6a7A"," ","-1","0","0","[]","0","2","","","6119","24","3","3","lose","go","1"
"pit-trial","149","1640634","0.0-29.0","battery-v0.2","","""event"",""trial"",""time""
""fullscreenenter"",""1"",""2383""
","
","
","""event"",""trial"",""time""
""fullscreenenter"",""1"",""2383""
","
","","","-1","","","10","6119","1321","w","elianto","#f73b6a7A"," ","-1","0","-10","[]","0","2","","","6119","25","3","3","lose","go","0"
"pit-trial","150","1645370","0.0-30.0","battery-v0.2","","""event"",""trial"",""time""
""fullscreenenter"",""1"",""2383""
","
","
","""event"",""trial"",""time""
""fullscreenenter"",""1"",""2383""
","
","","","1866.5","","","10","6119","1321","d","elianto","#3366ff99"," "," ","1","0","[2724.0999999996275]","1","2","","","6119","26","1","1","win","go","1"
"pit-trial","151","1650243","0.0-31.0","battery-v0.2","","""event"",""trial"",""time""
""fullscreenenter"",""1"",""2383""
","
","
","""event"",""trial"",""time""
""fullscreenenter"",""1"",""2383""
","
","","","-1","","","10","6119","1321","e","elianto","#f73b6a7A","-1","-1","1","0","[]","0","2","","","6119","27","2","4","lose","no-go","0"
"pit-trial","152","1655115","0.0-32.0","battery-v0.2","","""event"",""trial"",""time""
""fullscreenenter"",""1"",""2383""
","
","
","""event"",""trial"",""time""
""fullscreenenter"",""1"",""2383""
","
","","","-1","","","10","6119","1321","j","elianto","#f73b6a7A","-1","-1","1","0","[]","0","2","","","6119","28","0","4","lose","no-go","0"
"pit-trial","153","1659987","0.0-33.0","battery-v0.2","","""event"",""trial"",""time""
""fullscreenenter"",""1"",""2383""
","
","
","""event"",""trial"",""time""
""fullscreenenter"",""1"",""2383""
","
","","","-1","","","10","6119","1321","e","elianto","#f73b6a7A","-1","-1","1","0","[]","0","2","","","6119","29","2","4","lose","no-go","0"
"pit-trial","154","1664411","0.0-34.0","battery-v0.2","","""event"",""trial"",""time""
""fullscreenenter"",""1"",""2383""
","
","
","""event"",""trial"",""time""
""fullscreenenter"",""1"",""2383""
","
","","","1561.9000000003725","","","10","6119","1321","d","elianto","#3366ff99"," "," ","1","+10","[2413]","1","2","","","6119","30","1","1","win","go","0"
"pit-trial","155","1669282","0.0-35.0","battery-v0.2","","""event"",""trial"",""time""
""fullscreenenter"",""1"",""2383""
","
","
","""event"",""trial"",""time""
""fullscreenenter"",""1"",""2383""
","
","","","-1","","","10","6119","1321","j","elianto","#f73b6a7A","-1","-1","1","0","[]","0","2","","","6119","31","0","4","lose","no-go","0"
"pit-trial","156","1674155","0.0-36.0","battery-v0.2","","""event"",""trial"",""time""
""fullscreenenter"",""1"",""2383""
","
","
","""event"",""trial"",""time""
""fullscreenenter"",""1"",""2383""
","
","","","-1","","","10","6119","1321","w","elianto","#f73b6a7A"," ","-1","0","-10","[]","0","2","","","6119","32","3","3","lose","go","0"
"pit-trial","157","1679027","0.0-37.0","battery-v0.2","","""event"",""trial"",""time""
""fullscreenenter"",""1"",""2383""
","
","
","""event"",""trial"",""time""
""fullscreenenter"",""1"",""2383""
","
","","","-1","","","10","6119","1321","d","elianto","#3366ff99"," ","-1","0","0","[3252.0999999996275]","1","2","","","6119","33","1","1","win","go","0"
"pit-trial","158","1683899","0.0-38.0","battery-v0.2","","""event"",""trial"",""time""
""fullscreenenter"",""1"",""2383""
","
","
","""event"",""trial"",""time""
""fullscreenenter"",""1"",""2383""
","
","","","-1","","","10","6119","1321","e","elianto","#f73b6a7A","-1","-1","1","0","[]","0","2","","","6119","34","2","4","lose","no-go","0"
"pit-trial","159","1688771","0.0-39.0","battery-v0.2","","""event"",""trial"",""time""
""fullscreenenter"",""1"",""2383""
","
","
","""event"",""trial"",""time""
""fullscreenenter"",""1"",""2383""
","
","","","-1","","","10","6119","1321","w","elianto","#f73b6a7A"," ","-1","0","-10","[]","0","2","","","6119","35","3","3","lose","go","0"
"pit-trial","160","1693643","0.0-40.0","battery-v0.2","","""event"",""trial"",""time""
""fullscreenenter"",""1"",""2383""
","
","
","""event"",""trial"",""time""
""fullscreenenter"",""1"",""2383""
","
","","","-1","","","10","6119","1321","j","elianto","#f73b6a7A","-1","-1","1","0","[]","0","2","","","6119","36","0","4","lose","no-go","0"
"pit-trial","161","1698515","0.0-41.0","battery-v0.2","","""event"",""trial"",""time""
""fullscreenenter"",""1"",""2383""
","
","
","""event"",""trial"",""time""
""fullscreenenter"",""1"",""2383""
","
","","","-1","","","10","6119","1321","w","elianto","#f73b6a7A"," ","-1","0","-10","[]","0","2","","","6119","37","3","3","lose","go","0"
"pit-trial","162","1702347","0.0-42.0","battery-v0.2","","""event"",""trial"",""time""
""fullscreenenter"",""1"",""2383""
","
","
","""event"",""trial"",""time""
""fullscreenenter"",""1"",""2383""
","
","","","965.7999999998137","","","10","6119","1321","d","elianto","#3366ff99"," "," ","1","+10","[1820.5999999996275]","1","2","","","6119","38","1","1","win","go","0"
"pit-trial","163","1707218","0.0-43.0","battery-v0.2","","""event"",""trial"",""time""
""fullscreenenter"",""1"",""2383""
","
","
","""event"",""trial"",""time""
""fullscreenenter"",""1"",""2383""
","
","","","-1","","","10","6119","1321","e","elianto","#f73b6a7A","-1","-1","1","0","[]","0","2","","","6119","39","2","4","lose","no-go","0"
"pit-trial","164","1712091","0.0-44.0","battery-v0.2","","""event"",""trial"",""time""
""fullscreenenter"",""1"",""2383""
","
","
","""event"",""trial"",""time""
""fullscreenenter"",""1"",""2383""
","
","","","-1","","","10","6119","1321","j","elianto","#f73b6a7A","-1","-1","1","-10","[]","0","2","","","6119","40","0","4","lose","no-go","1"
"pit-trial","165","1716963","0.0-45.0","battery-v0.2","","""event"",""trial"",""time""
""fullscreenenter"",""1"",""2383""
","
","
","""event"",""trial"",""time""
""fullscreenenter"",""1"",""2383""
","
","","","-1","","","10","6119","1321","j","elianto","#f73b6a7A","-1","-1","1","0","[]","0","2","","","6119","41","0","4","lose","no-go","0"
"pit-trial","166","1721834","0.0-46.0","battery-v0.2","","""event"",""trial"",""time""
""fullscreenenter"",""1"",""2383""
","
","
","""event"",""trial"",""time""
""fullscreenenter"",""1"",""2383""
","
","","","-1","","","10","6119","1321","w","elianto","#f73b6a7A"," ","-1","0","0","[]","0","2","","","6119","42","3","3","lose","go","1"
"pit-trial","167","1726708","0.0-47.0","battery-v0.2","","""event"",""trial"",""time""
""fullscreenenter"",""1"",""2383""
","
","
","""event"",""trial"",""time""
""fullscreenenter"",""1"",""2383""
","
","","","-1","","","10","6119","1321","e","elianto","#f73b6a7A","-1","-1","1","0","[]","0","2","","","6119","43","2","4","lose","no-go","0"
"pit-trial","168","1730371","0.0-48.0","battery-v0.2","","""event"",""trial"",""time""
""fullscreenenter"",""1"",""2383""
","
","
","""event"",""trial"",""time""
""fullscreenenter"",""1"",""2383""
","
","","","800.2999999998137","","","10","6119","1321","d","elianto","#3366ff99"," "," ","1","+10","[1651.6000000005588]","1","2","","","6119","44","1","1","win","go","0"
"pit-trial","169","1735242","0.0-49.0","battery-v0.2","","""event"",""trial"",""time""
""fullscreenenter"",""1"",""2383""
","
","
","""event"",""trial"",""time""
""fullscreenenter"",""1"",""2383""
","
","","","-1","","","10","6119","1321","j","elianto","#f73b6a7A","-1","-1","1","0","[]","0","2","","","6119","45","0","4","lose","no-go","0"
"pit-trial","170","1740115","0.0-50.0","battery-v0.2","","""event"",""trial"",""time""
""fullscreenenter"",""1"",""2383""
","
","
","""event"",""trial"",""time""
""fullscreenenter"",""1"",""2383""
","
","","","-1","","","10","6119","1321","e","elianto","#f73b6a7A","-1","-1","1","0","[]","0","2","","","6119","46","2","4","lose","no-go","0"
"pit-trial","171","1744987","0.0-51.0","battery-v0.2","","""event"",""trial"",""time""
""fullscreenenter"",""1"",""2383""
","
","
","""event"",""trial"",""time""
""fullscreenenter"",""1"",""2383""
","
","","","-1","","","10","6119","1321","w","elianto","#f73b6a7A"," ","-1","0","-10","[]","0","2","","","6119","47","3","3","lose","go","0"
"pit-trial","172","1748987","0.0-52.0","battery-v0.2","","""event"",""trial"",""time""
""fullscreenenter"",""1"",""2383""
","
","
","""event"",""trial"",""time""
""fullscreenenter"",""1"",""2383""
","
","","","1126.7999999998137","","","10","6119","1321","s","elianto","#3366ff99","-1"," ","0","0","[1982.800000000745]","1","2","","","6119","48","4","2","win","no-go","0"
"pit-trial","173","1753859","0.0-53.0","battery-v0.2","","""event"",""trial"",""time""
""fullscreenenter"",""1"",""2383""
","
","
","""event"",""trial"",""time""
""fullscreenenter"",""1"",""2383""
","
","","","-1","","","10","6119","1321","w","elianto","#f73b6a7A"," ","-1","0","0","[]","0","2","","","6119","49","3","3","lose","go","1"
"pit-trial","174","1758731","0.0-54.0","battery-v0.2","","""event"",""trial"",""time""
""fullscreenenter"",""1"",""2383""
","
","
","""event"",""trial"",""time""
""fullscreenenter"",""1"",""2383""
","
","","","-1","","","10","6119","1321","s","elianto","#3366ff99","-1","-1","1","+10","[]","0","2","","","6119","50","4","2","win","no-go","0"
"pit-trial","175","1762996","0.0-55.0","battery-v0.2","","""event"",""trial"",""time""
""fullscreenenter"",""1"",""2383""
","
","
","""event"",""trial"",""time""
""fullscreenenter"",""1"",""2383""
","
","","","1397.7999999998137","","","10","6119","1321","d","elianto","#3366ff99"," "," ","1","0","[2253.7999999998137]","1","2","","","6119","51","1","1","win","go","1"
"pit-trial","176","1767867","0.0-56.0","battery-v0.2","","""event"",""trial"",""time""
""fullscreenenter"",""1"",""2383""
","
","
","""event"",""trial"",""time""
""fullscreenenter"",""1"",""2383""
","
","","","-1","","","10","6119","1321","j","elianto","#f73b6a7A","-1","-1","1","0","[]","0","2","","","6119","52","0","4","lose","no-go","0"
"pit-trial","177","1772099","0.0-57.0","battery-v0.2","","""event"",""trial"",""time""
""fullscreenenter"",""1"",""2383""
","
","
","""event"",""trial"",""time""
""fullscreenenter"",""1"",""2383""
","
","","","1362.3999999994412","","","10","6119","1321","d","elianto","#3366ff99"," "," ","1","+10","[2216]","1","2","","","6119","53","1","1","win","go","0"
"pit-trial","178","1776971","0.0-58.0","battery-v0.2","","""event"",""trial"",""time""
""fullscreenenter"",""1"",""2383""
","
","
","""event"",""trial"",""time""
""fullscreenenter"",""1"",""2383""
","
","","","-1","","","10","6119","1321","e","elianto","#f73b6a7A","-1","-1","1","0","[]","0","2","","","6119","54","2","4","lose","no-go","0"
"pit-trial","179","1781259","0.0-59.0","battery-v0.2","","""event"",""trial"",""time""
""fullscreenenter"",""1"",""2383""
","
","
","""event"",""trial"",""time""
""fullscreenenter"",""1"",""2383""
","
","","","1415.3999999994412","","","10","6119","1321","s","elianto","#3366ff99","-1"," ","0","0","[2270.2000000001863]","1","2","","","6119","55","4","2","win","no-go","0"
"pit-trial","180","1786131","0.0-60.0","battery-v0.2","","""event"",""trial"",""time""
""fullscreenenter"",""1"",""2383""
","
","
","""event"",""trial"",""time""
""fullscreenenter"",""1"",""2383""
","
","","","-1","","","10","6119","1321","j","elianto","#f73b6a7A","-1","-1","1","0","[]","0","2","","","6119","56","0","4","lose","no-go","0"
"pit-trial","181","1791003","0.0-61.0","battery-v0.2","","""event"",""trial"",""time""
""fullscreenenter"",""1"",""2383""
","
","
","""event"",""trial"",""time""
""fullscreenenter"",""1"",""2383""
","
","","","-1","","","10","6119","1321","j","elianto","#f73b6a7A","-1","-1","1","0","[]","0","2","","","6119","57","0","4","lose","no-go","0"
"pit-trial","182","1794602","0.0-62.0","battery-v0.2","","""event"",""trial"",""time""
""fullscreenenter"",""1"",""2383""
","
","
","""event"",""trial"",""time""
""fullscreenenter"",""1"",""2383""
","
","","","737.5","","","10","6119","1321","d","elianto","#3366ff99"," "," ","1","0","[1589.5]","1","2","","","6119","58","1","1","win","go","1"
"pit-trial","183","1798771","0.0-63.0","battery-v0.2","","""event"",""trial"",""time""
""fullscreenenter"",""1"",""2383""
","
","
","""event"",""trial"",""time""
""fullscreenenter"",""1"",""2383""
","
","","","1306.1000000005588","","","10","6119","1321","s","elianto","#3366ff99","-1"," ","0","0","[2158.5]","1","2","","","6119","59","4","2","win","no-go","0"
"pit-trial","184","1803642","0.0-64.0","battery-v0.2","","""event"",""trial"",""time""
""fullscreenenter"",""1"",""2383""
","
","
","""event"",""trial"",""time""
""fullscreenenter"",""1"",""2383""
","
","","","-1","","","10","6119","1321","w","elianto","#f73b6a7A"," ","-1","0","-10","[]","0","2","","","6119","60","3","3","lose","go","0"
"pit-trial","185","1807195","0.0-65.0","battery-v0.2","","""event"",""trial"",""time""
""fullscreenenter"",""1"",""2383""
","
","
","""event"",""trial"",""time""
""fullscreenenter"",""1"",""2383""
","
","","","689.5999999996275","","","10","6119","1321","s","elianto","#3366ff99","-1"," ","0","0","[1540.2000000001863]","1","2","","","6119","61","4","2","win","no-go","0"
"pit-trial","186","1812067","0.0-66.0","battery-v0.2","","""event"",""trial"",""time""
""fullscreenenter"",""1"",""2383""
","
","
","""event"",""trial"",""time""
""fullscreenenter"",""1"",""2383""
","
","","","-1","","","10","6119","1321","w","elianto","#f73b6a7A"," ","-1","0","-10","[]","0","2","","","6119","62","3","3","lose","go","0"
"pit-trial","187","1816939","0.0-67.0","battery-v0.2","","""event"",""trial"",""time""
""fullscreenenter"",""1"",""2383""
","
","
","""event"",""trial"",""time""
""fullscreenenter"",""1"",""2383""
","
","","","-1","","","10","6119","1321","e","elianto","#f73b6a7A","-1","-1","1","0","[]","0","2","","","6119","63","2","4","lose","no-go","0"
"pit-trial","188","1820914","0.0-68.0","battery-v0.2","","""event"",""trial"",""time""
""fullscreenenter"",""1"",""2383""
","
","
","""event"",""trial"",""time""
""fullscreenenter"",""1"",""2383""
","
","","","1106.2000000001863","","","10","6119","1321","d","elianto","#3366ff99"," "," ","1","+10","[1962.300000000745]","1","2","","","6119","64","1","1","win","go","0"
"pit-trial","189","1824675","0.0-69.0","battery-v0.2","","""event"",""trial"",""time""
""fullscreenenter"",""1"",""2383""
","
","
","""event"",""trial"",""time""
""fullscreenenter"",""1"",""2383""
","
","","","893.9000000003725","","","10","6119","1321","e","elianto","#f73b6a7A","-1"," ","0","-10","[1747.2999999998137]","1","2","","","6119","65","2","4","lose","no-go","0"
"pit-trial","190","1828411","0.0-70.0","battery-v0.2","","""event"",""trial"",""time""
""fullscreenenter"",""1"",""2383""
","
","
","""event"",""trial"",""time""
""fullscreenenter"",""1"",""2383""
","
","","","869.1000000005588","","","10","6119","1321","s","elianto","#3366ff99","-1"," ","0","0","[1724.5]","1","2","","","6119","66","4","2","win","no-go","0"
"pit-trial","191","1831995","0.0-71.0","battery-v0.2","","""event"",""trial"",""time""
""fullscreenenter"",""1"",""2383""
","
","
","""event"",""trial"",""time""
""fullscreenenter"",""1"",""2383""
","
","","","711.0999999996275","","","10","6119","1321","d","elianto","#3366ff99"," "," ","1","+10","[1566.9000000003725]","1","2","","","6119","67","1","1","win","go","0"
"pit-trial","192","1836866","0.0-72.0","battery-v0.2","","""event"",""trial"",""time""
""fullscreenenter"",""1"",""2383""
","
","
","""event"",""trial"",""time""
""fullscreenenter"",""1"",""2383""
","
","","","-1","","","10","6119","1321","w","elianto","#f73b6a7A"," ","-1","0","0","[]","0","2","","","6119","68","3","3","lose","go","1"
"pit-trial","193","1840548","0.0-73.0","battery-v0.2","","""event"",""trial"",""time""
""fullscreenenter"",""1"",""2383""
","
","
","""event"",""trial"",""time""
""fullscreenenter"",""1"",""2383""
","
","","","811.8999999994412","","","10","6119","1321","d","elianto","#3366ff99"," "," ","1","+10","[1668]","1","2","","","6119","69","1","1","win","go","0"
"pit-trial","194","1844483","0.0-74.0","battery-v0.2","","""event"",""trial"",""time""
""fullscreenenter"",""1"",""2383""
","
","
","""event"",""trial"",""time""
""fullscreenenter"",""1"",""2383""
","
","","","1072.8999999994412","","","10","6119","1321","p","elianto","#3366ff99"," "," ","1","+10","[1923.9000000003725]","1","2","","","6119","70","5","1","win","go","0"
"pit-trial","195","1848667","0.0-75.0","battery-v0.2","","""event"",""trial"",""time""
""fullscreenenter"",""1"",""2383""
","
","
","""event"",""trial"",""time""
""fullscreenenter"",""1"",""2383""
","
","","","1312.7000000001863","","","10","6119","1321","s","elianto","#3366ff99","-1"," ","0","0","[2167]","1","2","","","6119","71","4","2","win","no-go","0"
"pit-trial","196","1853539","0.0-76.0","battery-v0.2","","""event"",""trial"",""time""
""fullscreenenter"",""1"",""2383""
","
","
","""event"",""trial"",""time""
""fullscreenenter"",""1"",""2383""
","
","","","-1","","","10","6119","1321","w","elianto","#f73b6a7A"," ","-1","0","-10","[]","0","2","","","6119","72","3","3","lose","go","0"
"pit-trial","197","1858411","0.0-77.0","battery-v0.2","","""event"",""trial"",""time""
""fullscreenenter"",""1"",""2383""
","
","
","""event"",""trial"",""time""
""fullscreenenter"",""1"",""2383""
","
","","","-1","","","10","6119","1321","w","elianto","#f73b6a7A"," ","-1","0","-10","[]","0","2","","","6119","73","3","3","lose","go","0"
"pit-trial","198","1862891","0.0-78.0","battery-v0.2","","""event"",""trial"",""time""
""fullscreenenter"",""1"",""2383""
","
","
","""event"",""trial"",""time""
""fullscreenenter"",""1"",""2383""
","
","","","1608.7000000001863","","","10","6119","1321","p","elianto","#3366ff99"," "," ","1","+10","[2464.300000000745]","1","2","","","6119","74","5","1","win","go","0"
"pit-trial","199","1867339","0.0-79.0","battery-v0.2","","""event"",""trial"",""time""
""fullscreenenter"",""1"",""2383""
","
","
","""event"",""trial"",""time""
""fullscreenenter"",""1"",""2383""
","
","","","1579.7999999998137","","","10","6119","1321","d","elianto","#3366ff99"," "," ","1","+10","[2431.4000000003725]","1","2","","","6119","75","1","1","win","go","0"
"pit-trial","200","1871467","0.0-80.0","battery-v0.2","","""event"",""trial"",""time""
""fullscreenenter"",""1"",""2383""
","
","
","""event"",""trial"",""time""
""fullscreenenter"",""1"",""2383""
","
","","","1259.7000000001863","","","10","6119","1321","s","elianto","#3366ff99","-1"," ","0","+10","[2114.2000000001863]","1","2","","","6119","76","4","2","win","no-go","1"
"pit-trial","201","1875795","0.0-81.0","battery-v0.2","","""event"",""trial"",""time""
""fullscreenenter"",""1"",""2383""
","
","
","""event"",""trial"",""time""
""fullscreenenter"",""1"",""2383""
","
","","","1461.5","","","10","6119","1321","p","elianto","#3366ff99"," "," ","1","+10","[2316.699999999255]","1","2","","","6119","77","5","1","win","go","0"
"pit-trial","202","1880667","0.0-82.0","battery-v0.2","","""event"",""trial"",""time""
""fullscreenenter"",""1"",""2383""
","
","
","""event"",""trial"",""time""
""fullscreenenter"",""1"",""2383""
","
","","","-1","","","10","6119","1321","w","elianto","#f73b6a7A"," ","-1","0","0","[]","0","2","","","6119","78","3","3","lose","go","1"
"pit-trial","203","1884266","0.0-83.0","battery-v0.2","","""event"",""trial"",""time""
""fullscreenenter"",""1"",""2383""
","
","
","""event"",""trial"",""time""
""fullscreenenter"",""1"",""2383""
","
","","","734","","","10","6119","1321","s","elianto","#3366ff99","-1"," ","0","0","[1584.0999999996275]","1","2","","","6119","79","4","2","win","no-go","0"
"pit-trial","204","1889139","0.0-84.0","battery-v0.2","","""event"",""trial"",""time""
""fullscreenenter"",""1"",""2383""
","
","
","""event"",""trial"",""time""
""fullscreenenter"",""1"",""2383""
","
","","","-1","","","10","6119","1321","g","elianto","#f73b6a7A","-1","-1","1","0","[]","0","2","","","6119","80","6","4","lose","no-go","0"
"pit-trial","205","1893531","0.0-85.0","battery-v0.2","","""event"",""trial"",""time""
""fullscreenenter"",""1"",""2383""
","
","
","""event"",""trial"",""time""
""fullscreenenter"",""1"",""2383""
","
","","","1530.2000000001863","","","10","6119","1321","p","elianto","#3366ff99"," "," ","1","0","[2383]","1","2","","","6119","81","5","1","win","go","1"
"pit-trial","206","1898403","0.0-86.0","battery-v0.2","","""event"",""trial"",""time""
""fullscreenenter"",""1"",""2383""
","
","
","""event"",""trial"",""time""
""fullscreenenter"",""1"",""2383""
","
","","","-1","","","10","6119","1321","g","elianto","#f73b6a7A","-1","-1","1","-10","[]","0","2","","","6119","82","6","4","lose","no-go","1"
"pit-trial","207","1903275","0.0-87.0","battery-v0.2","","""event"",""trial"",""time""
""fullscreenenter"",""1"",""2383""
","
","
","""event"",""trial"",""time""
""fullscreenenter"",""1"",""2383""
","
","","","-1","","","10","6119","1321","a","elianto","#f73b6a7A"," ","-1","0","-10","[]","0","2","","","6119","83","7","3","lose","go","0"
"pit-trial","208","1908147","0.0-88.0","battery-v0.2","","""event"",""trial"",""time""
""fullscreenenter"",""1"",""2383""
","
","
","""event"",""trial"",""time""
""fullscreenenter"",""1"",""2383""
","
","","","-1","","","10","6119","1321","s","elianto","#3366ff99","-1","-1","1","+10","[3399.5999999996275]","1","2","","","6119","84","4","2","win","no-go","0"
"pit-trial","209","1912755","0.0-89.0","battery-v0.2","","""event"",""trial"",""time""
""fullscreenenter"",""1"",""2383""
","
","
","""event"",""trial"",""time""
""fullscreenenter"",""1"",""2383""
","
","","","1739.2000000001863","","","10","6119","1321","s","elianto","#3366ff99","-1"," ","0","+10","[2591.7999999998137]","1","2","","","6119","85","4","2","win","no-go","1"
"pit-trial","210","1917627","0.0-90.0","battery-v0.2","","""event"",""trial"",""time""
""fullscreenenter"",""1"",""2383""
","
","
","""event"",""trial"",""time""
""fullscreenenter"",""1"",""2383""
","
","","","-1","","","10","6119","1321","p","elianto","#3366ff99"," ","-1","0","0","[]","0","2","","","6119","86","5","1","win","go","0"
"pit-trial","211","1922499","0.0-91.0","battery-v0.2","","""event"",""trial"",""time""
""fullscreenenter"",""1"",""2383""
","
","
","""event"",""trial"",""time""
""fullscreenenter"",""1"",""2383""
","
","","","-1","","","10","6119","1321","g","elianto","#f73b6a7A","-1","-1","1","-10","[]","0","2","","","6119","87","6","4","lose","no-go","1"
"pit-trial","212","1927372","0.0-92.0","battery-v0.2","","""event"",""trial"",""time""
""fullscreenenter"",""1"",""2383""
","
","
","""event"",""trial"",""time""
""fullscreenenter"",""1"",""2383""
","
","","","-1","","","10","6119","1321","a","elianto","#f73b6a7A"," ","-1","0","-10","[]","0","2","","","6119","88","7","3","lose","go","0"
"pit-trial","213","1932243","0.0-93.0","battery-v0.2","","""event"",""trial"",""time""
""fullscreenenter"",""1"",""2383""
","
","
","""event"",""trial"",""time""
""fullscreenenter"",""1"",""2383""
","
","","","-1","","","10","6119","1321","g","elianto","#f73b6a7A","-1","-1","1","-10","[]","0","2","","","6119","89","6","4","lose","no-go","1"
"pit-trial","214","1937115","0.0-94.0","battery-v0.2","","""event"",""trial"",""time""
""fullscreenenter"",""1"",""2383""
","
","
","""event"",""trial"",""time""
""fullscreenenter"",""1"",""2383""
","
","","","-1","","","10","6119","1321","a","elianto","#f73b6a7A"," ","-1","0","-10","[]","0","2","","","6119","90","7","3","lose","go","0"
"pit-trial","215","1941987","0.0-95.0","battery-v0.2","","""event"",""trial"",""time""
""fullscreenenter"",""1"",""2383""
","
","
","""event"",""trial"",""time""
""fullscreenenter"",""1"",""2383""
","
","","","-1","","","10","6119","1321","s","elianto","#3366ff99","-1","-1","1","+10","[]","0","2","","","6119","91","4","2","win","no-go","0"
"pit-trial","216","1946859","0.0-96.0","battery-v0.2","","""event"",""trial"",""time""
""fullscreenenter"",""1"",""2383""
","
","
","""event"",""trial"",""time""
""fullscreenenter"",""1"",""2383""
","
","","","-1","","","10","6119","1321","p","elianto","#3366ff99"," ","-1","0","0","[]","0","2","","","6119","92","5","1","win","go","0"
"pit-trial","217","1951732","0.0-97.0","battery-v0.2","","""event"",""trial"",""time""
""fullscreenenter"",""1"",""2383""
","
","
","""event"",""trial"",""time""
""fullscreenenter"",""1"",""2383""
","
","","","-1","","","10","6119","1321","g","elianto","#f73b6a7A","-1","-1","1","0","[]","0","2","","","6119","93","6","4","lose","no-go","0"
"pit-trial","218","1956603","0.0-98.0","battery-v0.2","","""event"",""trial"",""time""
""fullscreenenter"",""1"",""2383""
","
","
","""event"",""trial"",""time""
""fullscreenenter"",""1"",""2383""
","
","","","-1","","","10","6119","1321","a","elianto","#f73b6a7A"," ","-1","0","-10","[]","0","2","","","6119","94","7","3","lose","go","0"
"pit-trial","219","1961474","0.0-99.0","battery-v0.2","","""event"",""trial"",""time""
""fullscreenenter"",""1"",""2383""
","
","
","""event"",""trial"",""time""
""fullscreenenter"",""1"",""2383""
","
","","","-1","","","10","6119","1321","p","elianto","#3366ff99"," ","-1","0","0","[]","0","2","","","6119","95","5","1","win","go","0"
"pit-trial","220","1965459","0.0-100.0","battery-v0.2","","""event"",""trial"",""time""
""fullscreenenter"",""1"",""2383""
","
","
","""event"",""trial"",""time""
""fullscreenenter"",""1"",""2383""
","
","","","1119.2000000001863","","","10","6119","1321","l","elianto","#3366ff99","-1"," ","0","0","[1973]","1","2","","","6119","96","8","2","win","no-go","0"
"pit-trial","221","1970332","0.0-101.0","battery-v0.2","","""event"",""trial"",""time""
""fullscreenenter"",""1"",""2383""
","
","
","""event"",""trial"",""time""
""fullscreenenter"",""1"",""2383""
","
","","","-1","","","10","6119","1321","p","elianto","#3366ff99"," ","-1","0","0","[3434.7999999998137]","1","2","","","6119","97","5","1","win","go","0"
"pit-trial","222","1975202","0.0-102.0","battery-v0.2","","""event"",""trial"",""time""
""fullscreenenter"",""1"",""2383""
","
","
","""event"",""trial"",""time""
""fullscreenenter"",""1"",""2383""
","
","","","-1","","","10","6119","1321","g","elianto","#f73b6a7A","-1","-1","1","0","[]","0","2","","","6119","98","6","4","lose","no-go","0"
"pit-trial","223","1979275","0.0-103.0","battery-v0.2","","""event"",""trial"",""time""
""fullscreenenter"",""1"",""2383""
","
","
","""event"",""trial"",""time""
""fullscreenenter"",""1"",""2383""
","
","","","1200.7000000001863","","","10","6119","1321","l","elianto","#3366ff99","-1"," ","0","0","[2056.9000000003725]","1","2","","","6119","99","8","2","win","no-go","0"
"pit-trial","224","1984147","0.0-104.0","battery-v0.2","","""event"",""trial"",""time""
""fullscreenenter"",""1"",""2383""
","
","
","""event"",""trial"",""time""
""fullscreenenter"",""1"",""2383""
","
","","","-1","","","10","6119","1321","a","elianto","#f73b6a7A"," ","-1","0","-10","[]","0","2","","","6119","100","7","3","lose","go","0"
"pit-trial","225","1989019","0.0-105.0","battery-v0.2","","""event"",""trial"",""time""
""fullscreenenter"",""1"",""2383""
","
","
","""event"",""trial"",""time""
""fullscreenenter"",""1"",""2383""
","
","","","-1","","","10","6119","1321","g","elianto","#f73b6a7A","-1","-1","1","-10","[]","0","2","","","6119","101","6","4","lose","no-go","1"
"pit-trial","226","1993779","0.0-106.0","battery-v0.2","","""event"",""trial"",""time""
""fullscreenenter"",""1"",""2383""
","
","
","""event"",""trial"",""time""
""fullscreenenter"",""1"",""2383""
","
","","","1892.300000000745","","","10","6119","1321","p","elianto","#3366ff99"," "," ","1","+10","[2745.5]","1","2","","","6119","102","5","1","win","go","0"
"pit-trial","227","1997954","0.0-107.0","battery-v0.2","","""event"",""trial"",""time""
""fullscreenenter"",""1"",""2383""
","
","
","""event"",""trial"",""time""
""fullscreenenter"",""1"",""2383""
","
","","","1305.2999999998137","","","10","6119","1321","l","elianto","#3366ff99","-1"," ","0","0","[2161.399999999441]","1","2","","","6119","103","8","2","win","no-go","0"
"pit-trial","228","2002827","0.0-108.0","battery-v0.2","","""event"",""trial"",""time""
""fullscreenenter"",""1"",""2383""
","
","
","""event"",""trial"",""time""
""fullscreenenter"",""1"",""2383""
","
","","","-1","","","10","6119","1321","u","elianto","#3366ff99","-1","-1","1","0","[3229.2999999998137]","1","2","","","6119","104","9","2","win","no-go","1"
"pit-trial","229","2006843","0.0-109.0","battery-v0.2","","""event"",""trial"",""time""
""fullscreenenter"",""1"",""2383""
","
","
","""event"",""trial"",""time""
""fullscreenenter"",""1"",""2383""
","
","","","1146.5","","","10","6119","1321","u","elianto","#3366ff99","-1"," ","0","0","[1998.3999999994412]","1","2","","","6119","105","9","2","win","no-go","0"
"pit-trial","230","2011715","0.0-110.0","battery-v0.2","","""event"",""trial"",""time""
""fullscreenenter"",""1"",""2383""
","
","
","""event"",""trial"",""time""
""fullscreenenter"",""1"",""2383""
","
","","","-1","","","10","6119","1321","l","elianto","#3366ff99","-1","-1","1","+10","[2943]","1","2","","","6119","106","8","2","win","no-go","0"
"pit-trial","231","2016586","0.0-111.0","battery-v0.2","","""event"",""trial"",""time""
""fullscreenenter"",""1"",""2383""
","
","
","""event"",""trial"",""time""
""fullscreenenter"",""1"",""2383""
","
","","","-1","","","10","6119","1321","g","elianto","#f73b6a7A","-1","-1","1","0","[]","0","2","","","6119","107","6","4","lose","no-go","0"
"pit-trial","232","2020475","0.0-112.0","battery-v0.2","","""event"",""trial"",""time""
""fullscreenenter"",""1"",""2383""
","
","
","""event"",""trial"",""time""
""fullscreenenter"",""1"",""2383""
","
","","","1027.6000000005588","","","10","6119","1321","p","elianto","#3366ff99"," "," ","1","+10","[1877.5999999996275]","1","2","","","6119","108","5","1","win","go","0"
"pit-trial","233","2024062","0.0-113.0","battery-v0.2","","""event"",""trial"",""time""
""fullscreenenter"",""1"",""2383""
","
","
","""event"",""trial"",""time""
""fullscreenenter"",""1"",""2383""
","
","","","710.4000000003725","","","10","6119","1321","l","elianto","#3366ff99","-1"," ","0","0","[1566]","1","2","","","6119","109","8","2","win","no-go","0"
"pit-trial","234","2027676","0.0-114.0","battery-v0.2","","""event"",""trial"",""time""
""fullscreenenter"",""1"",""2383""
","
","
","""event"",""trial"",""time""
""fullscreenenter"",""1"",""2383""
","
","","","748.2000000001863","","","10","6119","1321","u","elianto","#3366ff99","-1"," ","0","0","[1598.5]","1","2","","","6119","110","9","2","win","no-go","0"
"pit-trial","235","2032546","0.0-115.0","battery-v0.2","","""event"",""trial"",""time""
""fullscreenenter"",""1"",""2383""
","
","
","""event"",""trial"",""time""
""fullscreenenter"",""1"",""2383""
","
","","","-1","","","10","6119","1321","g","elianto","#f73b6a7A","-1","-1","1","0","[]","0","2","","","6119","111","6","4","lose","no-go","0"
"pit-trial","236","2036316","0.0-116.0","battery-v0.2","","""event"",""trial"",""time""
""fullscreenenter"",""1"",""2383""
","
","
","""event"",""trial"",""time""
""fullscreenenter"",""1"",""2383""
","
","","","908.7000000001863","","","10","6119","1321","p","elianto","#3366ff99"," "," ","1","+10","[1759.4000000003725]","1","2","","","6119","112","5","1","win","go","0"
"pit-trial","237","2041187","0.0-117.0","battery-v0.2","","""event"",""trial"",""time""
""fullscreenenter"",""1"",""2383""
","
","
","""event"",""trial"",""time""
""fullscreenenter"",""1"",""2383""
","
","","","-1","","","10","6119","1321","a","elianto","#f73b6a7A"," ","-1","0","-10","[]","0","2","","","6119","113","7","3","lose","go","0"
"pit-trial","238","2046060","0.0-118.0","battery-v0.2","","""event"",""trial"",""time""
""fullscreenenter"",""1"",""2383""
","
","
","""event"",""trial"",""time""
""fullscreenenter"",""1"",""2383""
","
","","","-1","","","10","6119","1321","u","elianto","#3366ff99","-1","-1","1","+10","[3602.9000000003725]","1","2","","","6119","114","9","2","win","no-go","0"
"pit-trial","239","2050219","0.0-119.0","battery-v0.2","","""event"",""trial"",""time""
""fullscreenenter"",""1"",""2383""
","
","
","""event"",""trial"",""time""
""fullscreenenter"",""1"",""2383""
","
","","","1292.0999999996275","","","10","6119","1321","l","elianto","#3366ff99","-1"," ","0","0","[2145.0999999996275]","1","2","","","6119","115","8","2","win","no-go","0"
"pit-trial","240","2054035","0.0-120.0","battery-v0.2","","""event"",""trial"",""time""
""fullscreenenter"",""1"",""2383""
","
","
","""event"",""trial"",""time""
""fullscreenenter"",""1"",""2383""
","
","","","954.5","","","10","6119","1321","p","elianto","#3366ff99"," "," ","1","+10","[1804.7999999998137]","1","2","","","6119","116","5","1","win","go","0"
"pit-trial","241","2058251","0.0-121.0","battery-v0.2","","""event"",""trial"",""time""
""fullscreenenter"",""1"",""2383""
","
","
","""event"",""trial"",""time""
""fullscreenenter"",""1"",""2383""
","
","","","1347.199999999255","","","10","6119","1321","u","elianto","#3366ff99","-1"," ","0","+10","[2199.5999999996275]","1","2","","","6119","117","9","2","win","no-go","1"
"pit-trial","242","2062419","0.0-122.0","battery-v0.2","","""event"",""trial"",""time""
""fullscreenenter"",""1"",""2383""
","
","
","""event"",""trial"",""time""
""fullscreenenter"",""1"",""2383""
","
","","","1301.5","","","10","6119","1321","l","elianto","#3366ff99","-1"," ","0","0","[2152.5999999996275]","1","2","","","6119","118","8","2","win","no-go","0"
"pit-trial","243","2066042","0.0-123.0","battery-v0.2","","""event"",""trial"",""time""
""fullscreenenter"",""1"",""2383""
","
","
","""event"",""trial"",""time""
""fullscreenenter"",""1"",""2383""
","
","","","759.6000000005588","","","10","6119","1321","p","elianto","#3366ff99"," "," ","1","+10","[1612.4000000003725]","1","2","","","6119","119","5","1","win","go","0"
"pit-trial","244","2070914","0.0-124.0","battery-v0.2","","""event"",""trial"",""time""
""fullscreenenter"",""1"",""2383""
","
","
","""event"",""trial"",""time""
""fullscreenenter"",""1"",""2383""
","
","","","-1","","","10","6119","1321","g","elianto","#f73b6a7A","-1","-1","1","0","[]","0","2","","","6119","120","6","4","lose","no-go","0"
"pit-trial","245","2075787","0.0-125.0","battery-v0.2","","""event"",""trial"",""time""
""fullscreenenter"",""1"",""2383""
","
","
","""event"",""trial"",""time""
""fullscreenenter"",""1"",""2383""
","
","","","-1","","","10","6119","1321","a","elianto","#f73b6a7A"," ","-1","0","-10","[]","0","2","","","6119","121","7","3","lose","go","0"
"pit-trial","246","2079530","0.0-126.0","battery-v0.2","","""event"",""trial"",""time""
""fullscreenenter"",""1"",""2383""
","
","
","""event"",""trial"",""time""
""fullscreenenter"",""1"",""2383""
","
","","","876.2000000001863","","","10","6119","1321","l","elianto","#3366ff99","-1"," ","0","0","[1732.4000000003725]","1","2","","","6119","122","8","2","win","no-go","0"
"pit-trial","247","2083387","0.0-127.0","battery-v0.2","","""event"",""trial"",""time""
""fullscreenenter"",""1"",""2383""
","
","
","""event"",""trial"",""time""
""fullscreenenter"",""1"",""2383""
","
","","","988.5999999996275","","","10","6119","1321","u","elianto","#3366ff99","-1"," ","0","0","[1845.2000000001863]","1","2","","","6119","123","9","2","win","no-go","0"
"pit-trial","248","2088259","0.0-128.0","battery-v0.2","","""event"",""trial"",""time""
""fullscreenenter"",""1"",""2383""
","
","
","""event"",""trial"",""time""
""fullscreenenter"",""1"",""2383""
","
","","","-1","","","10","6119","1321","p","elianto","#3366ff99"," ","-1","0","+10","[2925.7999999998137]","1","2","","","6119","124","5","1","win","go","1"
"pit-trial","249","2093130","0.0-129.0","battery-v0.2","","""event"",""trial"",""time""
""fullscreenenter"",""1"",""2383""
","
","
","""event"",""trial"",""time""
""fullscreenenter"",""1"",""2383""
","
","","","-1","","","10","6119","1321","g","elianto","#f73b6a7A","-1","-1","1","0","[]","0","2","","","6119","125","6","4","lose","no-go","0"
"pit-trial","250","2098003","0.0-130.0","battery-v0.2","","""event"",""trial"",""time""
""fullscreenenter"",""1"",""2383""
","
","
","""event"",""trial"",""time""
""fullscreenenter"",""1"",""2383""
","
","","","-1","","","10","6119","1321","l","elianto","#3366ff99","-1","-1","1","+10","[3012.7999999998137]","1","2","","","6119","126","8","2","win","no-go","0"
"pit-trial","251","2102083","0.0-131.0","battery-v0.2","","""event"",""trial"",""time""
""fullscreenenter"",""1"",""2383""
","
","
","""event"",""trial"",""time""
""fullscreenenter"",""1"",""2383""
","
","","","1208.6000000005588","","","10","6119","1321","u","elianto","#3366ff99","-1"," ","0","0","[2069]","1","2","","","6119","127","9","2","win","no-go","0"
"pit-trial","252","2106955","0.0-132.0","battery-v0.2","","""event"",""trial"",""time""
""fullscreenenter"",""1"",""2383""
","
","
","""event"",""trial"",""time""
""fullscreenenter"",""1"",""2383""
","
","","","-1","","","10","6119","1321","a","elianto","#f73b6a7A"," ","-1","0","0","[]","0","2","","","6119","128","7","3","lose","go","1"
"pit-trial","253","2110811","0.0-133.0","battery-v0.2","","""event"",""trial"",""time""
""fullscreenenter"",""1"",""2383""
","
","
","""event"",""trial"",""time""
""fullscreenenter"",""1"",""2383""
","
","","","986.7000000001863","","","10","6119","1321","l","elianto","#3366ff99","-1"," ","0","0","[1842.1000000005588]","1","2","","","6119","129","8","2","win","no-go","0"
"pit-trial","254","2115683","0.0-134.0","battery-v0.2","","""event"",""trial"",""time""
""fullscreenenter"",""1"",""2383""
","
","
","""event"",""trial"",""time""
""fullscreenenter"",""1"",""2383""
","
","","","-1","","","10","6119","1321","a","elianto","#f73b6a7A"," ","-1","0","-10","[]","0","2","","","6119","130","7","3","lose","go","0"
"pit-trial","255","2120555","0.0-135.0","battery-v0.2","","""event"",""trial"",""time""
""fullscreenenter"",""1"",""2383""
","
","
","""event"",""trial"",""time""
""fullscreenenter"",""1"",""2383""
","
","","","-1","","","10","6119","1321","g","elianto","#f73b6a7A","-1","-1","1","0","[]","0","2","","","6119","131","6","4","lose","no-go","0"
"pit-trial","256","2124003","0.0-136.0","battery-v0.2","","""event"",""trial"",""time""
""fullscreenenter"",""1"",""2383""
","
","
","""event"",""trial"",""time""
""fullscreenenter"",""1"",""2383""
","
","","","581","","","10","6119","1321","u","elianto","#3366ff99","-1"," ","0","0","[1431.3999999994412]","1","2","","","6119","132","9","2","win","no-go","0"
"pit-trial","257","2128875","0.0-137.0","battery-v0.2","","""event"",""trial"",""time""
""fullscreenenter"",""1"",""2383""
","
","
","""event"",""trial"",""time""
""fullscreenenter"",""1"",""2383""
","
","","","-1","","","10","6119","1321","a","elianto","#f73b6a7A"," ","-1","0","-10","[]","0","2","","","6119","133","7","3","lose","go","0"
"pit-trial","258","2132531","0.0-138.0","battery-v0.2","","""event"",""trial"",""time""
""fullscreenenter"",""1"",""2383""
","
","
","""event"",""trial"",""time""
""fullscreenenter"",""1"",""2383""
","
","","","792.5999999996275","","","10","6119","1321","l","elianto","#3366ff99","-1"," ","0","0","[1643.7000000001863]","1","2","","","6119","134","8","2","win","no-go","0"
"pit-trial","259","2136084","0.0-139.0","battery-v0.2","","""event"",""trial"",""time""
""fullscreenenter"",""1"",""2383""
","
","
","""event"",""trial"",""time""
""fullscreenenter"",""1"",""2383""
","
","","","680.5","","","10","6119","1321","u","elianto","#3366ff99","-1"," ","0","+10","[1535.2999999998137]","1","2","","","6119","135","9","2","win","no-go","1"
"pit-trial","260","2140955","0.0-140.0","battery-v0.2","","""event"",""trial"",""time""
""fullscreenenter"",""1"",""2383""
","
","
","""event"",""trial"",""time""
""fullscreenenter"",""1"",""2383""
","
","","","-1","","","10","6119","1321","g","elianto","#f73b6a7A","-1","-1","1","0","[]","0","2","","","6119","136","6","4","lose","no-go","0"
"pit-trial","261","2145827","0.0-141.0","battery-v0.2","","""event"",""trial"",""time""
""fullscreenenter"",""1"",""2383""
","
","
","""event"",""trial"",""time""
""fullscreenenter"",""1"",""2383""
","
","","","-1","","","10","6119","1321","g","elianto","#f73b6a7A","-1","-1","1","-10","[]","0","2","","","6119","137","6","4","lose","no-go","1"
"pit-trial","262","2150699","0.0-142.0","battery-v0.2","","""event"",""trial"",""time""
""fullscreenenter"",""1"",""2383""
","
","
","""event"",""trial"",""time""
""fullscreenenter"",""1"",""2383""
","
","","","-1","","","10","6119","1321","a","elianto","#f73b6a7A"," ","-1","0","-10","[]","0","2","","","6119","138","7","3","lose","go","0"
"pit-trial","263","2154507","0.0-143.0","battery-v0.2","","""event"",""trial"",""time""
""fullscreenenter"",""1"",""2383""
","
","
","""event"",""trial"",""time""
""fullscreenenter"",""1"",""2383""
","
","","","938","","","10","6119","1321","u","elianto","#3366ff99","-1"," ","0","0","[1791.6000000005588]","1","2","","","6119","139","9","2","win","no-go","0"
"pit-trial","264","2158147","0.0-144.0","battery-v0.2","","""event"",""trial"",""time""
""fullscreenenter"",""1"",""2383""
","
","
","""event"",""trial"",""time""
""fullscreenenter"",""1"",""2383""
","
","","","774.5","","","10","6119","1321","l","elianto","#3366ff99","-1"," ","0","+10","[1625.5999999996275]","1","2","","","6119","140","8","2","win","no-go","1"
"pit-instructions","265","2502880","0.0-145.0","battery-v0.2","","""event"",""trial"",""time""
""fullscreenenter"",""1"",""2383""
","
","
","""event"",""trial"",""time""
""fullscreenenter"",""1"",""2383""
","
","","[{""page_index"":0,""viewing_time"":224851.10000000056},{""page_index"":1,""viewing_time"":119874.59999999963}]","344727.2000000002","","","","","","","","","","","","","","","","","","","","","","","",""
"pit-trial","266","2507755","0.0-146.0","battery-v0.2","","""event"",""trial"",""time""
""fullscreenenter"",""1"",""2383""
","
","
","""event"",""trial"",""time""
""fullscreenenter"",""1"",""2383""
","
","","","-1","","","10","6119","1321","y","elianto","#f73b6a7A"," ","-1","0","-10","[]","0","3","","","6119","141","2","3","lose","go","0"
"pit-trial","267","2512627","0.0-147.0","battery-v0.2","","""event"",""trial"",""time""
""fullscreenenter"",""1"",""2383""
","
","
","""event"",""trial"",""time""
""fullscreenenter"",""1"",""2383""
","
","","","-1","","","10","6119","1321","h","elianto","#f73b6a7A","-1","-1","1","0","[]","0","3","","","6119","142","3","4","lose","no-go","0"
"pit-trial","268","2517499","0.0-148.0","battery-v0.2","","""event"",""trial"",""time""
""fullscreenenter"",""1"",""2383""
","
","
","""event"",""trial"",""time""
""fullscreenenter"",""1"",""2383""
","
","","","-1","","","10","6119","1321","m","elianto","#f73b6a7A"," ","-1","0","-10","[]","0","3","","","6119","143","0","3","lose","go","0"
"pit-trial","269","2521387","0.0-149.0","battery-v0.2","","""event"",""trial"",""time""
""fullscreenenter"",""1"",""2383""
","
","
","""event"",""trial"",""time""
""fullscreenenter"",""1"",""2383""
","
