"trial_type","trial_index","time_elapsed","internal_node_id","task_version","subject_id","interactions","blur_events","focus_events","fullscreenenter_events","fullscreenexit_events","success","view_history","rt","responses","num_errors","age","subject","participantId","rune","rune_set","hex","correct","choice","accuracy","outcome","keys","total_keys","block","practice","value","sub","trial","stimulus","robot","valence","action","sham"
"pavlovia","0","7","0.0-0.0","battery-v0.2","","""event"",""trial"",""time""
""fullscreenenter"",""1"",""2974""
","
","
","""event"",""trial"",""time""
""fullscreenenter"",""1"",""2974""
","
","","","","","","","","","","","","","","","","","","","","","","","","","","",""
"fullscreen","1","3924","0.0-1.0","battery-v0.2","","""event"",""trial"",""time""
""fullscreenenter"",""1"",""2974""
","
","
","""event"",""trial"",""time""
""fullscreenenter"",""1"",""2974""
","
","true","","","","","","","","","","","","","","","","","","","","","","","","","",""
"pit-instructions","2","7667","0.0-2.0-0.0","battery-v0.2","","""event"",""trial"",""time""
""fullscreenenter"",""1"",""2974""
","
","
","""event"",""trial"",""time""
""fullscreenenter"",""1"",""2974""
","
","","[{""page_index"":0,""viewing_time"":3737.5}]","3738.0999999940395","","","","","","","","","","","","","","","","","","","","","","","",""
"pit-comprehension","3","10285","0.0-2.0-1.0-0.0","battery-v0.2","","""event"",""trial"",""time""
""fullscreenenter"",""1"",""2974""
","
","
","""event"",""trial"",""time""
""fullscreenenter"",""1"",""2974""
","
","","","2613.39999999851","[""shark""]","0","17","18205","768","","","","","","","","","","","","","","","","","","",""
"pit-instructions","4","15117","0.0-2.0-1.0-1.0","battery-v0.2","","""event"",""trial"",""time""
""fullscreenenter"",""1"",""2974""
","
","
","""event"",""trial"",""time""
""fullscreenenter"",""1"",""2974""
","
","","[{""page_index"":0,""viewing_time"":4816.89999999851}]","4817.29999999702","","","","","","","","","","","","","","","","","","","","","","","",""
"pit-comprehension","5","17174","0.0-2.0-2.0-0.0","battery-v0.2","","""event"",""trial"",""time""
""fullscreenenter"",""1"",""2974""
","
","
","""event"",""trial"",""time""
""fullscreenenter"",""1"",""2974""
","
","","","2051.89999999851","[""tiger""]","0","17","18205","768","","","","","","","","","","","","","","","","","","",""
"pit-instructions","6","20767","0.0-2.0-2.0-1.0","battery-v0.2","","""event"",""trial"",""time""
""fullscreenenter"",""1"",""2974""
","
","
","""event"",""trial"",""time""
""fullscreenenter"",""1"",""2974""
","
","","[{""page_index"":0,""viewing_time"":3588}]","3588.5","","","","","","","","","","","","","","","","","","","","","","","",""
"pit-instructions","7","134028","0.0-2.0-3.0","battery-v0.2","","""event"",""trial"",""time""
""fullscreenenter"",""1"",""2974""
","
","
","""event"",""trial"",""time""
""fullscreenenter"",""1"",""2974""
","
","","[{""page_index"":0,""viewing_time"":9590.5},{""page_index"":1,""viewing_time"":6555},{""page_index"":2,""viewing_time"":7360.5},{""page_index"":3,""viewing_time"":6727},{""page_index"":4,""viewing_time"":7662.39999999851},{""page_index"":5,""viewing_time"":10573.10000000149},{""page_index"":6,""viewing_time"":11257.5},{""page_index"":7,""viewing_time"":8417.19999999553},{""page_index"":8,""viewing_time"":7311.30000000447},{""page_index"":9,""viewing_time"":10271.69999999553},{""page_index"":10,""viewing_time"":7863.80000000447},{""page_index"":11,""viewing_time"":8095.10000000149},{""page_index"":12,""viewing_time"":6687.79999999702},{""page_index"":13,""viewing_time"":4883}]","113256.60000000149","","","","","","","","","","","","","","","","","","","","","","","",""
"pit-trial","8","137793","0.0-2.0-4.0-0.0","battery-v0.2","","""event"",""trial"",""time""
""fullscreenenter"",""1"",""2974""
","
","
","""event"",""trial"",""time""
""fullscreenenter"",""1"",""2974""
","
","","","907.5","","","17","18205","768","&#9784;","elianto","#FFFFF080"," "," ","1","&#10004","[1757.7999999970198]","1","0","0","","","","","","","",""
"pit-trial","9","141691","0.0-2.0-4.1-0.1","battery-v0.2","","""event"",""trial"",""time""
""fullscreenenter"",""1"",""2974""
","
","
","""event"",""trial"",""time""
""fullscreenenter"",""1"",""2974""
","
","","","1043","","","17","18205","768","&#9784;","elianto","#FFFFF080"," "," ","1","&#10004","[1893.7000000029802]","1","0","0","","","","","","","",""
"pit-trial","10","145186","0.0-2.0-4.2-0.2","battery-v0.2","","""event"",""trial"",""time""
""fullscreenenter"",""1"",""2974""
","
","
","""event"",""trial"",""time""
""fullscreenenter"",""1"",""2974""
","
","","","641.7000000029802","","","17","18205","768","&#9784;","elianto","#FFFFF080"," "," ","1","&#10004","[1491.8000000044703]","1","0","0","","","","","","","",""
"pit-trial","11","149029","0.0-2.0-4.3-0.3","battery-v0.2","","""event"",""trial"",""time""
""fullscreenenter"",""1"",""2974""
","
","
","""event"",""trial"",""time""
""fullscreenenter"",""1"",""2974""
","
","","","989.8999999985099","","","17","18205","768","&#9784;","elianto","#FFFFF080"," "," ","1","&#10004","[1840.1000000014901]","1","0","0","","","","","","","",""
"pit-trial","12","152558","0.0-2.0-4.4-0.4","battery-v0.2","","""event"",""trial"",""time""
""fullscreenenter"",""1"",""2974""
","
","
","""event"",""trial"",""time""
""fullscreenenter"",""1"",""2974""
","
","","","674.6999999955297","","","17","18205","768","&#9784;","elianto","#FFFFF080"," "," ","1","&#10004","[1524.6999999955297]","1","0","0","","","","","","","",""
"pit-instructions","13","176813","0.0-2.0-5.0","battery-v0.2","","""event"",""trial"",""time""
""fullscreenenter"",""1"",""2974""
","
","
","""event"",""trial"",""time""
""fullscreenenter"",""1"",""2974""
","
","","[{""page_index"":0,""viewing_time"":6830.89999999851},{""page_index"":1,""viewing_time"":5809.39999999851},{""page_index"":2,""viewing_time"":4752.89999999851},{""page_index"":3,""viewing_time"":6857.5}]","24251.19999999553","","","","","","","","","","","","","","","","","","","","","","","",""
"pit-trial","14","181666","0.0-2.0-6.0-0.0","battery-v0.2","","""event"",""trial"",""time""
""fullscreenenter"",""1"",""2974""
","
","
","""event"",""trial"",""time""
""fullscreenenter"",""1"",""2974""
","
","","","-1","","","17","18205","768","&#9854;","elianto","#FFFFF080","-1","-1","1","&#10004","[]","0","0","1","","","","","","","",""
"pit-trial","15","186520","0.0-2.0-6.1-0.1","battery-v0.2","","""event"",""trial"",""time""
""fullscreenenter"",""1"",""2974""
","
","
","""event"",""trial"",""time""
""fullscreenenter"",""1"",""2974""
","
","","","-1","","","17","18205","768","&#9854;","elianto","#FFFFF080","-1","-1","1","&#10004","[]","0","0","1","","","","","","","",""
"pit-trial","16","191373","0.0-2.0-6.2-0.2","battery-v0.2","","""event"",""trial"",""time""
""fullscreenenter"",""1"",""2974""
","
","
","""event"",""trial"",""time""
""fullscreenenter"",""1"",""2974""
","
","","","-1","","","17","18205","768","&#9854;","elianto","#FFFFF080","-1","-1","1","&#10004","[]","0","0","1","","","","","","","",""
"pit-trial","17","196227","0.0-2.0-6.3-0.3","battery-v0.2","","""event"",""trial"",""time""
""fullscreenenter"",""1"",""2974""
","
","
","""event"",""trial"",""time""
""fullscreenenter"",""1"",""2974""
","
","","","-1","","","17","18205","768","&#9854;","elianto","#FFFFF080","-1","-1","1","&#10004","[]","0","0","1","","","","","","","",""
"pit-trial","18","201080","0.0-2.0-6.4-0.4","battery-v0.2","","""event"",""trial"",""time""
""fullscreenenter"",""1"",""2974""
""fullscreenexit"",""19"",""249761""
""blur"",""19"",""252559""
""focus"",""19"",""262539""
""blur"",""19"",""272722""
""focus"",""19"",""273757""
","""event"",""trial"",""time""
""blur"",""19"",""252559""
""blur"",""19"",""272722""
","""event"",""trial"",""time""
""focus"",""19"",""262539""
""focus"",""19"",""273757""
","""event"",""trial"",""time""
""fullscreenenter"",""1"",""2974""
","""event"",""trial"",""time""
""fullscreenexit"",""19"",""249761""
","","","-1","","","17","18205","768","&#9854;","elianto","#FFFFF080","-1","-1","1","&#10004","[]","0","0","1","","","","","","","",""
"pit-instructions","19","352053","0.0-2.0-7.0","battery-v0.2","","""event"",""trial"",""time""
""fullscreenenter"",""1"",""2974""
""fullscreenexit"",""19"",""249761""
""blur"",""19"",""252559""
""focus"",""19"",""262539""
""blur"",""19"",""272722""
""focus"",""19"",""273757""
","""event"",""trial"",""time""
""blur"",""19"",""252559""
""blur"",""19"",""272722""
","""event"",""trial"",""time""
""focus"",""19"",""262539""
""focus"",""19"",""273757""
","""event"",""trial"",""time""
""fullscreenenter"",""1"",""2974""
","""event"",""trial"",""time""
""fullscreenexit"",""19"",""249761""
","","[{""page_index"":0,""viewing_time"":6582.80000000447},{""page_index"":1,""viewing_time"":7339.89999999851},{""page_index"":2,""viewing_time"":5699.69999999553},{""page_index"":3,""viewing_time"":6073.70000000298},{""page_index"":4,""viewing_time"":7127.39999999851},{""page_index"":5,""viewing_time"":6958.20000000298},{""page_index"":6,""viewing_time"":25637.60000000149},{""page_index"":7,""viewing_time"":12144.89999999851},{""page_index"":8,""viewing_time"":7782.69999999553},{""page_index"":9,""viewing_time"":6003.10000000149},{""page_index"":10,""viewing_time"":6616.10000000149},{""page_index"":11,""viewing_time"":4784.89999999851},{""page_index"":12,""viewing_time"":9001.70000000298},{""page_index"":13,""viewing_time"":11138.89999999851},{""page_index"":14,""viewing_time"":7925.70000000298},{""page_index"":15,""viewing_time"":6312.5999999940395},{""page_index"":16,""viewing_time"":6376.4000000059605},{""page_index"":17,""viewing_time"":7462.29999999702}]","150969.30000000447","","","","","","","","","","","","","","","","","","","","","","","",""
"pit-trial","20","355715","0.0-2.0-8.0-0.0","battery-v0.2","","""event"",""trial"",""time""
""fullscreenenter"",""1"",""2974""
""fullscreenexit"",""19"",""249761""
""blur"",""19"",""252559""
""focus"",""19"",""262539""
""blur"",""19"",""272722""
""focus"",""19"",""273757""
","""event"",""trial"",""time""
""blur"",""19"",""252559""
""blur"",""19"",""272722""
","""event"",""trial"",""time""
""focus"",""19"",""262539""
""focus"",""19"",""273757""
","""event"",""trial"",""time""
""fullscreenenter"",""1"",""2974""
","""event"",""trial"",""time""
""fullscreenexit"",""19"",""249761""
","","","809","","","17","18205","768","&#9776;","elianto","#3366ff99"," "," ","1","+10","[1659]","1","0","1","","","","","","","",""
"pit-trial","21","359324","0.0-2.0-8.0-1.0","battery-v0.2","","""event"",""trial"",""time""
""fullscreenenter"",""1"",""2974""
""fullscreenexit"",""19"",""249761""
""blur"",""19"",""252559""
""focus"",""19"",""262539""
""blur"",""19"",""272722""
""focus"",""19"",""273757""
","""event"",""trial"",""time""
""blur"",""19"",""252559""
""blur"",""19"",""272722""
","""event"",""trial"",""time""
""focus"",""19"",""262539""
""focus"",""19"",""273757""
","""event"",""trial"",""time""
""fullscreenenter"",""1"",""2974""
","""event"",""trial"",""time""
""fullscreenexit"",""19"",""249761""
","","","756.3999999985099","","","17","18205","768","&#9776;","elianto","#3366ff99"," "," ","1","+10","[1606.3999999985099]","1","0","1","","","","","","","",""
"pit-trial","22","363106","0.0-2.0-8.0-2.0","battery-v0.2","","""event"",""trial"",""time""
""fullscreenenter"",""1"",""2974""
""fullscreenexit"",""19"",""249761""
""blur"",""19"",""252559""
""focus"",""19"",""262539""
""blur"",""19"",""272722""
""focus"",""19"",""273757""
","""event"",""trial"",""time""
""blur"",""19"",""252559""
""blur"",""19"",""272722""
","""event"",""trial"",""time""
""focus"",""19"",""262539""
""focus"",""19"",""273757""
","""event"",""trial"",""time""
""fullscreenenter"",""1"",""2974""
","""event"",""trial"",""time""
""fullscreenexit"",""19"",""249761""
","","","930","","","17","18205","768","&#9776;","elianto","#3366ff99"," "," ","1","+10","[1780]","1","0","1","","","","","","","",""
"pit-trial","23","366705","0.0-2.0-8.0-3.0","battery-v0.2","","""event"",""trial"",""time""
""fullscreenenter"",""1"",""2974""
""fullscreenexit"",""19"",""249761""
""blur"",""19"",""252559""
""focus"",""19"",""262539""
""blur"",""19"",""272722""
""focus"",""19"",""273757""
","""event"",""trial"",""time""
""blur"",""19"",""252559""
""blur"",""19"",""272722""
","""event"",""trial"",""time""
""focus"",""19"",""262539""
""focus"",""19"",""273757""
","""event"",""trial"",""time""
""fullscreenenter"",""1"",""2974""
","""event"",""trial"",""time""
""fullscreenexit"",""19"",""249761""
","","","746.8000000044703","","","17","18205","768","&#9776;","elianto","#3366ff99"," "," ","1","0","[1597]","1","0","1","","","","","","","",""
"pit-trial","24","370408","0.0-2.0-8.0-4.0","battery-v0.2","","""event"",""trial"",""time""
""fullscreenenter"",""1"",""2974""
""fullscreenexit"",""19"",""249761""
""blur"",""19"",""252559""
""focus"",""19"",""262539""
""blur"",""19"",""272722""
""focus"",""19"",""273757""
","""event"",""trial"",""time""
""blur"",""19"",""252559""
""blur"",""19"",""272722""
","""event"",""trial"",""time""
""focus"",""19"",""262539""
""focus"",""19"",""273757""
","""event"",""trial"",""time""
""fullscreenenter"",""1"",""2974""
","""event"",""trial"",""time""
""fullscreenexit"",""19"",""249761""
","","","850.2000000029802","","","17","18205","768","&#9776;","elianto","#3366ff99"," "," ","1","+10","[1700.0999999940395]","1","0","1","","","","","","","",""
"pit-trial","25","373941","0.0-2.0-8.1-0.1","battery-v0.2","","""event"",""trial"",""time""
""fullscreenenter"",""1"",""2974""
""fullscreenexit"",""19"",""249761""
""blur"",""19"",""252559""
""focus"",""19"",""262539""
""blur"",""19"",""272722""
""focus"",""19"",""273757""
","""event"",""trial"",""time""
""blur"",""19"",""252559""
""blur"",""19"",""272722""
","""event"",""trial"",""time""
""focus"",""19"",""262539""
""focus"",""19"",""273757""
","""event"",""trial"",""time""
""fullscreenenter"",""1"",""2974""
","""event"",""trial"",""time""
""fullscreenexit"",""19"",""249761""
","","","677.3999999985099","","","17","18205","768","&#9776;","elianto","#3366ff99"," "," ","1","+10","[1527.8999999985099]","1","0","1","","","","","","","",""
"pit-trial","26","377529","0.0-2.0-8.1-1.1","battery-v0.2","","""event"",""trial"",""time""
""fullscreenenter"",""1"",""2974""
""fullscreenexit"",""19"",""249761""
""blur"",""19"",""252559""
""focus"",""19"",""262539""
""blur"",""19"",""272722""
""focus"",""19"",""273757""
","""event"",""trial"",""time""
""blur"",""19"",""252559""
""blur"",""19"",""272722""
","""event"",""trial"",""time""
""focus"",""19"",""262539""
""focus"",""19"",""273757""
","""event"",""trial"",""time""
""fullscreenenter"",""1"",""2974""
","""event"",""trial"",""time""
""fullscreenexit"",""19"",""249761""
","","","735.8000000044703","","","17","18205","768","&#9776;","elianto","#3366ff99"," "," ","1","+10","[1586]","1","0","1","","","","","","","",""
"pit-trial","27","381064","0.0-2.0-8.1-2.1","battery-v0.2","","""event"",""trial"",""time""
""fullscreenenter"",""1"",""2974""
""fullscreenexit"",""19"",""249761""
""blur"",""19"",""252559""
""focus"",""19"",""262539""
""blur"",""19"",""272722""
""focus"",""19"",""273757""
","""event"",""trial"",""time""
""blur"",""19"",""252559""
""blur"",""19"",""272722""
","""event"",""trial"",""time""
""focus"",""19"",""262539""
""focus"",""19"",""273757""
","""event"",""trial"",""time""
""fullscreenenter"",""1"",""2974""
","""event"",""trial"",""time""
""fullscreenexit"",""19"",""249761""
","","","683.0999999940395","","","17","18205","768","&#9776;","elianto","#3366ff99"," "," ","1","+10","[1533.2999999970198]","1","0","1","","","","","","","",""
"pit-trial","28","384585","0.0-2.0-8.1-3.1","battery-v0.2","","""event"",""trial"",""time""
""fullscreenenter"",""1"",""2974""
""fullscreenexit"",""19"",""249761""
""blur"",""19"",""252559""
""focus"",""19"",""262539""
""blur"",""19"",""272722""
""focus"",""19"",""273757""
","""event"",""trial"",""time""
""blur"",""19"",""252559""
""blur"",""19"",""272722""
","""event"",""trial"",""time""
""focus"",""19"",""262539""
""focus"",""19"",""273757""
","""event"",""trial"",""time""
""fullscreenenter"",""1"",""2974""
","""event"",""trial"",""time""
""fullscreenexit"",""19"",""249761""
","","","668.3999999985099","","","17","18205","768","&#9776;","elianto","#3366ff99"," "," ","1","0","[1518.5]","1","0","1","","","","","","","",""
"pit-trial","29","388065","0.0-2.0-8.1-4.1","battery-v0.2","","""event"",""trial"",""time""
""fullscreenenter"",""1"",""2974""
""fullscreenexit"",""19"",""249761""
""blur"",""19"",""252559""
""focus"",""19"",""262539""
""blur"",""19"",""272722""
""focus"",""19"",""273757""
","""event"",""trial"",""time""
""blur"",""19"",""252559""
""blur"",""19"",""272722""
","""event"",""trial"",""time""
""focus"",""19"",""262539""
""focus"",""19"",""273757""
","""event"",""trial"",""time""
""fullscreenenter"",""1"",""2974""
","""event"",""trial"",""time""
""fullscreenexit"",""19"",""249761""
","","","626.5999999940395","","","17","18205","768","&#9776;","elianto","#3366ff99"," "," ","1","+10","[1476.8999999985099]","1","0","1","","","","","","","",""
"pit-trial","30","391695","0.0-2.0-8.2-0.2","battery-v0.2","","""event"",""trial"",""time""
""fullscreenenter"",""1"",""2974""
""fullscreenexit"",""19"",""249761""
""blur"",""19"",""252559""
""focus"",""19"",""262539""
""blur"",""19"",""272722""
""focus"",""19"",""273757""
","""event"",""trial"",""time""
""blur"",""19"",""252559""
""blur"",""19"",""272722""
","""event"",""trial"",""time""
""focus"",""19"",""262539""
""focus"",""19"",""273757""
","""event"",""trial"",""time""
""fullscreenenter"",""1"",""2974""
","""event"",""trial"",""time""
""fullscreenexit"",""19"",""249761""
","","","777.2999999970198","","","17","18205","768","&#9776;","elianto","#3366ff99"," "," ","1","+10","[1627.3000000044703]","1","0","1","","","","","","","",""
"pit-trial","31","395368","0.0-2.0-8.2-1.2","battery-v0.2","","""event"",""trial"",""time""
""fullscreenenter"",""1"",""2974""
""fullscreenexit"",""19"",""249761""
""blur"",""19"",""252559""
""focus"",""19"",""262539""
""blur"",""19"",""272722""
""focus"",""19"",""273757""
","""event"",""trial"",""time""
""blur"",""19"",""252559""
""blur"",""19"",""272722""
","""event"",""trial"",""time""
""focus"",""19"",""262539""
""focus"",""19"",""273757""
","""event"",""trial"",""time""
""fullscreenenter"",""1"",""2974""
","""event"",""trial"",""time""
""fullscreenexit"",""19"",""249761""
","","","820.1000000014901","","","17","18205","768","&#9776;","elianto","#3366ff99"," "," ","1","+10","[1670.0999999940395]","1","0","1","","","","","","","",""
"pit-trial","32","399000","0.0-2.0-8.2-2.2","battery-v0.2","","""event"",""trial"",""time""
""fullscreenenter"",""1"",""2974""
""fullscreenexit"",""19"",""249761""
""blur"",""19"",""252559""
""focus"",""19"",""262539""
""blur"",""19"",""272722""
""focus"",""19"",""273757""
","""event"",""trial"",""time""
""blur"",""19"",""252559""
""blur"",""19"",""272722""
","""event"",""trial"",""time""
""focus"",""19"",""262539""
""focus"",""19"",""273757""
","""event"",""trial"",""time""
""fullscreenenter"",""1"",""2974""
","""event"",""trial"",""time""
""fullscreenexit"",""19"",""249761""
","","","778.8999999985099","","","17","18205","768","&#9776;","elianto","#3366ff99"," "," ","1","+10","[1629]","1","0","1","","","","","","","",""
"pit-trial","33","402581","0.0-2.0-8.2-3.2","battery-v0.2","","""event"",""trial"",""time""
""fullscreenenter"",""1"",""2974""
""fullscreenexit"",""19"",""249761""
""blur"",""19"",""252559""
""focus"",""19"",""262539""
""blur"",""19"",""272722""
""focus"",""19"",""273757""
","""event"",""trial"",""time""
""blur"",""19"",""252559""
""blur"",""19"",""272722""
","""event"",""trial"",""time""
""focus"",""19"",""262539""
""focus"",""19"",""273757""
","""event"",""trial"",""time""
""fullscreenenter"",""1"",""2974""
","""event"",""trial"",""time""
""fullscreenexit"",""19"",""249761""
","","","727.3999999985099","","","17","18205","768","&#9776;","elianto","#3366ff99"," "," ","1","0","[1578.5]","1","0","1","","","","","","","",""
"pit-trial","34","405923","0.0-2.0-8.2-4.2","battery-v0.2","","""event"",""trial"",""time""
""fullscreenenter"",""1"",""2974""
""fullscreenexit"",""19"",""249761""
""blur"",""19"",""252559""
""focus"",""19"",""262539""
""blur"",""19"",""272722""
""focus"",""19"",""273757""
","""event"",""trial"",""time""
""blur"",""19"",""252559""
""blur"",""19"",""272722""
","""event"",""trial"",""time""
""focus"",""19"",""262539""
""focus"",""19"",""273757""
","""event"",""trial"",""time""
""fullscreenenter"",""1"",""2974""
","""event"",""trial"",""time""
""fullscreenexit"",""19"",""249761""
","","","489.70000000298023","","","17","18205","768","&#9776;","elianto","#3366ff99"," "," ","1","+10","[1339.8000000044703]","1","0","1","","","","","","","",""
"call-function","35","405925","0.0-2.0-9.0","battery-v0.2","","""event"",""trial"",""time""
""fullscreenenter"",""1"",""2974""
""fullscreenexit"",""19"",""249761""
""blur"",""19"",""252559""
""focus"",""19"",""262539""
""blur"",""19"",""272722""
""focus"",""19"",""273757""
","""event"",""trial"",""time""
""blur"",""19"",""252559""
""blur"",""19"",""272722""
","""event"",""trial"",""time""
""focus"",""19"",""262539""
""focus"",""19"",""273757""
","""event"",""trial"",""time""
""fullscreenenter"",""1"",""2974""
","""event"",""trial"",""time""
""fullscreenexit"",""19"",""249761""
","","","","","","","","","","","","","","","","","","","","","","","","","","",""
"pit-instructions","36","449444","0.0-2.0-10.0","battery-v0.2","","""event"",""trial"",""time""
""fullscreenenter"",""1"",""2974""
""fullscreenexit"",""19"",""249761""
""blur"",""19"",""252559""
""focus"",""19"",""262539""
""blur"",""19"",""272722""
""focus"",""19"",""273757""
","""event"",""trial"",""time""
""blur"",""19"",""252559""
""blur"",""19"",""272722""
","""event"",""trial"",""time""
""focus"",""19"",""262539""
""focus"",""19"",""273757""
","""event"",""trial"",""time""
""fullscreenenter"",""1"",""2974""
","""event"",""trial"",""time""
""fullscreenexit"",""19"",""249761""
","","[{""page_index"":0,""viewing_time"":6214.70000000298},{""page_index"":1,""viewing_time"":7342.19999999553},{""page_index"":2,""viewing_time"":12296},{""page_index"":3,""viewing_time"":10040.40000000596},{""page_index"":4,""viewing_time"":7623.29999999702}]","43517.10000000149","","","","","","","","","","","","","","","","","","","","","","","",""
"pit-trial","37","452948","0.0-2.0-11.0-0.0","battery-v0.2","","""event"",""trial"",""time""
""fullscreenenter"",""1"",""2974""
""fullscreenexit"",""19"",""249761""
""blur"",""19"",""252559""
""focus"",""19"",""262539""
""blur"",""19"",""272722""
""focus"",""19"",""273757""
","""event"",""trial"",""time""
""blur"",""19"",""252559""
""blur"",""19"",""272722""
","""event"",""trial"",""time""
""focus"",""19"",""262539""
""focus"",""19"",""273757""
","""event"",""trial"",""time""
""fullscreenenter"",""1"",""2974""
","""event"",""trial"",""time""
""fullscreenexit"",""19"",""249761""
","","","652.0999999940395","","","17","18205","768","&#9761;","elianto","#3366ff99","-1"," ","0","0","[1502]","1","0","2","","","","","","","",""
"pit-trial","38","456328","0.0-2.0-11.0-1.0","battery-v0.2","","""event"",""trial"",""time""
""fullscreenenter"",""1"",""2974""
""fullscreenexit"",""19"",""249761""
""blur"",""19"",""252559""
""focus"",""19"",""262539""
""blur"",""19"",""272722""
""focus"",""19"",""273757""
","""event"",""trial"",""time""
""blur"",""19"",""252559""
""blur"",""19"",""272722""
","""event"",""trial"",""time""
""focus"",""19"",""262539""
""focus"",""19"",""273757""
","""event"",""trial"",""time""
""fullscreenenter"",""1"",""2974""
","""event"",""trial"",""time""
""fullscreenexit"",""19"",""249761""
","","","526.6000000014901","","","17","18205","768","&#9761;","elianto","#3366ff99","-1"," ","0","0","[1377.3999999985099]","1","0","2","","","","","","","",""
"pit-trial","39","460094","0.0-2.0-11.0-2.0","battery-v0.2","","""event"",""trial"",""time""
""fullscreenenter"",""1"",""2974""
""fullscreenexit"",""19"",""249761""
""blur"",""19"",""252559""
""focus"",""19"",""262539""
""blur"",""19"",""272722""
""focus"",""19"",""273757""
","""event"",""trial"",""time""
""blur"",""19"",""252559""
""blur"",""19"",""272722""
","""event"",""trial"",""time""
""focus"",""19"",""262539""
""focus"",""19"",""273757""
","""event"",""trial"",""time""
""fullscreenenter"",""1"",""2974""
","""event"",""trial"",""time""
""fullscreenexit"",""19"",""249761""
","","","912.3999999985099","","","17","18205","768","&#9761;","elianto","#3366ff99","-1"," ","0","0","[1762.7000000029802]","1","0","2","","","","","","","",""
"pit-trial","40","464947","0.0-2.0-11.0-3.0","battery-v0.2","","""event"",""trial"",""time""
""fullscreenenter"",""1"",""2974""
""fullscreenexit"",""19"",""249761""
""blur"",""19"",""252559""
""focus"",""19"",""262539""
""blur"",""19"",""272722""
""focus"",""19"",""273757""
","""event"",""trial"",""time""
""blur"",""19"",""252559""
""blur"",""19"",""272722""
","""event"",""trial"",""time""
""focus"",""19"",""262539""
""focus"",""19"",""273757""
","""event"",""trial"",""time""
""fullscreenenter"",""1"",""2974""
","""event"",""trial"",""time""
""fullscreenexit"",""19"",""249761""
","","","-1","","","17","18205","768","&#9761;","elianto","#3366ff99","-1","-1","1","0","[]","0","0","2","","","","","","","",""
"pit-trial","41","469801","0.0-2.0-11.0-4.0","battery-v0.2","","""event"",""trial"",""time""
""fullscreenenter"",""1"",""2974""
""fullscreenexit"",""19"",""249761""
""blur"",""19"",""252559""
""focus"",""19"",""262539""
""blur"",""19"",""272722""
""focus"",""19"",""273757""
","""event"",""trial"",""time""
""blur"",""19"",""252559""
""blur"",""19"",""272722""
","""event"",""trial"",""time""
""focus"",""19"",""262539""
""focus"",""19"",""273757""
","""event"",""trial"",""time""
""fullscreenenter"",""1"",""2974""
","""event"",""trial"",""time""
""fullscreenexit"",""19"",""249761""
","","","-1","","","17","18205","768","&#9761;","elianto","#3366ff99","-1","-1","1","+10","[]","0","0","2","","","","","","","",""
"pit-trial","42","474656","0.0-2.0-11.1-0.1","battery-v0.2","","""event"",""trial"",""time""
""fullscreenenter"",""1"",""2974""
""fullscreenexit"",""19"",""249761""
""blur"",""19"",""252559""
""focus"",""19"",""262539""
""blur"",""19"",""272722""
""focus"",""19"",""273757""
","""event"",""trial"",""time""
""blur"",""19"",""252559""
""blur"",""19"",""272722""
","""event"",""trial"",""time""
""focus"",""19"",""262539""
""focus"",""19"",""273757""
","""event"",""trial"",""time""
""fullscreenenter"",""1"",""2974""
","""event"",""trial"",""time""
""fullscreenexit"",""19"",""249761""
","","","-1","","","17","18205","768","&#9761;","elianto","#3366ff99","-1","-1","1","+10","[]","0","0","2","","","","","","","",""
"pit-trial","43","479508","0.0-2.0-11.1-1.1","battery-v0.2","","""event"",""trial"",""time""
""fullscreenenter"",""1"",""2974""
""fullscreenexit"",""19"",""249761""
""blur"",""19"",""252559""
""focus"",""19"",""262539""
""blur"",""19"",""272722""
""focus"",""19"",""273757""
","""event"",""trial"",""time""
""blur"",""19"",""252559""
""blur"",""19"",""272722""
","""event"",""trial"",""time""
""focus"",""19"",""262539""
""focus"",""19"",""273757""
","""event"",""trial"",""time""
""fullscreenenter"",""1"",""2974""
","""event"",""trial"",""time""
""fullscreenexit"",""19"",""249761""
","","","-1","","","17","18205","768","&#9761;","elianto","#3366ff99","-1","-1","1","+10","[]","0","0","2","","","","","","","",""
"pit-trial","44","483208","0.0-2.0-11.1-2.1","battery-v0.2","","""event"",""trial"",""time""
""fullscreenenter"",""1"",""2974""
""fullscreenexit"",""19"",""249761""
""blur"",""19"",""252559""
""focus"",""19"",""262539""
""blur"",""19"",""272722""
""focus"",""19"",""273757""
","""event"",""trial"",""time""
""blur"",""19"",""252559""
""blur"",""19"",""272722""
","""event"",""trial"",""time""
""focus"",""19"",""262539""
""focus"",""19"",""273757""
","""event"",""trial"",""time""
""fullscreenenter"",""1"",""2974""
","""event"",""trial"",""time""
""fullscreenexit"",""19"",""249761""
","","","847","","","17","18205","768","&#9761;","elianto","#3366ff99","-1"," ","0","0","[1697.1000000014901]","1","0","2","","","","","","","",""
"pit-trial","45","488060","0.0-2.0-11.1-3.1","battery-v0.2","","""event"",""trial"",""time""
""fullscreenenter"",""1"",""2974""
""fullscreenexit"",""19"",""249761""
""blur"",""19"",""252559""
""focus"",""19"",""262539""
""blur"",""19"",""272722""
""focus"",""19"",""273757""
","""event"",""trial"",""time""
""blur"",""19"",""252559""
""blur"",""19"",""272722""
","""event"",""trial"",""time""
""focus"",""19"",""262539""
""focus"",""19"",""273757""
","""event"",""trial"",""time""
""fullscreenenter"",""1"",""2974""
","""event"",""trial"",""time""
""fullscreenexit"",""19"",""249761""
","","","-1","","","17","18205","768","&#9761;","elianto","#3366ff99","-1","-1","1","0","[]","0","0","2","","","","","","","",""
"pit-trial","46","492913","0.0-2.0-11.1-4.1","battery-v0.2","","""event"",""trial"",""time""
""fullscreenenter"",""1"",""2974""
""fullscreenexit"",""19"",""249761""
""blur"",""19"",""252559""
""focus"",""19"",""262539""
""blur"",""19"",""272722""
""focus"",""19"",""273757""
","""event"",""trial"",""time""
""blur"",""19"",""252559""
""blur"",""19"",""272722""
","""event"",""trial"",""time""
""focus"",""19"",""262539""
""focus"",""19"",""273757""
","""event"",""trial"",""time""
""fullscreenenter"",""1"",""2974""
","""event"",""trial"",""time""
""fullscreenexit"",""19"",""249761""
","","","-1","","","17","18205","768","&#9761;","elianto","#3366ff99","-1","-1","1","+10","[]","0","0","2","","","","","","","",""
"pit-trial","47","497766","0.0-2.0-11.2-0.2","battery-v0.2","","""event"",""trial"",""time""
""fullscreenenter"",""1"",""2974""
""fullscreenexit"",""19"",""249761""
""blur"",""19"",""252559""
""focus"",""19"",""262539""
""blur"",""19"",""272722""
""focus"",""19"",""273757""
","""event"",""trial"",""time""
""blur"",""19"",""252559""
""blur"",""19"",""272722""
","""event"",""trial"",""time""
""focus"",""19"",""262539""
""focus"",""19"",""273757""
","""event"",""trial"",""time""
""fullscreenenter"",""1"",""2974""
","""event"",""trial"",""time""
""fullscreenexit"",""19"",""249761""
","","","-1","","","17","18205","768","&#9761;","elianto","#3366ff99","-1","-1","1","+10","[]","0","0","2","","","","","","","",""
"pit-trial","48","501087","0.0-2.0-11.2-1.2","battery-v0.2","","""event"",""trial"",""time""
""fullscreenenter"",""1"",""2974""
""fullscreenexit"",""19"",""249761""
""blur"",""19"",""252559""
""focus"",""19"",""262539""
""blur"",""19"",""272722""
""focus"",""19"",""273757""
","""event"",""trial"",""time""
""blur"",""19"",""252559""
""blur"",""19"",""272722""
","""event"",""trial"",""time""
""focus"",""19"",""262539""
""focus"",""19"",""273757""
","""event"",""trial"",""time""
""fullscreenenter"",""1"",""2974""
","""event"",""trial"",""time""
""fullscreenexit"",""19"",""249761""
","","","468.20000000298023","","","17","18205","768","&#9761;","elianto","#3366ff99","-1"," ","0","0","[1318.2999999970198]","1","0","2","","","","","","","",""
"pit-trial","49","504950","0.0-2.0-11.2-2.2","battery-v0.2","","""event"",""trial"",""time""
""fullscreenenter"",""1"",""2974""
""fullscreenexit"",""19"",""249761""
""blur"",""19"",""252559""
""focus"",""19"",""262539""
""blur"",""19"",""272722""
""focus"",""19"",""273757""
","""event"",""trial"",""time""
""blur"",""19"",""252559""
""blur"",""19"",""272722""
","""event"",""trial"",""time""
""focus"",""19"",""262539""
""focus"",""19"",""273757""
","""event"",""trial"",""time""
""fullscreenenter"",""1"",""2974""
","""event"",""trial"",""time""
""fullscreenexit"",""19"",""249761""
","","","1011.1000000014901","","","17","18205","768","&#9761;","elianto","#3366ff99","-1"," ","0","0","[1861.3000000044703]","1","0","2","","","","","","","",""
"pit-trial","50","508447","0.0-2.0-11.2-3.2","battery-v0.2","","""event"",""trial"",""time""
""fullscreenenter"",""1"",""2974""
""fullscreenexit"",""19"",""249761""
""blur"",""19"",""252559""
""focus"",""19"",""262539""
""blur"",""19"",""272722""
""focus"",""19"",""273757""
","""event"",""trial"",""time""
""blur"",""19"",""252559""
""blur"",""19"",""272722""
","""event"",""trial"",""time""
""focus"",""19"",""262539""
""focus"",""19"",""273757""
","""event"",""trial"",""time""
""fullscreenenter"",""1"",""2974""
","""event"",""trial"",""time""
""fullscreenexit"",""19"",""249761""
","","","644.5","","","17","18205","768","&#9761;","elianto","#3366ff99","-1"," ","0","+10","[1494.6000000014901]","1","0","2","","","","","","","",""
"pit-trial","51","512117","0.0-2.0-11.2-4.2","battery-v0.2","","""event"",""trial"",""time""
""fullscreenenter"",""1"",""2974""
""fullscreenexit"",""19"",""249761""
""blur"",""19"",""252559""
""focus"",""19"",""262539""
""blur"",""19"",""272722""
""focus"",""19"",""273757""
","""event"",""trial"",""time""
""blur"",""19"",""252559""
""blur"",""19"",""272722""
","""event"",""trial"",""time""
""focus"",""19"",""262539""
""focus"",""19"",""273757""
","""event"",""trial"",""time""
""fullscreenenter"",""1"",""2974""
","""event"",""trial"",""time""
""fullscreenexit"",""19"",""249761""
","","","817.6000000014901","","","17","18205","768","&#9761;","elianto","#3366ff99","-1"," ","0","0","[1667.6999999955297]","1","0","2","","","","","","","",""
"pit-trial","52","516970","0.0-2.0-11.3-0.3","battery-v0.2","","""event"",""trial"",""time""
""fullscreenenter"",""1"",""2974""
""fullscreenexit"",""19"",""249761""
""blur"",""19"",""252559""
""focus"",""19"",""262539""
""blur"",""19"",""272722""
""focus"",""19"",""273757""
","""event"",""trial"",""time""
""blur"",""19"",""252559""
""blur"",""19"",""272722""
","""event"",""trial"",""time""
""focus"",""19"",""262539""
""focus"",""19"",""273757""
","""event"",""trial"",""time""
""fullscreenenter"",""1"",""2974""
","""event"",""trial"",""time""
""fullscreenexit"",""19"",""249761""
","","","-1","","","17","18205","768","&#9761;","elianto","#3366ff99","-1","-1","1","+10","[2937.7000000029802]","1","0","2","","","","","","","",""
"pit-trial","53","521508","0.0-2.0-11.3-1.3","battery-v0.2","","""event"",""trial"",""time""
""fullscreenenter"",""1"",""2974""
""fullscreenexit"",""19"",""249761""
""blur"",""19"",""252559""
""focus"",""19"",""262539""
""blur"",""19"",""272722""
""focus"",""19"",""273757""
","""event"",""trial"",""time""
""blur"",""19"",""252559""
""blur"",""19"",""272722""
","""event"",""trial"",""time""
""focus"",""19"",""262539""
""focus"",""19"",""273757""
","""event"",""trial"",""time""
""fullscreenenter"",""1"",""2974""
","""event"",""trial"",""time""
""fullscreenexit"",""19"",""249761""
","","","1683.6999999955297","","","17","18205","768","&#9761;","elianto","#3366ff99","-1"," ","0","0","[2535.6999999955297]","1","0","2","","","","","","","",""
"pit-trial","54","526360","0.0-2.0-11.3-2.3","battery-v0.2","","""event"",""trial"",""time""
""fullscreenenter"",""1"",""2974""
""fullscreenexit"",""19"",""249761""
""blur"",""19"",""252559""
""focus"",""19"",""262539""
""blur"",""19"",""272722""
""focus"",""19"",""273757""
","""event"",""trial"",""time""
""blur"",""19"",""252559""
""blur"",""19"",""272722""
","""event"",""trial"",""time""
""focus"",""19"",""262539""
""focus"",""19"",""273757""
","""event"",""trial"",""time""
""fullscreenenter"",""1"",""2974""
","""event"",""trial"",""time""
""fullscreenexit"",""19"",""249761""
","","","-1","","","17","18205","768","&#9761;","elianto","#3366ff99","-1","-1","1","+10","[]","0","0","2","","","","","","","",""
"pit-trial","55","531213","0.0-2.0-11.3-3.3","battery-v0.2","","""event"",""trial"",""time""
""fullscreenenter"",""1"",""2974""
""fullscreenexit"",""19"",""249761""
""blur"",""19"",""252559""
""focus"",""19"",""262539""
""blur"",""19"",""272722""
""focus"",""19"",""273757""
","""event"",""trial"",""time""
""blur"",""19"",""252559""
""blur"",""19"",""272722""
","""event"",""trial"",""time""
""focus"",""19"",""262539""
""focus"",""19"",""273757""
","""event"",""trial"",""time""
""fullscreenenter"",""1"",""2974""
","""event"",""trial"",""time""
""fullscreenexit"",""19"",""249761""
","","","-1","","","17","18205","768","&#9761;","elianto","#3366ff99","-1","-1","1","0","[]","0","0","2","","","","","","","",""
"pit-trial","56","536066","0.0-2.0-11.3-4.3","battery-v0.2","","""event"",""trial"",""time""
""fullscreenenter"",""1"",""2974""
""fullscreenexit"",""19"",""249761""
""blur"",""19"",""252559""
""focus"",""19"",""262539""
""blur"",""19"",""272722""
""focus"",""19"",""273757""
","""event"",""trial"",""time""
""blur"",""19"",""252559""
""blur"",""19"",""272722""
","""event"",""trial"",""time""
""focus"",""19"",""262539""
""focus"",""19"",""273757""
","""event"",""trial"",""time""
""fullscreenenter"",""1"",""2974""
","""event"",""trial"",""time""
""fullscreenexit"",""19"",""249761""
","","","-1","","","17","18205","768","&#9761;","elianto","#3366ff99","-1","-1","1","+10","[]","0","0","2","","","","","","","",""
"call-function","57","536068","0.0-2.0-12.0","battery-v0.2","","""event"",""trial"",""time""
""fullscreenenter"",""1"",""2974""
""fullscreenexit"",""19"",""249761""
""blur"",""19"",""252559""
""focus"",""19"",""262539""
""blur"",""19"",""272722""
""focus"",""19"",""273757""
""blur"",""58"",""591102""
""focus"",""58"",""599172""
","""event"",""trial"",""time""
""blur"",""19"",""252559""
""blur"",""19"",""272722""
""blur"",""58"",""591102""
","""event"",""trial"",""time""
""focus"",""19"",""262539""
""focus"",""19"",""273757""
""focus"",""58"",""599172""
","""event"",""trial"",""time""
""fullscreenenter"",""1"",""2974""
","""event"",""trial"",""time""
""fullscreenexit"",""19"",""249761""
","","","","","","","","","","","","","","","","","","","","","","","","","","",""
"pit-instructions","58","686589","0.0-2.0-13.0","battery-v0.2","","""event"",""trial"",""time""
""fullscreenenter"",""1"",""2974""
""fullscreenexit"",""19"",""249761""
""blur"",""19"",""252559""
""focus"",""19"",""262539""
""blur"",""19"",""272722""
""focus"",""19"",""273757""
""blur"",""58"",""591102""
""focus"",""58"",""599172""
","""event"",""trial"",""time""
""blur"",""19"",""252559""
""blur"",""19"",""272722""
""blur"",""58"",""591102""
","""event"",""trial"",""time""
""focus"",""19"",""262539""
""focus"",""19"",""273757""
""focus"",""58"",""599172""
","""event"",""trial"",""time""
""fullscreenenter"",""1"",""2974""
","""event"",""trial"",""time""
""fullscreenexit"",""19"",""249761""
","","[{""page_index"":0,""viewing_time"":115871},{""page_index"":1,""viewing_time"":10691.60000000149},{""page_index"":2,""viewing_time"":5039.79999999702},{""page_index"":3,""viewing_time"":10860.40000000596},{""page_index"":4,""viewing_time"":8056.69999999553}]","150520","","","","","","","","","","","","","","","","","","","","","","","",""
"pit-trial","59","690628","0.0-2.0-14.0-0.0","battery-v0.2","","""event"",""trial"",""time""
""fullscreenenter"",""1"",""2974""
""fullscreenexit"",""19"",""249761""
""blur"",""19"",""252559""
""focus"",""19"",""262539""
""blur"",""19"",""272722""
""focus"",""19"",""273757""
""blur"",""58"",""591102""
""focus"",""58"",""599172""
","""event"",""trial"",""time""
""blur"",""19"",""252559""
""blur"",""19"",""272722""
""blur"",""58"",""591102""
","""event"",""trial"",""time""
""focus"",""19"",""262539""
""focus"",""19"",""273757""
""focus"",""58"",""599172""
","""event"",""trial"",""time""
""fullscreenenter"",""1"",""2974""
","""event"",""trial"",""time""
""fullscreenexit"",""19"",""249761""
","","","1185.8999999985099","","","17","18205","768","&#9826;","elianto","#f73b6a7A","-1"," ","0","-10","[2036.1000000014901]","1","0","3","","","","","","","",""
"pit-trial","60","695481","0.0-2.0-14.0-1.0","battery-v0.2","","""event"",""trial"",""time""
""fullscreenenter"",""1"",""2974""
""fullscreenexit"",""19"",""249761""
""blur"",""19"",""252559""
""focus"",""19"",""262539""
""blur"",""19"",""272722""
""focus"",""19"",""273757""
""blur"",""58"",""591102""
""focus"",""58"",""599172""
","""event"",""trial"",""time""
""blur"",""19"",""252559""
""blur"",""19"",""272722""
""blur"",""58"",""591102""
","""event"",""trial"",""time""
""focus"",""19"",""262539""
""focus"",""19"",""273757""
""focus"",""58"",""599172""
","""event"",""trial"",""time""
""fullscreenenter"",""1"",""2974""
","""event"",""trial"",""time""
""fullscreenexit"",""19"",""249761""
","","","-1","","","17","18205","768","&#9826;","elianto","#f73b6a7A","-1","-1","1","0","[]","0","0","3","","","","","","","",""
"pit-trial","61","700334","0.0-2.0-14.0-2.0","battery-v0.2","","""event"",""trial"",""time""
""fullscreenenter"",""1"",""2974""
""fullscreenexit"",""19"",""249761""
""blur"",""19"",""252559""
""focus"",""19"",""262539""
""blur"",""19"",""272722""
""focus"",""19"",""273757""
""blur"",""58"",""591102""
""focus"",""58"",""599172""
","""event"",""trial"",""time""
""blur"",""19"",""252559""
""blur"",""19"",""272722""
""blur"",""58"",""591102""
","""event"",""trial"",""time""
""focus"",""19"",""262539""
""focus"",""19"",""273757""
""focus"",""58"",""599172""
","""event"",""trial"",""time""
""fullscreenenter"",""1"",""2974""
","""event"",""trial"",""time""
""fullscreenexit"",""19"",""249761""
","","","-1","","","17","18205","768","&#9826;","elianto","#f73b6a7A","-1","-1","1","0","[]","0","0","3","","","","","","","",""
"pit-trial","62","705187","0.0-2.0-14.0-3.0","battery-v0.2","","""event"",""trial"",""time""
""fullscreenenter"",""1"",""2974""
""fullscreenexit"",""19"",""249761""
""blur"",""19"",""252559""
""focus"",""19"",""262539""
""blur"",""19"",""272722""
""focus"",""19"",""273757""
""blur"",""58"",""591102""
""focus"",""58"",""599172""
","""event"",""trial"",""time""
""blur"",""19"",""252559""
""blur"",""19"",""272722""
""blur"",""58"",""591102""
","""event"",""trial"",""time""
""focus"",""19"",""262539""
""focus"",""19"",""273757""
""focus"",""58"",""599172""
","""event"",""trial"",""time""
""fullscreenenter"",""1"",""2974""
","""event"",""trial"",""time""
""fullscreenexit"",""19"",""249761""
","","","-1","","","17","18205","768","&#9826;","elianto","#f73b6a7A","-1","-1","1","-10","[]","0","0","3","","","","","","","",""
"pit-trial","63","710040","0.0-2.0-14.0-4.0","battery-v0.2","","""event"",""trial"",""time""
""fullscreenenter"",""1"",""2974""
""fullscreenexit"",""19"",""249761""
""blur"",""19"",""252559""
""focus"",""19"",""262539""
""blur"",""19"",""272722""
""focus"",""19"",""273757""
""blur"",""58"",""591102""
""focus"",""58"",""599172""
","""event"",""trial"",""time""
""blur"",""19"",""252559""
""blur"",""19"",""272722""
""blur"",""58"",""591102""
","""event"",""trial"",""time""
""focus"",""19"",""262539""
""focus"",""19"",""273757""
""focus"",""58"",""599172""
","""event"",""trial"",""time""
""fullscreenenter"",""1"",""2974""
","""event"",""trial"",""time""
""fullscreenexit"",""19"",""249761""
","","","-1","","","17","18205","768","&#9826;","elianto","#f73b6a7A","-1","-1","1","0","[]","0","0","3","","","","","","","",""
"pit-trial","64","714894","0.0-2.0-14.1-0.1","battery-v0.2","","""event"",""trial"",""time""
""fullscreenenter"",""1"",""2974""
""fullscreenexit"",""19"",""249761""
""blur"",""19"",""252559""
""focus"",""19"",""262539""
""blur"",""19"",""272722""
""focus"",""19"",""273757""
""blur"",""58"",""591102""
""focus"",""58"",""599172""
","""event"",""trial"",""time""
""blur"",""19"",""252559""
""blur"",""19"",""272722""
""blur"",""58"",""591102""
","""event"",""trial"",""time""
""focus"",""19"",""262539""
""focus"",""19"",""273757""
""focus"",""58"",""599172""
","""event"",""trial"",""time""
""fullscreenenter"",""1"",""2974""
","""event"",""trial"",""time""
""fullscreenexit"",""19"",""249761""
","","","-1","","","17","18205","768","&#9826;","elianto","#f73b6a7A","-1","-1","1","0","[]","0","0","3","","","","","","","",""
"pit-trial","65","719746","0.0-2.0-14.1-1.1","battery-v0.2","","""event"",""trial"",""time""
""fullscreenenter"",""1"",""2974""
""fullscreenexit"",""19"",""249761""
""blur"",""19"",""252559""
""focus"",""19"",""262539""
""blur"",""19"",""272722""
""focus"",""19"",""273757""
""blur"",""58"",""591102""
""focus"",""58"",""599172""
","""event"",""trial"",""time""
""blur"",""19"",""252559""
""blur"",""19"",""272722""
""blur"",""58"",""591102""
","""event"",""trial"",""time""
""focus"",""19"",""262539""
""focus"",""19"",""273757""
""focus"",""58"",""599172""
","""event"",""trial"",""time""
""fullscreenenter"",""1"",""2974""
","""event"",""trial"",""time""
""fullscreenexit"",""19"",""249761""
","","","-1","","","17","18205","768","&#9826;","elianto","#f73b6a7A","-1","-1","1","0","[]","0","0","3","","","","","","","",""
"pit-trial","66","724599","0.0-2.0-14.1-2.1","battery-v0.2","","""event"",""trial"",""time""
""fullscreenenter"",""1"",""2974""
""fullscreenexit"",""19"",""249761""
""blur"",""19"",""252559""
""focus"",""19"",""262539""
""blur"",""19"",""272722""
""focus"",""19"",""273757""
""blur"",""58"",""591102""
""focus"",""58"",""599172""
","""event"",""trial"",""time""
""blur"",""19"",""252559""
""blur"",""19"",""272722""
""blur"",""58"",""591102""
","""event"",""trial"",""time""
""focus"",""19"",""262539""
""focus"",""19"",""273757""
""focus"",""58"",""599172""
","""event"",""trial"",""time""
""fullscreenenter"",""1"",""2974""
","""event"",""trial"",""time""
""fullscreenexit"",""19"",""249761""
","","","-1","","","17","18205","768","&#9826;","elianto","#f73b6a7A","-1","-1","1","0","[]","0","0","3","","","","","","","",""
"pit-trial","67","729452","0.0-2.0-14.1-3.1","battery-v0.2","","""event"",""trial"",""time""
""fullscreenenter"",""1"",""2974""
""fullscreenexit"",""19"",""249761""
""blur"",""19"",""252559""
""focus"",""19"",""262539""
""blur"",""19"",""272722""
""focus"",""19"",""273757""
""blur"",""58"",""591102""
""focus"",""58"",""599172""
","""event"",""trial"",""time""
""blur"",""19"",""252559""
""blur"",""19"",""272722""
""blur"",""58"",""591102""
","""event"",""trial"",""time""
""focus"",""19"",""262539""
""focus"",""19"",""273757""
""focus"",""58"",""599172""
","""event"",""trial"",""time""
""fullscreenenter"",""1"",""2974""
","""event"",""trial"",""time""
""fullscreenexit"",""19"",""249761""
","","","-1","","","17","18205","768","&#9826;","elianto","#f73b6a7A","-1","-1","1","-10","[]","0","0","3","","","","","","","",""
"pit-trial","68","734304","0.0-2.0-14.1-4.1","battery-v0.2","","""event"",""trial"",""time""
""fullscreenenter"",""1"",""2974""
""fullscreenexit"",""19"",""249761""
""blur"",""19"",""252559""
""focus"",""19"",""262539""
""blur"",""19"",""272722""
""focus"",""19"",""273757""
""blur"",""58"",""591102""
""focus"",""58"",""599172""
","""event"",""trial"",""time""
""blur"",""19"",""252559""
""blur"",""19"",""272722""
""blur"",""58"",""591102""
","""event"",""trial"",""time""
""focus"",""19"",""262539""
""focus"",""19"",""273757""
""focus"",""58"",""599172""
","""event"",""trial"",""time""
""fullscreenenter"",""1"",""2974""
","""event"",""trial"",""time""
""fullscreenexit"",""19"",""249761""
","","","-1","","","17","18205","768","&#9826;","elianto","#f73b6a7A","-1","-1","1","0","[]","0","0","3","","","","","","","",""
"pit-trial","69","739158","0.0-2.0-14.2-0.2","battery-v0.2","","""event"",""trial"",""time""
""fullscreenenter"",""1"",""2974""
""fullscreenexit"",""19"",""249761""
""blur"",""19"",""252559""
""focus"",""19"",""262539""
""blur"",""19"",""272722""
""focus"",""19"",""273757""
""blur"",""58"",""591102""
""focus"",""58"",""599172""
","""event"",""trial"",""time""
""blur"",""19"",""252559""
""blur"",""19"",""272722""
""blur"",""58"",""591102""
","""event"",""trial"",""time""
""focus"",""19"",""262539""
""focus"",""19"",""273757""
""focus"",""58"",""599172""
","""event"",""trial"",""time""
""fullscreenenter"",""1"",""2974""
","""event"",""trial"",""time""
""fullscreenexit"",""19"",""249761""
","","","-1","","","17","18205","768","&#9826;","elianto","#f73b6a7A","-1","-1","1","0","[]","0","0","3","","","","","","","",""
"pit-trial","70","744010","0.0-2.0-14.2-1.2","battery-v0.2","","""event"",""trial"",""time""
""fullscreenenter"",""1"",""2974""
""fullscreenexit"",""19"",""249761""
""blur"",""19"",""252559""
""focus"",""19"",""262539""
""blur"",""19"",""272722""
""focus"",""19"",""273757""
""blur"",""58"",""591102""
""focus"",""58"",""599172""
","""event"",""trial"",""time""
""blur"",""19"",""252559""
""blur"",""19"",""272722""
""blur"",""58"",""591102""
","""event"",""trial"",""time""
""focus"",""19"",""262539""
""focus"",""19"",""273757""
""focus"",""58"",""599172""
","""event"",""trial"",""time""
""fullscreenenter"",""1"",""2974""
","""event"",""trial"",""time""
""fullscreenexit"",""19"",""249761""
","","","-1","","","17","18205","768","&#9826;","elianto","#f73b6a7A","-1","-1","1","0","[]","0","0","3","","","","","","","",""
"pit-trial","71","748863","0.0-2.0-14.2-2.2","battery-v0.2","","""event"",""trial"",""time""
""fullscreenenter"",""1"",""2974""
""fullscreenexit"",""19"",""249761""
""blur"",""19"",""252559""
""focus"",""19"",""262539""
""blur"",""19"",""272722""
""focus"",""19"",""273757""
""blur"",""58"",""591102""
""focus"",""58"",""599172""
","""event"",""trial"",""time""
""blur"",""19"",""252559""
""blur"",""19"",""272722""
""blur"",""58"",""591102""
","""event"",""trial"",""time""
""focus"",""19"",""262539""
""focus"",""19"",""273757""
""focus"",""58"",""599172""
","""event"",""trial"",""time""
""fullscreenenter"",""1"",""2974""
","""event"",""trial"",""time""
""fullscreenexit"",""19"",""249761""
","","","-1","","","17","18205","768","&#9826;","elianto","#f73b6a7A","-1","-1","1","0","[]","0","0","3","","","","","","","",""
"pit-trial","72","753716","0.0-2.0-14.2-3.2","battery-v0.2","","""event"",""trial"",""time""
""fullscreenenter"",""1"",""2974""
""fullscreenexit"",""19"",""249761""
""blur"",""19"",""252559""
""focus"",""19"",""262539""
""blur"",""19"",""272722""
""focus"",""19"",""273757""
""blur"",""58"",""591102""
""focus"",""58"",""599172""
","""event"",""trial"",""time""
""blur"",""19"",""252559""
""blur"",""19"",""272722""
""blur"",""58"",""591102""
","""event"",""trial"",""time""
""focus"",""19"",""262539""
""focus"",""19"",""273757""
""focus"",""58"",""599172""
","""event"",""trial"",""time""
""fullscreenenter"",""1"",""2974""
","""event"",""trial"",""time""
""fullscreenexit"",""19"",""249761""
","","","-1","","","17","18205","768","&#9826;","elianto","#f73b6a7A","-1","-1","1","-10","[]","0","0","3","","","","","","","",""
"pit-trial","73","758568","0.0-2.0-14.2-4.2","battery-v0.2","","""event"",""trial"",""time""
""fullscreenenter"",""1"",""2974""
""fullscreenexit"",""19"",""249761""
""blur"",""19"",""252559""
""focus"",""19"",""262539""
""blur"",""19"",""272722""
""focus"",""19"",""273757""
""blur"",""58"",""591102""
""focus"",""58"",""599172""
","""event"",""trial"",""time""
""blur"",""19"",""252559""
""blur"",""19"",""272722""
""blur"",""58"",""591102""
","""event"",""trial"",""time""
""focus"",""19"",""262539""
""focus"",""19"",""273757""
""focus"",""58"",""599172""
","""event"",""trial"",""time""
""fullscreenenter"",""1"",""2974""
","""event"",""trial"",""time""
""fullscreenexit"",""19"",""249761""
","","","-1","","","17","18205","768","&#9826;","elianto","#f73b6a7A","-1","-1","1","0","[]","0","0","3","","","","","","","",""
"pit-trial","74","763422","0.0-2.0-14.3-0.3","battery-v0.2","","""event"",""trial"",""time""
""fullscreenenter"",""1"",""2974""
""fullscreenexit"",""19"",""249761""
""blur"",""19"",""252559""
""focus"",""19"",""262539""
""blur"",""19"",""272722""
""focus"",""19"",""273757""
""blur"",""58"",""591102""
""focus"",""58"",""599172""
","""event"",""trial"",""time""
""blur"",""19"",""252559""
""blur"",""19"",""272722""
""blur"",""58"",""591102""
","""event"",""trial"",""time""
""focus"",""19"",""262539""
""focus"",""19"",""273757""
""focus"",""58"",""599172""
","""event"",""trial"",""time""
""fullscreenenter"",""1"",""2974""
","""event"",""trial"",""time""
""fullscreenexit"",""19"",""249761""
","","","-1","","","17","18205","768","&#9826;","elianto","#f73b6a7A","-1","-1","1","0","[]","0","0","3","","","","","","","",""
"pit-trial","75","768274","0.0-2.0-14.3-1.3","battery-v0.2","","""event"",""trial"",""time""
""fullscreenenter"",""1"",""2974""
""fullscreenexit"",""19"",""249761""
""blur"",""19"",""252559""
""focus"",""19"",""262539""
""blur"",""19"",""272722""
""focus"",""19"",""273757""
""blur"",""58"",""591102""
""focus"",""58"",""599172""
","""event"",""trial"",""time""
""blur"",""19"",""252559""
""blur"",""19"",""272722""
""blur"",""58"",""591102""
","""event"",""trial"",""time""
""focus"",""19"",""262539""
""focus"",""19"",""273757""
""focus"",""58"",""599172""
","""event"",""trial"",""time""
""fullscreenenter"",""1"",""2974""
","""event"",""trial"",""time""
""fullscreenexit"",""19"",""249761""
","","","-1","","","17","18205","768","&#9826;","elianto","#f73b6a7A","-1","-1","1","0","[]","0","0","3","","","","","","","",""
"pit-trial","76","773126","0.0-2.0-14.3-2.3","battery-v0.2","","""event"",""trial"",""time""
""fullscreenenter"",""1"",""2974""
""fullscreenexit"",""19"",""249761""
""blur"",""19"",""252559""
""focus"",""19"",""262539""
""blur"",""19"",""272722""
""focus"",""19"",""273757""
""blur"",""58"",""591102""
""focus"",""58"",""599172""
","""event"",""trial"",""time""
""blur"",""19"",""252559""
""blur"",""19"",""272722""
""blur"",""58"",""591102""
","""event"",""trial"",""time""
""focus"",""19"",""262539""
""focus"",""19"",""273757""
""focus"",""58"",""599172""
","""event"",""trial"",""time""
""fullscreenenter"",""1"",""2974""
","""event"",""trial"",""time""
""fullscreenexit"",""19"",""249761""
","","","-1","","","17","18205","768","&#9826;","elianto","#f73b6a7A","-1","-1","1","0","[]","0","0","3","","","","","","","",""
"pit-trial","77","777978","0.0-2.0-14.3-3.3","battery-v0.2","","""event"",""trial"",""time""
""fullscreenenter"",""1"",""2974""
""fullscreenexit"",""19"",""249761""
""blur"",""19"",""252559""
""focus"",""19"",""262539""
""blur"",""19"",""272722""
""focus"",""19"",""273757""
""blur"",""58"",""591102""
""focus"",""58"",""599172""
","""event"",""trial"",""time""
""blur"",""19"",""252559""
""blur"",""19"",""272722""
""blur"",""58"",""591102""
","""event"",""trial"",""time""
""focus"",""19"",""262539""
""focus"",""19"",""273757""
""focus"",""58"",""599172""
","""event"",""trial"",""time""
""fullscreenenter"",""1"",""2974""
","""event"",""trial"",""time""
""fullscreenexit"",""19"",""249761""
","","","-1","","","17","18205","768","&#9826;","elianto","#f73b6a7A","-1","-1","1","-10","[]","0","0","3","","","","","","","",""
"pit-trial","78","782830","0.0-2.0-14.3-4.3","battery-v0.2","","""event"",""trial"",""time""
""fullscreenenter"",""1"",""2974""
""fullscreenexit"",""19"",""249761""
""blur"",""19"",""252559""
""focus"",""19"",""262539""
""blur"",""19"",""272722""
""focus"",""19"",""273757""
""blur"",""58"",""591102""
""focus"",""58"",""599172""
","""event"",""trial"",""time""
""blur"",""19"",""252559""
""blur"",""19"",""272722""
""blur"",""58"",""591102""
","""event"",""trial"",""time""
""focus"",""19"",""262539""
""focus"",""19"",""273757""
""focus"",""58"",""599172""
","""event"",""trial"",""time""
""fullscreenenter"",""1"",""2974""
","""event"",""trial"",""time""
""fullscreenexit"",""19"",""249761""
","","","-1","","","17","18205","768","&#9826;","elianto","#f73b6a7A","-1","-1","1","0","[]","0","0","3","","","","","","","",""
"call-function","79","782832","0.0-2.0-15.0","battery-v0.2","","""event"",""trial"",""time""
""fullscreenenter"",""1"",""2974""
""fullscreenexit"",""19"",""249761""
""blur"",""19"",""252559""
""focus"",""19"",""262539""
""blur"",""19"",""272722""
""focus"",""19"",""273757""
""blur"",""58"",""591102""
""focus"",""58"",""599172""
""blur"",""80"",""788503""
""focus"",""80"",""937522""
","""event"",""trial"",""time""
""blur"",""19"",""252559""
""blur"",""19"",""272722""
""blur"",""58"",""591102""
""blur"",""80"",""788503""
","""event"",""trial"",""time""
""focus"",""19"",""262539""
""focus"",""19"",""273757""
""focus"",""58"",""599172""
""focus"",""80"",""937522""
","""event"",""trial"",""time""
""fullscreenenter"",""1"",""2974""
","""event"",""trial"",""time""
""fullscreenexit"",""19"",""249761""
","","","","","","","","","","","","","","","","","","","","","","","","","","",""
"pit-instructions","80","1271716","0.0-2.0-16.0","battery-v0.2","","""event"",""trial"",""time""
""fullscreenenter"",""1"",""2974""
""fullscreenexit"",""19"",""249761""
""blur"",""19"",""252559""
""focus"",""19"",""262539""
""blur"",""19"",""272722""
""focus"",""19"",""273757""
""blur"",""58"",""591102""
""focus"",""58"",""599172""
""blur"",""80"",""788503""
""focus"",""80"",""937522""
","""event"",""trial"",""time""
""blur"",""19"",""252559""
""blur"",""19"",""272722""
""blur"",""58"",""591102""
""blur"",""80"",""788503""
","""event"",""trial"",""time""
""focus"",""19"",""262539""
""focus"",""19"",""273757""
""focus"",""58"",""599172""
""focus"",""80"",""937522""
","""event"",""trial"",""time""
""fullscreenenter"",""1"",""2974""
","""event"",""trial"",""time""
""fullscreenexit"",""19"",""249761""
","","[{""page_index"":0,""viewing_time"":157511},{""page_index"":1,""viewing_time"":12980.59999999404},{""page_index"":2,""viewing_time"":313693.700000003},{""page_index"":3,""viewing_time"":4697.5}]","488883.3999999985","","","","","","","","","","","","","","","","","","","","","","","",""
"pit-trial","81","1274986","0.0-2.0-17.0-0.0","battery-v0.2","","""event"",""trial"",""time""
""fullscreenenter"",""1"",""2974""
""fullscreenexit"",""19"",""249761""
""blur"",""19"",""252559""
""focus"",""19"",""262539""
""blur"",""19"",""272722""
""focus"",""19"",""273757""
""blur"",""58"",""591102""
""focus"",""58"",""599172""
""blur"",""80"",""788503""
""focus"",""80"",""937522""
","""event"",""trial"",""time""
""blur"",""19"",""252559""
""blur"",""19"",""272722""
""blur"",""58"",""591102""
""blur"",""80"",""788503""
","""event"",""trial"",""time""
""focus"",""19"",""262539""
""focus"",""19"",""273757""
""focus"",""58"",""599172""
""focus"",""80"",""937522""
","""event"",""trial"",""time""
""fullscreenenter"",""1"",""2974""
","""event"",""trial"",""time""
""fullscreenexit"",""19"",""249761""
","","","415.5","","","17","18205","768","&#9789;","elianto","#f73b6a7A"," "," ","1","0","[1265.6000000014901]","1","0","4","","","","","","","",""
"pit-trial","82","1278043","0.0-2.0-17.0-1.0","battery-v0.2","","""event"",""trial"",""time""
""fullscreenenter"",""1"",""2974""
""fullscreenexit"",""19"",""249761""
""blur"",""19"",""252559""
""focus"",""19"",""262539""
""blur"",""19"",""272722""
""focus"",""19"",""273757""
""blur"",""58"",""591102""
""focus"",""58"",""599172""
""blur"",""80"",""788503""
""focus"",""80"",""937522""
","""event"",""trial"",""time""
""blur"",""19"",""252559""
""blur"",""19"",""272722""
""blur"",""58"",""591102""
""blur"",""80"",""788503""
","""event"",""trial"",""time""
""focus"",""19"",""262539""
""focus"",""19"",""273757""
""focus"",""58"",""599172""
""focus"",""80"",""937522""
","""event"",""trial"",""time""
""fullscreenenter"",""1"",""2974""
","""event"",""trial"",""time""
""fullscreenexit"",""19"",""249761""
","","","204.69999999552965","","","17","18205","768","&#9789;","elianto","#f73b6a7A"," "," ","1","0","[1054.7999999970198]","1","0","4","","","","","","","",""
"pit-trial","83","1281187","0.0-2.0-17.0-2.0","battery-v0.2","","""event"",""trial"",""time""
""fullscreenenter"",""1"",""2974""
""fullscreenexit"",""19"",""249761""
""blur"",""19"",""252559""
""focus"",""19"",""262539""
""blur"",""19"",""272722""
""focus"",""19"",""273757""
""blur"",""58"",""591102""
""focus"",""58"",""599172""
""blur"",""80"",""788503""
""focus"",""80"",""937522""
","""event"",""trial"",""time""
""blur"",""19"",""252559""
""blur"",""19"",""272722""
""blur"",""58"",""591102""
""blur"",""80"",""788503""
","""event"",""trial"",""time""
""focus"",""19"",""262539""
""focus"",""19"",""273757""
""focus"",""58"",""599172""
""focus"",""80"",""937522""
","""event"",""trial"",""time""
""fullscreenenter"",""1"",""2974""
","""event"",""trial"",""time""
""fullscreenexit"",""19"",""249761""
","","","290.5","","","17","18205","768","&#9789;","elianto","#f73b6a7A"," "," ","1","0","[1140.1000000014901]","1","0","4","","","","","","","",""
"pit-trial","84","1284320","0.0-2.0-17.0-3.0","battery-v0.2","","""event"",""trial"",""time""
""fullscreenenter"",""1"",""2974""
""fullscreenexit"",""19"",""249761""
""blur"",""19"",""252559""
""focus"",""19"",""262539""
""blur"",""19"",""272722""
""focus"",""19"",""273757""
""blur"",""58"",""591102""
""focus"",""58"",""599172""
""blur"",""80"",""788503""
""focus"",""80"",""937522""
","""event"",""trial"",""time""
""blur"",""19"",""252559""
""blur"",""19"",""272722""
""blur"",""58"",""591102""
""blur"",""80"",""788503""
","""event"",""trial"",""time""
""focus"",""19"",""262539""
""focus"",""19"",""273757""
""focus"",""58"",""599172""
""focus"",""80"",""937522""
","""event"",""trial"",""time""
""fullscreenenter"",""1"",""2974""
","""event"",""trial"",""time""
""fullscreenexit"",""19"",""249761""
","","","279.3999999985099","","","17","18205","768","&#9789;","elianto","#f73b6a7A"," "," ","1","-10","[1130.1999999955297]","1","0","4","","","","","","","",""
"pit-trial","85","1287535","0.0-2.0-17.0-4.0","battery-v0.2","","""event"",""trial"",""time""
""fullscreenenter"",""1"",""2974""
""fullscreenexit"",""19"",""249761""
""blur"",""19"",""252559""
""focus"",""19"",""262539""
""blur"",""19"",""272722""
""focus"",""19"",""273757""
""blur"",""58"",""591102""
""focus"",""58"",""599172""
""blur"",""80"",""788503""
""focus"",""80"",""937522""
","""event"",""trial"",""time""
""blur"",""19"",""252559""
""blur"",""19"",""272722""
""blur"",""58"",""591102""
""blur"",""80"",""788503""
","""event"",""trial"",""time""
""focus"",""19"",""262539""
""focus"",""19"",""273757""
""focus"",""58"",""599172""
""focus"",""80"",""937522""
","""event"",""trial"",""time""
""fullscreenenter"",""1"",""2974""
","""event"",""trial"",""time""
""fullscreenexit"",""19"",""249761""
","","","361.70000000298023","","","17","18205","768","&#9789;","elianto","#f73b6a7A"," "," ","1","0","[1211.8999999985099]","1","0","4","","","","","","","",""
"pit-trial","86","1290759","0.0-2.0-17.1-0.1","battery-v0.2","","""event"",""trial"",""time""
""fullscreenenter"",""1"",""2974""
""fullscreenexit"",""19"",""249761""
""blur"",""19"",""252559""
""focus"",""19"",""262539""
""blur"",""19"",""272722""
""focus"",""19"",""273757""
""blur"",""58"",""591102""
""focus"",""58"",""599172""
""blur"",""80"",""788503""
""focus"",""80"",""937522""
","""event"",""trial"",""time""
""blur"",""19"",""252559""
""blur"",""19"",""272722""
""blur"",""58"",""591102""
""blur"",""80"",""788503""
","""event"",""trial"",""time""
""focus"",""19"",""262539""
""focus"",""19"",""273757""
""focus"",""58"",""599172""
""focus"",""80"",""937522""
","""event"",""trial"",""time""
""fullscreenenter"",""1"",""2974""
","""event"",""trial"",""time""
""fullscreenexit"",""19"",""249761""
","","","370.79999999701977","","","17","18205","768","&#9789;","elianto","#f73b6a7A"," "," ","1","0","[1220.9000000059605]","1","0","4","","","","","","","",""
"pit-trial","87","1295612","0.0-2.0-17.1-1.1","battery-v0.2","","""event"",""trial"",""time""
""fullscreenenter"",""1"",""2974""
""fullscreenexit"",""19"",""249761""
""blur"",""19"",""252559""
""focus"",""19"",""262539""
""blur"",""19"",""272722""
""focus"",""19"",""273757""
""blur"",""58"",""591102""
""focus"",""58"",""599172""
""blur"",""80"",""788503""
""focus"",""80"",""937522""
","""event"",""trial"",""time""
""blur"",""19"",""252559""
""blur"",""19"",""272722""
""blur"",""58"",""591102""
""blur"",""80"",""788503""
","""event"",""trial"",""time""
""focus"",""19"",""262539""
""focus"",""19"",""273757""
""focus"",""58"",""599172""
""focus"",""80"",""937522""
","""event"",""trial"",""time""
""fullscreenenter"",""1"",""2974""
","""event"",""trial"",""time""
""fullscreenexit"",""19"",""249761""
","","","-1","","","17","18205","768","&#9789;","elianto","#f73b6a7A"," ","-1","0","-10","[]","0","0","4","","","","","","","",""
"pit-trial","88","1298931","0.0-2.0-17.1-2.1","battery-v0.2","","""event"",""trial"",""time""
""fullscreenenter"",""1"",""2974""
""fullscreenexit"",""19"",""249761""
""blur"",""19"",""252559""
""focus"",""19"",""262539""
""blur"",""19"",""272722""
""focus"",""19"",""273757""
""blur"",""58"",""591102""
""focus"",""58"",""599172""
""blur"",""80"",""788503""
""focus"",""80"",""937522""
","""event"",""trial"",""time""
""blur"",""19"",""252559""
""blur"",""19"",""272722""
""blur"",""58"",""591102""
""blur"",""80"",""788503""
","""event"",""trial"",""time""
""focus"",""19"",""262539""
""focus"",""19"",""273757""
""focus"",""58"",""599172""
""focus"",""80"",""937522""
","""event"",""trial"",""time""
""fullscreenenter"",""1"",""2974""
","""event"",""trial"",""time""
""fullscreenexit"",""19"",""249761""
","","","466.70000000298023","","","17","18205","768","&#9789;","elianto","#f73b6a7A"," "," ","1","0","[1316.8000000044703]","1","0","4","","","","","","","",""
"pit-trial","89","1302163","0.0-2.0-17.1-3.1","battery-v0.2","","""event"",""trial"",""time""
""fullscreenenter"",""1"",""2974""
""fullscreenexit"",""19"",""249761""
""blur"",""19"",""252559""
""focus"",""19"",""262539""
""blur"",""19"",""272722""
""focus"",""19"",""273757""
""blur"",""58"",""591102""
""focus"",""58"",""599172""
""blur"",""80"",""788503""
""focus"",""80"",""937522""
","""event"",""trial"",""time""
""blur"",""19"",""252559""
""blur"",""19"",""272722""
""blur"",""58"",""591102""
""blur"",""80"",""788503""
","""event"",""trial"",""time""
""focus"",""19"",""262539""
""focus"",""19"",""273757""
""focus"",""58"",""599172""
""focus"",""80"",""937522""
","""event"",""trial"",""time""
""fullscreenenter"",""1"",""2974""
","""event"",""trial"",""time""
""fullscreenexit"",""19"",""249761""
","","","380.1000000014901","","","17","18205","768","&#9789;","elianto","#f73b6a7A"," "," ","1","-10","[1230.3000000044703]","1","0","4","","","","","","","",""
"pit-trial","90","1305367","0.0-2.0-17.1-4.1","battery-v0.2","","""event"",""trial"",""time""
""fullscreenenter"",""1"",""2974""
""fullscreenexit"",""19"",""249761""
""blur"",""19"",""252559""
""focus"",""19"",""262539""
""blur"",""19"",""272722""
""focus"",""19"",""273757""
""blur"",""58"",""591102""
""focus"",""58"",""599172""
""blur"",""80"",""788503""
""focus"",""80"",""937522""
","""event"",""trial"",""time""
""blur"",""19"",""252559""
""blur"",""19"",""272722""
""blur"",""58"",""591102""
""blur"",""80"",""788503""
","""event"",""trial"",""time""
""focus"",""19"",""262539""
""focus"",""19"",""273757""
""focus"",""58"",""599172""
""focus"",""80"",""937522""
","""event"",""trial"",""time""
""fullscreenenter"",""1"",""2974""
","""event"",""trial"",""time""
""fullscreenexit"",""19"",""249761""
","","","350.70000000298023","","","17","18205","768","&#9789;","elianto","#f73b6a7A"," "," ","1","0","[1200.6999999955297]","1","0","4","","","","","","","",""
"pit-trial","91","1308625","0.0-2.0-17.2-0.2","battery-v0.2","","""event"",""trial"",""time""
""fullscreenenter"",""1"",""2974""
""fullscreenexit"",""19"",""249761""
""blur"",""19"",""252559""
""focus"",""19"",""262539""
""blur"",""19"",""272722""
""focus"",""19"",""273757""
""blur"",""58"",""591102""
""focus"",""58"",""599172""
""blur"",""80"",""788503""
""focus"",""80"",""937522""
","""event"",""trial"",""time""
""blur"",""19"",""252559""
""blur"",""19"",""272722""
""blur"",""58"",""591102""
""blur"",""80"",""788503""
","""event"",""trial"",""time""
""focus"",""19"",""262539""
""focus"",""19"",""273757""
""focus"",""58"",""599172""
""focus"",""80"",""937522""
","""event"",""trial"",""time""
""fullscreenenter"",""1"",""2974""
","""event"",""trial"",""time""
""fullscreenexit"",""19"",""249761""
","","","404.29999999701977","","","17","18205","768","&#9789;","elianto","#f73b6a7A"," "," ","1","0","[1255.5]","1","0","4","","","","","","","",""
"pit-trial","92","1311883","0.0-2.0-17.2-1.2","battery-v0.2","","""event"",""trial"",""time""
""fullscreenenter"",""1"",""2974""
""fullscreenexit"",""19"",""249761""
""blur"",""19"",""252559""
""focus"",""19"",""262539""
""blur"",""19"",""272722""
""focus"",""19"",""273757""
""blur"",""58"",""591102""
""focus"",""58"",""599172""
""blur"",""80"",""788503""
""focus"",""80"",""937522""
","""event"",""trial"",""time""
""blur"",""19"",""252559""
""blur"",""19"",""272722""
""blur"",""58"",""591102""
""blur"",""80"",""788503""
","""event"",""trial"",""time""
""focus"",""19"",""262539""
""focus"",""19"",""273757""
""focus"",""58"",""599172""
""focus"",""80"",""937522""
","""event"",""trial"",""time""
""fullscreenenter"",""1"",""2974""
","""event"",""trial"",""time""
""fullscreenexit"",""19"",""249761""
","","","405.19999999552965","","","17","18205","768","&#9789;","elianto","#f73b6a7A"," "," ","1","0","[1255.3999999985099]","1","0","4","","","","","","","",""
"pit-trial","93","1314947","0.0-2.0-17.2-2.2","battery-v0.2","","""event"",""trial"",""time""
""fullscreenenter"",""1"",""2974""
""fullscreenexit"",""19"",""249761""
""blur"",""19"",""252559""
""focus"",""19"",""262539""
""blur"",""19"",""272722""
""focus"",""19"",""273757""
""blur"",""58"",""591102""
""focus"",""58"",""599172""
""blur"",""80"",""788503""
""focus"",""80"",""937522""
","""event"",""trial"",""time""
""blur"",""19"",""252559""
""blur"",""19"",""272722""
""blur"",""58"",""591102""
""blur"",""80"",""788503""
","""event"",""trial"",""time""
""focus"",""19"",""262539""
""focus"",""19"",""273757""
""focus"",""58"",""599172""
""focus"",""80"",""937522""
","""event"",""trial"",""time""
""fullscreenenter"",""1"",""2974""
","""event"",""trial"",""time""
""fullscreenexit"",""19"",""249761""
","","","211.39999999850988","","","17","18205","768","&#9789;","elianto","#f73b6a7A"," "," ","1","0","[1061.3999999985099]","1","0","4","","","","","","","",""
"pit-trial","94","1318101","0.0-2.0-17.2-3.2","battery-v0.2","","""event"",""trial"",""time""
""fullscreenenter"",""1"",""2974""
""fullscreenexit"",""19"",""249761""
""blur"",""19"",""252559""
""focus"",""19"",""262539""
""blur"",""19"",""272722""
""focus"",""19"",""273757""
""blur"",""58"",""591102""
""focus"",""58"",""599172""
""blur"",""80"",""788503""
""focus"",""80"",""937522""
","""event"",""trial"",""time""
""blur"",""19"",""252559""
""blur"",""19"",""272722""
""blur"",""58"",""591102""
""blur"",""80"",""788503""
","""event"",""trial"",""time""
""focus"",""19"",""262539""
""focus"",""19"",""273757""
""focus"",""58"",""599172""
""focus"",""80"",""937522""
","""event"",""trial"",""time""
""fullscreenenter"",""1"",""2974""
","""event"",""trial"",""time""
""fullscreenexit"",""19"",""249761""
","","","302.1000000014901","","","17","18205","768","&#9789;","elianto","#f73b6a7A"," "," ","1","-10","[1152.2999999970198]","1","0","4","","","","","","","",""
"pit-trial","95","1321273","0.0-2.0-17.2-4.2","battery-v0.2","","""event"",""trial"",""time""
""fullscreenenter"",""1"",""2974""
""fullscreenexit"",""19"",""249761""
""blur"",""19"",""252559""
""focus"",""19"",""262539""
""blur"",""19"",""272722""
""focus"",""19"",""273757""
""blur"",""58"",""591102""
""focus"",""58"",""599172""
""blur"",""80"",""788503""
""focus"",""80"",""937522""
","""event"",""trial"",""time""
""blur"",""19"",""252559""
""blur"",""19"",""272722""
""blur"",""58"",""591102""
""blur"",""80"",""788503""
","""event"",""trial"",""time""
""focus"",""19"",""262539""
""focus"",""19"",""273757""
""focus"",""58"",""599172""
""focus"",""80"",""937522""
","""event"",""trial"",""time""
""fullscreenenter"",""1"",""2974""
","""event"",""trial"",""time""
""fullscreenexit"",""19"",""249761""
","","","319","","","17","18205","768","&#9789;","elianto","#f73b6a7A"," "," ","1","0","[1169.2000000029802]","1","0","4","","","","","","","",""
"pit-trial","96","1324581","0.0-2.0-17.3-0.3","battery-v0.2","","""event"",""trial"",""time""
""fullscreenenter"",""1"",""2974""
""fullscreenexit"",""19"",""249761""
""blur"",""19"",""252559""
""focus"",""19"",""262539""
""blur"",""19"",""272722""
""focus"",""19"",""273757""
""blur"",""58"",""591102""
""focus"",""58"",""599172""
""blur"",""80"",""788503""
""focus"",""80"",""937522""
","""event"",""trial"",""time""
""blur"",""19"",""252559""
""blur"",""19"",""272722""
""blur"",""58"",""591102""
""blur"",""80"",""788503""
","""event"",""trial"",""time""
""focus"",""19"",""262539""
""focus"",""19"",""273757""
""focus"",""58"",""599172""
""focus"",""80"",""937522""
","""event"",""trial"",""time""
""fullscreenenter"",""1"",""2974""
","""event"",""trial"",""time""
""fullscreenexit"",""19"",""249761""
","","","455.29999999701977","","","17","18205","768","&#9789;","elianto","#f73b6a7A"," "," ","1","0","[1305.3999999985099]","1","0","4","","","","","","","",""
"pit-trial","97","1327742","0.0-2.0-17.3-1.3","battery-v0.2","","""event"",""trial"",""time""
""fullscreenenter"",""1"",""2974""
""fullscreenexit"",""19"",""249761""
""blur"",""19"",""252559""
""focus"",""19"",""262539""
""blur"",""19"",""272722""
""focus"",""19"",""273757""
""blur"",""58"",""591102""
""focus"",""58"",""599172""
""blur"",""80"",""788503""
""focus"",""80"",""937522""
","""event"",""trial"",""time""
""blur"",""19"",""252559""
""blur"",""19"",""272722""
""blur"",""58"",""591102""
""blur"",""80"",""788503""
","""event"",""trial"",""time""
""focus"",""19"",""262539""
""focus"",""19"",""273757""
""focus"",""58"",""599172""
""focus"",""80"",""937522""
","""event"",""trial"",""time""
""fullscreenenter"",""1"",""2974""
","""event"",""trial"",""time""
""fullscreenexit"",""19"",""249761""
","","","307.79999999701977","","","17","18205","768","&#9789;","elianto","#f73b6a7A"," "," ","1","0","[1157.7999999970198]","1","0","4","","","","","","","",""
"pit-trial","98","1331067","0.0-2.0-17.3-2.3","battery-v0.2","","""event"",""trial"",""time""
""fullscreenenter"",""1"",""2974""
""fullscreenexit"",""19"",""249761""
""blur"",""19"",""252559""
""focus"",""19"",""262539""
""blur"",""19"",""272722""
""focus"",""19"",""273757""
""blur"",""58"",""591102""
""focus"",""58"",""599172""
""blur"",""80"",""788503""
""focus"",""80"",""937522""
","""event"",""trial"",""time""
""blur"",""19"",""252559""
""blur"",""19"",""272722""
""blur"",""58"",""591102""
""blur"",""80"",""788503""
","""event"",""trial"",""time""
""focus"",""19"",""262539""
""focus"",""19"",""273757""
""focus"",""58"",""599172""
""focus"",""80"",""937522""
","""event"",""trial"",""time""
""fullscreenenter"",""1"",""2974""
","""event"",""trial"",""time""
""fullscreenexit"",""19"",""249761""
","","","471.90000000596046","","","17","18205","768","&#9789;","elianto","#f73b6a7A"," "," ","1","0","[1322.8999999985099]","1","0","4","","","","","","","",""
"pit-trial","99","1334601","0.0-2.0-17.3-3.3","battery-v0.2","","""event"",""trial"",""time""
""fullscreenenter"",""1"",""2974""
""fullscreenexit"",""19"",""249761""
""blur"",""19"",""252559""
""focus"",""19"",""262539""
""blur"",""19"",""272722""
""focus"",""19"",""273757""
""blur"",""58"",""591102""
""focus"",""58"",""599172""
""blur"",""80"",""788503""
""focus"",""80"",""937522""
","""event"",""trial"",""time""
""blur"",""19"",""252559""
""blur"",""19"",""272722""
""blur"",""58"",""591102""
""blur"",""80"",""788503""
","""event"",""trial"",""time""
""focus"",""19"",""262539""
""focus"",""19"",""273757""
""focus"",""58"",""599172""
""focus"",""80"",""937522""
","""event"",""trial"",""time""
""fullscreenenter"",""1"",""2974""
","""event"",""trial"",""time""
""fullscreenexit"",""19"",""249761""
","","","681","","","17","18205","768","&#9789;","elianto","#f73b6a7A"," "," ","1","-10","[1531]","1","0","4","","","","","","","",""
"pit-trial","100","1337746","0.0-2.0-17.3-4.3","battery-v0.2","","""event"",""trial"",""time""
""fullscreenenter"",""1"",""2974""
""fullscreenexit"",""19"",""249761""
""blur"",""19"",""252559""
""focus"",""19"",""262539""
""blur"",""19"",""272722""
""focus"",""19"",""273757""
""blur"",""58"",""591102""
""focus"",""58"",""599172""
""blur"",""80"",""788503""
""focus"",""80"",""937522""
","""event"",""trial"",""time""
""blur"",""19"",""252559""
""blur"",""19"",""272722""
""blur"",""58"",""591102""
""blur"",""80"",""788503""
","""event"",""trial"",""time""
""focus"",""19"",""262539""
""focus"",""19"",""273757""
""focus"",""58"",""599172""
""focus"",""80"",""937522""
","""event"",""trial"",""time""
""fullscreenenter"",""1"",""2974""
","""event"",""trial"",""time""
""fullscreenexit"",""19"",""249761""
","","","291.79999999701977","","","17","18205","768","&#9789;","elianto","#f73b6a7A"," "," ","1","0","[1143.1000000014901]","1","0","4","","","","","","","",""
"call-function","101","1337749","0.0-2.0-18.0","battery-v0.2","","""event"",""trial"",""time""
""fullscreenenter"",""1"",""2974""
""fullscreenexit"",""19"",""249761""
""blur"",""19"",""252559""
""focus"",""19"",""262539""
""blur"",""19"",""272722""
""focus"",""19"",""273757""
""blur"",""58"",""591102""
""focus"",""58"",""599172""
""blur"",""80"",""788503""
""focus"",""80"",""937522""
""blur"",""102"",""1349950""
""focus"",""102"",""1358230""
""blur"",""102"",""1419427""
""focus"",""102"",""1668034""
","""event"",""trial"",""time""
""blur"",""19"",""252559""
""blur"",""19"",""272722""
""blur"",""58"",""591102""
""blur"",""80"",""788503""
""blur"",""102"",""1349950""
""blur"",""102"",""1419427""
","""event"",""trial"",""time""
""focus"",""19"",""262539""
""focus"",""19"",""273757""
""focus"",""58"",""599172""
""focus"",""80"",""937522""
""focus"",""102"",""1358230""
""focus"",""102"",""1668034""
","""event"",""trial"",""time""
""fullscreenenter"",""1"",""2974""
","""event"",""trial"",""time""
""fullscreenexit"",""19"",""249761""
","","","","","","","","","","","","","","","","","","","","","","","","","","",""
"pit-instructions","102","1670517","0.0-2.0-19.0","battery-v0.2","","""event"",""trial"",""time""
""fullscreenenter"",""1"",""2974""
""fullscreenexit"",""19"",""249761""
""blur"",""19"",""252559""
""focus"",""19"",""262539""
""blur"",""19"",""272722""
""focus"",""19"",""273757""
""blur"",""58"",""591102""
""focus"",""58"",""599172""
""blur"",""80"",""788503""
""focus"",""80"",""937522""
""blur"",""102"",""1349950""
""focus"",""102"",""1358230""
""blur"",""102"",""1419427""
""focus"",""102"",""1668034""
","""event"",""trial"",""time""
""blur"",""19"",""252559""
""blur"",""19"",""272722""
""blur"",""58"",""591102""
""blur"",""80"",""788503""
""blur"",""102"",""1349950""
""blur"",""102"",""1419427""
","""event"",""trial"",""time""
""focus"",""19"",""262539""
""focus"",""19"",""273757""
""focus"",""58"",""599172""
""focus"",""80"",""937522""
""focus"",""102"",""1358230""
""focus"",""102"",""1668034""
","""event"",""trial"",""time""
""fullscreenenter"",""1"",""2974""
","""event"",""trial"",""time""
""fullscreenexit"",""19"",""249761""
","","[{""page_index"":0,""viewing_time"":7838.5},{""page_index"":1,""viewing_time"":13210.09999999404},{""page_index"":2,""viewing_time"":15060.30000000447},{""page_index"":3,""viewing_time"":8337.19999999553},{""page_index"":4,""viewing_time"":8695.30000000447},{""page_index"":5,""viewing_time"":9482.19999999553},{""page_index"":6,""viewing_time"":8863.40000000596},{""page_index"":7,""viewing_time"":6325.69999999553},{""page_index"":8,""viewing_time"":254954.3999999985}]","332767.69999999553","","","","","","","","","","","","","","","","","","","","","","","",""
"pit-comprehension","103","1675467","0.0-2.0-20.0-0.0","battery-v0.2","","""event"",""trial"",""time""
""fullscreenenter"",""1"",""2974""
""fullscreenexit"",""19"",""249761""
""blur"",""19"",""252559""
""focus"",""19"",""262539""
""blur"",""19"",""272722""
""focus"",""19"",""273757""
""blur"",""58"",""591102""
""focus"",""58"",""599172""
""blur"",""80"",""788503""
""focus"",""80"",""937522""
""blur"",""102"",""1349950""
""focus"",""102"",""1358230""
""blur"",""102"",""1419427""
""focus"",""102"",""1668034""
","""event"",""trial"",""time""
""blur"",""19"",""252559""
""blur"",""19"",""272722""
""blur"",""58"",""591102""
""blur"",""80"",""788503""
""blur"",""102"",""1349950""
""blur"",""102"",""1419427""
","""event"",""trial"",""time""
""focus"",""19"",""262539""
""focus"",""19"",""273757""
""focus"",""58"",""599172""
""focus"",""80"",""937522""
""focus"",""102"",""1358230""
""focus"",""102"",""1668034""
","""event"",""trial"",""time""
""fullscreenenter"",""1"",""2974""
","""event"",""trial"",""time""
""fullscreenexit"",""19"",""249761""
","","","4943","[""SPACE""]","0","17","18205","768","","","","","","","","","","","","","","","","","","",""
"pit-instructions","104","1678812","0.0-2.0-20.0-1.0","battery-v0.2","","""event"",""trial"",""time""
""fullscreenenter"",""1"",""2974""
""fullscreenexit"",""19"",""249761""
""blur"",""19"",""252559""
""focus"",""19"",""262539""
""blur"",""19"",""272722""
""focus"",""19"",""273757""
""blur"",""58"",""591102""
""focus"",""58"",""599172""
""blur"",""80"",""788503""
""focus"",""80"",""937522""
""blur"",""102"",""1349950""
""focus"",""102"",""1358230""
""blur"",""102"",""1419427""
""focus"",""102"",""1668034""
","""event"",""trial"",""time""
""blur"",""19"",""252559""
""blur"",""19"",""272722""
""blur"",""58"",""591102""
""blur"",""80"",""788503""
""blur"",""102"",""1349950""
""blur"",""102"",""1419427""
","""event"",""trial"",""time""
""focus"",""19"",""262539""
""focus"",""19"",""273757""
""focus"",""58"",""599172""
""focus"",""80"",""937522""
""focus"",""102"",""1358230""
""focus"",""102"",""1668034""
","""event"",""trial"",""time""
""fullscreenenter"",""1"",""2974""
","""event"",""trial"",""time""
""fullscreenexit"",""19"",""249761""
","","[{""page_index"":0,""viewing_time"":3322.39999999851}]","3322.7999999970198","","","","","","","","","","","","","","","","","","","","","","","",""
"pit-comprehension","105","1685207","0.0-2.0-21.0-0.0","battery-v0.2","","""event"",""trial"",""time""
""fullscreenenter"",""1"",""2974""
""fullscreenexit"",""19"",""249761""
""blur"",""19"",""252559""
""focus"",""19"",""262539""
""blur"",""19"",""272722""
""focus"",""19"",""273757""
""blur"",""58"",""591102""
""focus"",""58"",""599172""
""blur"",""80"",""788503""
""focus"",""80"",""937522""
""blur"",""102"",""1349950""
""focus"",""102"",""1358230""
""blur"",""102"",""1419427""
""focus"",""102"",""1668034""
","""event"",""trial"",""time""
""blur"",""19"",""252559""
""blur"",""19"",""272722""
""blur"",""58"",""591102""
""blur"",""80"",""788503""
""blur"",""102"",""1349950""
""blur"",""102"",""1419427""
","""event"",""trial"",""time""
""focus"",""19"",""262539""
""focus"",""19"",""273757""
""focus"",""58"",""599172""
""focus"",""80"",""937522""
""focus"",""102"",""1358230""
""focus"",""102"",""1668034""
","""event"",""trial"",""time""
""fullscreenenter"",""1"",""2974""
","""event"",""trial"",""time""
""fullscreenexit"",""19"",""249761""
","","","6389.19999999553","[""10""]","0","17","18205","768","","","","","","","","","","","","","","","","","","",""
"pit-instructions","106","1686978","0.0-2.0-21.0-1.0","battery-v0.2","","""event"",""trial"",""time""
""fullscreenenter"",""1"",""2974""
""fullscreenexit"",""19"",""249761""
""blur"",""19"",""252559""
""focus"",""19"",""262539""
""blur"",""19"",""272722""
""focus"",""19"",""273757""
""blur"",""58"",""591102""
""focus"",""58"",""599172""
""blur"",""80"",""788503""
""focus"",""80"",""937522""
""blur"",""102"",""1349950""
""focus"",""102"",""1358230""
""blur"",""102"",""1419427""
""focus"",""102"",""1668034""
","""event"",""trial"",""time""
""blur"",""19"",""252559""
""blur"",""19"",""272722""
""blur"",""58"",""591102""
""blur"",""80"",""788503""
""blur"",""102"",""1349950""
""blur"",""102"",""1419427""
","""event"",""trial"",""time""
""focus"",""19"",""262539""
""focus"",""19"",""273757""
""focus"",""58"",""599172""
""focus"",""80"",""937522""
""focus"",""102"",""1358230""
""focus"",""102"",""1668034""
","""event"",""trial"",""time""
""fullscreenenter"",""1"",""2974""
","""event"",""trial"",""time""
""fullscreenexit"",""19"",""249761""
","","[{""page_index"":0,""viewing_time"":1747.7999999970198}]","1748.3999999985099","","","","","","","","","","","","","","","","","","","","","","","",""
"pit-comprehension","107","1693313","0.0-2.0-22.0-0.0","battery-v0.2","","""event"",""trial"",""time""
""fullscreenenter"",""1"",""2974""
""fullscreenexit"",""19"",""249761""
""blur"",""19"",""252559""
""focus"",""19"",""262539""
""blur"",""19"",""272722""
""focus"",""19"",""273757""
""blur"",""58"",""591102""
""focus"",""58"",""599172""
""blur"",""80"",""788503""
""focus"",""80"",""937522""
""blur"",""102"",""1349950""
""focus"",""102"",""1358230""
""blur"",""102"",""1419427""
""focus"",""102"",""1668034""
","""event"",""trial"",""time""
""blur"",""19"",""252559""
""blur"",""19"",""272722""
""blur"",""58"",""591102""
""blur"",""80"",""788503""
""blur"",""102"",""1349950""
""blur"",""102"",""1419427""
","""event"",""trial"",""time""
""focus"",""19"",""262539""
""focus"",""19"",""273757""
""focus"",""58"",""599172""
""focus"",""80"",""937522""
""focus"",""102"",""1358230""
""focus"",""102"",""1668034""
","""event"",""trial"",""time""
""fullscreenenter"",""1"",""2974""
","""event"",""trial"",""time""
""fullscreenexit"",""19"",""249761""
","","","6329.80000000447","[""0""]","0","17","18205","768","","","","","","","","","","","","","","","","","","",""
"pit-instructions","108","1694478","0.0-2.0-22.0-1.0","battery-v0.2","","""event"",""trial"",""time""
""fullscreenenter"",""1"",""2974""
""fullscreenexit"",""19"",""249761""
""blur"",""19"",""252559""
""focus"",""19"",""262539""
""blur"",""19"",""272722""
""focus"",""19"",""273757""
""blur"",""58"",""591102""
""focus"",""58"",""599172""
""blur"",""80"",""788503""
""focus"",""80"",""937522""
""blur"",""102"",""1349950""
""focus"",""102"",""1358230""
""blur"",""102"",""1419427""
""focus"",""102"",""1668034""
","""event"",""trial"",""time""
""blur"",""19"",""252559""
""blur"",""19"",""272722""
""blur"",""58"",""591102""
""blur"",""80"",""788503""
""blur"",""102"",""1349950""
""blur"",""102"",""1419427""
","""event"",""trial"",""time""
""focus"",""19"",""262539""
""focus"",""19"",""273757""
""focus"",""58"",""599172""
""focus"",""80"",""937522""
""focus"",""102"",""1358230""
""focus"",""102"",""1668034""
","""event"",""trial"",""time""
""fullscreenenter"",""1"",""2974""
","""event"",""trial"",""time""
""fullscreenexit"",""19"",""249761""
","","[{""page_index"":0,""viewing_time"":1144.5}]","1144.6000000014901","","","","","","","","","","","","","","","","","","","","","","","",""
"pit-comprehension","109","1706475","0.0-2.0-23.0-0.0","battery-v0.2","","""event"",""trial"",""time""
""fullscreenenter"",""1"",""2974""
""fullscreenexit"",""19"",""249761""
""blur"",""19"",""252559""
""focus"",""19"",""262539""
""blur"",""19"",""272722""
""focus"",""19"",""273757""
""blur"",""58"",""591102""
""focus"",""58"",""599172""
""blur"",""80"",""788503""
""focus"",""80"",""937522""
""blur"",""102"",""1349950""
""focus"",""102"",""1358230""
""blur"",""102"",""1419427""
""focus"",""102"",""1668034""
","""event"",""trial"",""time""
""blur"",""19"",""252559""
""blur"",""19"",""272722""
""blur"",""58"",""591102""
""blur"",""80"",""788503""
""blur"",""102"",""1349950""
""blur"",""102"",""1419427""
","""event"",""trial"",""time""
""focus"",""19"",""262539""
""focus"",""19"",""273757""
""focus"",""58"",""599172""
""focus"",""80"",""937522""
""focus"",""102"",""1358230""
""focus"",""102"",""1668034""
","""event"",""trial"",""time""
""fullscreenenter"",""1"",""2974""
","""event"",""trial"",""time""
""fullscreenexit"",""19"",""249761""
","","","11994.5","[""True""]","0","17","18205","768","","","","","","","","","","","","","","","","","","",""
"pit-instructions","110","1708327","0.0-2.0-23.0-1.0","battery-v0.2","","""event"",""trial"",""time""
""fullscreenenter"",""1"",""2974""
""fullscreenexit"",""19"",""249761""
""blur"",""19"",""252559""
""focus"",""19"",""262539""
""blur"",""19"",""272722""
""focus"",""19"",""273757""
""blur"",""58"",""591102""
""focus"",""58"",""599172""
""blur"",""80"",""788503""
""focus"",""80"",""937522""
""blur"",""102"",""1349950""
""focus"",""102"",""1358230""
""blur"",""102"",""1419427""
""focus"",""102"",""1668034""
","""event"",""trial"",""time""
""blur"",""19"",""252559""
""blur"",""19"",""272722""
""blur"",""58"",""591102""
""blur"",""80"",""788503""
""blur"",""102"",""1349950""
""blur"",""102"",""1419427""
","""event"",""trial"",""time""
""focus"",""19"",""262539""
""focus"",""19"",""273757""
""focus"",""58"",""599172""
""focus"",""80"",""937522""
""focus"",""102"",""1358230""
""focus"",""102"",""1668034""
","""event"",""trial"",""time""
""fullscreenenter"",""1"",""2974""
","""event"",""trial"",""time""
""fullscreenexit"",""19"",""249761""
","","[{""page_index"":0,""viewing_time"":1828.8000000044703}]","1829","","","","","","","","","","","","","","","","","","","","","","","",""
"pit-comprehension","111","1715900","0.0-2.0-24.0-0.0","battery-v0.2","","""event"",""trial"",""time""
""fullscreenenter"",""1"",""2974""
""fullscreenexit"",""19"",""249761""
""blur"",""19"",""252559""
""focus"",""19"",""262539""
""blur"",""19"",""272722""
""focus"",""19"",""273757""
""blur"",""58"",""591102""
""focus"",""58"",""599172""
""blur"",""80"",""788503""
""focus"",""80"",""937522""
""blur"",""102"",""1349950""
""focus"",""102"",""1358230""
""blur"",""102"",""1419427""
""focus"",""102"",""1668034""
","""event"",""trial"",""time""
""blur"",""19"",""252559""
""blur"",""19"",""272722""
""blur"",""58"",""591102""
""blur"",""80"",""788503""
""blur"",""102"",""1349950""
""blur"",""102"",""1419427""
","""event"",""trial"",""time""
""focus"",""19"",""262539""
""focus"",""19"",""273757""
""focus"",""58"",""599172""
""focus"",""80"",""937522""
""focus"",""102"",""1358230""
""focus"",""102"",""1668034""
","""event"",""trial"",""time""
""fullscreenenter"",""1"",""2974""
","""event"",""trial"",""time""
""fullscreenexit"",""19"",""249761""
","","","7569.5","[""True""]","0","17","18205","768","","","","","","","","","","","","","","","","","","",""
"pit-instructions","112","1717197","0.0-2.0-24.0-1.0","battery-v0.2","","""event"",""trial"",""time""
""fullscreenenter"",""1"",""2974""
""fullscreenexit"",""19"",""249761""
""blur"",""19"",""252559""
""focus"",""19"",""262539""
""blur"",""19"",""272722""
""focus"",""19"",""273757""
""blur"",""58"",""591102""
""focus"",""58"",""599172""
""blur"",""80"",""788503""
""focus"",""80"",""937522""
""blur"",""102"",""1349950""
""focus"",""102"",""1358230""
""blur"",""102"",""1419427""
""focus"",""102"",""1668034""
","""event"",""trial"",""time""
""blur"",""19"",""252559""
""blur"",""19"",""272722""
""blur"",""58"",""591102""
""blur"",""80"",""788503""
""blur"",""102"",""1349950""
""blur"",""102"",""1419427""
","""event"",""trial"",""time""
""focus"",""19"",""262539""
""focus"",""19"",""273757""
""focus"",""58"",""599172""
""focus"",""80"",""937522""
""focus"",""102"",""1358230""
""focus"",""102"",""1668034""
","""event"",""trial"",""time""
""fullscreenenter"",""1"",""2974""
","""event"",""trial"",""time""
""fullscreenexit"",""19"",""249761""
","","[{""page_index"":0,""viewing_time"":1272.1000000014901}]","1272.2000000029802","","","","","","","","","","","","","","","","","","","","","","","",""
"pit-comprehension","113","1725153","0.0-2.0-25.0-0.0","battery-v0.2","","""event"",""trial"",""time""
""fullscreenenter"",""1"",""2974""
""fullscreenexit"",""19"",""249761""
""blur"",""19"",""252559""
""focus"",""19"",""262539""
""blur"",""19"",""272722""
""focus"",""19"",""273757""
""blur"",""58"",""591102""
""focus"",""58"",""599172""
""blur"",""80"",""788503""
""focus"",""80"",""937522""
""blur"",""102"",""1349950""
""focus"",""102"",""1358230""
""blur"",""102"",""1419427""
""focus"",""102"",""1668034""
","""event"",""trial"",""time""
""blur"",""19"",""252559""
""blur"",""19"",""272722""
""blur"",""58"",""591102""
""blur"",""80"",""788503""
""blur"",""102"",""1349950""
""blur"",""102"",""1419427""
","""event"",""trial"",""time""
""focus"",""19"",""262539""
""focus"",""19"",""273757""
""focus"",""58"",""599172""
""focus"",""80"",""937522""
""focus"",""102"",""1358230""
""focus"",""102"",""1668034""
","""event"",""trial"",""time""
""fullscreenenter"",""1"",""2974""
","""event"",""trial"",""time""
""fullscreenexit"",""19"",""249761""
","","","7954.79999999702","[""True""]","0","17","18205","768","","","","","","","","","","","","","","","","","","",""
"pit-instructions","114","1727299","0.0-2.0-25.0-1.0","battery-v0.2","","""event"",""trial"",""time""
""fullscreenenter"",""1"",""2974""
""fullscreenexit"",""19"",""249761""
""blur"",""19"",""252559""
""focus"",""19"",""262539""
""blur"",""19"",""272722""
""focus"",""19"",""273757""
""blur"",""58"",""591102""
""focus"",""58"",""599172""
""blur"",""80"",""788503""
""focus"",""80"",""937522""
""blur"",""102"",""1349950""
""focus"",""102"",""1358230""
""blur"",""102"",""1419427""
""focus"",""102"",""1668034""
","""event"",""trial"",""time""
""blur"",""19"",""252559""
""blur"",""19"",""272722""
""blur"",""58"",""591102""
""blur"",""80"",""788503""
""blur"",""102"",""1349950""
""blur"",""102"",""1419427""
","""event"",""trial"",""time""
""focus"",""19"",""262539""
""focus"",""19"",""273757""
""focus"",""58"",""599172""
""focus"",""80"",""937522""
""focus"",""102"",""1358230""
""focus"",""102"",""1668034""
","""event"",""trial"",""time""
""fullscreenenter"",""1"",""2974""
","""event"",""trial"",""time""
""fullscreenexit"",""19"",""249761""
","","[{""page_index"":0,""viewing_time"":2126.39999999851}]","2126.7000000029802","","","","","","","","","","","","","","","","","","","","","","","",""
"pit-comprehension","115","1736213","0.0-2.0-26.0-0.0","battery-v0.2","","""event"",""trial"",""time""
""fullscreenenter"",""1"",""2974""
""fullscreenexit"",""19"",""249761""
""blur"",""19"",""252559""
""focus"",""19"",""262539""
""blur"",""19"",""272722""
""focus"",""19"",""273757""
""blur"",""58"",""591102""
""focus"",""58"",""599172""
""blur"",""80"",""788503""
""focus"",""80"",""937522""
""blur"",""102"",""1349950""
""focus"",""102"",""1358230""
""blur"",""102"",""1419427""
""focus"",""102"",""1668034""
","""event"",""trial"",""time""
""blur"",""19"",""252559""
""blur"",""19"",""272722""
""blur"",""58"",""591102""
""blur"",""80"",""788503""
""blur"",""102"",""1349950""
""blur"",""102"",""1419427""
","""event"",""trial"",""time""
""focus"",""19"",""262539""
""focus"",""19"",""273757""
""focus"",""58"",""599172""
""focus"",""80"",""937522""
""focus"",""102"",""1358230""
""focus"",""102"",""1668034""
","""event"",""trial"",""time""
""fullscreenenter"",""1"",""2974""
","""event"",""trial"",""time""
""fullscreenexit"",""19"",""249761""
","","","8908.39999999851","[""False""]","0","17","18205","768","","","","","","","","","","","","","","","","","","",""
"pit-instructions","116","1737902","0.0-2.0-26.0-1.0","battery-v0.2","","""event"",""trial"",""time""
""fullscreenenter"",""1"",""2974""
""fullscreenexit"",""19"",""249761""
""blur"",""19"",""252559""
""focus"",""19"",""262539""
""blur"",""19"",""272722""
""focus"",""19"",""273757""
""blur"",""58"",""591102""
""focus"",""58"",""599172""
""blur"",""80"",""788503""
""focus"",""80"",""937522""
""blur"",""102"",""1349950""
""focus"",""102"",""1358230""
""blur"",""102"",""1419427""
""focus"",""102"",""1668034""
""blur"",""117"",""1752615""
""focus"",""117"",""1897227""
","""event"",""trial"",""time""
""blur"",""19"",""252559""
""blur"",""19"",""272722""
""blur"",""58"",""591102""
""blur"",""80"",""788503""
""blur"",""102"",""1349950""
""blur"",""102"",""1419427""
""blur"",""117"",""1752615""
","""event"",""trial"",""time""
""focus"",""19"",""262539""
""focus"",""19"",""273757""
""focus"",""58"",""599172""
""focus"",""80"",""937522""
""focus"",""102"",""1358230""
""focus"",""102"",""1668034""
""focus"",""117"",""1897227""
","""event"",""trial"",""time""
""fullscreenenter"",""1"",""2974""
","""event"",""trial"",""time""
""fullscreenexit"",""19"",""249761""
","","[{""page_index"":0,""viewing_time"":1667.3000000044703}]","1667.7000000029802","","","","","","","","","","","","","","","","","","","","","","","",""
"pit-instructions","117","1908500","0.0-3.0","battery-v0.2","","""event"",""trial"",""time""
""fullscreenenter"",""1"",""2974""
""fullscreenexit"",""19"",""249761""
""blur"",""19"",""252559""
""focus"",""19"",""262539""
""blur"",""19"",""272722""
""focus"",""19"",""273757""
""blur"",""58"",""591102""
""focus"",""58"",""599172""
""blur"",""80"",""788503""
""focus"",""80"",""937522""
""blur"",""102"",""1349950""
""focus"",""102"",""1358230""
""blur"",""102"",""1419427""
""focus"",""102"",""1668034""
""blur"",""117"",""1752615""
""focus"",""117"",""1897227""
","""event"",""trial"",""time""
""blur"",""19"",""252559""
""blur"",""19"",""272722""
""blur"",""58"",""591102""
""blur"",""80"",""788503""
""blur"",""102"",""1349950""
""blur"",""102"",""1419427""
""blur"",""117"",""1752615""
","""event"",""trial"",""time""
""focus"",""19"",""262539""
""focus"",""19"",""273757""
""focus"",""58"",""599172""
""focus"",""80"",""937522""
""focus"",""102"",""1358230""
""focus"",""102"",""1668034""
""focus"",""117"",""1897227""
","""event"",""trial"",""time""
""fullscreenenter"",""1"",""2974""
","""event"",""trial"",""time""
""fullscreenexit"",""19"",""249761""
","","[{""page_index"":0,""viewing_time"":5032},{""page_index"":1,""viewing_time"":156573.8999999985},{""page_index"":2,""viewing_time"":8988.69999999553}]","170595","","","","","","","","","","","","","","","","","","","","","","","",""
