"trial_type","trial_index","time_elapsed","internal_node_id","task_version","subject_id","interactions","blur_events","focus_events","fullscreenenter_events","fullscreenexit_events","success","view_history","rt","responses","num_errors","age","subject","participantId","rune","rune_set","hex","correct","choice","accuracy","outcome","keys","total_keys","block","practice","value","sub","trial","stimulus","robot","valence","action","sham"
"pavlovia","0","13","0.0-0.0","battery-v0.2","","""event"",""trial"",""time""
""fullscreenenter"",""1"",""2666""
","
","
","""event"",""trial"",""time""
""fullscreenenter"",""1"",""2666""
","
","","","","","","","","","","","","","","","","","","","","","","","","","","",""
"fullscreen","1","3656","0.0-1.0","battery-v0.2","","""event"",""trial"",""time""
""fullscreenenter"",""1"",""2666""
","
","
","""event"",""trial"",""time""
""fullscreenenter"",""1"",""2666""
","
","true","","","","","","","","","","","","","","","","","","","","","","","","","",""
"pit-instructions","2","6764","0.0-2.0-0.0","battery-v0.2","","""event"",""trial"",""time""
""fullscreenenter"",""1"",""2666""
","
","
","""event"",""trial"",""time""
""fullscreenenter"",""1"",""2666""
","
","","[{""page_index"":0,""viewing_time"":3100.2999999970198}]","3100.6999999955297","","","","","","","","","","","","","","","","","","","","","","","",""
"pit-comprehension","3","10293","0.0-2.0-1.0-0.0","battery-v0.2","","""event"",""trial"",""time""
""fullscreenenter"",""1"",""2666""
","
","
","""event"",""trial"",""time""
""fullscreenenter"",""1"",""2666""
","
","","","3524.7000000029802","[""shark""]","0","23","4469","3045","","","","","","","","","","","","","","","","","","",""
"pit-instructions","4","14250","0.0-2.0-1.0-1.0","battery-v0.2","","""event"",""trial"",""time""
""fullscreenenter"",""1"",""2666""
","
","
","""event"",""trial"",""time""
""fullscreenenter"",""1"",""2666""
","
","","[{""page_index"":0,""viewing_time"":3950}]","3950.5","","","","","","","","","","","","","","","","","","","","","","","",""
"pit-comprehension","5","17295","0.0-2.0-2.0-0.0","battery-v0.2","","""event"",""trial"",""time""
""fullscreenenter"",""1"",""2666""
","
","
","""event"",""trial"",""time""
""fullscreenenter"",""1"",""2666""
","
","","","3039.89999999851","[""tiger""]","0","23","4469","3045","","","","","","","","","","","","","","","","","","",""
"pit-instructions","6","18515","0.0-2.0-2.0-1.0","battery-v0.2","","""event"",""trial"",""time""
""fullscreenenter"",""1"",""2666""
","
","
","""event"",""trial"",""time""
""fullscreenenter"",""1"",""2666""
","
","","[{""page_index"":0,""viewing_time"":1215.1000000014901}]","1215.3000000044703","","","","","","","","","","","","","","","","","","","","","","","",""
"pit-instructions","7","117550","0.0-2.0-3.0","battery-v0.2","","""event"",""trial"",""time""
""fullscreenenter"",""1"",""2666""
","
","
","""event"",""trial"",""time""
""fullscreenenter"",""1"",""2666""
","
","","[{""page_index"":0,""viewing_time"":7976.39999999851},{""page_index"":1,""viewing_time"":5791.89999999851},{""page_index"":2,""viewing_time"":7467.60000000149},{""page_index"":3,""viewing_time"":6303.69999999553},{""page_index"":4,""viewing_time"":5525.10000000149},{""page_index"":5,""viewing_time"":5332.20000000298},{""page_index"":6,""viewing_time"":7340.29999999702},{""page_index"":7,""viewing_time"":10649.30000000447},{""page_index"":8,""viewing_time"":6998.19999999553},{""page_index"":9,""viewing_time"":8754.60000000149},{""page_index"":10,""viewing_time"":8520},{""page_index"":11,""viewing_time"":7194.10000000149},{""page_index"":12,""viewing_time"":6155.19999999553},{""page_index"":13,""viewing_time"":5022.80000000447}]","99031.69999999553","","","","","","","","","","","","","","","","","","","","","","","",""
"pit-trial","8","120980","0.0-2.0-4.0-0.0","battery-v0.2","","""event"",""trial"",""time""
""fullscreenenter"",""1"",""2666""
","
","
","""event"",""trial"",""time""
""fullscreenenter"",""1"",""2666""
","
","","","570.2000000029802","","","23","4469","3045","&#9784;","elianto","#FFFFF080"," "," ","1","&#10004","[1423.8999999985099]","1","0","0","","","","","","","",""
"pit-trial","9","124615","0.0-2.0-4.1-0.1","battery-v0.2","","""event"",""trial"",""time""
""fullscreenenter"",""1"",""2666""
","
","
","""event"",""trial"",""time""
""fullscreenenter"",""1"",""2666""
","
","","","776.2000000029802","","","23","4469","3045","&#9784;","elianto","#FFFFF080"," "," ","1","&#10004","[1628.1999999955297]","1","0","0","","","","","","","",""
"pit-trial","10","128031","0.0-2.0-4.2-0.2","battery-v0.2","","""event"",""trial"",""time""
""fullscreenenter"",""1"",""2666""
","
","
","""event"",""trial"",""time""
""fullscreenenter"",""1"",""2666""
","
","","","560.2999999970198","","","23","4469","3045","&#9784;","elianto","#FFFFF080"," "," ","1","&#10004","[1410.8999999985099]","1","0","0","","","","","","","",""
"pit-trial","11","131441","0.0-2.0-4.3-0.3","battery-v0.2","","""event"",""trial"",""time""
""fullscreenenter"",""1"",""2666""
","
","
","""event"",""trial"",""time""
""fullscreenenter"",""1"",""2666""
","
","","","554.7000000029802","","","23","4469","3045","&#9784;","elianto","#FFFFF080"," "," ","1","&#10004","[1405.1000000014901]","1","0","0","","","","","","","",""
"pit-trial","12","134945","0.0-2.0-4.4-0.4","battery-v0.2","","""event"",""trial"",""time""
""fullscreenenter"",""1"",""2666""
","
","
","""event"",""trial"",""time""
""fullscreenenter"",""1"",""2666""
","
","","","648.7000000029802","","","23","4469","3045","&#9784;","elianto","#FFFFF080"," "," ","1","&#10004","[1499.5]","1","0","0","","","","","","","",""
"pit-instructions","13","167423","0.0-2.0-5.0","battery-v0.2","","""event"",""trial"",""time""
""fullscreenenter"",""1"",""2666""
","
","
","""event"",""trial"",""time""
""fullscreenenter"",""1"",""2666""
","
","","[{""page_index"":0,""viewing_time"":11933.39999999851},{""page_index"":1,""viewing_time"":9348.5},{""page_index"":2,""viewing_time"":5687.79999999702},{""page_index"":3,""viewing_time"":5503.30000000447}]","32473.29999999702","","","","","","","","","","","","","","","","","","","","","","","",""
"pit-trial","14","172279","0.0-2.0-6.0-0.0","battery-v0.2","","""event"",""trial"",""time""
""fullscreenenter"",""1"",""2666""
","
","
","""event"",""trial"",""time""
""fullscreenenter"",""1"",""2666""
","
","","","-1","","","23","4469","3045","&#9854;","elianto","#FFFFF080","-1","-1","1","&#10004","[]","0","0","1","","","","","","","",""
"pit-trial","15","177136","0.0-2.0-6.1-0.1","battery-v0.2","","""event"",""trial"",""time""
""fullscreenenter"",""1"",""2666""
","
","
","""event"",""trial"",""time""
""fullscreenenter"",""1"",""2666""
","
","","","-1","","","23","4469","3045","&#9854;","elianto","#FFFFF080","-1","-1","1","&#10004","[]","0","0","1","","","","","","","",""
"pit-trial","16","181995","0.0-2.0-6.2-0.2","battery-v0.2","","""event"",""trial"",""time""
""fullscreenenter"",""1"",""2666""
","
","
","""event"",""trial"",""time""
""fullscreenenter"",""1"",""2666""
","
","","","-1","","","23","4469","3045","&#9854;","elianto","#FFFFF080","-1","-1","1","&#10004","[]","0","0","1","","","","","","","",""
"pit-trial","17","186852","0.0-2.0-6.3-0.3","battery-v0.2","","""event"",""trial"",""time""
""fullscreenenter"",""1"",""2666""
","
","
","""event"",""trial"",""time""
""fullscreenenter"",""1"",""2666""
","
","","","-1","","","23","4469","3045","&#9854;","elianto","#FFFFF080","-1","-1","1","&#10004","[]","0","0","1","","","","","","","",""
"pit-trial","18","191709","0.0-2.0-6.4-0.4","battery-v0.2","","""event"",""trial"",""time""
""fullscreenenter"",""1"",""2666""
","
","
","""event"",""trial"",""time""
""fullscreenenter"",""1"",""2666""
","
","","","-1","","","23","4469","3045","&#9854;","elianto","#FFFFF080","-1","-1","1","&#10004","[]","0","0","1","","","","","","","",""
"pit-instructions","19","404168","0.0-2.0-7.0","battery-v0.2","","""event"",""trial"",""time""
""fullscreenenter"",""1"",""2666""
","
","
","""event"",""trial"",""time""
""fullscreenenter"",""1"",""2666""
","
","","[{""page_index"":0,""viewing_time"":7040},{""page_index"":1,""viewing_time"":6503.60000000149},{""page_index"":2,""viewing_time"":5717.79999999702},{""page_index"":3,""viewing_time"":6168.79999999702},{""page_index"":4,""viewing_time"":5281.4000000059605},{""page_index"":5,""viewing_time"":5184.89999999851},{""page_index"":6,""viewing_time"":4172.19999999553},{""page_index"":7,""viewing_time"":7942.30000000447},{""page_index"":8,""viewing_time"":6347},{""page_index"":9,""viewing_time"":93830.5},{""page_index"":10,""viewing_time"":6527.39999999851},{""page_index"":11,""viewing_time"":6608},{""page_index"":12,""viewing_time"":9346.70000000298},{""page_index"":13,""viewing_time"":7257.5},{""page_index"":14,""viewing_time"":13209.79999999702},{""page_index"":15,""viewing_time"":6525.29999999702},{""page_index"":16,""viewing_time"":6662.9000000059605},{""page_index"":17,""viewing_time"":8131}]","212457.3999999985","","","","","","","","","","","","","","","","","","","","","","","",""
"pit-trial","20","407695","0.0-2.0-8.0-0.0","battery-v0.2","","""event"",""trial"",""time""
""fullscreenenter"",""1"",""2666""
","
","
","""event"",""trial"",""time""
""fullscreenenter"",""1"",""2666""
","
","","","666.3999999985099","","","23","4469","3045","&#9776;","elianto","#3366ff99"," "," ","1","+10","[1518]","1","0","1","","","","","","","",""
"pit-trial","21","411261","0.0-2.0-8.0-1.0","battery-v0.2","","""event"",""trial"",""time""
""fullscreenenter"",""1"",""2666""
","
","
","""event"",""trial"",""time""
""fullscreenenter"",""1"",""2666""
","
","","","712.3000000044703","","","23","4469","3045","&#9776;","elianto","#3366ff99"," "," ","1","+10","[1562.6000000014901]","1","0","1","","","","","","","",""
"pit-trial","22","414635","0.0-2.0-8.0-2.0","battery-v0.2","","""event"",""trial"",""time""
""fullscreenenter"",""1"",""2666""
","
","
","""event"",""trial"",""time""
""fullscreenenter"",""1"",""2666""
","
","","","517.2999999970198","","","23","4469","3045","&#9776;","elianto","#3366ff99"," "," ","1","+10","[1368.0999999940395]","1","0","1","","","","","","","",""
"pit-trial","23","417896","0.0-2.0-8.0-3.0","battery-v0.2","","""event"",""trial"",""time""
""fullscreenenter"",""1"",""2666""
","
","
","""event"",""trial"",""time""
""fullscreenenter"",""1"",""2666""
","
","","","403","","","23","4469","3045","&#9776;","elianto","#3366ff99"," "," ","1","0","[1255.8000000044703]","1","0","1","","","","","","","",""
"pit-trial","24","421096","0.0-2.0-8.0-4.0","battery-v0.2","","""event"",""trial"",""time""
""fullscreenenter"",""1"",""2666""
","
","
","""event"",""trial"",""time""
""fullscreenenter"",""1"",""2666""
","
","","","345.59999999403954","","","23","4469","3045","&#9776;","elianto","#3366ff99"," "," ","1","+10","[1196]","1","0","1","","","","","","","",""
"pit-trial","25","424501","0.0-2.0-8.1-0.1","battery-v0.2","","""event"",""trial"",""time""
""fullscreenenter"",""1"",""2666""
","
","
","""event"",""trial"",""time""
""fullscreenenter"",""1"",""2666""
","
","","","549.2000000029802","","","23","4469","3045","&#9776;","elianto","#3366ff99"," "," ","1","+10","[1400.5]","1","0","1","","","","","","","",""
"pit-trial","26","427792","0.0-2.0-8.1-1.1","battery-v0.2","","""event"",""trial"",""time""
""fullscreenenter"",""1"",""2666""
","
","
","""event"",""trial"",""time""
""fullscreenenter"",""1"",""2666""
","
","","","435.70000000298023","","","23","4469","3045","&#9776;","elianto","#3366ff99"," "," ","1","+10","[1286.5]","1","0","1","","","","","","","",""
"pit-trial","27","431067","0.0-2.0-8.1-2.1","battery-v0.2","","""event"",""trial"",""time""
""fullscreenenter"",""1"",""2666""
","
","
","""event"",""trial"",""time""
""fullscreenenter"",""1"",""2666""
","
","","","416.40000000596046","","","23","4469","3045","&#9776;","elianto","#3366ff99"," "," ","1","+10","[1269.1000000014901]","1","0","1","","","","","","","",""
"pit-trial","28","434172","0.0-2.0-8.1-3.1","battery-v0.2","","""event"",""trial"",""time""
""fullscreenenter"",""1"",""2666""
","
","
","""event"",""trial"",""time""
""fullscreenenter"",""1"",""2666""
","
","","","246.70000000298023","","","23","4469","3045","&#9776;","elianto","#3366ff99"," "," ","1","0","[1097.1000000014901]","1","0","1","","","","","","","",""
"pit-trial","29","437246","0.0-2.0-8.1-4.1","battery-v0.2","","""event"",""trial"",""time""
""fullscreenenter"",""1"",""2666""
","
","
","""event"",""trial"",""time""
""fullscreenenter"",""1"",""2666""
","
","","","213.60000000149012","","","23","4469","3045","&#9776;","elianto","#3366ff99"," "," ","1","+10","[1064.2000000029802]","1","0","1","","","","","","","",""
"pit-trial","30","440300","0.0-2.0-8.2-0.2","battery-v0.2","","""event"",""trial"",""time""
""fullscreenenter"",""1"",""2666""
","
","
","""event"",""trial"",""time""
""fullscreenenter"",""1"",""2666""
","
","","","196","","","23","4469","3045","&#9776;","elianto","#3366ff99"," "," ","1","+10","[1046.6999999955297]","1","0","1","","","","","","","",""
"pit-trial","31","443385","0.0-2.0-8.2-1.2","battery-v0.2","","""event"",""trial"",""time""
""fullscreenenter"",""1"",""2666""
","
","
","""event"",""trial"",""time""
""fullscreenenter"",""1"",""2666""
","
","","","223.10000000149012","","","23","4469","3045","&#9776;","elianto","#3366ff99"," "," ","1","+10","[1075.5]","1","0","1","","","","","","","",""
"pit-trial","32","446390","0.0-2.0-8.2-2.2","battery-v0.2","","""event"",""trial"",""time""
""fullscreenenter"",""1"",""2666""
","
","
","""event"",""trial"",""time""
""fullscreenenter"",""1"",""2666""
","
","","","146.5","","","23","4469","3045","&#9776;","elianto","#3366ff99"," "," ","1","+10","[997.1000000014901]","1","0","1","","","","","","","",""
"pit-trial","33","449406","0.0-2.0-8.2-3.2","battery-v0.2","","""event"",""trial"",""time""
""fullscreenenter"",""1"",""2666""
","
","
","""event"",""trial"",""time""
""fullscreenenter"",""1"",""2666""
","
","","","155.20000000298023","","","23","4469","3045","&#9776;","elianto","#3366ff99"," "," ","1","0","[1006.6999999955297]","1","0","1","","","","","","","",""
"pit-trial","34","452454","0.0-2.0-8.2-4.2","battery-v0.2","","""event"",""trial"",""time""
""fullscreenenter"",""1"",""2666""
","
","
","""event"",""trial"",""time""
""fullscreenenter"",""1"",""2666""
","
","","","188.80000000447035","","","23","4469","3045","&#9776;","elianto","#3366ff99"," "," ","1","+10","[1039.1000000014901]","1","0","1","","","","","","","",""
"call-function","35","452461","0.0-2.0-9.0","battery-v0.2","","""event"",""trial"",""time""
""fullscreenenter"",""1"",""2666""
","
","
","""event"",""trial"",""time""
""fullscreenenter"",""1"",""2666""
","
","","","","","","","","","","","","","","","","","","","","","","","","","","",""
"pit-instructions","36","495098","0.0-2.0-10.0","battery-v0.2","","""event"",""trial"",""time""
""fullscreenenter"",""1"",""2666""
","
","
","""event"",""trial"",""time""
""fullscreenenter"",""1"",""2666""
","
","","[{""page_index"":0,""viewing_time"":6649.19999999553},{""page_index"":1,""viewing_time"":6878.39999999851},{""page_index"":2,""viewing_time"":10956.40000000596},{""page_index"":3,""viewing_time"":10080.79999999702},{""page_index"":4,""viewing_time"":8071.10000000149}]","42636.09999999404","","","","","","","","","","","","","","","","","","","","","","","",""
"pit-trial","37","498615","0.0-2.0-11.0-0.0","battery-v0.2","","""event"",""trial"",""time""
""fullscreenenter"",""1"",""2666""
","
","
","""event"",""trial"",""time""
""fullscreenenter"",""1"",""2666""
","
","","","661.2000000029802","","","23","4469","3045","&#9761;","elianto","#3366ff99","-1"," ","0","0","[1512.8999999985099]","1","0","2","","","","","","","",""
"pit-trial","38","501673","0.0-2.0-11.0-1.0","battery-v0.2","","""event"",""trial"",""time""
""fullscreenenter"",""1"",""2666""
","
","
","""event"",""trial"",""time""
""fullscreenenter"",""1"",""2666""
","
","","","203.39999999850988","","","23","4469","3045","&#9761;","elianto","#3366ff99","-1"," ","0","0","[1053.5999999940395]","1","0","2","","","","","","","",""
"pit-trial","39","506532","0.0-2.0-11.0-2.0","battery-v0.2","","""event"",""trial"",""time""
""fullscreenenter"",""1"",""2666""
","
","
","""event"",""trial"",""time""
""fullscreenenter"",""1"",""2666""
","
","","","-1","","","23","4469","3045","&#9761;","elianto","#3366ff99","-1","-1","1","+10","[]","0","0","2","","","","","","","",""
"pit-trial","40","511388","0.0-2.0-11.0-3.0","battery-v0.2","","""event"",""trial"",""time""
""fullscreenenter"",""1"",""2666""
","
","
","""event"",""trial"",""time""
""fullscreenenter"",""1"",""2666""
","
","","","-1","","","23","4469","3045","&#9761;","elianto","#3366ff99","-1","-1","1","0","[]","0","0","2","","","","","","","",""
"pit-trial","41","516244","0.0-2.0-11.0-4.0","battery-v0.2","","""event"",""trial"",""time""
""fullscreenenter"",""1"",""2666""
","
","
","""event"",""trial"",""time""
""fullscreenenter"",""1"",""2666""
","
","","","-1","","","23","4469","3045","&#9761;","elianto","#3366ff99","-1","-1","1","+10","[]","0","0","2","","","","","","","",""
"pit-trial","42","521103","0.0-2.0-11.1-0.1","battery-v0.2","","""event"",""trial"",""time""
""fullscreenenter"",""1"",""2666""
","
","
","""event"",""trial"",""time""
""fullscreenenter"",""1"",""2666""
","
","","","-1","","","23","4469","3045","&#9761;","elianto","#3366ff99","-1","-1","1","+10","[]","0","0","2","","","","","","","",""
"pit-trial","43","525958","0.0-2.0-11.1-1.1","battery-v0.2","","""event"",""trial"",""time""
""fullscreenenter"",""1"",""2666""
","
","
","""event"",""trial"",""time""
""fullscreenenter"",""1"",""2666""
","
","","","-1","","","23","4469","3045","&#9761;","elianto","#3366ff99","-1","-1","1","+10","[]","0","0","2","","","","","","","",""
"pit-trial","44","530819","0.0-2.0-11.1-2.1","battery-v0.2","","""event"",""trial"",""time""
""fullscreenenter"",""1"",""2666""
","
","
","""event"",""trial"",""time""
""fullscreenenter"",""1"",""2666""
","
","","","-1","","","23","4469","3045","&#9761;","elianto","#3366ff99","-1","-1","1","+10","[]","0","0","2","","","","","","","",""
"pit-trial","45","535683","0.0-2.0-11.1-3.1","battery-v0.2","","""event"",""trial"",""time""
""fullscreenenter"",""1"",""2666""
","
","
","""event"",""trial"",""time""
""fullscreenenter"",""1"",""2666""
","
","","","-1","","","23","4469","3045","&#9761;","elianto","#3366ff99","-1","-1","1","0","[]","0","0","2","","","","","","","",""
"pit-trial","46","540543","0.0-2.0-11.1-4.1","battery-v0.2","","""event"",""trial"",""time""
""fullscreenenter"",""1"",""2666""
","
","
","""event"",""trial"",""time""
""fullscreenenter"",""1"",""2666""
","
","","","-1","","","23","4469","3045","&#9761;","elianto","#3366ff99","-1","-1","1","+10","[]","0","0","2","","","","","","","",""
"pit-trial","47","545403","0.0-2.0-11.2-0.2","battery-v0.2","","""event"",""trial"",""time""
""fullscreenenter"",""1"",""2666""
","
","
","""event"",""trial"",""time""
""fullscreenenter"",""1"",""2666""
","
","","","-1","","","23","4469","3045","&#9761;","elianto","#3366ff99","-1","-1","1","+10","[]","0","0","2","","","","","","","",""
"pit-trial","48","550264","0.0-2.0-11.2-1.2","battery-v0.2","","""event"",""trial"",""time""
""fullscreenenter"",""1"",""2666""
","
","
","""event"",""trial"",""time""
""fullscreenenter"",""1"",""2666""
","
","","","-1","","","23","4469","3045","&#9761;","elianto","#3366ff99","-1","-1","1","+10","[]","0","0","2","","","","","","","",""
"pit-trial","49","555128","0.0-2.0-11.2-2.2","battery-v0.2","","""event"",""trial"",""time""
""fullscreenenter"",""1"",""2666""
","
","
","""event"",""trial"",""time""
""fullscreenenter"",""1"",""2666""
","
","","","-1","","","23","4469","3045","&#9761;","elianto","#3366ff99","-1","-1","1","+10","[]","0","0","2","","","","","","","",""
"pit-trial","50","559989","0.0-2.0-11.2-3.2","battery-v0.2","","""event"",""trial"",""time""
""fullscreenenter"",""1"",""2666""
","
","
","""event"",""trial"",""time""
""fullscreenenter"",""1"",""2666""
","
","","","-1","","","23","4469","3045","&#9761;","elianto","#3366ff99","-1","-1","1","0","[]","0","0","2","","","","","","","",""
"pit-trial","51","564851","0.0-2.0-11.2-4.2","battery-v0.2","","""event"",""trial"",""time""
""fullscreenenter"",""1"",""2666""
","
","
","""event"",""trial"",""time""
""fullscreenenter"",""1"",""2666""
","
","","","-1","","","23","4469","3045","&#9761;","elianto","#3366ff99","-1","-1","1","+10","[]","0","0","2","","","","","","","",""
"pit-trial","52","569712","0.0-2.0-11.3-0.3","battery-v0.2","","""event"",""trial"",""time""
""fullscreenenter"",""1"",""2666""
","
","
","""event"",""trial"",""time""
""fullscreenenter"",""1"",""2666""
","
","","","-1","","","23","4469","3045","&#9761;","elianto","#3366ff99","-1","-1","1","+10","[]","0","0","2","","","","","","","",""
"pit-trial","53","574576","0.0-2.0-11.3-1.3","battery-v0.2","","""event"",""trial"",""time""
""fullscreenenter"",""1"",""2666""
","
","
","""event"",""trial"",""time""
""fullscreenenter"",""1"",""2666""
","
","","","-1","","","23","4469","3045","&#9761;","elianto","#3366ff99","-1","-1","1","+10","[]","0","0","2","","","","","","","",""
"pit-trial","54","579437","0.0-2.0-11.3-2.3","battery-v0.2","","""event"",""trial"",""time""
""fullscreenenter"",""1"",""2666""
","
","
","""event"",""trial"",""time""
""fullscreenenter"",""1"",""2666""
","
","","","-1","","","23","4469","3045","&#9761;","elianto","#3366ff99","-1","-1","1","+10","[]","0","0","2","","","","","","","",""
"pit-trial","55","584298","0.0-2.0-11.3-3.3","battery-v0.2","","""event"",""trial"",""time""
""fullscreenenter"",""1"",""2666""
","
","
","""event"",""trial"",""time""
""fullscreenenter"",""1"",""2666""
","
","","","-1","","","23","4469","3045","&#9761;","elianto","#3366ff99","-1","-1","1","0","[]","0","0","2","","","","","","","",""
"pit-trial","56","589160","0.0-2.0-11.3-4.3","battery-v0.2","","""event"",""trial"",""time""
""fullscreenenter"",""1"",""2666""
","
","
","""event"",""trial"",""time""
""fullscreenenter"",""1"",""2666""
","
","","","-1","","","23","4469","3045","&#9761;","elianto","#3366ff99","-1","-1","1","+10","[]","0","0","2","","","","","","","",""
"call-function","57","589166","0.0-2.0-12.0","battery-v0.2","","""event"",""trial"",""time""
""fullscreenenter"",""1"",""2666""
","
","
","""event"",""trial"",""time""
""fullscreenenter"",""1"",""2666""
","
","","","","","","","","","","","","","","","","","","","","","","","","","","",""
"pit-instructions","58","629650","0.0-2.0-13.0","battery-v0.2","","""event"",""trial"",""time""
""fullscreenenter"",""1"",""2666""
","
","
","""event"",""trial"",""time""
""fullscreenenter"",""1"",""2666""
","
","","[{""page_index"":0,""viewing_time"":12288.89999999851},{""page_index"":1,""viewing_time"":7287.20000000298},{""page_index"":2,""viewing_time"":5189.79999999702},{""page_index"":3,""viewing_time"":10191.20000000298},{""page_index"":4,""viewing_time"":5526}]","40483.5","","","","","","","","","","","","","","","","","","","","","","","",""
"pit-trial","59","634509","0.0-2.0-14.0-0.0","battery-v0.2","","""event"",""trial"",""time""
""fullscreenenter"",""1"",""2666""
","
","
","""event"",""trial"",""time""
""fullscreenenter"",""1"",""2666""
","
","","","-1","","","23","4469","3045","&#9826;","elianto","#f73b6a7A","-1","-1","1","0","[]","0","0","3","","","","","","","",""
"pit-trial","60","639369","0.0-2.0-14.0-1.0","battery-v0.2","","""event"",""trial"",""time""
""fullscreenenter"",""1"",""2666""
","
","
","""event"",""trial"",""time""
""fullscreenenter"",""1"",""2666""
","
","","","-1","","","23","4469","3045","&#9826;","elianto","#f73b6a7A","-1","-1","1","0","[]","0","0","3","","","","","","","",""
"pit-trial","61","644225","0.0-2.0-14.0-2.0","battery-v0.2","","""event"",""trial"",""time""
""fullscreenenter"",""1"",""2666""
","
","
","""event"",""trial"",""time""
""fullscreenenter"",""1"",""2666""
","
","","","-1","","","23","4469","3045","&#9826;","elianto","#f73b6a7A","-1","-1","1","0","[]","0","0","3","","","","","","","",""
"pit-trial","62","647698","0.0-2.0-14.0-3.0","battery-v0.2","","""event"",""trial"",""time""
""fullscreenenter"",""1"",""2666""
","
","
","""event"",""trial"",""time""
""fullscreenenter"",""1"",""2666""
","
","","","620.0999999940395","","","23","4469","3045","&#9826;","elianto","#f73b6a7A","-1"," ","0","0","[1470.0999999940395]","1","0","3","","","","","","","",""
"pit-trial","63","652555","0.0-2.0-14.0-4.0","battery-v0.2","","""event"",""trial"",""time""
""fullscreenenter"",""1"",""2666""
","
","
","""event"",""trial"",""time""
""fullscreenenter"",""1"",""2666""
","
","","","-1","","","23","4469","3045","&#9826;","elianto","#f73b6a7A","-1","-1","1","0","[]","0","0","3","","","","","","","",""
"pit-trial","64","656497","0.0-2.0-14.1-0.1","battery-v0.2","","""event"",""trial"",""time""
""fullscreenenter"",""1"",""2666""
","
","
","""event"",""trial"",""time""
""fullscreenenter"",""1"",""2666""
","
","","","1080.1999999955297","","","23","4469","3045","&#9826;","elianto","#f73b6a7A","-1"," ","0","-10","[1932.8999999985099]","1","0","3","","","","","","","",""
"pit-trial","65","661354","0.0-2.0-14.1-1.1","battery-v0.2","","""event"",""trial"",""time""
""fullscreenenter"",""1"",""2666""
","
","
","""event"",""trial"",""time""
""fullscreenenter"",""1"",""2666""
","
","","","-1","","","23","4469","3045","&#9826;","elianto","#f73b6a7A","-1","-1","1","0","[]","0","0","3","","","","","","","",""
"pit-trial","66","666218","0.0-2.0-14.1-2.1","battery-v0.2","","""event"",""trial"",""time""
""fullscreenenter"",""1"",""2666""
","
","
","""event"",""trial"",""time""
""fullscreenenter"",""1"",""2666""
","
","","","-1","","","23","4469","3045","&#9826;","elianto","#f73b6a7A","-1","-1","1","0","[]","0","0","3","","","","","","","",""
"pit-trial","67","671079","0.0-2.0-14.1-3.1","battery-v0.2","","""event"",""trial"",""time""
""fullscreenenter"",""1"",""2666""
","
","
","""event"",""trial"",""time""
""fullscreenenter"",""1"",""2666""
","
","","","-1","","","23","4469","3045","&#9826;","elianto","#f73b6a7A","-1","-1","1","-10","[]","0","0","3","","","","","","","",""
"pit-trial","68","675941","0.0-2.0-14.1-4.1","battery-v0.2","","""event"",""trial"",""time""
""fullscreenenter"",""1"",""2666""
","
","
","""event"",""trial"",""time""
""fullscreenenter"",""1"",""2666""
","
","","","-1","","","23","4469","3045","&#9826;","elianto","#f73b6a7A","-1","-1","1","0","[]","0","0","3","","","","","","","",""
"pit-trial","69","680802","0.0-2.0-14.2-0.2","battery-v0.2","","""event"",""trial"",""time""
""fullscreenenter"",""1"",""2666""
","
","
","""event"",""trial"",""time""
""fullscreenenter"",""1"",""2666""
","
","","","-1","","","23","4469","3045","&#9826;","elianto","#f73b6a7A","-1","-1","1","0","[]","0","0","3","","","","","","","",""
"pit-trial","70","685663","0.0-2.0-14.2-1.2","battery-v0.2","","""event"",""trial"",""time""
""fullscreenenter"",""1"",""2666""
","
","
","""event"",""trial"",""time""
""fullscreenenter"",""1"",""2666""
","
","","","-1","","","23","4469","3045","&#9826;","elianto","#f73b6a7A","-1","-1","1","0","[]","0","0","3","","","","","","","",""
"pit-trial","71","690522","0.0-2.0-14.2-2.2","battery-v0.2","","""event"",""trial"",""time""
""fullscreenenter"",""1"",""2666""
","
","
","""event"",""trial"",""time""
""fullscreenenter"",""1"",""2666""
","
","","","-1","","","23","4469","3045","&#9826;","elianto","#f73b6a7A","-1","-1","1","0","[]","0","0","3","","","","","","","",""
"pit-trial","72","695383","0.0-2.0-14.2-3.2","battery-v0.2","","""event"",""trial"",""time""
""fullscreenenter"",""1"",""2666""
","
","
","""event"",""trial"",""time""
""fullscreenenter"",""1"",""2666""
","
","","","-1","","","23","4469","3045","&#9826;","elianto","#f73b6a7A","-1","-1","1","-10","[]","0","0","3","","","","","","","",""
"pit-trial","73","700245","0.0-2.0-14.2-4.2","battery-v0.2","","""event"",""trial"",""time""
""fullscreenenter"",""1"",""2666""
","
","
","""event"",""trial"",""time""
""fullscreenenter"",""1"",""2666""
","
","","","-1","","","23","4469","3045","&#9826;","elianto","#f73b6a7A","-1","-1","1","0","[]","0","0","3","","","","","","","",""
"pit-trial","74","705106","0.0-2.0-14.3-0.3","battery-v0.2","","""event"",""trial"",""time""
""fullscreenenter"",""1"",""2666""
","
","
","""event"",""trial"",""time""
""fullscreenenter"",""1"",""2666""
","
","","","-1","","","23","4469","3045","&#9826;","elianto","#f73b6a7A","-1","-1","1","0","[]","0","0","3","","","","","","","",""
"pit-trial","75","709967","0.0-2.0-14.3-1.3","battery-v0.2","","""event"",""trial"",""time""
""fullscreenenter"",""1"",""2666""
","
","
","""event"",""trial"",""time""
""fullscreenenter"",""1"",""2666""
","
","","","-1","","","23","4469","3045","&#9826;","elianto","#f73b6a7A","-1","-1","1","0","[]","0","0","3","","","","","","","",""
"pit-trial","76","714831","0.0-2.0-14.3-2.3","battery-v0.2","","""event"",""trial"",""time""
""fullscreenenter"",""1"",""2666""
","
","
","""event"",""trial"",""time""
""fullscreenenter"",""1"",""2666""
","
","","","-1","","","23","4469","3045","&#9826;","elianto","#f73b6a7A","-1","-1","1","0","[]","0","0","3","","","","","","","",""
"pit-trial","77","719692","0.0-2.0-14.3-3.3","battery-v0.2","","""event"",""trial"",""time""
""fullscreenenter"",""1"",""2666""
","
","
","""event"",""trial"",""time""
""fullscreenenter"",""1"",""2666""
","
","","","-1","","","23","4469","3045","&#9826;","elianto","#f73b6a7A","-1","-1","1","-10","[]","0","0","3","","","","","","","",""
"pit-trial","78","724553","0.0-2.0-14.3-4.3","battery-v0.2","","""event"",""trial"",""time""
""fullscreenenter"",""1"",""2666""
","
","
","""event"",""trial"",""time""
""fullscreenenter"",""1"",""2666""
","
","","","-1","","","23","4469","3045","&#9826;","elianto","#f73b6a7A","-1","-1","1","0","[]","0","0","3","","","","","","","",""
"call-function","79","724560","0.0-2.0-15.0","battery-v0.2","","""event"",""trial"",""time""
""fullscreenenter"",""1"",""2666""
","
","
","""event"",""trial"",""time""
""fullscreenenter"",""1"",""2666""
","
","","","","","","","","","","","","","","","","","","","","","","","","","","",""
"pit-instructions","80","750455","0.0-2.0-16.0","battery-v0.2","","""event"",""trial"",""time""
""fullscreenenter"",""1"",""2666""
","
","
","""event"",""trial"",""time""
""fullscreenenter"",""1"",""2666""
","
","","[{""page_index"":0,""viewing_time"":6891},{""page_index"":1,""viewing_time"":8170.39999999851},{""page_index"":2,""viewing_time"":4791},{""page_index"":3,""viewing_time"":6041.19999999553}]","25894","","","","","","","","","","","","","","","","","","","","","","","",""
"pit-trial","81","753948","0.0-2.0-17.0-0.0","battery-v0.2","","""event"",""trial"",""time""
""fullscreenenter"",""1"",""2666""
","
","
","""event"",""trial"",""time""
""fullscreenenter"",""1"",""2666""
","
","","","636.7000000029802","","","23","4469","3045","&#9789;","elianto","#f73b6a7A"," "," ","1","0","[1488.2000000029802]","1","0","4","","","","","","","",""
"pit-trial","82","756986","0.0-2.0-17.0-1.0","battery-v0.2","","""event"",""trial"",""time""
""fullscreenenter"",""1"",""2666""
","
","
","""event"",""trial"",""time""
""fullscreenenter"",""1"",""2666""
","
","","","189.60000000149012","","","23","4469","3045","&#9789;","elianto","#f73b6a7A"," "," ","1","0","[1040]","1","0","4","","","","","","","",""
"pit-trial","83","760007","0.0-2.0-17.0-2.0","battery-v0.2","","""event"",""trial"",""time""
""fullscreenenter"",""1"",""2666""
","
","
","""event"",""trial"",""time""
""fullscreenenter"",""1"",""2666""
","
","","","171.5","","","23","4469","3045","&#9789;","elianto","#f73b6a7A"," "," ","1","0","[1021.9000000059605]","1","0","4","","","","","","","",""
"pit-trial","84","764856","0.0-2.0-17.0-3.0","battery-v0.2","","""event"",""trial"",""time""
""fullscreenenter"",""1"",""2666""
","
","
","""event"",""trial"",""time""
""fullscreenenter"",""1"",""2666""
","
","","","-1","","","23","4469","3045","&#9789;","elianto","#f73b6a7A"," ","-1","0","0","[]","0","0","4","","","","","","","",""
"pit-trial","85","769709","0.0-2.0-17.0-4.0","battery-v0.2","","""event"",""trial"",""time""
""fullscreenenter"",""1"",""2666""
","
","
","""event"",""trial"",""time""
""fullscreenenter"",""1"",""2666""
","
","","","-1","","","23","4469","3045","&#9789;","elianto","#f73b6a7A"," ","-1","0","-10","[]","0","0","4","","","","","","","",""
"pit-trial","86","774260","0.0-2.0-17.1-0.1","battery-v0.2","","""event"",""trial"",""time""
""fullscreenenter"",""1"",""2666""
","
","
","""event"",""trial"",""time""
""fullscreenenter"",""1"",""2666""
","
","","","1698.8999999985099","","","23","4469","3045","&#9789;","elianto","#f73b6a7A"," "," ","1","0","[2549.60000000149]","1","0","4","","","","","","","",""
"pit-trial","87","777515","0.0-2.0-17.1-1.1","battery-v0.2","","""event"",""trial"",""time""
""fullscreenenter"",""1"",""2666""
","
","
","""event"",""trial"",""time""
""fullscreenenter"",""1"",""2666""
","
","","","398.5","","","23","4469","3045","&#9789;","elianto","#f73b6a7A"," "," ","1","0","[1251.1999999955297]","1","0","4","","","","","","","",""
"pit-trial","88","780549","0.0-2.0-17.1-2.1","battery-v0.2","","""event"",""trial"",""time""
""fullscreenenter"",""1"",""2666""
","
","
","""event"",""trial"",""time""
""fullscreenenter"",""1"",""2666""
","
","","","179.10000000149012","","","23","4469","3045","&#9789;","elianto","#f73b6a7A"," "," ","1","0","[1029.2999999970198]","1","0","4","","","","","","","",""
"pit-trial","89","783580","0.0-2.0-17.1-3.1","battery-v0.2","","""event"",""trial"",""time""
""fullscreenenter"",""1"",""2666""
","
","
","""event"",""trial"",""time""
""fullscreenenter"",""1"",""2666""
","
","","","171.5","","","23","4469","3045","&#9789;","elianto","#f73b6a7A"," "," ","1","-10","[1022.6000000014901]","1","0","4","","","","","","","",""
"pit-trial","90","786640","0.0-2.0-17.1-4.1","battery-v0.2","","""event"",""trial"",""time""
""fullscreenenter"",""1"",""2666""
","
","
","""event"",""trial"",""time""
""fullscreenenter"",""1"",""2666""
","
","","","200.29999999701977","","","23","4469","3045","&#9789;","elianto","#f73b6a7A"," "," ","1","0","[1051.6999999955297]","1","0","4","","","","","","","",""
"pit-trial","91","789674","0.0-2.0-17.2-0.2","battery-v0.2","","""event"",""trial"",""time""
""fullscreenenter"",""1"",""2666""
","
","
","""event"",""trial"",""time""
""fullscreenenter"",""1"",""2666""
","
","","","174.5","","","23","4469","3045","&#9789;","elianto","#f73b6a7A"," "," ","1","0","[1025.2999999970198]","1","0","4","","","","","","","",""
"pit-trial","92","792734","0.0-2.0-17.2-1.2","battery-v0.2","","""event"",""trial"",""time""
""fullscreenenter"",""1"",""2666""
","
","
","""event"",""trial"",""time""
""fullscreenenter"",""1"",""2666""
","
","","","201.10000000149012","","","23","4469","3045","&#9789;","elianto","#f73b6a7A"," "," ","1","0","[1052.6000000014901]","1","0","4","","","","","","","",""
"pit-trial","93","795827","0.0-2.0-17.2-2.2","battery-v0.2","","""event"",""trial"",""time""
""fullscreenenter"",""1"",""2666""
","
","
","""event"",""trial"",""time""
""fullscreenenter"",""1"",""2666""
","
","","","233.60000000149012","","","23","4469","3045","&#9789;","elianto","#f73b6a7A"," "," ","1","0","[1084.8999999985099]","1","0","4","","","","","","","",""
"pit-trial","94","798859","0.0-2.0-17.2-3.2","battery-v0.2","","""event"",""trial"",""time""
""fullscreenenter"",""1"",""2666""
","
","
","""event"",""trial"",""time""
""fullscreenenter"",""1"",""2666""
","
","","","172.70000000298023","","","23","4469","3045","&#9789;","elianto","#f73b6a7A"," "," ","1","-10","[1023.1000000014901]","1","0","4","","","","","","","",""
"pit-trial","95","801903","0.0-2.0-17.2-4.2","battery-v0.2","","""event"",""trial"",""time""
""fullscreenenter"",""1"",""2666""
","
","
","""event"",""trial"",""time""
""fullscreenenter"",""1"",""2666""
","
","","","185.89999999850988","","","23","4469","3045","&#9789;","elianto","#f73b6a7A"," "," ","1","0","[1036.8999999985099]","1","0","4","","","","","","","",""
"pit-trial","96","804922","0.0-2.0-17.3-0.3","battery-v0.2","","""event"",""trial"",""time""
""fullscreenenter"",""1"",""2666""
","
","
","""event"",""trial"",""time""
""fullscreenenter"",""1"",""2666""
","
","","","158.10000000149012","","","23","4469","3045","&#9789;","elianto","#f73b6a7A"," "," ","1","0","[1008.5]","1","0","4","","","","","","","",""
"pit-trial","97","808028","0.0-2.0-17.3-1.3","battery-v0.2","","""event"",""trial"",""time""
""fullscreenenter"",""1"",""2666""
","
","
","""event"",""trial"",""time""
""fullscreenenter"",""1"",""2666""
","
","","","246.60000000149012","","","23","4469","3045","&#9789;","elianto","#f73b6a7A"," "," ","1","0","[1096.7999999970198]","1","0","4","","","","","","","",""
"pit-trial","98","811062","0.0-2.0-17.3-2.3","battery-v0.2","","""event"",""trial"",""time""
""fullscreenenter"",""1"",""2666""
","
","
","""event"",""trial"",""time""
""fullscreenenter"",""1"",""2666""
","
","","","174.30000000447035","","","23","4469","3045","&#9789;","elianto","#f73b6a7A"," "," ","1","0","[1026.6000000014901]","1","0","4","","","","","","","",""
"pit-trial","99","814161","0.0-2.0-17.3-3.3","battery-v0.2","","""event"",""trial"",""time""
""fullscreenenter"",""1"",""2666""
","
","
","""event"",""trial"",""time""
""fullscreenenter"",""1"",""2666""
","
","","","236.20000000298023","","","23","4469","3045","&#9789;","elianto","#f73b6a7A"," "," ","1","-10","[1088.3999999985099]","1","0","4","","","","","","","",""
"pit-trial","100","817376","0.0-2.0-17.3-4.3","battery-v0.2","","""event"",""trial"",""time""
""fullscreenenter"",""1"",""2666""
","
","
","""event"",""trial"",""time""
""fullscreenenter"",""1"",""2666""
","
","","","356.5","","","23","4469","3045","&#9789;","elianto","#f73b6a7A"," "," ","1","0","[1206.6999999955297]","1","0","4","","","","","","","",""
"call-function","101","817383","0.0-2.0-18.0","battery-v0.2","","""event"",""trial"",""time""
""fullscreenenter"",""1"",""2666""
","
","
","""event"",""trial"",""time""
""fullscreenenter"",""1"",""2666""
","
","","","","","","","","","","","","","","","","","","","","","","","","","","",""
"pit-instructions","102","888703","0.0-2.0-19.0","battery-v0.2","","""event"",""trial"",""time""
""fullscreenenter"",""1"",""2666""
","
","
","""event"",""trial"",""time""
""fullscreenenter"",""1"",""2666""
","
","","[{""page_index"":0,""viewing_time"":6711.5},{""page_index"":1,""viewing_time"":6471.30000000447},{""page_index"":2,""viewing_time"":13955.79999999702},{""page_index"":3,""viewing_time"":7446.89999999851},{""page_index"":4,""viewing_time"":8420.80000000447},{""page_index"":5,""viewing_time"":10145.10000000149},{""page_index"":6,""viewing_time"":8151.69999999553},{""page_index"":7,""viewing_time"":6097},{""page_index"":8,""viewing_time"":3919.7000000029802}]","71320.20000000298","","","","","","","","","","","","","","","","","","","","","","","",""
"pit-comprehension","103","893668","0.0-2.0-20.0-0.0","battery-v0.2","","""event"",""trial"",""time""
""fullscreenenter"",""1"",""2666""
","
","
","""event"",""trial"",""time""
""fullscreenenter"",""1"",""2666""
","
","","","4960.80000000447","[""SPACE""]","0","23","4469","3045","","","","","","","","","","","","","","","","","","",""
"pit-instructions","104","897841","0.0-2.0-20.0-1.0","battery-v0.2","","""event"",""trial"",""time""
""fullscreenenter"",""1"",""2666""
","
","
","""event"",""trial"",""time""
""fullscreenenter"",""1"",""2666""
","
","","[{""page_index"":0,""viewing_time"":4146.20000000298}]","4146.70000000298","","","","","","","","","","","","","","","","","","","","","","","",""
"pit-comprehension","105","904545","0.0-2.0-21.0-0.0","battery-v0.2","","""event"",""trial"",""time""
""fullscreenenter"",""1"",""2666""
","
","
","""event"",""trial"",""time""
""fullscreenenter"",""1"",""2666""
","
","","","6698.79999999702","[""10""]","0","23","4469","3045","","","","","","","","","","","","","","","","","","",""
"pit-instructions","106","911041","0.0-2.0-21.0-1.0","battery-v0.2","","""event"",""trial"",""time""
""fullscreenenter"",""1"",""2666""
","
","
","""event"",""trial"",""time""
""fullscreenenter"",""1"",""2666""
","
","","[{""page_index"":0,""viewing_time"":6467.80000000447}]","6468.20000000298","","","","","","","","","","","","","","","","","","","","","","","",""
"pit-comprehension","107","917691","0.0-2.0-22.0-0.0","battery-v0.2","","""event"",""trial"",""time""
""fullscreenenter"",""1"",""2666""
","
","
","""event"",""trial"",""time""
""fullscreenenter"",""1"",""2666""
","
","","","6645.60000000149","[""0""]","0","23","4469","3045","","","","","","","","","","","","","","","","","","",""
"pit-instructions","108","919674","0.0-2.0-22.0-1.0","battery-v0.2","","""event"",""trial"",""time""
""fullscreenenter"",""1"",""2666""
","
","
","""event"",""trial"",""time""
""fullscreenenter"",""1"",""2666""
","
","","[{""page_index"":0,""viewing_time"":1955.3000000044703}]","1955.4000000059605","","","","","","","","","","","","","","","","","","","","","","","",""
"pit-comprehension","109","930472","0.0-2.0-23.0-0.0","battery-v0.2","","""event"",""trial"",""time""
""fullscreenenter"",""1"",""2666""
","
","
","""event"",""trial"",""time""
""fullscreenenter"",""1"",""2666""
","
","","","10793.60000000149","[""True""]","0","23","4469","3045","","","","","","","","","","","","","","","","","","",""
"pit-instructions","110","932060","0.0-2.0-23.0-1.0","battery-v0.2","","""event"",""trial"",""time""
""fullscreenenter"",""1"",""2666""
","
","
","""event"",""trial"",""time""
""fullscreenenter"",""1"",""2666""
","
","","[{""page_index"":0,""viewing_time"":1561.2000000029802}]","1561.5","","","","","","","","","","","","","","","","","","","","","","","",""
"pit-comprehension","111","940104","0.0-2.0-24.0-0.0","battery-v0.2","","""event"",""trial"",""time""
""fullscreenenter"",""1"",""2666""
","
","
","""event"",""trial"",""time""
""fullscreenenter"",""1"",""2666""
","
","","","8039.39999999851","[""True""]","0","23","4469","3045","","","","","","","","","","","","","","","","","","",""
"pit-instructions","112","944607","0.0-2.0-24.0-1.0","battery-v0.2","","""event"",""trial"",""time""
""fullscreenenter"",""1"",""2666""
","
","
","""event"",""trial"",""time""
""fullscreenenter"",""1"",""2666""
","
","","[{""page_index"":0,""viewing_time"":4474.5999999940395}]","4474.79999999702","","","","","","","","","","","","","","","","","","","","","","","",""
"pit-comprehension","113","951690","0.0-2.0-25.0-0.0","battery-v0.2","","""event"",""trial"",""time""
""fullscreenenter"",""1"",""2666""
","
","
","""event"",""trial"",""time""
""fullscreenenter"",""1"",""2666""
","
","","","7079.19999999553","[""True""]","0","23","4469","3045","","","","","","","","","","","","","","","","","","",""
"pit-instructions","114","953280","0.0-2.0-25.0-1.0","battery-v0.2","","""event"",""trial"",""time""
""fullscreenenter"",""1"",""2666""
","
","
","""event"",""trial"",""time""
""fullscreenenter"",""1"",""2666""
","
","","[{""page_index"":0,""viewing_time"":1560}]","1560.1999999955297","","","","","","","","","","","","","","","","","","","","","","","",""
"pit-comprehension","115","958002","0.0-2.0-26.0-0.0","battery-v0.2","","""event"",""trial"",""time""
""fullscreenenter"",""1"",""2666""
","
","
","""event"",""trial"",""time""
""fullscreenenter"",""1"",""2666""
","
","","","4717.5","[""False""]","0","23","4469","3045","","","","","","","","","","","","","","","","","","",""
"pit-instructions","116","959508","0.0-2.0-26.0-1.0","battery-v0.2","","""event"",""trial"",""time""
""fullscreenenter"",""1"",""2666""
","
","
","""event"",""trial"",""time""
""fullscreenenter"",""1"",""2666""
","
","","[{""page_index"":0,""viewing_time"":1477.2000000029802}]","1477.4000000059605","","","","","","","","","","","","","","","","","","","","","","","",""
"pit-instructions","117","978932","0.0-3.0","battery-v0.2","","""event"",""trial"",""time""
""fullscreenenter"",""1"",""2666""
","
","
","""event"",""trial"",""time""
""fullscreenenter"",""1"",""2666""
","
","","[{""page_index"":0,""viewing_time"":4347.5999999940395},{""page_index"":1,""viewing_time"":6088.70000000298},{""page_index"":2,""viewing_time"":8984.29999999702}]","19421.09999999404","","","","","","","","","","","","","","","","","","","","","","","",""
"pit-trial","118","982133","0.0-4.0","battery-v0.2","","""event"",""trial"",""time""
""fullscreenenter"",""1"",""2666""
","
","
","""event"",""trial"",""time""
""fullscreenenter"",""1"",""2666""
","
","","","342.6000000014901","","","23","4469","3045","&#9752;","elianto","#f73b6a7A"," "," ","1","0","[1192.7000000029802]","1","1","","","4469","1","3","3","lose","go","0"
"pit-trial","119","985096","0.0-5.0","battery-v0.2","","""event"",""trial"",""time""
""fullscreenenter"",""1"",""2666""
","
","
","""event"",""trial"",""time""
""fullscreenenter"",""1"",""2666""
","
","","","108.39999999850988","","","23","4469","3045","&#9733;","elianto","#3366ff99","-1"," ","0","0","[958.7000000029802]","1","1","","","4469","2","2","2","win","no-go","0"
"pit-trial","120","988093","0.0-6.0","battery-v0.2","","""event"",""trial"",""time""
""fullscreenenter"",""1"",""2666""
","
","
","""event"",""trial"",""time""
""fullscreenenter"",""1"",""2666""
","
","","","141","","","23","4469","3045","&#9728;","elianto","#f73b6a7A","-1"," ","0","0","[992.1000000014901]","1","1","","","4469","3","0","4","lose","no-go","1"
"pit-trial","121","991090","0.0-7.0","battery-v0.2","","""event"",""trial"",""time""
""fullscreenenter"",""1"",""2666""
","
","
","""event"",""trial"",""time""
""fullscreenenter"",""1"",""2666""
","
","","","142.70000000298023","","","23","4469","3045","&#9730;","elianto","#3366ff99"," "," ","1","+10","[993.5]","1","1","","","4469","4","1","1","win","go","0"
"pit-trial","122","994112","0.0-8.0","battery-v0.2","","""event"",""trial"",""time""
""fullscreenenter"",""1"",""2666""
","
","
","""event"",""trial"",""time""
""fullscreenenter"",""1"",""2666""
","
","","","167.79999999701977","","","23","4469","3045","&#9730;","elianto","#3366ff99"," "," ","1","+10","[1018.1000000014901]","1","1","","","4469","5","1","1","win","go","0"
"pit-trial","123","997533","0.0-9.0","battery-v0.2","","""event"",""trial"",""time""
""fullscreenenter"",""1"",""2666""
","
","
","""event"",""trial"",""time""
""fullscreenenter"",""1"",""2666""
","
","","","565.7000000029802","","","23","4469","3045","&#9728;","elianto","#f73b6a7A","-1"," ","0","-10","[1416.2000000029802]","1","1","","","4469","6","0","4","lose","no-go","0"
"pit-trial","124","1001042","0.0-10.0","battery-v0.2","","""event"",""trial"",""time""
""fullscreenenter"",""1"",""2666""
","
","
","""event"",""trial"",""time""
""fullscreenenter"",""1"",""2666""
","
","","","654","","","23","4469","3045","&#9733;","elianto","#3366ff99","-1"," ","0","+10","[1504.2999999970198]","1","1","","","4469","7","2","2","win","no-go","1"
"pit-trial","125","1004320","0.0-11.0","battery-v0.2","","""event"",""trial"",""time""
""fullscreenenter"",""1"",""2666""
","
","
","""event"",""trial"",""time""
""fullscreenenter"",""1"",""2666""
","
","","","421.5","","","23","4469","3045","&#9752;","elianto","#f73b6a7A"," "," ","1","-10","[1271.6000000014901]","1","1","","","4469","8","3","3","lose","go","1"
"pit-trial","126","1007485","0.0-12.0","battery-v0.2","","""event"",""trial"",""time""
""fullscreenenter"",""1"",""2666""
","
","
","""event"",""trial"",""time""
""fullscreenenter"",""1"",""2666""
","
","","","309.5","","","23","4469","3045","&#9728;","elianto","#f73b6a7A","-1"," ","0","-10","[1159.7999999970198]","1","1","","","4469","9","0","4","lose","no-go","0"
"pit-trial","127","1011041","0.0-13.0","battery-v0.2","","""event"",""trial"",""time""
""fullscreenenter"",""1"",""2666""
","
","
","""event"",""trial"",""time""
""fullscreenenter"",""1"",""2666""
","
","","","698.8000000044703","","","23","4469","3045","&#9752;","elianto","#f73b6a7A"," "," ","1","0","[1549.1000000014901]","1","1","","","4469","10","3","3","lose","go","0"
"pit-trial","128","1014406","0.0-14.0","battery-v0.2","","""event"",""trial"",""time""
""fullscreenenter"",""1"",""2666""
","
","
","""event"",""trial"",""time""
""fullscreenenter"",""1"",""2666""
","
","","","504.1000000014901","","","23","4469","3045","&#9733;","elianto","#3366ff99","-1"," ","0","0","[1354.6000000014901]","1","1","","","4469","11","2","2","win","no-go","0"
"pit-trial","129","1017862","0.0-15.0","battery-v0.2","","""event"",""trial"",""time""
""fullscreenenter"",""1"",""2666""
","
","
","""event"",""trial"",""time""
""fullscreenenter"",""1"",""2666""
","
","","","594.7000000029802","","","23","4469","3045","&#9730;","elianto","#3366ff99"," "," ","1","+10","[1446.7000000029802]","1","1","","","4469","12","1","1","win","go","0"
"pit-trial","130","1021358","0.0-16.0","battery-v0.2","","""event"",""trial"",""time""
""fullscreenenter"",""1"",""2666""
","
","
","""event"",""trial"",""time""
""fullscreenenter"",""1"",""2666""
","
","","","635.5999999940395","","","23","4469","3045","&#9733;","elianto","#3366ff99","-1"," ","0","0","[1486.5999999940395]","1","1","","","4469","13","2","2","win","no-go","0"
"pit-trial","131","1026219","0.0-17.0","battery-v0.2","","""event"",""trial"",""time""
""fullscreenenter"",""1"",""2666""
","
","
","""event"",""trial"",""time""
""fullscreenenter"",""1"",""2666""
","
","","","-1","","","23","4469","3045","&#9728;","elianto","#f73b6a7A","-1","-1","1","0","[]","0","1","","","4469","14","0","4","lose","no-go","0"
"pit-trial","132","1029614","0.0-18.0","battery-v0.2","","""event"",""trial"",""time""
""fullscreenenter"",""1"",""2666""
","
","
","""event"",""trial"",""time""
""fullscreenenter"",""1"",""2666""
","
","","","534.3000000044703","","","23","4469","3045","&#9730;","elianto","#3366ff99"," "," ","1","+10","[1384.6000000014901]","1","1","","","4469","15","1","1","win","go","0"
"pit-trial","133","1032992","0.0-19.0","battery-v0.2","","""event"",""trial"",""time""
""fullscreenenter"",""1"",""2666""
","
","
","""event"",""trial"",""time""
""fullscreenenter"",""1"",""2666""
","
","","","518.9000000059605","","","23","4469","3045","&#9752;","elianto","#f73b6a7A"," "," ","1","0","[1369.9000000059605]","1","1","","","4469","16","3","3","lose","go","0"
"pit-trial","134","1037853","0.0-20.0","battery-v0.2","","""event"",""trial"",""time""
""fullscreenenter"",""1"",""2666""
","
","
","""event"",""trial"",""time""
""fullscreenenter"",""1"",""2666""
","
","","","-1","","","23","4469","3045","&#9728;","elianto","#f73b6a7A","-1","-1","1","0","[]","0","1","","","4469","17","0","4","lose","no-go","0"
"pit-trial","135","1041419","0.0-21.0","battery-v0.2","","""event"",""trial"",""time""
""fullscreenenter"",""1"",""2666""
","
","
","""event"",""trial"",""time""
""fullscreenenter"",""1"",""2666""
","
","","","709.5","","","23","4469","3045","&#9730;","elianto","#3366ff99"," "," ","1","+10","[1559.7999999970198]","1","1","","","4469","18","1","1","win","go","0"
"pit-trial","136","1044939","0.0-22.0","battery-v0.2","","""event"",""trial"",""time""
""fullscreenenter"",""1"",""2666""
","
","
","""event"",""trial"",""time""
""fullscreenenter"",""1"",""2666""
","
","","","659.1999999955297","","","23","4469","3045","&#9752;","elianto","#f73b6a7A"," "," ","1","0","[1510.5]","1","1","","","4469","19","3","3","lose","go","0"
"pit-trial","137","1048363","0.0-23.0","battery-v0.2","","""event"",""trial"",""time""
""fullscreenenter"",""1"",""2666""
","
","
","""event"",""trial"",""time""
""fullscreenenter"",""1"",""2666""
","
","","","564.1999999955297","","","23","4469","3045","&#9733;","elianto","#3366ff99","-1"," ","0","0","[1414.5999999940395]","1","1","","","4469","20","2","2","win","no-go","0"
"pit-instructions","138","1064970","0.0-24.0","battery-v0.2","","""event"",""trial"",""time""
""fullscreenenter"",""1"",""2666""
","
","
","""event"",""trial"",""time""
""fullscreenenter"",""1"",""2666""
","
","","[{""page_index"":0,""viewing_time"":7881.39999999851},{""page_index"":1,""viewing_time"":8719.30000000447}]","16601","","","","","","","","","","","","","","","","","","","","","","","",""
"pit-trial","139","1068442","0.0-25.0","battery-v0.2","","""event"",""trial"",""time""
""fullscreenenter"",""1"",""2666""
","
","
","""event"",""trial"",""time""
""fullscreenenter"",""1"",""2666""
","
","","","613.8000000044703","","","23","4469","3045","e","elianto","#f73b6a7A","-1"," ","0","-10","[1464.8999999985099]","1","2","","","4469","21","2","4","lose","no-go","0"
"pit-trial","140","1071911","0.0-26.0","battery-v0.2","","""event"",""trial"",""time""
""fullscreenenter"",""1"",""2666""
","
","
","""event"",""trial"",""time""
""fullscreenenter"",""1"",""2666""
","
","","","614.5","","","23","4469","3045","w","elianto","#f73b6a7A"," "," ","1","0","[1464.6000000014901]","1","2","","","4469","22","3","3","lose","go","0"
"pit-trial","141","1075439","0.0-27.0","battery-v0.2","","""event"",""trial"",""time""
""fullscreenenter"",""1"",""2666""
","
","
","""event"",""trial"",""time""
""fullscreenenter"",""1"",""2666""
","
","","","672.7999999970198","","","23","4469","3045","j","elianto","#f73b6a7A","-1"," ","0","0","[1523.7000000029802]","1","2","","","4469","23","0","4","lose","no-go","1"
"pit-trial","142","1078827","0.0-28.0","battery-v0.2","","""event"",""trial"",""time""
""fullscreenenter"",""1"",""2666""
","
","
","""event"",""trial"",""time""
""fullscreenenter"",""1"",""2666""
","
","","","530.2000000029802","","","23","4469","3045","d","elianto","#3366ff99"," "," ","1","+10","[1380.6000000014901]","1","2","","","4469","24","1","1","win","go","0"
"pit-trial","143","1083684","0.0-29.0","battery-v0.2","","""event"",""trial"",""time""
""fullscreenenter"",""1"",""2666""
","
","
","""event"",""trial"",""time""
""fullscreenenter"",""1"",""2666""
","
","","","-1","","","23","4469","3045","e","elianto","#f73b6a7A","-1","-1","1","0","[]","0","2","","","4469","25","2","4","lose","no-go","0"
"pit-trial","144","1088543","0.0-30.0","battery-v0.2","","""event"",""trial"",""time""
""fullscreenenter"",""1"",""2666""
","
","
","""event"",""trial"",""time""
""fullscreenenter"",""1"",""2666""
","
","","","-1","","","23","4469","3045","w","elianto","#f73b6a7A"," ","-1","0","-10","[]","0","2","","","4469","26","3","3","lose","go","0"
"pit-trial","145","1091916","0.0-31.0","battery-v0.2","","""event"",""trial"",""time""
""fullscreenenter"",""1"",""2666""
","
","
","""event"",""trial"",""time""
""fullscreenenter"",""1"",""2666""
","
","","","518.1000000014901","","","23","4469","3045","j","elianto","#f73b6a7A","-1"," ","0","-10","[1368.1999999955297]","1","2","","","4469","27","0","4","lose","no-go","0"
"pit-trial","146","1095413","0.0-32.0","battery-v0.2","","""event"",""trial"",""time""
""fullscreenenter"",""1"",""2666""
","
","
","""event"",""trial"",""time""
""fullscreenenter"",""1"",""2666""
","
","","","640.2000000029802","","","23","4469","3045","d","elianto","#3366ff99"," "," ","1","+10","[1492.3000000044703]","1","2","","","4469","28","1","1","win","go","0"
"pit-trial","147","1100275","0.0-33.0","battery-v0.2","","""event"",""trial"",""time""
""fullscreenenter"",""1"",""2666""
","
","
","""event"",""trial"",""time""
""fullscreenenter"",""1"",""2666""
","
","","","-1","","","23","4469","3045","e","elianto","#f73b6a7A","-1","-1","1","0","[]","0","2","","","4469","29","2","4","lose","no-go","0"
"pit-trial","148","1105138","0.0-34.0","battery-v0.2","","""event"",""trial"",""time""
""fullscreenenter"",""1"",""2666""
","
","
","""event"",""trial"",""time""
""fullscreenenter"",""1"",""2666""
","
","","","-1","","","23","4469","3045","w","elianto","#f73b6a7A"," ","-1","0","-10","[]","0","2","","","4469","30","3","3","lose","go","0"
"pit-trial","149","1109997","0.0-35.0","battery-v0.2","","""event"",""trial"",""time""
""fullscreenenter"",""1"",""2666""
","
","
","""event"",""trial"",""time""
""fullscreenenter"",""1"",""2666""
","
","","","-1","","","23","4469","3045","j","elianto","#f73b6a7A","-1","-1","1","0","[]","0","2","","","4469","31","0","4","lose","no-go","0"
"pit-trial","150","1113511","0.0-36.0","battery-v0.2","","""event"",""trial"",""time""
""fullscreenenter"",""1"",""2666""
","
","
","""event"",""trial"",""time""
""fullscreenenter"",""1"",""2666""
","
","","","654.2999999970198","","","23","4469","3045","d","elianto","#3366ff99"," "," ","1","+10","[1504.6000000014901]","1","2","","","4469","32","1","1","win","go","0"
"pit-trial","151","1117226","0.0-37.0","battery-v0.2","","""event"",""trial"",""time""
""fullscreenenter"",""1"",""2666""
","
","
","""event"",""trial"",""time""
""fullscreenenter"",""1"",""2666""
","
","","","854.5","","","23","4469","3045","d","elianto","#3366ff99"," "," ","1","+10","[1704.6999999955297]","1","2","","","4469","33","1","1","win","go","0"
"pit-trial","152","1122087","0.0-38.0","battery-v0.2","","""event"",""trial"",""time""
""fullscreenenter"",""1"",""2666""
","
","
","""event"",""trial"",""time""
""fullscreenenter"",""1"",""2666""
","
","","","-1","","","23","4469","3045","e","elianto","#f73b6a7A","-1","-1","1","-10","[]","0","2","","","4469","34","2","4","lose","no-go","1"
"pit-trial","153","1126946","0.0-39.0","battery-v0.2","","""event"",""trial"",""time""
""fullscreenenter"",""1"",""2666""
","
","
","""event"",""trial"",""time""
""fullscreenenter"",""1"",""2666""
","
","","","-1","","","23","4469","3045","w","elianto","#f73b6a7A"," ","-1","0","-10","[]","0","2","","","4469","35","3","3","lose","go","0"
"pit-trial","154","1131810","0.0-40.0","battery-v0.2","","""event"",""trial"",""time""
""fullscreenenter"",""1"",""2666""
","
","
","""event"",""trial"",""time""
""fullscreenenter"",""1"",""2666""
","
","","","-1","","","23","4469","3045","j","elianto","#f73b6a7A","-1","-1","1","0","[]","0","2","","","4469","36","0","4","lose","no-go","0"
"pit-trial","155","1136671","0.0-41.0","battery-v0.2","","""event"",""trial"",""time""
""fullscreenenter"",""1"",""2666""
","
","
","""event"",""trial"",""time""
""fullscreenenter"",""1"",""2666""
","
","","","-1","","","23","4469","3045","e","elianto","#f73b6a7A","-1","-1","1","0","[]","0","2","","","4469","37","2","4","lose","no-go","0"
"pit-trial","156","1141533","0.0-42.0","battery-v0.2","","""event"",""trial"",""time""
""fullscreenenter"",""1"",""2666""
","
","
","""event"",""trial"",""time""
""fullscreenenter"",""1"",""2666""
","
","","","-1","","","23","4469","3045","w","elianto","#f73b6a7A"," ","-1","0","-10","[]","0","2","","","4469","38","3","3","lose","go","0"
"pit-trial","157","1146394","0.0-43.0","battery-v0.2","","""event"",""trial"",""time""
""fullscreenenter"",""1"",""2666""
","
","
","""event"",""trial"",""time""
""fullscreenenter"",""1"",""2666""
","
","","","-1","","","23","4469","3045","j","elianto","#f73b6a7A","-1","-1","1","-10","[]","0","2","","","4469","39","0","4","lose","no-go","1"
"pit-trial","158","1150229","0.0-44.0","battery-v0.2","","""event"",""trial"",""time""
""fullscreenenter"",""1"",""2666""
","
","
","""event"",""trial"",""time""
""fullscreenenter"",""1"",""2666""
","
","","","974.0999999940395","","","23","4469","3045","d","elianto","#3366ff99"," "," ","1","+10","[1825.2999999970198]","1","2","","","4469","40","1","1","win","go","0"
"pit-trial","159","1154631","0.0-45.0","battery-v0.2","","""event"",""trial"",""time""
""fullscreenenter"",""1"",""2666""
","
","
","""event"",""trial"",""time""
""fullscreenenter"",""1"",""2666""
","
","","","1542.1000000014901","","","23","4469","3045","d","elianto","#3366ff99"," "," ","1","+10","[2392.8000000044703]","1","2","","","4469","41","1","1","win","go","0"
"pit-trial","160","1158258","0.0-46.0","battery-v0.2","","""event"",""trial"",""time""
""fullscreenenter"",""1"",""2666""
","
","
","""event"",""trial"",""time""
""fullscreenenter"",""1"",""2666""
","
","","","768.3000000044703","","","23","4469","3045","j","elianto","#f73b6a7A","-1"," ","0","-10","[1618.7000000029802]","1","2","","","4469","42","0","4","lose","no-go","0"
"pit-trial","161","1163119","0.0-47.0","battery-v0.2","","""event"",""trial"",""time""
""fullscreenenter"",""1"",""2666""
","
","
","""event"",""trial"",""time""
""fullscreenenter"",""1"",""2666""
","
","","","-1","","","23","4469","3045","e","elianto","#f73b6a7A","-1","-1","1","-10","[]","0","2","","","4469","43","2","4","lose","no-go","1"
"pit-trial","162","1167183","0.0-48.0","battery-v0.2","","""event"",""trial"",""time""
""fullscreenenter"",""1"",""2666""
","
","
","""event"",""trial"",""time""
""fullscreenenter"",""1"",""2666""
","
","","","1202.5","","","23","4469","3045","w","elianto","#f73b6a7A"," "," ","1","0","[2053.6999999955297]","1","2","","","4469","44","3","3","lose","go","0"
"pit-trial","163","1170580","0.0-49.0","battery-v0.2","","""event"",""trial"",""time""
""fullscreenenter"",""1"",""2666""
","
","
","""event"",""trial"",""time""
""fullscreenenter"",""1"",""2666""
","
","","","536.6000000014901","","","23","4469","3045","s","elianto","#3366ff99","-1"," ","0","0","[1388.5999999940395]","1","2","","","4469","45","4","2","win","no-go","0"
"pit-trial","164","1175442","0.0-50.0","battery-v0.2","","""event"",""trial"",""time""
""fullscreenenter"",""1"",""2666""
","
","
","""event"",""trial"",""time""
""fullscreenenter"",""1"",""2666""
","
","","","-1","","","23","4469","3045","e","elianto","#f73b6a7A","-1","-1","1","0","[]","0","2","","","4469","46","2","4","lose","no-go","0"
"pit-trial","165","1180303","0.0-51.0","battery-v0.2","","""event"",""trial"",""time""
""fullscreenenter"",""1"",""2666""
","
","
","""event"",""trial"",""time""
""fullscreenenter"",""1"",""2666""
","
","","","-1","","","23","4469","3045","w","elianto","#f73b6a7A"," ","-1","0","0","[]","0","2","","","4469","47","3","3","lose","go","1"
"pit-trial","166","1185164","0.0-52.0","battery-v0.2","","""event"",""trial"",""time""
""fullscreenenter"",""1"",""2666""
","
","
","""event"",""trial"",""time""
""fullscreenenter"",""1"",""2666""
","
","","","-1","","","23","4469","3045","j","elianto","#f73b6a7A","-1","-1","1","0","[]","0","2","","","4469","48","0","4","lose","no-go","0"
"pit-trial","167","1190026","0.0-53.0","battery-v0.2","","""event"",""trial"",""time""
""fullscreenenter"",""1"",""2666""
","
","
","""event"",""trial"",""time""
""fullscreenenter"",""1"",""2666""
","
","","","-1","","","23","4469","3045","w","elianto","#f73b6a7A"," ","-1","0","-10","[]","0","2","","","4469","49","3","3","lose","go","0"
"pit-trial","168","1193511","0.0-54.0","battery-v0.2","","""event"",""trial"",""time""
""fullscreenenter"",""1"",""2666""
","
","
","""event"",""trial"",""time""
""fullscreenenter"",""1"",""2666""
","
","","","624.5","","","23","4469","3045","s","elianto","#3366ff99","-1"," ","0","0","[1475.1000000014901]","1","2","","","4469","50","4","2","win","no-go","0"
"pit-trial","169","1198375","0.0-55.0","battery-v0.2","","""event"",""trial"",""time""
""fullscreenenter"",""1"",""2666""
","
","
","""event"",""trial"",""time""
""fullscreenenter"",""1"",""2666""
","
","","","-1","","","23","4469","3045","j","elianto","#f73b6a7A","-1","-1","1","0","[]","0","2","","","4469","51","0","4","lose","no-go","0"
"pit-trial","170","1201908","0.0-56.0","battery-v0.2","","""event"",""trial"",""time""
""fullscreenenter"",""1"",""2666""
","
","
","""event"",""trial"",""time""
""fullscreenenter"",""1"",""2666""
","
","","","672.3999999985099","","","23","4469","3045","d","elianto","#3366ff99"," "," ","1","+10","[1523.2000000029802]","1","2","","","4469","52","1","1","win","go","0"
"pit-trial","171","1205409","0.0-57.0","battery-v0.2","","""event"",""trial"",""time""
""fullscreenenter"",""1"",""2666""
","
","
","""event"",""trial"",""time""
""fullscreenenter"",""1"",""2666""
","
","","","640.7000000029802","","","23","4469","3045","d","elianto","#3366ff99"," "," ","1","0","[1491.2999999970198]","1","2","","","4469","53","1","1","win","go","1"
"pit-trial","172","1209305","0.0-58.0","battery-v0.2","","""event"",""trial"",""time""
""fullscreenenter"",""1"",""2666""
","
","
","""event"",""trial"",""time""
""fullscreenenter"",""1"",""2666""
","
","","","1037.1000000014901","","","23","4469","3045","s","elianto","#3366ff99","-1"," ","0","0","[1887.1999999955297]","1","2","","","4469","54","4","2","win","no-go","0"
"pit-trial","173","1214166","0.0-59.0","battery-v0.2","","""event"",""trial"",""time""
""fullscreenenter"",""1"",""2666""
","
","
","""event"",""trial"",""time""
""fullscreenenter"",""1"",""2666""
","
","","","-1","","","23","4469","3045","e","elianto","#f73b6a7A","-1","-1","1","0","[]","0","2","","","4469","55","2","4","lose","no-go","0"
"pit-trial","174","1219028","0.0-60.0","battery-v0.2","","""event"",""trial"",""time""
""fullscreenenter"",""1"",""2666""
","
","
","""event"",""trial"",""time""
""fullscreenenter"",""1"",""2666""
","
","","","-1","","","23","4469","3045","j","elianto","#f73b6a7A","-1","-1","1","0","[]","0","2","","","4469","56","0","4","lose","no-go","0"
"pit-trial","175","1222636","0.0-61.0","battery-v0.2","","""event"",""trial"",""time""
""fullscreenenter"",""1"",""2666""
","
","
","""event"",""trial"",""time""
""fullscreenenter"",""1"",""2666""
","
","","","746.7999999970198","","","23","4469","3045","d","elianto","#3366ff99"," "," ","1","+10","[1598.2999999970198]","1","2","","","4469","57","1","1","win","go","0"
"pit-trial","176","1227497","0.0-62.0","battery-v0.2","","""event"",""trial"",""time""
""fullscreenenter"",""1"",""2666""
","
","
","""event"",""trial"",""time""
""fullscreenenter"",""1"",""2666""
","
","","","-1","","","23","4469","3045","w","elianto","#f73b6a7A"," ","-1","0","0","[]","0","2","","","4469","58","3","3","lose","go","1"
"pit-trial","177","1231235","0.0-63.0","battery-v0.2","","""event"",""trial"",""time""
""fullscreenenter"",""1"",""2666""
","
","
","""event"",""trial"",""time""
""fullscreenenter"",""1"",""2666""
","
","","","877.2999999970198","","","23","4469","3045","j","elianto","#f73b6a7A","-1"," ","0","-10","[1729.2000000029802]","1","2","","","4469","59","0","4","lose","no-go","0"
"pit-trial","178","1234811","0.0-64.0","battery-v0.2","","""event"",""trial"",""time""
""fullscreenenter"",""1"",""2666""
","
","
","""event"",""trial"",""time""
""fullscreenenter"",""1"",""2666""
","
","","","714.8999999985099","","","23","4469","3045","s","elianto","#3366ff99","-1"," ","0","0","[1566.1999999955297]","1","2","","","4469","60","4","2","win","no-go","0"
"pit-trial","179","1238273","0.0-65.0","battery-v0.2","","""event"",""trial"",""time""
""fullscreenenter"",""1"",""2666""
","
","
","""event"",""trial"",""time""
""fullscreenenter"",""1"",""2666""
","
","","","598.5","","","23","4469","3045","d","elianto","#3366ff99"," "," ","1","0","[1448.7999999970198]","1","2","","","4469","61","1","1","win","go","1"
"pit-trial","180","1243134","0.0-66.0","battery-v0.2","","""event"",""trial"",""time""
""fullscreenenter"",""1"",""2666""
","
","
","""event"",""trial"",""time""
""fullscreenenter"",""1"",""2666""
","
","","","-1","","","23","4469","3045","w","elianto","#f73b6a7A"," ","-1","0","-10","[]","0","2","","","4469","62","3","3","lose","go","0"
"pit-trial","181","1246593","0.0-67.0","battery-v0.2","","""event"",""trial"",""time""
""fullscreenenter"",""1"",""2666""
","
","
","""event"",""trial"",""time""
""fullscreenenter"",""1"",""2666""
","
","","","599.2000000029802","","","23","4469","3045","s","elianto","#3366ff99","-1"," ","0","0","[1450.2000000029802]","1","2","","","4469","63","4","2","win","no-go","0"
"pit-trial","182","1250913","0.0-68.0","battery-v0.2","","""event"",""trial"",""time""
""fullscreenenter"",""1"",""2666""
","
","
","""event"",""trial"",""time""
""fullscreenenter"",""1"",""2666""
","
","","","1459.0999999940395","","","23","4469","3045","e","elianto","#f73b6a7A","-1"," ","0","-10","[2310]","1","2","","","4469","64","2","4","lose","no-go","0"
"pit-trial","183","1255774","0.0-69.0","battery-v0.2","","""event"",""trial"",""time""
""fullscreenenter"",""1"",""2666""
","
","
","""event"",""trial"",""time""
""fullscreenenter"",""1"",""2666""
","
","","","-1","","","23","4469","3045","w","elianto","#f73b6a7A"," ","-1","0","0","[]","0","2","","","4469","65","3","3","lose","go","1"
"pit-trial","184","1260635","0.0-70.0","battery-v0.2","","""event"",""trial"",""time""
""fullscreenenter"",""1"",""2666""
","
","
","""event"",""trial"",""time""
""fullscreenenter"",""1"",""2666""
","
","","","-1","","","23","4469","3045","e","elianto","#f73b6a7A","-1","-1","1","0","[]","0","2","","","4469","66","2","4","lose","no-go","0"
"pit-trial","185","1264041","0.0-71.0","battery-v0.2","","""event"",""trial"",""time""
""fullscreenenter"",""1"",""2666""
","
","
","""event"",""trial"",""time""
""fullscreenenter"",""1"",""2666""
","
","","","546.2999999970198","","","23","4469","3045","s","elianto","#3366ff99","-1"," ","0","0","[1397.2999999970198]","1","2","","","4469","67","4","2","win","no-go","0"
"pit-trial","186","1267673","0.0-72.0","battery-v0.2","","""event"",""trial"",""time""
""fullscreenenter"",""1"",""2666""
","
","
","""event"",""trial"",""time""
""fullscreenenter"",""1"",""2666""
","
","","","773.7000000029802","","","23","4469","3045","d","elianto","#3366ff99"," "," ","1","+10","[1624]","1","2","","","4469","68","1","1","win","go","0"
"pit-trial","187","1271550","0.0-73.0","battery-v0.2","","""event"",""trial"",""time""
""fullscreenenter"",""1"",""2666""
","
","
","""event"",""trial"",""time""
""fullscreenenter"",""1"",""2666""
","
","","","1016","","","23","4469","3045","p","elianto","#3366ff99"," "," ","1","+10","[1866.1000000014901]","1","2","","","4469","69","5","1","win","go","0"
"pit-trial","188","1276411","0.0-74.0","battery-v0.2","","""event"",""trial"",""time""
""fullscreenenter"",""1"",""2666""
","
","
","""event"",""trial"",""time""
""fullscreenenter"",""1"",""2666""
","
","","","-1","","","23","4469","3045","w","elianto","#f73b6a7A"," ","-1","0","-10","[]","0","2","","","4469","70","3","3","lose","go","0"
"pit-trial","189","1279819","0.0-75.0","battery-v0.2","","""event"",""trial"",""time""
""fullscreenenter"",""1"",""2666""
","
","
","""event"",""trial"",""time""
""fullscreenenter"",""1"",""2666""
","
","","","548","","","23","4469","3045","s","elianto","#3366ff99","-1"," ","0","0","[1398.8999999985099]","1","2","","","4469","71","4","2","win","no-go","0"
"pit-trial","190","1283499","0.0-76.0","battery-v0.2","","""event"",""trial"",""time""
""fullscreenenter"",""1"",""2666""
","
","
","""event"",""trial"",""time""
""fullscreenenter"",""1"",""2666""
","
","","","819.3999999985099","","","23","4469","3045","d","elianto","#3366ff99"," "," ","1","0","[1670.5]","1","2","","","4469","72","1","1","win","go","1"
"pit-trial","191","1287024","0.0-77.0","battery-v0.2","","""event"",""trial"",""time""
""fullscreenenter"",""1"",""2666""
","
","
","""event"",""trial"",""time""
""fullscreenenter"",""1"",""2666""
","
","","","664.3999999985099","","","23","4469","3045","w","elianto","#f73b6a7A"," "," ","1","0","[1515.1999999955297]","1","2","","","4469","73","3","3","lose","go","0"
"pit-trial","192","1290651","0.0-78.0","battery-v0.2","","""event"",""trial"",""time""
""fullscreenenter"",""1"",""2666""
","
","
","""event"",""trial"",""time""
""fullscreenenter"",""1"",""2666""
","
","","","766.6000000014901","","","23","4469","3045","s","elianto","#3366ff99","-1"," ","0","0","[1616.8000000044703]","1","2","","","4469","74","4","2","win","no-go","0"
"pit-trial","193","1294016","0.0-79.0","battery-v0.2","","""event"",""trial"",""time""
""fullscreenenter"",""1"",""2666""
","
","
","""event"",""trial"",""time""
""fullscreenenter"",""1"",""2666""
","
","","","505","","","23","4469","3045","d","elianto","#3366ff99"," "," ","1","+10","[1357.2000000029802]","1","2","","","4469","75","1","1","win","go","0"
"pit-trial","194","1297509","0.0-80.0","battery-v0.2","","""event"",""trial"",""time""
""fullscreenenter"",""1"",""2666""
","
","
","""event"",""trial"",""time""
""fullscreenenter"",""1"",""2666""
","
","","","633.3999999985099","","","23","4469","3045","p","elianto","#3366ff99"," "," ","1","+10","[1484.8000000044703]","1","2","","","4469","76","5","1","win","go","0"
"pit-trial","195","1300931","0.0-81.0","battery-v0.2","","""event"",""trial"",""time""
""fullscreenenter"",""1"",""2666""
","
","
","""event"",""trial"",""time""
""fullscreenenter"",""1"",""2666""
","
","","","567.3999999985099","","","23","4469","3045","s","elianto","#3366ff99","-1"," ","0","0","[1417.8000000044703]","1","2","","","4469","77","4","2","win","no-go","0"
"pit-trial","196","1304419","0.0-82.0","battery-v0.2","","""event"",""trial"",""time""
""fullscreenenter"",""1"",""2666""
","
","
","""event"",""trial"",""time""
""fullscreenenter"",""1"",""2666""
","
","","","628.2999999970198","","","23","4469","3045","p","elianto","#3366ff99"," "," ","1","+10","[1479.5]","1","2","","","4469","78","5","1","win","go","0"
"pit-trial","197","1309283","0.0-83.0","battery-v0.2","","""event"",""trial"",""time""
""fullscreenenter"",""1"",""2666""
","
","
","""event"",""trial"",""time""
""fullscreenenter"",""1"",""2666""
","
","","","-1","","","23","4469","3045","w","elianto","#f73b6a7A"," ","-1","0","-10","[]","0","2","","","4469","79","3","3","lose","go","0"
"pit-trial","198","1313309","0.0-84.0","battery-v0.2","","""event"",""trial"",""time""
""fullscreenenter"",""1"",""2666""
","
","
","""event"",""trial"",""time""
""fullscreenenter"",""1"",""2666""
","
","","","1167.1000000014901","","","23","4469","3045","g","elianto","#f73b6a7A","-1"," ","0","-10","[2018.2999999970198]","1","2","","","4469","80","6","4","lose","no-go","0"
"pit-trial","199","1317378","0.0-85.0","battery-v0.2","","""event"",""trial"",""time""
""fullscreenenter"",""1"",""2666""
","
","
","""event"",""trial"",""time""
""fullscreenenter"",""1"",""2666""
","
","","","1209.3000000044703","","","23","4469","3045","a","elianto","#f73b6a7A"," "," ","1","0","[2059.89999999851]","1","2","","","4469","81","7","3","lose","go","0"
"pit-trial","200","1320925","0.0-86.0","battery-v0.2","","""event"",""trial"",""time""
""fullscreenenter"",""1"",""2666""
","
","
","""event"",""trial"",""time""
""fullscreenenter"",""1"",""2666""
","
","","","683.1000000014901","","","23","4469","3045","s","elianto","#3366ff99","-1"," ","0","0","[1535.7999999970198]","1","2","","","4469","82","4","2","win","no-go","0"
"pit-trial","201","1324680","0.0-87.0","battery-v0.2","","""event"",""trial"",""time""
""fullscreenenter"",""1"",""2666""
","
","
","""event"",""trial"",""time""
""fullscreenenter"",""1"",""2666""
","
","","","892.2000000029802","","","23","4469","3045","p","elianto","#3366ff99"," "," ","1","+10","[1743.2000000029802]","1","2","","","4469","83","5","1","win","go","0"
"pit-trial","202","1329544","0.0-88.0","battery-v0.2","","""event"",""trial"",""time""
""fullscreenenter"",""1"",""2666""
","
","
","""event"",""trial"",""time""
""fullscreenenter"",""1"",""2666""
","
","","","-1","","","23","4469","3045","g","elianto","#f73b6a7A","-1","-1","1","0","[]","0","2","","","4469","84","6","4","lose","no-go","0"
"pit-trial","203","1332853","0.0-89.0","battery-v0.2","","""event"",""trial"",""time""
""fullscreenenter"",""1"",""2666""
","
","
","""event"",""trial"",""time""
""fullscreenenter"",""1"",""2666""
","
","","","448","","","23","4469","3045","a","elianto","#f73b6a7A"," "," ","1","0","[1299.2000000029802]","1","2","","","4469","85","7","3","lose","go","0"
"pit-trial","204","1336264","0.0-90.0","battery-v0.2","","""event"",""trial"",""time""
""fullscreenenter"",""1"",""2666""
","
","
","""event"",""trial"",""time""
""fullscreenenter"",""1"",""2666""
","
","","","549.1000000014901","","","23","4469","3045","p","elianto","#3366ff99"," "," ","1","+10","[1400.5]","1","2","","","4469","86","5","1","win","go","0"
"pit-trial","205","1339925","0.0-91.0","battery-v0.2","","""event"",""trial"",""time""
""fullscreenenter"",""1"",""2666""
","
","
","""event"",""trial"",""time""
""fullscreenenter"",""1"",""2666""
","
","","","802","","","23","4469","3045","g","elianto","#f73b6a7A","-1"," ","0","-10","[1653.2999999970198]","1","2","","","4469","87","6","4","lose","no-go","0"
"pit-trial","206","1343352","0.0-92.0","battery-v0.2","","""event"",""trial"",""time""
""fullscreenenter"",""1"",""2666""
","
","
","""event"",""trial"",""time""
""fullscreenenter"",""1"",""2666""
","
","","","567.6999999955297","","","23","4469","3045","s","elianto","#3366ff99","-1"," ","0","0","[1417.7999999970198]","1","2","","","4469","88","4","2","win","no-go","0"
"pit-trial","207","1346605","0.0-93.0","battery-v0.2","","""event"",""trial"",""time""
""fullscreenenter"",""1"",""2666""
","
","
","""event"",""trial"",""time""
""fullscreenenter"",""1"",""2666""
","
","","","392.70000000298023","","","23","4469","3045","a","elianto","#f73b6a7A"," "," ","1","0","[1243.7000000029802]","1","2","","","4469","89","7","3","lose","go","0"
"pit-trial","208","1349896","0.0-94.0","battery-v0.2","","""event"",""trial"",""time""
""fullscreenenter"",""1"",""2666""
","
","
","""event"",""trial"",""time""
""fullscreenenter"",""1"",""2666""
","
","","","429.8999999985099","","","23","4469","3045","g","elianto","#f73b6a7A","-1"," ","0","-10","[1280.3999999985099]","1","2","","","4469","90","6","4","lose","no-go","0"
"pit-trial","209","1353325","0.0-95.0","battery-v0.2","","""event"",""trial"",""time""
""fullscreenenter"",""1"",""2666""
","
","
","""event"",""trial"",""time""
""fullscreenenter"",""1"",""2666""
","
","","","566.6000000014901","","","23","4469","3045","p","elianto","#3366ff99"," "," ","1","+10","[1420.1999999955297]","1","2","","","4469","91","5","1","win","go","0"
"pit-trial","210","1356906","0.0-96.0","battery-v0.2","","""event"",""trial"",""time""
""fullscreenenter"",""1"",""2666""
","
","
","""event"",""trial"",""time""
""fullscreenenter"",""1"",""2666""
","
","","","720.2000000029802","","","23","4469","3045","s","elianto","#3366ff99","-1"," ","0","0","[1571.3999999985099]","1","2","","","4469","92","4","2","win","no-go","0"
"pit-trial","211","1360490","0.0-97.0","battery-v0.2","","""event"",""trial"",""time""
""fullscreenenter"",""1"",""2666""
","
","
","""event"",""trial"",""time""
""fullscreenenter"",""1"",""2666""
","
","","","722.4000000059605","","","23","4469","3045","l","elianto","#3366ff99","-1"," ","0","0","[1573.6000000014901]","1","2","","","4469","93","8","2","win","no-go","0"
"pit-trial","212","1363898","0.0-98.0","battery-v0.2","","""event"",""trial"",""time""
""fullscreenenter"",""1"",""2666""
","
","
","""event"",""trial"",""time""
""fullscreenenter"",""1"",""2666""
","
","","","546.2999999970198","","","23","4469","3045","p","elianto","#3366ff99"," "," ","1","+10","[1397.7999999970198]","1","2","","","4469","94","5","1","win","go","0"
"pit-trial","213","1368760","0.0-99.0","battery-v0.2","","""event"",""trial"",""time""
""fullscreenenter"",""1"",""2666""
","
","
","""event"",""trial"",""time""
""fullscreenenter"",""1"",""2666""
","
","","","-1","","","23","4469","3045","a","elianto","#f73b6a7A"," ","-1","0","-10","[]","0","2","","","4469","95","7","3","lose","go","0"
"pit-trial","214","1372415","0.0-100.0","battery-v0.2","","""event"",""trial"",""time""
""fullscreenenter"",""1"",""2666""
","
","
","""event"",""trial"",""time""
""fullscreenenter"",""1"",""2666""
","
","","","793.3999999985099","","","23","4469","3045","g","elianto","#f73b6a7A","-1"," ","0","-10","[1644.5]","1","2","","","4469","96","6","4","lose","no-go","0"
"pit-trial","215","1375858","0.0-101.0","battery-v0.2","","""event"",""trial"",""time""
""fullscreenenter"",""1"",""2666""
","
","
","""event"",""trial"",""time""
""fullscreenenter"",""1"",""2666""
","
","","","582.2999999970198","","","23","4469","3045","p","elianto","#3366ff99"," "," ","1","+10","[1434.0999999940395]","1","2","","","4469","97","5","1","win","go","0"
"pit-trial","216","1380103","0.0-102.0","battery-v0.2","","""event"",""trial"",""time""
""fullscreenenter"",""1"",""2666""
","
","
","""event"",""trial"",""time""
""fullscreenenter"",""1"",""2666""
","
","","","1385.3999999985099","","","23","4469","3045","g","elianto","#f73b6a7A","-1"," ","0","-10","[2237]","1","2","","","4469","98","6","4","lose","no-go","0"
"pit-trial","217","1383596","0.0-103.0","battery-v0.2","","""event"",""trial"",""time""
""fullscreenenter"",""1"",""2666""
","
","
","""event"",""trial"",""time""
""fullscreenenter"",""1"",""2666""
","
","","","634.1000000014901","","","23","4469","3045","l","elianto","#3366ff99","-1"," ","0","+10","[1485.7000000029802]","1","2","","","4469","99","8","2","win","no-go","1"
"pit-trial","218","1388457","0.0-104.0","battery-v0.2","","""event"",""trial"",""time""
""fullscreenenter"",""1"",""2666""
","
","
","""event"",""trial"",""time""
""fullscreenenter"",""1"",""2666""
","
","","","-1","","","23","4469","3045","a","elianto","#f73b6a7A"," ","-1","0","-10","[]","0","2","","","4469","100","7","3","lose","go","0"
"pit-trial","219","1391937","0.0-105.0","battery-v0.2","","""event"",""trial"",""time""
""fullscreenenter"",""1"",""2666""
","
","
","""event"",""trial"",""time""
""fullscreenenter"",""1"",""2666""
","
","","","620.7999999970198","","","23","4469","3045","p","elianto","#3366ff99"," "," ","1","+10","[1471.1999999955297]","1","2","","","4469","101","5","1","win","go","0"
"pit-trial","220","1395529","0.0-106.0","battery-v0.2","","""event"",""trial"",""time""
""fullscreenenter"",""1"",""2666""
","
","
","""event"",""trial"",""time""
""fullscreenenter"",""1"",""2666""
","
","","","733.2000000029802","","","23","4469","3045","l","elianto","#3366ff99","-1"," ","0","+10","[1583.3999999985099]","1","2","","","4469","102","8","2","win","no-go","1"
"pit-trial","221","1400388","0.0-107.0","battery-v0.2","","""event"",""trial"",""time""
""fullscreenenter"",""1"",""2666""
","
","
","""event"",""trial"",""time""
""fullscreenenter"",""1"",""2666""
","
","","","-1","","","23","4469","3045","g","elianto","#f73b6a7A","-1","-1","1","0","[]","0","2","","","4469","103","6","4","lose","no-go","0"
"pit-trial","222","1404078","0.0-108.0","battery-v0.2","","""event"",""trial"",""time""
""fullscreenenter"",""1"",""2666""
","
","
","""event"",""trial"",""time""
""fullscreenenter"",""1"",""2666""
","
","","","830.8999999985099","","","23","4469","3045","u","elianto","#3366ff99","-1"," ","0","+10","[1682.2000000029802]","1","2","","","4469","104","9","2","win","no-go","1"
"pit-trial","223","1407654","0.0-109.0","battery-v0.2","","""event"",""trial"",""time""
""fullscreenenter"",""1"",""2666""
","
","
","""event"",""trial"",""time""
""fullscreenenter"",""1"",""2666""
","
","","","716.2000000029802","","","23","4469","3045","p","elianto","#3366ff99"," "," ","1","0","[1566.3000000044703]","1","2","","","4469","105","5","1","win","go","1"
"pit-trial","224","1412516","0.0-110.0","battery-v0.2","","""event"",""trial"",""time""
""fullscreenenter"",""1"",""2666""
","
","
","""event"",""trial"",""time""
""fullscreenenter"",""1"",""2666""
","
","","","-1","","","23","4469","3045","g","elianto","#f73b6a7A","-1","-1","1","0","[]","0","2","","","4469","106","6","4","lose","no-go","0"
"pit-trial","225","1416009","0.0-111.0","battery-v0.2","","""event"",""trial"",""time""
""fullscreenenter"",""1"",""2666""
","
","
","""event"",""trial"",""time""
""fullscreenenter"",""1"",""2666""
","
","","","634.1000000014901","","","23","4469","3045","u","elianto","#3366ff99","-1"," ","0","0","[1485.2000000029802]","1","2","","","4469","107","9","2","win","no-go","0"
"pit-trial","226","1419473","0.0-112.0","battery-v0.2","","""event"",""trial"",""time""
""fullscreenenter"",""1"",""2666""
","
","
","""event"",""trial"",""time""
""fullscreenenter"",""1"",""2666""
","
","","","603.2999999970198","","","23","4469","3045","l","elianto","#3366ff99","-1"," ","0","0","[1454.3000000044703]","1","2","","","4469","108","8","2","win","no-go","0"
"pit-trial","227","1422913","0.0-113.0","battery-v0.2","","""event"",""trial"",""time""
""fullscreenenter"",""1"",""2666""
","
","
","""event"",""trial"",""time""
""fullscreenenter"",""1"",""2666""
","
","","","583.8000000044703","","","23","4469","3045","l","elianto","#3366ff99","-1"," ","0","0","[1433.8999999985099]","1","2","","","4469","109","8","2","win","no-go","0"
"pit-trial","228","1427774","0.0-114.0","battery-v0.2","","""event"",""trial"",""time""
""fullscreenenter"",""1"",""2666""
","
","
","""event"",""trial"",""time""
""fullscreenenter"",""1"",""2666""
","
","","","-1","","","23","4469","3045","g","elianto","#f73b6a7A","-1","-1","1","0","[]","0","2","","","4469","110","6","4","lose","no-go","0"
"pit-trial","229","1431353","0.0-115.0","battery-v0.2","","""event"",""trial"",""time""
""fullscreenenter"",""1"",""2666""
","
","
","""event"",""trial"",""time""
""fullscreenenter"",""1"",""2666""
","
","","","719.2999999970198","","","23","4469","3045","u","elianto","#3366ff99","-1"," ","0","0","[1570.6000000014901]","1","2","","","4469","111","9","2","win","no-go","0"
"pit-trial","230","1434841","0.0-116.0","battery-v0.2","","""event"",""trial"",""time""
""fullscreenenter"",""1"",""2666""
","
","
","""event"",""trial"",""time""
""fullscreenenter"",""1"",""2666""
","
","","","627","","","23","4469","3045","p","elianto","#3366ff99"," "," ","1","+10","[1477.8999999985099]","1","2","","","4469","112","5","1","win","go","0"
"pit-trial","231","1439702","0.0-117.0","battery-v0.2","","""event"",""trial"",""time""
""fullscreenenter"",""1"",""2666""
","
","
","""event"",""trial"",""time""
""fullscreenenter"",""1"",""2666""
","
","","","-1","","","23","4469","3045","l","elianto","#3366ff99","-1","-1","1","0","[]","0","2","","","4469","113","8","2","win","no-go","1"
"pit-trial","232","1444564","0.0-118.0","battery-v0.2","","""event"",""trial"",""time""
""fullscreenenter"",""1"",""2666""
","
","
","""event"",""trial"",""time""
""fullscreenenter"",""1"",""2666""
","
","","","-1","","","23","4469","3045","u","elianto","#3366ff99","-1","-1","1","+10","[]","0","2","","","4469","114","9","2","win","no-go","0"
"pit-trial","233","1449424","0.0-119.0","battery-v0.2","","""event"",""trial"",""time""
""fullscreenenter"",""1"",""2666""
","
","
","""event"",""trial"",""time""
""fullscreenenter"",""1"",""2666""
","
","","","-1","","","23","4469","3045","a","elianto","#f73b6a7A"," ","-1","0","-10","[]","0","2","","","4469","115","7","3","lose","go","0"
"pit-trial","234","1453014","0.0-120.0","battery-v0.2","","""event"",""trial"",""time""
""fullscreenenter"",""1"",""2666""
","
","
","""event"",""trial"",""time""
""fullscreenenter"",""1"",""2666""
","
","","","730.8999999985099","","","23","4469","3045","p","elianto","#3366ff99"," "," ","1","+10","[1582.7000000029802]","1","2","","","4469","116","5","1","win","go","0"
"pit-trial","235","1457875","0.0-121.0","battery-v0.2","","""event"",""trial"",""time""
""fullscreenenter"",""1"",""2666""
","
","
","""event"",""trial"",""time""
""fullscreenenter"",""1"",""2666""
","
","","","-1","","","23","4469","3045","g","elianto","#f73b6a7A","-1","-1","1","0","[]","0","2","","","4469","117","6","4","lose","no-go","0"
"pit-trial","236","1461755","0.0-122.0","battery-v0.2","","""event"",""trial"",""time""
""fullscreenenter"",""1"",""2666""
","
","
","""event"",""trial"",""time""
""fullscreenenter"",""1"",""2666""
","
","","","1020.7999999970198","","","23","4469","3045","l","elianto","#3366ff99","-1"," ","0","+10","[1871.1000000014901]","1","2","","","4469","118","8","2","win","no-go","1"
"pit-trial","237","1465350","0.0-123.0","battery-v0.2","","""event"",""trial"",""time""
""fullscreenenter"",""1"",""2666""
","
","
","""event"",""trial"",""time""
""fullscreenenter"",""1"",""2666""
","
","","","735.3000000044703","","","23","4469","3045","p","elianto","#3366ff99"," "," ","1","+10","[1586.8000000044703]","1","2","","","4469","119","5","1","win","go","0"
"pit-trial","238","1468960","0.0-124.0","battery-v0.2","","""event"",""trial"",""time""
""fullscreenenter"",""1"",""2666""
","
","
","""event"",""trial"",""time""
""fullscreenenter"",""1"",""2666""
","
","","","747.6000000014901","","","23","4469","3045","u","elianto","#3366ff99","-1"," ","0","0","[1601.8000000044703]","1","2","","","4469","120","9","2","win","no-go","0"
"pit-trial","239","1473822","0.0-125.0","battery-v0.2","","""event"",""trial"",""time""
""fullscreenenter"",""1"",""2666""
","
","
","""event"",""trial"",""time""
""fullscreenenter"",""1"",""2666""
","
","","","-1","","","23","4469","3045","u","elianto","#3366ff99","-1","-1","1","+10","[]","0","2","","","4469","121","9","2","win","no-go","0"
"pit-trial","240","1478208","0.0-126.0","battery-v0.2","","""event"",""trial"",""time""
""fullscreenenter"",""1"",""2666""
","
","
","""event"",""trial"",""time""
""fullscreenenter"",""1"",""2666""
","
","","","1526.8999999985099","","","23","4469","3045","a","elianto","#f73b6a7A"," "," ","1","0","[2378.2000000029802]","1","2","","","4469","122","7","3","lose","go","0"
"pit-trial","241","1482014","0.0-127.0","battery-v0.2","","""event"",""trial"",""time""
""fullscreenenter"",""1"",""2666""
","
","
","""event"",""trial"",""time""
""fullscreenenter"",""1"",""2666""
","
","","","945.8999999985099","","","23","4469","3045","p","elianto","#3366ff99"," "," ","1","+10","[1797.1000000014901]","1","2","","","4469","123","5","1","win","go","0"
"pit-trial","242","1486875","0.0-128.0","battery-v0.2","","""event"",""trial"",""time""
""fullscreenenter"",""1"",""2666""
","
","
","""event"",""trial"",""time""
""fullscreenenter"",""1"",""2666""
","
","","","-1","","","23","4469","3045","l","elianto","#3366ff99","-1","-1","1","0","[]","0","2","","","4469","124","8","2","win","no-go","1"
"pit-trial","243","1491381","0.0-129.0","battery-v0.2","","""event"",""trial"",""time""
""fullscreenenter"",""1"",""2666""
","
","
","""event"",""trial"",""time""
""fullscreenenter"",""1"",""2666""
","
","","","1646.2000000029802","","","23","4469","3045","a","elianto","#f73b6a7A"," "," ","1","0","[2496.5]","1","2","","","4469","125","7","3","lose","go","0"
"pit-trial","244","1496008","0.0-130.0","battery-v0.2","","""event"",""trial"",""time""
""fullscreenenter"",""1"",""2666""
","
","
","""event"",""trial"",""time""
""fullscreenenter"",""1"",""2666""
","
","","","1766.3000000044703","","","23","4469","3045","u","elianto","#3366ff99","-1"," ","0","+10","[2619.10000000149]","1","2","","","4469","126","9","2","win","no-go","1"
"pit-trial","245","1499704","0.0-131.0","battery-v0.2","","""event"",""trial"",""time""
""fullscreenenter"",""1"",""2666""
","
","
","""event"",""trial"",""time""
""fullscreenenter"",""1"",""2666""
","
","","","834.8999999985099","","","23","4469","3045","l","elianto","#3366ff99","-1"," ","0","0","[1686.7000000029802]","1","2","","","4469","127","8","2","win","no-go","0"
"pit-trial","246","1504566","0.0-132.0","battery-v0.2","","""event"",""trial"",""time""
""fullscreenenter"",""1"",""2666""
","
","
","""event"",""trial"",""time""
""fullscreenenter"",""1"",""2666""
","
","","","-1","","","23","4469","3045","g","elianto","#f73b6a7A","-1","-1","1","0","[]","0","2","","","4469","128","6","4","lose","no-go","0"
"pit-trial","247","1508061","0.0-133.0","battery-v0.2","","""event"",""trial"",""time""
""fullscreenenter"",""1"",""2666""
","
","
","""event"",""trial"",""time""
""fullscreenenter"",""1"",""2666""
","
","","","636.9000000059605","","","23","4469","3045","u","elianto","#3366ff99","-1"," ","0","0","[1487.8999999985099]","1","2","","","4469","129","9","2","win","no-go","0"
"pit-trial","248","1512923","0.0-134.0","battery-v0.2","","""event"",""trial"",""time""
""fullscreenenter"",""1"",""2666""
","
","
","""event"",""trial"",""time""
""fullscreenenter"",""1"",""2666""
","
","","","-1","","","23","4469","3045","g","elianto","#f73b6a7A","-1","-1","1","-10","[]","0","2","","","4469","130","6","4","lose","no-go","1"
"pit-trial","249","1517784","0.0-135.0","battery-v0.2","","""event"",""trial"",""time""
""fullscreenenter"",""1"",""2666""
","
","
","""event"",""trial"",""time""
""fullscreenenter"",""1"",""2666""
","
","","","-1","","","23","4469","3045","a","elianto","#f73b6a7A"," ","-1","0","-10","[]","0","2","","","4469","131","7","3","lose","go","0"
"pit-trial","250","1521443","0.0-136.0","battery-v0.2","","""event"",""trial"",""time""
""fullscreenenter"",""1"",""2666""
","
","
","""event"",""trial"",""time""
""fullscreenenter"",""1"",""2666""
","
","","","798.1999999955297","","","23","4469","3045","l","elianto","#3366ff99","-1"," ","0","0","[1649.5]","1","2","","","4469","132","8","2","win","no-go","0"
"pit-trial","251","1525360","0.0-137.0","battery-v0.2","","""event"",""trial"",""time""
""fullscreenenter"",""1"",""2666""
","
","
","""event"",""trial"",""time""
""fullscreenenter"",""1"",""2666""
","
","","","1057.3999999985099","","","23","4469","3045","a","elianto","#f73b6a7A"," "," ","1","0","[1908.5999999940395]","1","2","","","4469","133","7","3","lose","go","0"
"pit-trial","252","1529552","0.0-138.0","battery-v0.2","","""event"",""trial"",""time""
""fullscreenenter"",""1"",""2666""
","
","
","""event"",""trial"",""time""
""fullscreenenter"",""1"",""2666""
","
","","","1333.1999999955297","","","23","4469","3045","g","elianto","#f73b6a7A","-1"," ","0","-10","[2183.89999999851]","1","2","","","4469","134","6","4","lose","no-go","0"
"pit-trial","253","1533109","0.0-139.0","battery-v0.2","","""event"",""trial"",""time""
""fullscreenenter"",""1"",""2666""
","
","
","""event"",""trial"",""time""
""fullscreenenter"",""1"",""2666""
","
","","","694.2999999970198","","","23","4469","3045","l","elianto","#3366ff99","-1"," ","0","0","[1545.2000000029802]","1","2","","","4469","135","8","2","win","no-go","0"
"pit-trial","254","1536560","0.0-140.0","battery-v0.2","","""event"",""trial"",""time""
""fullscreenenter"",""1"",""2666""
","
","
","""event"",""trial"",""time""
""fullscreenenter"",""1"",""2666""
","
","","","590.8999999985099","","","23","4469","3045","u","elianto","#3366ff99","-1"," ","0","0","[1441.7999999970198]","1","2","","","4469","136","9","2","win","no-go","0"
"pit-trial","255","1541421","0.0-141.0","battery-v0.2","","""event"",""trial"",""time""
""fullscreenenter"",""1"",""2666""
","
","
","""event"",""trial"",""time""
""fullscreenenter"",""1"",""2666""
","
","","","-1","","","23","4469","3045","g","elianto","#f73b6a7A","-1","-1","1","0","[]","0","2","","","4469","137","6","4","lose","no-go","0"
"pit-trial","256","1544906","0.0-142.0","battery-v0.2","","""event"",""trial"",""time""
""fullscreenenter"",""1"",""2666""
","
","
","""event"",""trial"",""time""
""fullscreenenter"",""1"",""2666""
","
","","","623.6000000014901","","","23","4469","3045","l","elianto","#3366ff99","-1"," ","0","0","[1473.7999999970198]","1","2","","","4469","138","8","2","win","no-go","0"
"pit-trial","257","1549506","0.0-143.0","battery-v0.2","","""event"",""trial"",""time""
""fullscreenenter"",""1"",""2666""
","
","
","""event"",""trial"",""time""
""fullscreenenter"",""1"",""2666""
","
","","","1738.3999999985099","","","23","4469","3045","a","elianto","#f73b6a7A"," "," ","1","0","[2589.60000000149]","1","2","","","4469","139","7","3","lose","go","0"
"pit-trial","258","1553773","0.0-144.0","battery-v0.2","","""event"",""trial"",""time""
""fullscreenenter"",""1"",""2666""
","
","
","""event"",""trial"",""time""
""fullscreenenter"",""1"",""2666""
","
","","","1406.8999999985099","","","23","4469","3045","u","elianto","#3366ff99","-1"," ","0","0","[2258.6999999955297]","1","2","","","4469","140","9","2","win","no-go","0"
"pit-instructions","259","1716435","0.0-145.0","battery-v0.2","","""event"",""trial"",""time""
""fullscreenenter"",""1"",""2666""
","
","
","""event"",""trial"",""time""
""fullscreenenter"",""1"",""2666""
","
","","[{""page_index"":0,""viewing_time"":154167.40000000596},{""page_index"":1,""viewing_time"":8490.19999999553}]","162657.80000000447","","","","","","","","","","","","","","","","","","","","","","","",""
"pit-trial","260","1720385","0.0-146.0","battery-v0.2","","""event"",""trial"",""time""
""fullscreenenter"",""1"",""2666""
","
","
","""event"",""trial"",""time""
""fullscreenenter"",""1"",""2666""
","
","","","1093.1999999955297","","","23","4469","3045","h","elianto","#f73b6a7A","-1"," ","0","0","[1943.3999999985099]","1","3","","","4469","141","3","4","lose","no-go","1"
"pit-trial","261","1723852","0.0-147.0","battery-v0.2","","""event"",""trial"",""time""
""fullscreenenter"",""1"",""2666""
","
","
","""event"",""trial"",""time""
""fullscreenenter"",""1"",""2666""
","
","","","611.7999999970198","","","23","4469","3045","m","elianto","#f73b6a7A"," "," ","1","-10","[1461.8000000044703]","1","3","","","4469","142","0","3","lose","go","1"
"pit-trial","262","1727345","0.0-148.0","battery-v0.2","","""event"",""trial"",""time""
""fullscreenenter"",""1"",""2666""
","
","
","""event"",""trial"",""time""
""fullscreenenter"",""1"",""2666""
","
","","","639.1999999955297","","","23","4469","3045","r","elianto","#3366ff99","-1"," ","0","+10","[1489.8999999985099]","1","3","","","4469","143","1","2","win","no-go","1"
"pit-trial","263","1732201","0.0-149.0","battery-v0.2","","""event"",""trial"",""time""
""fullscreenenter"",""1"",""2666""
","
","
","""event"",""trial"",""time""
""fullscreenenter"",""1"",""2666""
","
","","","-1","","","23","4469","3045","y","elianto","#f73b6a7A"," ","-1","0","-10","[]","0","3","","","4469","144","2","3","lose","go","0"
"pit-trial","264","1735796","0.0-150.0","battery-v0.2","","""event"",""trial"",""time""
""fullscreenenter"",""1"",""2666""
","
","
","""event"",""trial"",""time""
""fullscreenenter"",""1"",""2666""
","
","","","739.1000000014901","","","23","4469","3045","y","elianto","#f73b6a7A"," "," ","1","0","[1590.6000000014901]","1","3","","","4469","145","2","3","lose","go","0"
"pit-trial","265","1740652","0.0-151.0","battery-v0.2","","""event"",""trial"",""time""
""fullscreenenter"",""1"",""2666""
","
","
","""event"",""trial"",""time""
""fullscreenenter"",""1"",""2666""
","
","","","-1","","","23","4469","3045","h","elianto","#f73b6a7A","-1","-1","1","0","[]","0","3","","","4469","146","3","4","lose","no-go","0"
"pit-trial","266","1744361","0.0-152.0","battery-v0.2","","""event"",""trial"",""time""
""fullscreenenter"",""1"",""2666""
","
","
