"trial_type","trial_index","time_elapsed","internal_node_id","task_version","subject_id","interactions","blur_events","focus_events","fullscreenenter_events","fullscreenexit_events","success","view_history","rt","responses","num_errors","age","subject","participantId","rune","rune_set","hex","correct","choice","accuracy","outcome","keys","total_keys","block","practice","value","sub","trial","stimulus","robot","valence","action","sham"
"pavlovia","0","16","0.0-0.0","battery-v0.2","","""event"",""trial"",""time""
""fullscreenenter"",""1"",""2227""
","
","
","""event"",""trial"",""time""
""fullscreenenter"",""1"",""2227""
","
","","","","","","","","","","","","","","","","","","","","","","","","","","",""
"fullscreen","1","3203","0.0-1.0","battery-v0.2","","""event"",""trial"",""time""
""fullscreenenter"",""1"",""2227""
""fullscreenexit"",""2"",""10733""
","
","
","""event"",""trial"",""time""
""fullscreenenter"",""1"",""2227""
","""event"",""trial"",""time""
""fullscreenexit"",""2"",""10733""
","true","","","","","","","","","","","","","","","","","","","","","","","","","",""
"pit-instructions","2","17056","0.0-2.0-0.0","battery-v0.2","","""event"",""trial"",""time""
""fullscreenenter"",""1"",""2227""
""fullscreenexit"",""2"",""10733""
","
","
","""event"",""trial"",""time""
""fullscreenenter"",""1"",""2227""
","""event"",""trial"",""time""
""fullscreenexit"",""2"",""10733""
","","[{""page_index"":0,""viewing_time"":13845.800000071526}]","13846.400000095367","","","","","","","","","","","","","","","","","","","","","","","",""
"pit-comprehension","3","20820","0.0-2.0-1.0-0.0","battery-v0.2","","""event"",""trial"",""time""
""fullscreenenter"",""1"",""2227""
""fullscreenexit"",""2"",""10733""
","
","
","""event"",""trial"",""time""
""fullscreenenter"",""1"",""2227""
","""event"",""trial"",""time""
""fullscreenexit"",""2"",""10733""
","","","3757.899999976158","[""shark""]","0","12","13285","5722","","","","","","","","","","","","","","","","","","",""
"pit-instructions","4","21998","0.0-2.0-1.0-1.0","battery-v0.2","","""event"",""trial"",""time""
""fullscreenenter"",""1"",""2227""
""fullscreenexit"",""2"",""10733""
","
","
","""event"",""trial"",""time""
""fullscreenenter"",""1"",""2227""
","""event"",""trial"",""time""
""fullscreenexit"",""2"",""10733""
","","[{""page_index"":0,""viewing_time"":1155.6999999284744}]","1156.1999999284744","","","","","","","","","","","","","","","","","","","","","","","",""
"pit-comprehension","5","24117","0.0-2.0-2.0-0.0","battery-v0.2","","""event"",""trial"",""time""
""fullscreenenter"",""1"",""2227""
""fullscreenexit"",""2"",""10733""
","
","
","""event"",""trial"",""time""
""fullscreenenter"",""1"",""2227""
","""event"",""trial"",""time""
""fullscreenexit"",""2"",""10733""
","","","2110.2999999523163","[""tiger""]","0","12","13285","5722","","","","","","","","","","","","","","","","","","",""
"pit-instructions","6","24938","0.0-2.0-2.0-1.0","battery-v0.2","","""event"",""trial"",""time""
""fullscreenenter"",""1"",""2227""
""fullscreenexit"",""2"",""10733""
","
","
","""event"",""trial"",""time""
""fullscreenenter"",""1"",""2227""
","""event"",""trial"",""time""
""fullscreenexit"",""2"",""10733""
","","[{""page_index"":0,""viewing_time"":815}]","815.2999999523163","","","","","","","","","","","","","","","","","","","","","","","",""
"pit-instructions","7","157067","0.0-2.0-3.0","battery-v0.2","","""event"",""trial"",""time""
""fullscreenenter"",""1"",""2227""
""fullscreenexit"",""2"",""10733""
","
","
","""event"",""trial"",""time""
""fullscreenenter"",""1"",""2227""
","""event"",""trial"",""time""
""fullscreenexit"",""2"",""10733""
","","[{""page_index"":0,""viewing_time"":12976.899999976158},{""page_index"":1,""viewing_time"":32677.700000047684},{""page_index"":2,""viewing_time"":7231.399999976158},{""page_index"":3,""viewing_time"":5014.399999976158},{""page_index"":4,""viewing_time"":5707.399999976158},{""page_index"":5,""viewing_time"":5078.899999976158},{""page_index"":6,""viewing_time"":5170.600000023842},{""page_index"":7,""viewing_time"":16288.100000023842},{""page_index"":8,""viewing_time"":6773},{""page_index"":9,""viewing_time"":5179.200000047684},{""page_index"":10,""viewing_time"":10678.799999952316},{""page_index"":11,""viewing_time"":4579.299999952316},{""page_index"":12,""viewing_time"":6028.700000047684},{""page_index"":13,""viewing_time"":8740.299999952316}]","132125.10000002384","","","","","","","","","","","","","","","","","","","","","","","",""
"pit-trial","8","160650","0.0-2.0-4.0-0.0","battery-v0.2","","""event"",""trial"",""time""
""fullscreenenter"",""1"",""2227""
""fullscreenexit"",""2"",""10733""
","
","
","""event"",""trial"",""time""
""fullscreenenter"",""1"",""2227""
","""event"",""trial"",""time""
""fullscreenexit"",""2"",""10733""
","","","721.1000000238419","","","12","13285","5722","&#9784;","elianto","#FFFFF080"," "," ","1","&#10004","[1572.7999999523163]","1","0","0","","","","","","","",""
"pit-trial","9","163826","0.0-2.0-4.1-0.1","battery-v0.2","","""event"",""trial"",""time""
""fullscreenenter"",""1"",""2227""
""fullscreenexit"",""2"",""10733""
","
","
","""event"",""trial"",""time""
""fullscreenenter"",""1"",""2227""
","""event"",""trial"",""time""
""fullscreenexit"",""2"",""10733""
","","","313.5","","","12","13285","5722","&#9784;","elianto","#FFFFF080"," "," ","1","&#10004","[1168.5]","1","0","0","","","","","","","",""
"pit-trial","10","166912","0.0-2.0-4.2-0.2","battery-v0.2","","""event"",""trial"",""time""
""fullscreenenter"",""1"",""2227""
""fullscreenexit"",""2"",""10733""
""blur"",""11"",""168454""
","""event"",""trial"",""time""
""blur"",""11"",""168454""
","
","""event"",""trial"",""time""
""fullscreenenter"",""1"",""2227""
","""event"",""trial"",""time""
""fullscreenexit"",""2"",""10733""
","","","222.39999997615814","","","12","13285","5722","&#9784;","elianto","#FFFFF080"," "," ","1","&#10004","[458.39999997615814,1074.7000000476837]","2","0","0","","","","","","","",""
"pit-trial","11","171788","0.0-2.0-4.3-0.3","battery-v0.2","","""event"",""trial"",""time""
""fullscreenenter"",""1"",""2227""
""fullscreenexit"",""2"",""10733""
""blur"",""11"",""168454""
","""event"",""trial"",""time""
""blur"",""11"",""168454""
","
","""event"",""trial"",""time""
""fullscreenenter"",""1"",""2227""
","""event"",""trial"",""time""
""fullscreenexit"",""2"",""10733""
","","","-1","","","12","13285","5722","&#9784;","elianto","#FFFFF080"," ","-1","0","&#10060","[]","0","0","0","","","","","","","",""
"pit-trial","12","176653","0.0-2.0-4.4-0.4","battery-v0.2","","""event"",""trial"",""time""
""fullscreenenter"",""1"",""2227""
""fullscreenexit"",""2"",""10733""
""blur"",""11"",""168454""
""focus"",""13"",""180382""
","""event"",""trial"",""time""
""blur"",""11"",""168454""
","""event"",""trial"",""time""
""focus"",""13"",""180382""
","""event"",""trial"",""time""
""fullscreenenter"",""1"",""2227""
","""event"",""trial"",""time""
""fullscreenexit"",""2"",""10733""
","","","-1","","","12","13285","5722","&#9784;","elianto","#FFFFF080"," ","-1","0","&#10060","[]","0","0","0","","","","","","","",""
"pit-trial","13","181514","0.0-2.0-4.5-0.5","battery-v0.2","","""event"",""trial"",""time""
""fullscreenenter"",""1"",""2227""
""fullscreenexit"",""2"",""10733""
""blur"",""11"",""168454""
""focus"",""13"",""180382""
","""event"",""trial"",""time""
""blur"",""11"",""168454""
","""event"",""trial"",""time""
""focus"",""13"",""180382""
","""event"",""trial"",""time""
""fullscreenenter"",""1"",""2227""
","""event"",""trial"",""time""
""fullscreenexit"",""2"",""10733""
","","","-1","","","12","13285","5722","&#9784;","elianto","#FFFFF080"," ","-1","0","&#10060","[]","0","0","0","","","","","","","",""
"pit-trial","14","184609","0.0-2.0-4.6-0.6","battery-v0.2","","""event"",""trial"",""time""
""fullscreenenter"",""1"",""2227""
""fullscreenexit"",""2"",""10733""
""blur"",""11"",""168454""
""focus"",""13"",""180382""
","""event"",""trial"",""time""
""blur"",""11"",""168454""
","""event"",""trial"",""time""
""focus"",""13"",""180382""
","""event"",""trial"",""time""
""fullscreenenter"",""1"",""2227""
","""event"",""trial"",""time""
""fullscreenexit"",""2"",""10733""
","","","233.29999995231628","","","12","13285","5722","&#9784;","elianto","#FFFFF080"," "," ","1","&#10004","[135.39999997615814,1084.3999999761581]","2","0","0","","","","","","","",""
"pit-instructions","15","198829","0.0-2.0-4.6-1.6-0.6","battery-v0.2","","""event"",""trial"",""time""
""fullscreenenter"",""1"",""2227""
""fullscreenexit"",""2"",""10733""
""blur"",""11"",""168454""
""focus"",""13"",""180382""
","""event"",""trial"",""time""
""blur"",""11"",""168454""
","""event"",""trial"",""time""
""focus"",""13"",""180382""
","""event"",""trial"",""time""
""fullscreenenter"",""1"",""2227""
","""event"",""trial"",""time""
""fullscreenexit"",""2"",""10733""
","","[{""page_index"":0,""viewing_time"":5254.299999952316},{""page_index"":1,""viewing_time"":8962.400000095367}]","14217.100000023842","","","","","","","","","","","","","","","","","","","","","","","",""
"pit-trial","16","201910","0.0-2.0-4.7-0.7","battery-v0.2","","""event"",""trial"",""time""
""fullscreenenter"",""1"",""2227""
""fullscreenexit"",""2"",""10733""
""blur"",""11"",""168454""
""focus"",""13"",""180382""
","""event"",""trial"",""time""
""blur"",""11"",""168454""
","""event"",""trial"",""time""
""focus"",""13"",""180382""
","""event"",""trial"",""time""
""fullscreenenter"",""1"",""2227""
","""event"",""trial"",""time""
""fullscreenexit"",""2"",""10733""
","","","220.30000007152557","","","12","13285","5722","&#9784;","elianto","#FFFFF080"," "," ","1","&#10004","[1072.8999999761581]","1","0","0","","","","","","","",""
"pit-trial","17","204904","0.0-2.0-4.8-0.8","battery-v0.2","","""event"",""trial"",""time""
""fullscreenenter"",""1"",""2227""
""fullscreenexit"",""2"",""10733""
""blur"",""11"",""168454""
""focus"",""13"",""180382""
","""event"",""trial"",""time""
""blur"",""11"",""168454""
","""event"",""trial"",""time""
""focus"",""13"",""180382""
","""event"",""trial"",""time""
""fullscreenenter"",""1"",""2227""
","""event"",""trial"",""time""
""fullscreenexit"",""2"",""10733""
","","","136.40000009536743","","","12","13285","5722","&#9784;","elianto","#FFFFF080"," "," ","1","&#10004","[750.6000000238419,990.5,1622.6000000238419]","3","0","0","","","","","","","",""
"pit-instructions","18","224609","0.0-2.0-5.0","battery-v0.2","","""event"",""trial"",""time""
""fullscreenenter"",""1"",""2227""
""fullscreenexit"",""2"",""10733""
""blur"",""11"",""168454""
""focus"",""13"",""180382""
","""event"",""trial"",""time""
""blur"",""11"",""168454""
","""event"",""trial"",""time""
""focus"",""13"",""180382""
","""event"",""trial"",""time""
""fullscreenenter"",""1"",""2227""
","""event"",""trial"",""time""
""fullscreenexit"",""2"",""10733""
","","[{""page_index"":0,""viewing_time"":5058.599999904633},{""page_index"":1,""viewing_time"":5479.5},{""page_index"":2,""viewing_time"":4154.400000095367},{""page_index"":3,""viewing_time"":5007.699999928474}]","19700.899999976158","","","","","","","","","","","","","","","","","","","","","","","",""
"pit-trial","19","229479","0.0-2.0-6.0-0.0","battery-v0.2","","""event"",""trial"",""time""
""fullscreenenter"",""1"",""2227""
""fullscreenexit"",""2"",""10733""
""blur"",""11"",""168454""
""focus"",""13"",""180382""
","""event"",""trial"",""time""
""blur"",""11"",""168454""
","""event"",""trial"",""time""
""focus"",""13"",""180382""
","""event"",""trial"",""time""
""fullscreenenter"",""1"",""2227""
","""event"",""trial"",""time""
""fullscreenexit"",""2"",""10733""
","","","-1","","","12","13285","5722","&#9854;","elianto","#FFFFF080","-1","-1","1","&#10004","[]","0","0","1","","","","","","","",""
"pit-trial","20","234360","0.0-2.0-6.1-0.1","battery-v0.2","","""event"",""trial"",""time""
""fullscreenenter"",""1"",""2227""
""fullscreenexit"",""2"",""10733""
""blur"",""11"",""168454""
""focus"",""13"",""180382""
","""event"",""trial"",""time""
""blur"",""11"",""168454""
","""event"",""trial"",""time""
""focus"",""13"",""180382""
","""event"",""trial"",""time""
""fullscreenenter"",""1"",""2227""
","""event"",""trial"",""time""
""fullscreenexit"",""2"",""10733""
","","","-1","","","12","13285","5722","&#9854;","elianto","#FFFFF080","-1","-1","1","&#10004","[]","0","0","1","","","","","","","",""
"pit-trial","21","239225","0.0-2.0-6.2-0.2","battery-v0.2","","""event"",""trial"",""time""
""fullscreenenter"",""1"",""2227""
""fullscreenexit"",""2"",""10733""
""blur"",""11"",""168454""
""focus"",""13"",""180382""
","""event"",""trial"",""time""
""blur"",""11"",""168454""
","""event"",""trial"",""time""
""focus"",""13"",""180382""
","""event"",""trial"",""time""
""fullscreenenter"",""1"",""2227""
","""event"",""trial"",""time""
""fullscreenexit"",""2"",""10733""
","","","-1","","","12","13285","5722","&#9854;","elianto","#FFFFF080","-1","-1","1","&#10004","[]","0","0","1","","","","","","","",""
"pit-trial","22","244098","0.0-2.0-6.3-0.3","battery-v0.2","","""event"",""trial"",""time""
""fullscreenenter"",""1"",""2227""
""fullscreenexit"",""2"",""10733""
""blur"",""11"",""168454""
""focus"",""13"",""180382""
","""event"",""trial"",""time""
""blur"",""11"",""168454""
","""event"",""trial"",""time""
""focus"",""13"",""180382""
","""event"",""trial"",""time""
""fullscreenenter"",""1"",""2227""
","""event"",""trial"",""time""
""fullscreenexit"",""2"",""10733""
","","","-1","","","12","13285","5722","&#9854;","elianto","#FFFFF080","-1","-1","1","&#10004","[]","0","0","1","","","","","","","",""
"pit-trial","23","248958","0.0-2.0-6.4-0.4","battery-v0.2","","""event"",""trial"",""time""
""fullscreenenter"",""1"",""2227""
""fullscreenexit"",""2"",""10733""
""blur"",""11"",""168454""
""focus"",""13"",""180382""
","""event"",""trial"",""time""
""blur"",""11"",""168454""
","""event"",""trial"",""time""
""focus"",""13"",""180382""
","""event"",""trial"",""time""
""fullscreenenter"",""1"",""2227""
","""event"",""trial"",""time""
""fullscreenexit"",""2"",""10733""
","","","-1","","","12","13285","5722","&#9854;","elianto","#FFFFF080","-1","-1","1","&#10004","[]","0","0","1","","","","","","","",""
"pit-instructions","24","373026","0.0-2.0-7.0","battery-v0.2","","""event"",""trial"",""time""
""fullscreenenter"",""1"",""2227""
""fullscreenexit"",""2"",""10733""
""blur"",""11"",""168454""
""focus"",""13"",""180382""
","""event"",""trial"",""time""
""blur"",""11"",""168454""
","""event"",""trial"",""time""
""focus"",""13"",""180382""
","""event"",""trial"",""time""
""fullscreenenter"",""1"",""2227""
","""event"",""trial"",""time""
""fullscreenexit"",""2"",""10733""
","","[{""page_index"":0,""viewing_time"":6512.899999976158},{""page_index"":1,""viewing_time"":6437.800000071526},{""page_index"":2,""viewing_time"":5057.600000023842},{""page_index"":3,""viewing_time"":8748.199999928474},{""page_index"":4,""viewing_time"":6223.100000023842},{""page_index"":5,""viewing_time"":6302.799999952316},{""page_index"":6,""viewing_time"":5142.800000071526},{""page_index"":7,""viewing_time"":7145.5},{""page_index"":8,""viewing_time"":7632.699999928474},{""page_index"":9,""viewing_time"":8497.5},{""page_index"":10,""viewing_time"":6824.100000023842},{""page_index"":11,""viewing_time"":4271.300000071526},{""page_index"":12,""viewing_time"":9849.399999976158},{""page_index"":13,""viewing_time"":6530.299999952316},{""page_index"":14,""viewing_time"":6280.800000071526},{""page_index"":15,""viewing_time"":6480.399999976158},{""page_index"":16,""viewing_time"":6481.899999976158},{""page_index"":17,""viewing_time"":9643.100000023842}]","124062.89999997616","","","","","","","","","","","","","","","","","","","","","","","",""
"pit-trial","25","376366","0.0-2.0-8.0-0.0","battery-v0.2","","""event"",""trial"",""time""
""fullscreenenter"",""1"",""2227""
""fullscreenexit"",""2"",""10733""
""blur"",""11"",""168454""
""focus"",""13"",""180382""
","""event"",""trial"",""time""
""blur"",""11"",""168454""
","""event"",""trial"",""time""
""focus"",""13"",""180382""
","""event"",""trial"",""time""
""fullscreenenter"",""1"",""2227""
","""event"",""trial"",""time""
""fullscreenexit"",""2"",""10733""
","","","482.1999999284744","","","12","13285","5722","&#9776;","elianto","#3366ff99"," "," ","1","+10","[1333.3999999761581]","1","0","1","","","","","","","",""
"pit-trial","26","379710","0.0-2.0-8.0-1.0","battery-v0.2","","""event"",""trial"",""time""
""fullscreenenter"",""1"",""2227""
""fullscreenexit"",""2"",""10733""
""blur"",""11"",""168454""
""focus"",""13"",""180382""
","""event"",""trial"",""time""
""blur"",""11"",""168454""
","""event"",""trial"",""time""
""focus"",""13"",""180382""
","""event"",""trial"",""time""
""fullscreenenter"",""1"",""2227""
","""event"",""trial"",""time""
""fullscreenexit"",""2"",""10733""
","","","480.1999999284744","","","12","13285","5722","&#9776;","elianto","#3366ff99"," "," ","1","+10","[1334.3999999761581]","1","0","1","","","","","","","",""
"pit-trial","27","382826","0.0-2.0-8.0-2.0","battery-v0.2","","""event"",""trial"",""time""
""fullscreenenter"",""1"",""2227""
""fullscreenexit"",""2"",""10733""
""blur"",""11"",""168454""
""focus"",""13"",""180382""
","""event"",""trial"",""time""
""blur"",""11"",""168454""
","""event"",""trial"",""time""
""focus"",""13"",""180382""
","""event"",""trial"",""time""
""fullscreenenter"",""1"",""2227""
","""event"",""trial"",""time""
""fullscreenexit"",""2"",""10733""
","","","250.19999992847443","","","12","13285","5722","&#9776;","elianto","#3366ff99"," "," ","1","+10","[1104]","1","0","1","","","","","","","",""
"pit-trial","28","386126","0.0-2.0-8.0-3.0","battery-v0.2","","""event"",""trial"",""time""
""fullscreenenter"",""1"",""2227""
""fullscreenexit"",""2"",""10733""
""blur"",""11"",""168454""
""focus"",""13"",""180382""
","""event"",""trial"",""time""
""blur"",""11"",""168454""
","""event"",""trial"",""time""
""focus"",""13"",""180382""
","""event"",""trial"",""time""
""fullscreenenter"",""1"",""2227""
","""event"",""trial"",""time""
""fullscreenexit"",""2"",""10733""
","","","437.3000000715256","","","12","13285","5722","&#9776;","elianto","#3366ff99"," "," ","1","0","[1292.7000000476837]","1","0","1","","","","","","","",""
"pit-trial","29","389217","0.0-2.0-8.0-4.0","battery-v0.2","","""event"",""trial"",""time""
""fullscreenenter"",""1"",""2227""
""fullscreenexit"",""2"",""10733""
""blur"",""11"",""168454""
""focus"",""13"",""180382""
","""event"",""trial"",""time""
""blur"",""11"",""168454""
","""event"",""trial"",""time""
""focus"",""13"",""180382""
","""event"",""trial"",""time""
""fullscreenenter"",""1"",""2227""
","""event"",""trial"",""time""
""fullscreenexit"",""2"",""10733""
","","","224.19999992847443","","","12","13285","5722","&#9776;","elianto","#3366ff99"," "," ","1","+10","[1078.8999999761581]","1","0","1","","","","","","","",""
"pit-trial","30","392340","0.0-2.0-8.1-0.1","battery-v0.2","","""event"",""trial"",""time""
""fullscreenenter"",""1"",""2227""
""fullscreenexit"",""2"",""10733""
""blur"",""11"",""168454""
""focus"",""13"",""180382""
","""event"",""trial"",""time""
""blur"",""11"",""168454""
","""event"",""trial"",""time""
""focus"",""13"",""180382""
","""event"",""trial"",""time""
""fullscreenenter"",""1"",""2227""
","""event"",""trial"",""time""
""fullscreenexit"",""2"",""10733""
","","","251.70000004768372","","","12","13285","5722","&#9776;","elianto","#3366ff99"," "," ","1","+10","[1111.1999999284744]","1","0","1","","","","","","","",""
"pit-trial","31","395560","0.0-2.0-8.1-1.1","battery-v0.2","","""event"",""trial"",""time""
""fullscreenenter"",""1"",""2227""
""fullscreenexit"",""2"",""10733""
""blur"",""11"",""168454""
""focus"",""13"",""180382""
","""event"",""trial"",""time""
""blur"",""11"",""168454""
","""event"",""trial"",""time""
""focus"",""13"",""180382""
","""event"",""trial"",""time""
""fullscreenenter"",""1"",""2227""
","""event"",""trial"",""time""
""fullscreenexit"",""2"",""10733""
","","","353.5","","","12","13285","5722","&#9776;","elianto","#3366ff99"," "," ","1","+10","[1206.7000000476837]","1","0","1","","","","","","","",""
"pit-trial","32","398808","0.0-2.0-8.1-2.1","battery-v0.2","","""event"",""trial"",""time""
""fullscreenenter"",""1"",""2227""
""fullscreenexit"",""2"",""10733""
""blur"",""11"",""168454""
""focus"",""13"",""180382""
","""event"",""trial"",""time""
""blur"",""11"",""168454""
","""event"",""trial"",""time""
""focus"",""13"",""180382""
","""event"",""trial"",""time""
""fullscreenenter"",""1"",""2227""
","""event"",""trial"",""time""
""fullscreenexit"",""2"",""10733""
","","","386.59999990463257","","","12","13285","5722","&#9776;","elianto","#3366ff99"," "," ","1","+10","[1237.6999999284744]","1","0","1","","","","","","","",""
"pit-trial","33","401728","0.0-2.0-8.1-3.1","battery-v0.2","","""event"",""trial"",""time""
""fullscreenenter"",""1"",""2227""
""fullscreenexit"",""2"",""10733""
""blur"",""11"",""168454""
""focus"",""13"",""180382""
","""event"",""trial"",""time""
""blur"",""11"",""168454""
","""event"",""trial"",""time""
""focus"",""13"",""180382""
","""event"",""trial"",""time""
""fullscreenenter"",""1"",""2227""
","""event"",""trial"",""time""
""fullscreenexit"",""2"",""10733""
","","","60.200000047683716","","","12","13285","5722","&#9776;","elianto","#3366ff99"," "," ","1","0","[911.2000000476837]","1","0","1","","","","","","","",""
"pit-trial","34","404644","0.0-2.0-8.1-4.1","battery-v0.2","","""event"",""trial"",""time""
""fullscreenenter"",""1"",""2227""
""fullscreenexit"",""2"",""10733""
""blur"",""11"",""168454""
""focus"",""13"",""180382""
","""event"",""trial"",""time""
""blur"",""11"",""168454""
","""event"",""trial"",""time""
""focus"",""13"",""180382""
","""event"",""trial"",""time""
""fullscreenenter"",""1"",""2227""
","""event"",""trial"",""time""
""fullscreenexit"",""2"",""10733""
","","","50.299999952316284","","","12","13285","5722","&#9776;","elianto","#3366ff99"," "," ","1","+10","[907.6999999284744]","1","0","1","","","","","","","",""
"pit-trial","35","407677","0.0-2.0-8.2-0.2","battery-v0.2","","""event"",""trial"",""time""
""fullscreenenter"",""1"",""2227""
""fullscreenexit"",""2"",""10733""
""blur"",""11"",""168454""
""focus"",""13"",""180382""
","""event"",""trial"",""time""
""blur"",""11"",""168454""
","""event"",""trial"",""time""
""focus"",""13"",""180382""
","""event"",""trial"",""time""
""fullscreenenter"",""1"",""2227""
","""event"",""trial"",""time""
""fullscreenexit"",""2"",""10733""
","","","173","","","12","13285","5722","&#9776;","elianto","#3366ff99"," "," ","1","+10","[1026.3999999761581]","1","0","1","","","","","","","",""
"pit-trial","36","411138","0.0-2.0-8.2-1.2","battery-v0.2","","""event"",""trial"",""time""
""fullscreenenter"",""1"",""2227""
""fullscreenexit"",""2"",""10733""
""blur"",""11"",""168454""
""focus"",""13"",""180382""
","""event"",""trial"",""time""
""blur"",""11"",""168454""
","""event"",""trial"",""time""
""focus"",""13"",""180382""
","""event"",""trial"",""time""
""fullscreenenter"",""1"",""2227""
","""event"",""trial"",""time""
""fullscreenexit"",""2"",""10733""
","","","599.5","","","12","13285","5722","&#9776;","elianto","#3366ff99"," "," ","1","+10","[793.7999999523163,1456.0999999046326]","2","0","1","","","","","","","",""
"pit-trial","37","414099","0.0-2.0-8.2-2.2","battery-v0.2","","""event"",""trial"",""time""
""fullscreenenter"",""1"",""2227""
""fullscreenexit"",""2"",""10733""
""blur"",""11"",""168454""
""focus"",""13"",""180382""
","""event"",""trial"",""time""
""blur"",""11"",""168454""
","""event"",""trial"",""time""
""focus"",""13"",""180382""
","""event"",""trial"",""time""
""fullscreenenter"",""1"",""2227""
","""event"",""trial"",""time""
""fullscreenexit"",""2"",""10733""
","","","101.89999997615814","","","12","13285","5722","&#9776;","elianto","#3366ff99"," "," ","1","+10","[107,957.8999999761581]","2","0","1","","","","","","","",""
"pit-trial","38","417164","0.0-2.0-8.2-3.2","battery-v0.2","","""event"",""trial"",""time""
""fullscreenenter"",""1"",""2227""
""fullscreenexit"",""2"",""10733""
""blur"",""11"",""168454""
""focus"",""13"",""180382""
","""event"",""trial"",""time""
""blur"",""11"",""168454""
","""event"",""trial"",""time""
""focus"",""13"",""180382""
","""event"",""trial"",""time""
""fullscreenenter"",""1"",""2227""
","""event"",""trial"",""time""
""fullscreenexit"",""2"",""10733""
","","","206.30000007152557","","","12","13285","5722","&#9776;","elianto","#3366ff99"," "," ","1","0","[1056.6000000238419]","1","0","1","","","","","","","",""
"pit-trial","39","420304","0.0-2.0-8.2-4.2","battery-v0.2","","""event"",""trial"",""time""
""fullscreenenter"",""1"",""2227""
""fullscreenexit"",""2"",""10733""
""blur"",""11"",""168454""
""focus"",""13"",""180382""
","""event"",""trial"",""time""
""blur"",""11"",""168454""
","""event"",""trial"",""time""
""focus"",""13"",""180382""
","""event"",""trial"",""time""
""fullscreenenter"",""1"",""2227""
","""event"",""trial"",""time""
""fullscreenexit"",""2"",""10733""
","","","270.8000000715256","","","12","13285","5722","&#9776;","elianto","#3366ff99"," "," ","1","+10","[1127.8999999761581]","1","0","1","","","","","","","",""
"call-function","40","420307","0.0-2.0-9.0","battery-v0.2","","""event"",""trial"",""time""
""fullscreenenter"",""1"",""2227""
""fullscreenexit"",""2"",""10733""
""blur"",""11"",""168454""
""focus"",""13"",""180382""
","""event"",""trial"",""time""
""blur"",""11"",""168454""
","""event"",""trial"",""time""
""focus"",""13"",""180382""
","""event"",""trial"",""time""
""fullscreenenter"",""1"",""2227""
","""event"",""trial"",""time""
""fullscreenexit"",""2"",""10733""
","","","","","","","","","","","","","","","","","","","","","","","","","","",""
"pit-instructions","41","463163","0.0-2.0-10.0","battery-v0.2","","""event"",""trial"",""time""
""fullscreenenter"",""1"",""2227""
""fullscreenexit"",""2"",""10733""
""blur"",""11"",""168454""
""focus"",""13"",""180382""
","""event"",""trial"",""time""
""blur"",""11"",""168454""
","""event"",""trial"",""time""
""focus"",""13"",""180382""
","""event"",""trial"",""time""
""fullscreenenter"",""1"",""2227""
","""event"",""trial"",""time""
""fullscreenexit"",""2"",""10733""
","","[{""page_index"":0,""viewing_time"":8272.600000023842},{""page_index"":1,""viewing_time"":7253.299999952316},{""page_index"":2,""viewing_time"":9628.200000047684},{""page_index"":3,""viewing_time"":10507.200000047684},{""page_index"":4,""viewing_time"":7199}]","42861.200000047684","","","","","","","","","","","","","","","","","","","","","","","",""
"pit-trial","42","468034","0.0-2.0-11.0-0.0","battery-v0.2","","""event"",""trial"",""time""
""fullscreenenter"",""1"",""2227""
""fullscreenexit"",""2"",""10733""
""blur"",""11"",""168454""
""focus"",""13"",""180382""
","""event"",""trial"",""time""
""blur"",""11"",""168454""
","""event"",""trial"",""time""
""focus"",""13"",""180382""
","""event"",""trial"",""time""
""fullscreenenter"",""1"",""2227""
","""event"",""trial"",""time""
""fullscreenexit"",""2"",""10733""
","","","-1","","","12","13285","5722","&#9761;","elianto","#3366ff99","-1","-1","1","+10","[]","0","0","2","","","","","","","",""
"pit-trial","43","472905","0.0-2.0-11.0-1.0","battery-v0.2","","""event"",""trial"",""time""
""fullscreenenter"",""1"",""2227""
""fullscreenexit"",""2"",""10733""
""blur"",""11"",""168454""
""focus"",""13"",""180382""
","""event"",""trial"",""time""
""blur"",""11"",""168454""
","""event"",""trial"",""time""
""focus"",""13"",""180382""
","""event"",""trial"",""time""
""fullscreenenter"",""1"",""2227""
","""event"",""trial"",""time""
""fullscreenexit"",""2"",""10733""
","","","-1","","","12","13285","5722","&#9761;","elianto","#3366ff99","-1","-1","1","+10","[]","0","0","2","","","","","","","",""
"pit-trial","44","477775","0.0-2.0-11.0-2.0","battery-v0.2","","""event"",""trial"",""time""
""fullscreenenter"",""1"",""2227""
""fullscreenexit"",""2"",""10733""
""blur"",""11"",""168454""
""focus"",""13"",""180382""
","""event"",""trial"",""time""
""blur"",""11"",""168454""
","""event"",""trial"",""time""
""focus"",""13"",""180382""
","""event"",""trial"",""time""
""fullscreenenter"",""1"",""2227""
","""event"",""trial"",""time""
""fullscreenexit"",""2"",""10733""
","","","-1","","","12","13285","5722","&#9761;","elianto","#3366ff99","-1","-1","1","+10","[]","0","0","2","","","","","","","",""
"pit-trial","45","482651","0.0-2.0-11.0-3.0","battery-v0.2","","""event"",""trial"",""time""
""fullscreenenter"",""1"",""2227""
""fullscreenexit"",""2"",""10733""
""blur"",""11"",""168454""
""focus"",""13"",""180382""
","""event"",""trial"",""time""
""blur"",""11"",""168454""
","""event"",""trial"",""time""
""focus"",""13"",""180382""
","""event"",""trial"",""time""
""fullscreenenter"",""1"",""2227""
","""event"",""trial"",""time""
""fullscreenexit"",""2"",""10733""
","","","-1","","","12","13285","5722","&#9761;","elianto","#3366ff99","-1","-1","1","0","[]","0","0","2","","","","","","","",""
"pit-trial","46","487509","0.0-2.0-11.0-4.0","battery-v0.2","","""event"",""trial"",""time""
""fullscreenenter"",""1"",""2227""
""fullscreenexit"",""2"",""10733""
""blur"",""11"",""168454""
""focus"",""13"",""180382""
","""event"",""trial"",""time""
""blur"",""11"",""168454""
","""event"",""trial"",""time""
""focus"",""13"",""180382""
","""event"",""trial"",""time""
""fullscreenenter"",""1"",""2227""
","""event"",""trial"",""time""
""fullscreenexit"",""2"",""10733""
","","","-1","","","12","13285","5722","&#9761;","elianto","#3366ff99","-1","-1","1","+10","[]","0","0","2","","","","","","","",""
"pit-trial","47","492369","0.0-2.0-11.1-0.1","battery-v0.2","","""event"",""trial"",""time""
""fullscreenenter"",""1"",""2227""
""fullscreenexit"",""2"",""10733""
""blur"",""11"",""168454""
""focus"",""13"",""180382""
","""event"",""trial"",""time""
""blur"",""11"",""168454""
","""event"",""trial"",""time""
""focus"",""13"",""180382""
","""event"",""trial"",""time""
""fullscreenenter"",""1"",""2227""
","""event"",""trial"",""time""
""fullscreenexit"",""2"",""10733""
","","","-1","","","12","13285","5722","&#9761;","elianto","#3366ff99","-1","-1","1","+10","[]","0","0","2","","","","","","","",""
"pit-trial","48","497239","0.0-2.0-11.1-1.1","battery-v0.2","","""event"",""trial"",""time""
""fullscreenenter"",""1"",""2227""
""fullscreenexit"",""2"",""10733""
""blur"",""11"",""168454""
""focus"",""13"",""180382""
","""event"",""trial"",""time""
""blur"",""11"",""168454""
","""event"",""trial"",""time""
""focus"",""13"",""180382""
","""event"",""trial"",""time""
""fullscreenenter"",""1"",""2227""
","""event"",""trial"",""time""
""fullscreenexit"",""2"",""10733""
","","","-1","","","12","13285","5722","&#9761;","elianto","#3366ff99","-1","-1","1","+10","[]","0","0","2","","","","","","","",""
"pit-trial","49","502093","0.0-2.0-11.1-2.1","battery-v0.2","","""event"",""trial"",""time""
""fullscreenenter"",""1"",""2227""
""fullscreenexit"",""2"",""10733""
""blur"",""11"",""168454""
""focus"",""13"",""180382""
","""event"",""trial"",""time""
""blur"",""11"",""168454""
","""event"",""trial"",""time""
""focus"",""13"",""180382""
","""event"",""trial"",""time""
""fullscreenenter"",""1"",""2227""
","""event"",""trial"",""time""
""fullscreenexit"",""2"",""10733""
","","","-1","","","12","13285","5722","&#9761;","elianto","#3366ff99","-1","-1","1","+10","[]","0","0","2","","","","","","","",""
"pit-trial","50","506950","0.0-2.0-11.1-3.1","battery-v0.2","","""event"",""trial"",""time""
""fullscreenenter"",""1"",""2227""
""fullscreenexit"",""2"",""10733""
""blur"",""11"",""168454""
""focus"",""13"",""180382""
","""event"",""trial"",""time""
""blur"",""11"",""168454""
","""event"",""trial"",""time""
""focus"",""13"",""180382""
","""event"",""trial"",""time""
""fullscreenenter"",""1"",""2227""
","""event"",""trial"",""time""
""fullscreenexit"",""2"",""10733""
","","","-1","","","12","13285","5722","&#9761;","elianto","#3366ff99","-1","-1","1","0","[]","0","0","2","","","","","","","",""
"pit-trial","51","511817","0.0-2.0-11.1-4.1","battery-v0.2","","""event"",""trial"",""time""
""fullscreenenter"",""1"",""2227""
""fullscreenexit"",""2"",""10733""
""blur"",""11"",""168454""
""focus"",""13"",""180382""
","""event"",""trial"",""time""
""blur"",""11"",""168454""
","""event"",""trial"",""time""
""focus"",""13"",""180382""
","""event"",""trial"",""time""
""fullscreenenter"",""1"",""2227""
","""event"",""trial"",""time""
""fullscreenexit"",""2"",""10733""
","","","-1","","","12","13285","5722","&#9761;","elianto","#3366ff99","-1","-1","1","+10","[]","0","0","2","","","","","","","",""
"pit-trial","52","516680","0.0-2.0-11.2-0.2","battery-v0.2","","""event"",""trial"",""time""
""fullscreenenter"",""1"",""2227""
""fullscreenexit"",""2"",""10733""
""blur"",""11"",""168454""
""focus"",""13"",""180382""
","""event"",""trial"",""time""
""blur"",""11"",""168454""
","""event"",""trial"",""time""
""focus"",""13"",""180382""
","""event"",""trial"",""time""
""fullscreenenter"",""1"",""2227""
","""event"",""trial"",""time""
""fullscreenexit"",""2"",""10733""
","","","-1","","","12","13285","5722","&#9761;","elianto","#3366ff99","-1","-1","1","+10","[]","0","0","2","","","","","","","",""
"pit-trial","53","521541","0.0-2.0-11.2-1.2","battery-v0.2","","""event"",""trial"",""time""
""fullscreenenter"",""1"",""2227""
""fullscreenexit"",""2"",""10733""
""blur"",""11"",""168454""
""focus"",""13"",""180382""
","""event"",""trial"",""time""
""blur"",""11"",""168454""
","""event"",""trial"",""time""
""focus"",""13"",""180382""
","""event"",""trial"",""time""
""fullscreenenter"",""1"",""2227""
","""event"",""trial"",""time""
""fullscreenexit"",""2"",""10733""
","","","-1","","","12","13285","5722","&#9761;","elianto","#3366ff99","-1","-1","1","+10","[]","0","0","2","","","","","","","",""
"pit-trial","54","526410","0.0-2.0-11.2-2.2","battery-v0.2","","""event"",""trial"",""time""
""fullscreenenter"",""1"",""2227""
""fullscreenexit"",""2"",""10733""
""blur"",""11"",""168454""
""focus"",""13"",""180382""
","""event"",""trial"",""time""
""blur"",""11"",""168454""
","""event"",""trial"",""time""
""focus"",""13"",""180382""
","""event"",""trial"",""time""
""fullscreenenter"",""1"",""2227""
","""event"",""trial"",""time""
""fullscreenexit"",""2"",""10733""
","","","-1","","","12","13285","5722","&#9761;","elianto","#3366ff99","-1","-1","1","+10","[]","0","0","2","","","","","","","",""
"pit-trial","55","531272","0.0-2.0-11.2-3.2","battery-v0.2","","""event"",""trial"",""time""
""fullscreenenter"",""1"",""2227""
""fullscreenexit"",""2"",""10733""
""blur"",""11"",""168454""
""focus"",""13"",""180382""
","""event"",""trial"",""time""
""blur"",""11"",""168454""
","""event"",""trial"",""time""
""focus"",""13"",""180382""
","""event"",""trial"",""time""
""fullscreenenter"",""1"",""2227""
","""event"",""trial"",""time""
""fullscreenexit"",""2"",""10733""
","","","-1","","","12","13285","5722","&#9761;","elianto","#3366ff99","-1","-1","1","0","[]","0","0","2","","","","","","","",""
"pit-trial","56","536140","0.0-2.0-11.2-4.2","battery-v0.2","","""event"",""trial"",""time""
""fullscreenenter"",""1"",""2227""
""fullscreenexit"",""2"",""10733""
""blur"",""11"",""168454""
""focus"",""13"",""180382""
","""event"",""trial"",""time""
""blur"",""11"",""168454""
","""event"",""trial"",""time""
""focus"",""13"",""180382""
","""event"",""trial"",""time""
""fullscreenenter"",""1"",""2227""
","""event"",""trial"",""time""
""fullscreenexit"",""2"",""10733""
","","","-1","","","12","13285","5722","&#9761;","elianto","#3366ff99","-1","-1","1","+10","[]","0","0","2","","","","","","","",""
"pit-trial","57","541010","0.0-2.0-11.3-0.3","battery-v0.2","","""event"",""trial"",""time""
""fullscreenenter"",""1"",""2227""
""fullscreenexit"",""2"",""10733""
""blur"",""11"",""168454""
""focus"",""13"",""180382""
","""event"",""trial"",""time""
""blur"",""11"",""168454""
","""event"",""trial"",""time""
""focus"",""13"",""180382""
","""event"",""trial"",""time""
""fullscreenenter"",""1"",""2227""
","""event"",""trial"",""time""
""fullscreenexit"",""2"",""10733""
","","","-1","","","12","13285","5722","&#9761;","elianto","#3366ff99","-1","-1","1","+10","[]","0","0","2","","","","","","","",""
"pit-trial","58","545883","0.0-2.0-11.3-1.3","battery-v0.2","","""event"",""trial"",""time""
""fullscreenenter"",""1"",""2227""
""fullscreenexit"",""2"",""10733""
""blur"",""11"",""168454""
""focus"",""13"",""180382""
","""event"",""trial"",""time""
""blur"",""11"",""168454""
","""event"",""trial"",""time""
""focus"",""13"",""180382""
","""event"",""trial"",""time""
""fullscreenenter"",""1"",""2227""
","""event"",""trial"",""time""
""fullscreenexit"",""2"",""10733""
","","","-1","","","12","13285","5722","&#9761;","elianto","#3366ff99","-1","-1","1","+10","[]","0","0","2","","","","","","","",""
"pit-trial","59","550749","0.0-2.0-11.3-2.3","battery-v0.2","","""event"",""trial"",""time""
""fullscreenenter"",""1"",""2227""
""fullscreenexit"",""2"",""10733""
""blur"",""11"",""168454""
""focus"",""13"",""180382""
","""event"",""trial"",""time""
""blur"",""11"",""168454""
","""event"",""trial"",""time""
""focus"",""13"",""180382""
","""event"",""trial"",""time""
""fullscreenenter"",""1"",""2227""
","""event"",""trial"",""time""
""fullscreenexit"",""2"",""10733""
","","","-1","","","12","13285","5722","&#9761;","elianto","#3366ff99","-1","-1","1","+10","[]","0","0","2","","","","","","","",""
"pit-trial","60","555612","0.0-2.0-11.3-3.3","battery-v0.2","","""event"",""trial"",""time""
""fullscreenenter"",""1"",""2227""
""fullscreenexit"",""2"",""10733""
""blur"",""11"",""168454""
""focus"",""13"",""180382""
","""event"",""trial"",""time""
""blur"",""11"",""168454""
","""event"",""trial"",""time""
""focus"",""13"",""180382""
","""event"",""trial"",""time""
""fullscreenenter"",""1"",""2227""
","""event"",""trial"",""time""
""fullscreenexit"",""2"",""10733""
","","","-1","","","12","13285","5722","&#9761;","elianto","#3366ff99","-1","-1","1","0","[]","0","0","2","","","","","","","",""
"pit-trial","61","560473","0.0-2.0-11.3-4.3","battery-v0.2","","""event"",""trial"",""time""
""fullscreenenter"",""1"",""2227""
""fullscreenexit"",""2"",""10733""
""blur"",""11"",""168454""
""focus"",""13"",""180382""
","""event"",""trial"",""time""
""blur"",""11"",""168454""
","""event"",""trial"",""time""
""focus"",""13"",""180382""
","""event"",""trial"",""time""
""fullscreenenter"",""1"",""2227""
","""event"",""trial"",""time""
""fullscreenexit"",""2"",""10733""
","","","-1","","","12","13285","5722","&#9761;","elianto","#3366ff99","-1","-1","1","+10","[]","0","0","2","","","","","","","",""
"call-function","62","560475","0.0-2.0-12.0","battery-v0.2","","""event"",""trial"",""time""
""fullscreenenter"",""1"",""2227""
""fullscreenexit"",""2"",""10733""
""blur"",""11"",""168454""
""focus"",""13"",""180382""
","""event"",""trial"",""time""
""blur"",""11"",""168454""
","""event"",""trial"",""time""
""focus"",""13"",""180382""
","""event"",""trial"",""time""
""fullscreenenter"",""1"",""2227""
","""event"",""trial"",""time""
""fullscreenexit"",""2"",""10733""
","","","","","","","","","","","","","","","","","","","","","","","","","","",""
"pit-instructions","63","589179","0.0-2.0-13.0","battery-v0.2","","""event"",""trial"",""time""
""fullscreenenter"",""1"",""2227""
""fullscreenexit"",""2"",""10733""
""blur"",""11"",""168454""
""focus"",""13"",""180382""
","""event"",""trial"",""time""
""blur"",""11"",""168454""
","""event"",""trial"",""time""
""focus"",""13"",""180382""
","""event"",""trial"",""time""
""fullscreenenter"",""1"",""2227""
","""event"",""trial"",""time""
""fullscreenexit"",""2"",""10733""
","","[{""page_index"":0,""viewing_time"":4491.899999976158},{""page_index"":1,""viewing_time"":6035.300000071526},{""page_index"":2,""viewing_time"":3755.6999999284744},{""page_index"":3,""viewing_time"":10156.200000047684},{""page_index"":4,""viewing_time"":4263.5}]","28703.299999952316","","","","","","","","","","","","","","","","","","","","","","","",""
"pit-trial","64","594056","0.0-2.0-14.0-0.0","battery-v0.2","","""event"",""trial"",""time""
""fullscreenenter"",""1"",""2227""
""fullscreenexit"",""2"",""10733""
""blur"",""11"",""168454""
""focus"",""13"",""180382""
","""event"",""trial"",""time""
""blur"",""11"",""168454""
","""event"",""trial"",""time""
""focus"",""13"",""180382""
","""event"",""trial"",""time""
""fullscreenenter"",""1"",""2227""
","""event"",""trial"",""time""
""fullscreenexit"",""2"",""10733""
","","","-1","","","12","13285","5722","&#9826;","elianto","#f73b6a7A","-1","-1","1","0","[]","0","0","3","","","","","","","",""
"pit-trial","65","598937","0.0-2.0-14.0-1.0","battery-v0.2","","""event"",""trial"",""time""
""fullscreenenter"",""1"",""2227""
""fullscreenexit"",""2"",""10733""
""blur"",""11"",""168454""
""focus"",""13"",""180382""
","""event"",""trial"",""time""
""blur"",""11"",""168454""
","""event"",""trial"",""time""
""focus"",""13"",""180382""
","""event"",""trial"",""time""
""fullscreenenter"",""1"",""2227""
","""event"",""trial"",""time""
""fullscreenexit"",""2"",""10733""
","","","-1","","","12","13285","5722","&#9826;","elianto","#f73b6a7A","-1","-1","1","0","[]","0","0","3","","","","","","","",""
"pit-trial","66","603809","0.0-2.0-14.0-2.0","battery-v0.2","","""event"",""trial"",""time""
""fullscreenenter"",""1"",""2227""
""fullscreenexit"",""2"",""10733""
""blur"",""11"",""168454""
""focus"",""13"",""180382""
","""event"",""trial"",""time""
""blur"",""11"",""168454""
","""event"",""trial"",""time""
""focus"",""13"",""180382""
","""event"",""trial"",""time""
""fullscreenenter"",""1"",""2227""
","""event"",""trial"",""time""
""fullscreenexit"",""2"",""10733""
","","","-1","","","12","13285","5722","&#9826;","elianto","#f73b6a7A","-1","-1","1","0","[]","0","0","3","","","","","","","",""
"pit-trial","67","608671","0.0-2.0-14.0-3.0","battery-v0.2","","""event"",""trial"",""time""
""fullscreenenter"",""1"",""2227""
""fullscreenexit"",""2"",""10733""
""blur"",""11"",""168454""
""focus"",""13"",""180382""
","""event"",""trial"",""time""
""blur"",""11"",""168454""
","""event"",""trial"",""time""
""focus"",""13"",""180382""
","""event"",""trial"",""time""
""fullscreenenter"",""1"",""2227""
","""event"",""trial"",""time""
""fullscreenexit"",""2"",""10733""
","","","-1","","","12","13285","5722","&#9826;","elianto","#f73b6a7A","-1","-1","1","-10","[]","0","0","3","","","","","","","",""
"pit-trial","68","613534","0.0-2.0-14.0-4.0","battery-v0.2","","""event"",""trial"",""time""
""fullscreenenter"",""1"",""2227""
""fullscreenexit"",""2"",""10733""
""blur"",""11"",""168454""
""focus"",""13"",""180382""
","""event"",""trial"",""time""
""blur"",""11"",""168454""
","""event"",""trial"",""time""
""focus"",""13"",""180382""
","""event"",""trial"",""time""
""fullscreenenter"",""1"",""2227""
","""event"",""trial"",""time""
""fullscreenexit"",""2"",""10733""
","","","-1","","","12","13285","5722","&#9826;","elianto","#f73b6a7A","-1","-1","1","0","[]","0","0","3","","","","","","","",""
"pit-trial","69","618394","0.0-2.0-14.1-0.1","battery-v0.2","","""event"",""trial"",""time""
""fullscreenenter"",""1"",""2227""
""fullscreenexit"",""2"",""10733""
""blur"",""11"",""168454""
""focus"",""13"",""180382""
","""event"",""trial"",""time""
""blur"",""11"",""168454""
","""event"",""trial"",""time""
""focus"",""13"",""180382""
","""event"",""trial"",""time""
""fullscreenenter"",""1"",""2227""
","""event"",""trial"",""time""
""fullscreenexit"",""2"",""10733""
","","","-1","","","12","13285","5722","&#9826;","elianto","#f73b6a7A","-1","-1","1","0","[]","0","0","3","","","","","","","",""
"pit-trial","70","623256","0.0-2.0-14.1-1.1","battery-v0.2","","""event"",""trial"",""time""
""fullscreenenter"",""1"",""2227""
""fullscreenexit"",""2"",""10733""
""blur"",""11"",""168454""
""focus"",""13"",""180382""
","""event"",""trial"",""time""
""blur"",""11"",""168454""
","""event"",""trial"",""time""
""focus"",""13"",""180382""
","""event"",""trial"",""time""
""fullscreenenter"",""1"",""2227""
","""event"",""trial"",""time""
""fullscreenexit"",""2"",""10733""
","","","-1","","","12","13285","5722","&#9826;","elianto","#f73b6a7A","-1","-1","1","0","[]","0","0","3","","","","","","","",""
"pit-trial","71","628120","0.0-2.0-14.1-2.1","battery-v0.2","","""event"",""trial"",""time""
""fullscreenenter"",""1"",""2227""
""fullscreenexit"",""2"",""10733""
""blur"",""11"",""168454""
""focus"",""13"",""180382""
","""event"",""trial"",""time""
""blur"",""11"",""168454""
","""event"",""trial"",""time""
""focus"",""13"",""180382""
","""event"",""trial"",""time""
""fullscreenenter"",""1"",""2227""
","""event"",""trial"",""time""
""fullscreenexit"",""2"",""10733""
","","","-1","","","12","13285","5722","&#9826;","elianto","#f73b6a7A","-1","-1","1","0","[]","0","0","3","","","","","","","",""
"pit-trial","72","632979","0.0-2.0-14.1-3.1","battery-v0.2","","""event"",""trial"",""time""
""fullscreenenter"",""1"",""2227""
""fullscreenexit"",""2"",""10733""
""blur"",""11"",""168454""
""focus"",""13"",""180382""
","""event"",""trial"",""time""
""blur"",""11"",""168454""
","""event"",""trial"",""time""
""focus"",""13"",""180382""
","""event"",""trial"",""time""
""fullscreenenter"",""1"",""2227""
","""event"",""trial"",""time""
""fullscreenexit"",""2"",""10733""
","","","-1","","","12","13285","5722","&#9826;","elianto","#f73b6a7A","-1","-1","1","-10","[]","0","0","3","","","","","","","",""
"pit-trial","73","637841","0.0-2.0-14.1-4.1","battery-v0.2","","""event"",""trial"",""time""
""fullscreenenter"",""1"",""2227""
""fullscreenexit"",""2"",""10733""
""blur"",""11"",""168454""
""focus"",""13"",""180382""
","""event"",""trial"",""time""
""blur"",""11"",""168454""
","""event"",""trial"",""time""
""focus"",""13"",""180382""
","""event"",""trial"",""time""
""fullscreenenter"",""1"",""2227""
","""event"",""trial"",""time""
""fullscreenexit"",""2"",""10733""
","","","-1","","","12","13285","5722","&#9826;","elianto","#f73b6a7A","-1","-1","1","0","[]","0","0","3","","","","","","","",""
"pit-trial","74","642709","0.0-2.0-14.2-0.2","battery-v0.2","","""event"",""trial"",""time""
""fullscreenenter"",""1"",""2227""
""fullscreenexit"",""2"",""10733""
""blur"",""11"",""168454""
""focus"",""13"",""180382""
","""event"",""trial"",""time""
""blur"",""11"",""168454""
","""event"",""trial"",""time""
""focus"",""13"",""180382""
","""event"",""trial"",""time""
""fullscreenenter"",""1"",""2227""
","""event"",""trial"",""time""
""fullscreenexit"",""2"",""10733""
","","","-1","","","12","13285","5722","&#9826;","elianto","#f73b6a7A","-1","-1","1","0","[]","0","0","3","","","","","","","",""
"pit-trial","75","647579","0.0-2.0-14.2-1.2","battery-v0.2","","""event"",""trial"",""time""
""fullscreenenter"",""1"",""2227""
""fullscreenexit"",""2"",""10733""
""blur"",""11"",""168454""
""focus"",""13"",""180382""
","""event"",""trial"",""time""
""blur"",""11"",""168454""
","""event"",""trial"",""time""
""focus"",""13"",""180382""
","""event"",""trial"",""time""
""fullscreenenter"",""1"",""2227""
","""event"",""trial"",""time""
""fullscreenexit"",""2"",""10733""
","","","-1","","","12","13285","5722","&#9826;","elianto","#f73b6a7A","-1","-1","1","0","[]","0","0","3","","","","","","","",""
"pit-trial","76","652440","0.0-2.0-14.2-2.2","battery-v0.2","","""event"",""trial"",""time""
""fullscreenenter"",""1"",""2227""
""fullscreenexit"",""2"",""10733""
""blur"",""11"",""168454""
""focus"",""13"",""180382""
","""event"",""trial"",""time""
""blur"",""11"",""168454""
","""event"",""trial"",""time""
""focus"",""13"",""180382""
","""event"",""trial"",""time""
""fullscreenenter"",""1"",""2227""
","""event"",""trial"",""time""
""fullscreenexit"",""2"",""10733""
","","","-1","","","12","13285","5722","&#9826;","elianto","#f73b6a7A","-1","-1","1","0","[]","0","0","3","","","","","","","",""
"pit-trial","77","657306","0.0-2.0-14.2-3.2","battery-v0.2","","""event"",""trial"",""time""
""fullscreenenter"",""1"",""2227""
""fullscreenexit"",""2"",""10733""
""blur"",""11"",""168454""
""focus"",""13"",""180382""
","""event"",""trial"",""time""
""blur"",""11"",""168454""
","""event"",""trial"",""time""
""focus"",""13"",""180382""
","""event"",""trial"",""time""
""fullscreenenter"",""1"",""2227""
","""event"",""trial"",""time""
""fullscreenexit"",""2"",""10733""
","","","-1","","","12","13285","5722","&#9826;","elianto","#f73b6a7A","-1","-1","1","-10","[]","0","0","3","","","","","","","",""
"pit-trial","78","662167","0.0-2.0-14.2-4.2","battery-v0.2","","""event"",""trial"",""time""
""fullscreenenter"",""1"",""2227""
""fullscreenexit"",""2"",""10733""
""blur"",""11"",""168454""
""focus"",""13"",""180382""
","""event"",""trial"",""time""
""blur"",""11"",""168454""
","""event"",""trial"",""time""
""focus"",""13"",""180382""
","""event"",""trial"",""time""
""fullscreenenter"",""1"",""2227""
","""event"",""trial"",""time""
""fullscreenexit"",""2"",""10733""
","","","-1","","","12","13285","5722","&#9826;","elianto","#f73b6a7A","-1","-1","1","0","[]","0","0","3","","","","","","","",""
"pit-trial","79","667029","0.0-2.0-14.3-0.3","battery-v0.2","","""event"",""trial"",""time""
""fullscreenenter"",""1"",""2227""
""fullscreenexit"",""2"",""10733""
""blur"",""11"",""168454""
""focus"",""13"",""180382""
","""event"",""trial"",""time""
""blur"",""11"",""168454""
","""event"",""trial"",""time""
""focus"",""13"",""180382""
","""event"",""trial"",""time""
""fullscreenenter"",""1"",""2227""
","""event"",""trial"",""time""
""fullscreenexit"",""2"",""10733""
","","","-1","","","12","13285","5722","&#9826;","elianto","#f73b6a7A","-1","-1","1","0","[]","0","0","3","","","","","","","",""
"pit-trial","80","671898","0.0-2.0-14.3-1.3","battery-v0.2","","""event"",""trial"",""time""
""fullscreenenter"",""1"",""2227""
""fullscreenexit"",""2"",""10733""
""blur"",""11"",""168454""
""focus"",""13"",""180382""
","""event"",""trial"",""time""
""blur"",""11"",""168454""
","""event"",""trial"",""time""
""focus"",""13"",""180382""
","""event"",""trial"",""time""
""fullscreenenter"",""1"",""2227""
","""event"",""trial"",""time""
""fullscreenexit"",""2"",""10733""
","","","-1","","","12","13285","5722","&#9826;","elianto","#f73b6a7A","-1","-1","1","0","[]","0","0","3","","","","","","","",""
"pit-trial","81","676760","0.0-2.0-14.3-2.3","battery-v0.2","","""event"",""trial"",""time""
""fullscreenenter"",""1"",""2227""
""fullscreenexit"",""2"",""10733""
""blur"",""11"",""168454""
""focus"",""13"",""180382""
","""event"",""trial"",""time""
""blur"",""11"",""168454""
","""event"",""trial"",""time""
""focus"",""13"",""180382""
","""event"",""trial"",""time""
""fullscreenenter"",""1"",""2227""
","""event"",""trial"",""time""
""fullscreenexit"",""2"",""10733""
","","","-1","","","12","13285","5722","&#9826;","elianto","#f73b6a7A","-1","-1","1","0","[]","0","0","3","","","","","","","",""
"pit-trial","82","681625","0.0-2.0-14.3-3.3","battery-v0.2","","""event"",""trial"",""time""
""fullscreenenter"",""1"",""2227""
""fullscreenexit"",""2"",""10733""
""blur"",""11"",""168454""
""focus"",""13"",""180382""
","""event"",""trial"",""time""
""blur"",""11"",""168454""
","""event"",""trial"",""time""
""focus"",""13"",""180382""
","""event"",""trial"",""time""
""fullscreenenter"",""1"",""2227""
","""event"",""trial"",""time""
""fullscreenexit"",""2"",""10733""
","","","-1","","","12","13285","5722","&#9826;","elianto","#f73b6a7A","-1","-1","1","-10","[]","0","0","3","","","","","","","",""
"pit-trial","83","686484","0.0-2.0-14.3-4.3","battery-v0.2","","""event"",""trial"",""time""
""fullscreenenter"",""1"",""2227""
""fullscreenexit"",""2"",""10733""
""blur"",""11"",""168454""
""focus"",""13"",""180382""
","""event"",""trial"",""time""
""blur"",""11"",""168454""
","""event"",""trial"",""time""
""focus"",""13"",""180382""
","""event"",""trial"",""time""
""fullscreenenter"",""1"",""2227""
","""event"",""trial"",""time""
""fullscreenexit"",""2"",""10733""
","","","-1","","","12","13285","5722","&#9826;","elianto","#f73b6a7A","-1","-1","1","0","[]","0","0","3","","","","","","","",""
"call-function","84","686487","0.0-2.0-15.0","battery-v0.2","","""event"",""trial"",""time""
""fullscreenenter"",""1"",""2227""
""fullscreenexit"",""2"",""10733""
""blur"",""11"",""168454""
""focus"",""13"",""180382""
","""event"",""trial"",""time""
""blur"",""11"",""168454""
","""event"",""trial"",""time""
""focus"",""13"",""180382""
","""event"",""trial"",""time""
""fullscreenenter"",""1"",""2227""
","""event"",""trial"",""time""
""fullscreenexit"",""2"",""10733""
","","","","","","","","","","","","","","","","","","","","","","","","","","",""
"pit-instructions","85","768689","0.0-2.0-16.0","battery-v0.2","","""event"",""trial"",""time""
""fullscreenenter"",""1"",""2227""
""fullscreenexit"",""2"",""10733""
""blur"",""11"",""168454""
""focus"",""13"",""180382""
","""event"",""trial"",""time""
""blur"",""11"",""168454""
","""event"",""trial"",""time""
""focus"",""13"",""180382""
","""event"",""trial"",""time""
""fullscreenenter"",""1"",""2227""
","""event"",""trial"",""time""
""fullscreenexit"",""2"",""10733""
","","[{""page_index"":0,""viewing_time"":6450.299999952316},{""page_index"":1,""viewing_time"":8890.100000023842},{""page_index"":2,""viewing_time"":62220.60000002384},{""page_index"":3,""viewing_time"":4637.399999976158}]","82199.10000002384","","","","","","","","","","","","","","","","","","","","","","","",""
"pit-trial","86","772011","0.0-2.0-17.0-0.0","battery-v0.2","","""event"",""trial"",""time""
""fullscreenenter"",""1"",""2227""
""fullscreenexit"",""2"",""10733""
""blur"",""11"",""168454""
""focus"",""13"",""180382""
","""event"",""trial"",""time""
""blur"",""11"",""168454""
","""event"",""trial"",""time""
""focus"",""13"",""180382""
","""event"",""trial"",""time""
""fullscreenenter"",""1"",""2227""
","""event"",""trial"",""time""
""fullscreenexit"",""2"",""10733""
","","","462.40000009536743","","","12","13285","5722","&#9789;","elianto","#f73b6a7A"," "," ","1","0","[1313.1000000238419]","1","0","4","","","","","","","",""
"pit-trial","87","774945","0.0-2.0-17.0-1.0","battery-v0.2","","""event"",""trial"",""time""
""fullscreenenter"",""1"",""2227""
""fullscreenexit"",""2"",""10733""
""blur"",""11"",""168454""
""focus"",""13"",""180382""
","""event"",""trial"",""time""
""blur"",""11"",""168454""
","""event"",""trial"",""time""
""focus"",""13"",""180382""
","""event"",""trial"",""time""
""fullscreenenter"",""1"",""2227""
","""event"",""trial"",""time""
""fullscreenexit"",""2"",""10733""
","","","70.69999992847443","","","12","13285","5722","&#9789;","elianto","#f73b6a7A"," "," ","1","0","[926]","1","0","4","","","","","","","",""
"pit-trial","88","778124","0.0-2.0-17.0-2.0","battery-v0.2","","""event"",""trial"",""time""
""fullscreenenter"",""1"",""2227""
""fullscreenexit"",""2"",""10733""
""blur"",""11"",""168454""
""focus"",""13"",""180382""
","""event"",""trial"",""time""
""blur"",""11"",""168454""
","""event"",""trial"",""time""
""focus"",""13"",""180382""
","""event"",""trial"",""time""
""fullscreenenter"",""1"",""2227""
","""event"",""trial"",""time""
""fullscreenexit"",""2"",""10733""
","","","320.7000000476837","","","12","13285","5722","&#9789;","elianto","#f73b6a7A"," "," ","1","0","[629.5,1176.3999999761581,2913.600000023842]","3","0","4","","","","","","","",""
"pit-trial","89","781255","0.0-2.0-17.0-3.0","battery-v0.2","","""event"",""trial"",""time""
""fullscreenenter"",""1"",""2227""
""fullscreenexit"",""2"",""10733""
""blur"",""11"",""168454""
""focus"",""13"",""180382""
","""event"",""trial"",""time""
""blur"",""11"",""168454""
","""event"",""trial"",""time""
""focus"",""13"",""180382""
","""event"",""trial"",""time""
""fullscreenenter"",""1"",""2227""
","""event"",""trial"",""time""
""fullscreenexit"",""2"",""10733""
","","","263.2999999523163","","","12","13285","5722","&#9789;","elianto","#f73b6a7A"," "," ","1","-10","[1121.1999999284744,1617.6999999284744,3120]","3","0","4","","","","","","","",""
"pit-trial","90","784714","0.0-2.0-17.0-4.0","battery-v0.2","","""event"",""trial"",""time""
""fullscreenenter"",""1"",""2227""
""fullscreenexit"",""2"",""10733""
""blur"",""11"",""168454""
""focus"",""13"",""180382""
","""event"",""trial"",""time""
""blur"",""11"",""168454""
","""event"",""trial"",""time""
""focus"",""13"",""180382""
","""event"",""trial"",""time""
""fullscreenenter"",""1"",""2227""
","""event"",""trial"",""time""
""fullscreenexit"",""2"",""10733""
","","","591.3999999761581","","","12","13285","5722","&#9789;","elianto","#f73b6a7A"," "," ","1","0","[1450]","1","0","4","","","","","","","",""
"pit-trial","91","787807","0.0-2.0-17.1-0.1","battery-v0.2","","""event"",""trial"",""time""
""fullscreenenter"",""1"",""2227""
""fullscreenexit"",""2"",""10733""
""blur"",""11"",""168454""
""focus"",""13"",""180382""
","""event"",""trial"",""time""
""blur"",""11"",""168454""
","""event"",""trial"",""time""
""focus"",""13"",""180382""
","""event"",""trial"",""time""
""fullscreenenter"",""1"",""2227""
","""event"",""trial"",""time""
""fullscreenexit"",""2"",""10733""
","","","233.60000002384186","","","12","13285","5722","&#9789;","elianto","#f73b6a7A"," "," ","1","0","[344.39999997615814,1083.8999999761581,2291.600000023842,2788.5]","4","0","4","","","","","","","",""
"pit-trial","92","790771","0.0-2.0-17.1-1.1","battery-v0.2","","""event"",""trial"",""time""
""fullscreenenter"",""1"",""2227""
""fullscreenexit"",""2"",""10733""
""blur"",""11"",""168454""
""focus"",""13"",""180382""
","""event"",""trial"",""time""
""blur"",""11"",""168454""
","""event"",""trial"",""time""
""focus"",""13"",""180382""
","""event"",""trial"",""time""
""fullscreenenter"",""1"",""2227""
","""event"",""trial"",""time""
""fullscreenexit"",""2"",""10733""
","","","104.89999997615814","","","12","13285","5722","&#9789;","elianto","#f73b6a7A"," "," ","1","0","[956.9000000953674,1460,1762.5,2057.600000023842,2287.9000000953674,2619.4000000953674]","6","0","4","","","","","","","",""
"pit-trial","93","793866","0.0-2.0-17.1-2.1","battery-v0.2","","""event"",""trial"",""time""
""fullscreenenter"",""1"",""2227""
""fullscreenexit"",""2"",""10733""
""blur"",""11"",""168454""
""focus"",""13"",""180382""
","""event"",""trial"",""time""
""blur"",""11"",""168454""
","""event"",""trial"",""time""
""focus"",""13"",""180382""
","""event"",""trial"",""time""
""fullscreenenter"",""1"",""2227""
","""event"",""trial"",""time""
""fullscreenexit"",""2"",""10733""
","","","228.79999995231628","","","12","13285","5722","&#9789;","elianto","#f73b6a7A"," "," ","1","0","[367.60000002384186,1082.1000000238419,1739.3000000715256,2105.7000000476837]","4","0","4","","","","","","","",""
"pit-trial","94","796941","0.0-2.0-17.1-3.1","battery-v0.2","","""event"",""trial"",""time""
""fullscreenenter"",""1"",""2227""
""fullscreenexit"",""2"",""10733""
""blur"",""11"",""168454""
""focus"",""13"",""180382""
","""event"",""trial"",""time""
""blur"",""11"",""168454""
","""event"",""trial"",""time""
""focus"",""13"",""180382""
","""event"",""trial"",""time""
""fullscreenenter"",""1"",""2227""
","""event"",""trial"",""time""
""fullscreenexit"",""2"",""10733""
","","","207","","","12","13285","5722","&#9789;","elianto","#f73b6a7A"," "," ","1","-10","[1057.2999999523163,1526.6999999284744,2118.1999999284744]","3","0","4","","","","","","","",""
"pit-trial","95","800866","0.0-2.0-17.1-4.1","battery-v0.2","","""event"",""trial"",""time""
""fullscreenenter"",""1"",""2227""
""fullscreenexit"",""2"",""10733""
""blur"",""11"",""168454""
""focus"",""13"",""180382""
","""event"",""trial"",""time""
""blur"",""11"",""168454""
","""event"",""trial"",""time""
""focus"",""13"",""180382""
","""event"",""trial"",""time""
""fullscreenenter"",""1"",""2227""
","""event"",""trial"",""time""
""fullscreenexit"",""2"",""10733""
","","","1051.7000000476837","","","12","13285","5722","&#9789;","elianto","#f73b6a7A"," "," ","1","0","[1914.5,2375.2000000476837,2852.100000023842,3464.2999999523163]","4","0","4","","","","","","","",""
"pit-trial","96","803961","0.0-2.0-17.2-0.2","battery-v0.2","","""event"",""trial"",""time""
""fullscreenenter"",""1"",""2227""
""fullscreenexit"",""2"",""10733""
""blur"",""11"",""168454""
""focus"",""13"",""180382""
","""event"",""trial"",""time""
""blur"",""11"",""168454""
","""event"",""trial"",""time""
""focus"",""13"",""180382""
","""event"",""trial"",""time""
""fullscreenenter"",""1"",""2227""
","""event"",""trial"",""time""
""fullscreenexit"",""2"",""10733""
","","","235.10000002384186","","","12","13285","5722","&#9789;","elianto","#f73b6a7A"," "," ","1","0","[1086.8000000715256,2749.4000000953674]","2","0","4","","","","","","","",""
"pit-trial","97","807312","0.0-2.0-17.2-1.2","battery-v0.2","","""event"",""trial"",""time""
""fullscreenenter"",""1"",""2227""
""fullscreenexit"",""2"",""10733""
""blur"",""11"",""168454""
""focus"",""13"",""180382""
","""event"",""trial"",""time""
""blur"",""11"",""168454""
","""event"",""trial"",""time""
""focus"",""13"",""180382""
","""event"",""trial"",""time""
""fullscreenenter"",""1"",""2227""
","""event"",""trial"",""time""
""fullscreenexit"",""2"",""10733""
","","","493","","","12","13285","5722","&#9789;","elianto","#f73b6a7A"," "," ","1","0","[30.300000071525574,449.8000000715256,1345.8000000715256,1739.5]","4","0","4","","","","","","","",""
"pit-trial","98","810336","0.0-2.0-17.2-2.2","battery-v0.2","","""event"",""trial"",""time""
""fullscreenenter"",""1"",""2227""
""fullscreenexit"",""2"",""10733""
""blur"",""11"",""168454""
""focus"",""13"",""180382""
","""event"",""trial"",""time""
""blur"",""11"",""168454""
","""event"",""trial"",""time""
""focus"",""13"",""180382""
","""event"",""trial"",""time""
""fullscreenenter"",""1"",""2227""
","""event"",""trial"",""time""
""fullscreenexit"",""2"",""10733""
","","","164.69999992847443","","","12","13285","5722","&#9789;","elianto","#f73b6a7A"," "," ","1","0","[689.3999999761581,1015.5,1403.6000000238419,2319,2922.3000000715256]","5","0","4","","","","","","","",""
"pit-trial","99","813199","0.0-2.0-17.2-3.2","battery-v0.2","","""event"",""trial"",""time""
""fullscreenenter"",""1"",""2227""
""fullscreenexit"",""2"",""10733""
""blur"",""11"",""168454""
""focus"",""13"",""180382""
","""event"",""trial"",""time""
""blur"",""11"",""168454""
","""event"",""trial"",""time""
""focus"",""13"",""180382""
","""event"",""trial"",""time""
""fullscreenenter"",""1"",""2227""
","""event"",""trial"",""time""
""fullscreenexit"",""2"",""10733""
","","","1.5999999046325684","","","12","13285","5722","&#9789;","elianto","#f73b6a7A"," "," ","1","-10","[462.39999997615814,857.6999999284744,2301.5,2786.7999999523163]","4","0","4","","","","","","","",""
"pit-trial","100","816470","0.0-2.0-17.2-4.2","battery-v0.2","","""event"",""trial"",""time""
""fullscreenenter"",""1"",""2227""
""fullscreenexit"",""2"",""10733""
""blur"",""11"",""168454""
""focus"",""13"",""180382""
","""event"",""trial"",""time""
""blur"",""11"",""168454""
","""event"",""trial"",""time""
""focus"",""13"",""180382""
","""event"",""trial"",""time""
""fullscreenenter"",""1"",""2227""
","""event"",""trial"",""time""
""fullscreenexit"",""2"",""10733""
","","","413.7000000476837","","","12","13285","5722","&#9789;","elianto","#f73b6a7A"," "," ","1","0","[339.3000000715256,1267.8000000715256,1708.9000000953674,2206.4000000953674,2588.100000023842]","5","0","4","","","","","","","",""
"pit-trial","101","819721","0.0-2.0-17.3-0.3","battery-v0.2","","""event"",""trial"",""time""
""fullscreenenter"",""1"",""2227""
""fullscreenexit"",""2"",""10733""
""blur"",""11"",""168454""
""focus"",""13"",""180382""
","""event"",""trial"",""time""
""blur"",""11"",""168454""
","""event"",""trial"",""time""
""focus"",""13"",""180382""
","""event"",""trial"",""time""
""fullscreenenter"",""1"",""2227""
","""event"",""trial"",""time""
""fullscreenexit"",""2"",""10733""
","","","386.39999997615814","","","12","13285","5722","&#9789;","elianto","#f73b6a7A"," "," ","1","0","[148.30000007152557,772.2000000476837,1239.8999999761581,1888.7000000476837]","4","0","4","","","","","","","",""
"pit-trial","102","823128","0.0-2.0-17.3-1.3","battery-v0.2","","""event"",""trial"",""time""
""fullscreenenter"",""1"",""2227""
""fullscreenexit"",""2"",""10733""
""blur"",""11"",""168454""
""focus"",""13"",""180382""
","""event"",""trial"",""time""
""blur"",""11"",""168454""
","""event"",""trial"",""time""
""focus"",""13"",""180382""
","""event"",""trial"",""time""
""fullscreenenter"",""1"",""2227""
","""event"",""trial"",""time""
""fullscreenexit"",""2"",""10733""
","","","542.6000000238419","","","12","13285","5722","&#9789;","elianto","#f73b6a7A"," "," ","1","0","[239.59999990463257,713.5999999046326,1394.6999999284744,1805.2999999523163,2597.5999999046326]","5","0","4","","","","","","","",""
"pit-trial","103","826431","0.0-2.0-17.3-2.3","battery-v0.2","","""event"",""trial"",""time""
""fullscreenenter"",""1"",""2227""
""fullscreenexit"",""2"",""10733""
""blur"",""11"",""168454""
""focus"",""13"",""180382""
","""event"",""trial"",""time""
""blur"",""11"",""168454""
","""event"",""trial"",""time""
""focus"",""13"",""180382""
","""event"",""trial"",""time""
""fullscreenenter"",""1"",""2227""
","""event"",""trial"",""time""
""fullscreenexit"",""2"",""10733""
","","","444.10000002384186","","","12","13285","5722","&#9789;","elianto","#f73b6a7A"," "," ","1","0","[251.60000002384186,503.5,1294.6000000238419,2688.3000000715256,3018.7000000476837]","5","0","4","","","","","","","",""
"pit-trial","104","829566","0.0-2.0-17.3-3.3","battery-v0.2","","""event"",""trial"",""time""
""fullscreenenter"",""1"",""2227""
""fullscreenexit"",""2"",""10733""
""blur"",""11"",""168454""
""focus"",""13"",""180382""
","""event"",""trial"",""time""
""blur"",""11"",""168454""
","""event"",""trial"",""time""
""focus"",""13"",""180382""
","""event"",""trial"",""time""
""fullscreenenter"",""1"",""2227""
","""event"",""trial"",""time""
""fullscreenexit"",""2"",""10733""
","","","276.2000000476837","","","12","13285","5722","&#9789;","elianto","#f73b6a7A"," "," ","1","-10","[7.299999952316284,323.39999997615814,1128.8999999761581,1796.2999999523163,2239,2749]","6","0","4","","","","","","","",""
"pit-trial","105","832696","0.0-2.0-17.3-4.3","battery-v0.2","","""event"",""trial"",""time""
""fullscreenenter"",""1"",""2227""
""fullscreenexit"",""2"",""10733""
""blur"",""11"",""168454""
""focus"",""13"",""180382""
","""event"",""trial"",""time""
""blur"",""11"",""168454""
","""event"",""trial"",""time""
""focus"",""13"",""180382""
","""event"",""trial"",""time""
""fullscreenenter"",""1"",""2227""
","""event"",""trial"",""time""
""fullscreenexit"",""2"",""10733""
","","","264.3000000715256","","","12","13285","5722","&#9789;","elianto","#f73b6a7A"," "," ","1","0","[421.60000002384186,1115,1889.2000000476837,2433.600000023842,3003.7999999523163]","5","0","4","","","","","","","",""
"call-function","106","832698","0.0-2.0-18.0","battery-v0.2","","""event"",""trial"",""time""
""fullscreenenter"",""1"",""2227""
""fullscreenexit"",""2"",""10733""
""blur"",""11"",""168454""
""focus"",""13"",""180382""
","""event"",""trial"",""time""
""blur"",""11"",""168454""
","""event"",""trial"",""time""
""focus"",""13"",""180382""
","""event"",""trial"",""time""
""fullscreenenter"",""1"",""2227""
","""event"",""trial"",""time""
""fullscreenexit"",""2"",""10733""
","","","","","","","","","","","","","","","","","","","","","","","","","","",""
"pit-instructions","107","945691","0.0-2.0-19.0","battery-v0.2","","""event"",""trial"",""time""
""fullscreenenter"",""1"",""2227""
""fullscreenexit"",""2"",""10733""
""blur"",""11"",""168454""
""focus"",""13"",""180382""
","""event"",""trial"",""time""
""blur"",""11"",""168454""
","""event"",""trial"",""time""
""focus"",""13"",""180382""
","""event"",""trial"",""time""
""fullscreenenter"",""1"",""2227""
","""event"",""trial"",""time""
""fullscreenexit"",""2"",""10733""
","","[{""page_index"":0,""viewing_time"":9238.099999904633},{""page_index"":1,""viewing_time"":28265.800000071526},{""page_index"":2,""viewing_time"":9914.899999976158},{""page_index"":3,""viewing_time"":6116.200000047684},{""page_index"":4,""viewing_time"":7010.5},{""page_index"":5,""viewing_time"":8054},{""page_index"":6,""viewing_time"":6002},{""page_index"":7,""viewing_time"":34784.799999952316},{""page_index"":8,""viewing_time"":3605}]","112991.79999995232","","","","","","","","","","","","","","","","","","","","","","","",""
"pit-comprehension","108","950730","0.0-2.0-20.0-0.0","battery-v0.2","","""event"",""trial"",""time""
""fullscreenenter"",""1"",""2227""
""fullscreenexit"",""2"",""10733""
""blur"",""11"",""168454""
""focus"",""13"",""180382""
","""event"",""trial"",""time""
""blur"",""11"",""168454""
","""event"",""trial"",""time""
""focus"",""13"",""180382""
","""event"",""trial"",""time""
""fullscreenenter"",""1"",""2227""
","""event"",""trial"",""time""
""fullscreenexit"",""2"",""10733""
","","","5029.700000047684","[""SPACE""]","0","12","13285","5722","","","","","","","","","","","","","","","","","","",""
"pit-instructions","109","954333","0.0-2.0-20.0-1.0","battery-v0.2","","""event"",""trial"",""time""
""fullscreenenter"",""1"",""2227""
""fullscreenexit"",""2"",""10733""
""blur"",""11"",""168454""
""focus"",""13"",""180382""
","""event"",""trial"",""time""
""blur"",""11"",""168454""
","""event"",""trial"",""time""
""focus"",""13"",""180382""
","""event"",""trial"",""time""
""fullscreenenter"",""1"",""2227""
","""event"",""trial"",""time""
""fullscreenexit"",""2"",""10733""
","","[{""page_index"":0,""viewing_time"":3531.600000023842}]","3532.100000023842","","","","","","","","","","","","","","","","","","","","","","","",""
"pit-comprehension","110","993708","0.0-2.0-21.0-0.0","battery-v0.2","","""event"",""trial"",""time""
""fullscreenenter"",""1"",""2227""
""fullscreenexit"",""2"",""10733""
""blur"",""11"",""168454""
""focus"",""13"",""180382""
","""event"",""trial"",""time""
""blur"",""11"",""168454""
","""event"",""trial"",""time""
""focus"",""13"",""180382""
","""event"",""trial"",""time""
""fullscreenenter"",""1"",""2227""
","""event"",""trial"",""time""
""fullscreenexit"",""2"",""10733""
","","","39368.90000009537","[""10""]","0","12","13285","5722","","","","","","","","","","","","","","","","","","",""
"pit-instructions","111","995374","0.0-2.0-21.0-1.0","battery-v0.2","","""event"",""trial"",""time""
""fullscreenenter"",""1"",""2227""
""fullscreenexit"",""2"",""10733""
""blur"",""11"",""168454""
""focus"",""13"",""180382""
","""event"",""trial"",""time""
""blur"",""11"",""168454""
","""event"",""trial"",""time""
""focus"",""13"",""180382""
","""event"",""trial"",""time""
""fullscreenenter"",""1"",""2227""
","""event"",""trial"",""time""
""fullscreenexit"",""2"",""10733""
","","[{""page_index"":0,""viewing_time"":1603.5}]","1604","","","","","","","","","","","","","","","","","","","","","","","",""
"pit-comprehension","112","1002278","0.0-2.0-22.0-0.0","battery-v0.2","","""event"",""trial"",""time""
""fullscreenenter"",""1"",""2227""
""fullscreenexit"",""2"",""10733""
""blur"",""11"",""168454""
""focus"",""13"",""180382""
","""event"",""trial"",""time""
""blur"",""11"",""168454""
","""event"",""trial"",""time""
""focus"",""13"",""180382""
","""event"",""trial"",""time""
""fullscreenenter"",""1"",""2227""
","""event"",""trial"",""time""
""fullscreenexit"",""2"",""10733""
","","","6894","[""0""]","0","12","13285","5722","","","","","","","","","","","","","","","","","","",""
"pit-instructions","113","1005658","0.0-2.0-22.0-1.0","battery-v0.2","","""event"",""trial"",""time""
""fullscreenenter"",""1"",""2227""
""fullscreenexit"",""2"",""10733""
""blur"",""11"",""168454""
""focus"",""13"",""180382""
","""event"",""trial"",""time""
""blur"",""11"",""168454""
","""event"",""trial"",""time""
""focus"",""13"",""180382""
","""event"",""trial"",""time""
""fullscreenenter"",""1"",""2227""
","""event"",""trial"",""time""
""fullscreenexit"",""2"",""10733""
","","[{""page_index"":0,""viewing_time"":3322.5}]","3322.9000000953674","","","","","","","","","","","","","","","","","","","","","","","",""
"pit-comprehension","114","1016691","0.0-2.0-23.0-0.0","battery-v0.2","","""event"",""trial"",""time""
""fullscreenenter"",""1"",""2227""
""fullscreenexit"",""2"",""10733""
""blur"",""11"",""168454""
""focus"",""13"",""180382""
","""event"",""trial"",""time""
""blur"",""11"",""168454""
","""event"",""trial"",""time""
""focus"",""13"",""180382""
","""event"",""trial"",""time""
""fullscreenenter"",""1"",""2227""
","""event"",""trial"",""time""
""fullscreenexit"",""2"",""10733""
","","","11025.200000047684","[""True""]","0","12","13285","5722","","","","","","","","","","","","","","","","","","",""
"pit-instructions","115","1021694","0.0-2.0-23.0-1.0","battery-v0.2","","""event"",""trial"",""time""
""fullscreenenter"",""1"",""2227""
""fullscreenexit"",""2"",""10733""
""blur"",""11"",""168454""
""focus"",""13"",""180382""
","""event"",""trial"",""time""
""blur"",""11"",""168454""
","""event"",""trial"",""time""
""focus"",""13"",""180382""
","""event"",""trial"",""time""
""fullscreenenter"",""1"",""2227""
","""event"",""trial"",""time""
""fullscreenexit"",""2"",""10733""
","","[{""page_index"":0,""viewing_time"":4919.5}]","4921.299999952316","","","","","","","","","","","","","","","","","","","","","","","",""
"pit-comprehension","116","1029281","0.0-2.0-24.0-0.0","battery-v0.2","","""event"",""trial"",""time""
""fullscreenenter"",""1"",""2227""
""fullscreenexit"",""2"",""10733""
""blur"",""11"",""168454""
""focus"",""13"",""180382""
","""event"",""trial"",""time""
""blur"",""11"",""168454""
","""event"",""trial"",""time""
""focus"",""13"",""180382""
","""event"",""trial"",""time""
""fullscreenenter"",""1"",""2227""
","""event"",""trial"",""time""
""fullscreenexit"",""2"",""10733""
","","","7577.100000023842","[""True""]","0","12","13285","5722","","","","","","","","","","","","","","","","","","",""
"pit-instructions","117","1032257","0.0-2.0-24.0-1.0","battery-v0.2","","""event"",""trial"",""time""
""fullscreenenter"",""1"",""2227""
""fullscreenexit"",""2"",""10733""
""blur"",""11"",""168454""
""focus"",""13"",""180382""
","""event"",""trial"",""time""
""blur"",""11"",""168454""
","""event"",""trial"",""time""
""focus"",""13"",""180382""
","""event"",""trial"",""time""
""fullscreenenter"",""1"",""2227""
","""event"",""trial"",""time""
""fullscreenexit"",""2"",""10733""
","","[{""page_index"":0,""viewing_time"":2902.8000000715256}]","2903.5","","","","","","","","","","","","","","","","","","","","","","","",""
"pit-comprehension","118","1039254","0.0-2.0-25.0-0.0","battery-v0.2","","""event"",""trial"",""time""
""fullscreenenter"",""1"",""2227""
""fullscreenexit"",""2"",""10733""
""blur"",""11"",""168454""
""focus"",""13"",""180382""
","""event"",""trial"",""time""
""blur"",""11"",""168454""
","""event"",""trial"",""time""
""focus"",""13"",""180382""
","""event"",""trial"",""time""
""fullscreenenter"",""1"",""2227""
","""event"",""trial"",""time""
""fullscreenexit"",""2"",""10733""
","","","6989.099999904633","[""True""]","0","12","13285","5722","","","","","","","","","","","","","","","","","","",""
"pit-instructions","119","1043123","0.0-2.0-25.0-1.0","battery-v0.2","","""event"",""trial"",""time""
""fullscreenenter"",""1"",""2227""
""fullscreenexit"",""2"",""10733""
""blur"",""11"",""168454""
""focus"",""13"",""180382""
","""event"",""trial"",""time""
""blur"",""11"",""168454""
","""event"",""trial"",""time""
""focus"",""13"",""180382""
","""event"",""trial"",""time""
""fullscreenenter"",""1"",""2227""
","""event"",""trial"",""time""
""fullscreenexit"",""2"",""10733""
","","[{""page_index"":0,""viewing_time"":3807.9000000953674}]","3808.5","","","","","","","","","","","","","","","","","","","","","","","",""
"pit-comprehension","120","1047638","0.0-2.0-26.0-0.0","battery-v0.2","","""event"",""trial"",""time""
""fullscreenenter"",""1"",""2227""
""fullscreenexit"",""2"",""10733""
""blur"",""11"",""168454""
""focus"",""13"",""180382""
","""event"",""trial"",""time""
""blur"",""11"",""168454""
","""event"",""trial"",""time""
""focus"",""13"",""180382""
","""event"",""trial"",""time""
""fullscreenenter"",""1"",""2227""
","""event"",""trial"",""time""
""fullscreenexit"",""2"",""10733""
","","","4509.200000047684","[""False""]","0","12","13285","5722","","","","","","","","","","","","","","","","","","",""
"pit-instructions","121","1048925","0.0-2.0-26.0-1.0","battery-v0.2","","""event"",""trial"",""time""
""fullscreenenter"",""1"",""2227""
""fullscreenexit"",""2"",""10733""
""blur"",""11"",""168454""
""focus"",""13"",""180382""
","""event"",""trial"",""time""
""blur"",""11"",""168454""
","""event"",""trial"",""time""
""focus"",""13"",""180382""
","""event"",""trial"",""time""
""fullscreenenter"",""1"",""2227""
","""event"",""trial"",""time""
""fullscreenexit"",""2"",""10733""
","","[{""page_index"":0,""viewing_time"":1223.6000000238419}]","1224.2000000476837","","","","","","","","","","","","","","","","","","","","","","","",""
"pit-instructions","122","1075557","0.0-3.0","battery-v0.2","","""event"",""trial"",""time""
""fullscreenenter"",""1"",""2227""
""fullscreenexit"",""2"",""10733""
""blur"",""11"",""168454""
""focus"",""13"",""180382""
","""event"",""trial"",""time""
""blur"",""11"",""168454""
","""event"",""trial"",""time""
""focus"",""13"",""180382""
","""event"",""trial"",""time""
""fullscreenenter"",""1"",""2227""
","""event"",""trial"",""time""
""fullscreenexit"",""2"",""10733""
","","[{""page_index"":0,""viewing_time"":3792},{""page_index"":1,""viewing_time"":10214.299999952316},{""page_index"":2,""viewing_time"":12619.5}]","26626.299999952316","","","","","","","","","","","","","","","","","","","","","","","",""
"pit-trial","123","1079477","0.0-4.0","battery-v0.2","","""event"",""trial"",""time""
""fullscreenenter"",""1"",""2227""
""fullscreenexit"",""2"",""10733""
""blur"",""11"",""168454""
""focus"",""13"",""180382""
","""event"",""trial"",""time""
""blur"",""11"",""168454""
","""event"",""trial"",""time""
""focus"",""13"",""180382""
","""event"",""trial"",""time""
""fullscreenenter"",""1"",""2227""
","""event"",""trial"",""time""
""fullscreenexit"",""2"",""10733""
","","","1054.3000000715256","","","12","13285","5722","&#9733;","elianto","#3366ff99","-1"," ","0","0","[1908.2000000476837]","1","1","","","13285","1","2","2","win","no-go","0"
"pit-trial","124","1083535","0.0-5.0","battery-v0.2","","""event"",""trial"",""time""
""fullscreenenter"",""1"",""2227""
""fullscreenexit"",""2"",""10733""
""blur"",""11"",""168454""
""focus"",""13"",""180382""
","""event"",""trial"",""time""
""blur"",""11"",""168454""
","""event"",""trial"",""time""
""focus"",""13"",""180382""
","""event"",""trial"",""time""
""fullscreenenter"",""1"",""2227""
","""event"",""trial"",""time""
""fullscreenexit"",""2"",""10733""
","","","1193.3000000715256","","","12","13285","5722","&#9728;","elianto","#f73b6a7A","-1"," ","0","-10","[2043.5]","1","1","","","13285","2","0","4","lose","no-go","0"
"pit-trial","125","1087612","0.0-6.0","battery-v0.2","","""event"",""trial"",""time""
""fullscreenenter"",""1"",""2227""
""fullscreenexit"",""2"",""10733""
""blur"",""11"",""168454""
""focus"",""13"",""180382""
","""event"",""trial"",""time""
""blur"",""11"",""168454""
","""event"",""trial"",""time""
""focus"",""13"",""180382""
","""event"",""trial"",""time""
""fullscreenenter"",""1"",""2227""
","""event"",""trial"",""time""
""fullscreenexit"",""2"",""10733""
","","","1207.3999999761581","","","12","13285","5722","&#9752;","elianto","#f73b6a7A"," "," ","1","-10","[2060]","1","1","","","13285","3","3","3","lose","go","1"
"pit-trial","126","1091041","0.0-7.0","battery-v0.2","","""event"",""trial"",""time""
""fullscreenenter"",""1"",""2227""
""fullscreenexit"",""2"",""10733""
""blur"",""11"",""168454""
""focus"",""13"",""180382""
","""event"",""trial"",""time""
""blur"",""11"",""168454""
","""event"",""trial"",""time""
""focus"",""13"",""180382""
","""event"",""trial"",""time""
""fullscreenenter"",""1"",""2227""
","""event"",""trial"",""time""
""fullscreenexit"",""2"",""10733""
","","","567.1999999284744","","","12","13285","5722","&#9730;","elianto","#3366ff99"," "," ","1","+10","[1422.7999999523163,2030.8999999761581,2203.899999976158,2915.899999976158]","4","1","","","13285","4","1","1","win","go","0"
"pit-trial","127","1094977","0.0-8.0","battery-v0.2","","""event"",""trial"",""time""
""fullscreenenter"",""1"",""2227""
""fullscreenexit"",""2"",""10733""
""blur"",""11"",""168454""
""focus"",""13"",""180382""
","""event"",""trial"",""time""
""blur"",""11"",""168454""
","""event"",""trial"",""time""
""focus"",""13"",""180382""
","""event"",""trial"",""time""
""fullscreenenter"",""1"",""2227""
","""event"",""trial"",""time""
""fullscreenexit"",""2"",""10733""
","","","1062.6000000238419","","","12","13285","5722","&#9730;","elianto","#3366ff99"," "," ","1","+10","[1919.3000000715256]","1","1","","","13285","5","1","1","win","go","0"
"pit-trial","128","1099841","0.0-9.0","battery-v0.2","","""event"",""trial"",""time""
""fullscreenenter"",""1"",""2227""
""fullscreenexit"",""2"",""10733""
""blur"",""11"",""168454""
""focus"",""13"",""180382""
","""event"",""trial"",""time""
""blur"",""11"",""168454""
","""event"",""trial"",""time""
""focus"",""13"",""180382""
","""event"",""trial"",""time""
""fullscreenenter"",""1"",""2227""
","""event"",""trial"",""time""
""fullscreenexit"",""2"",""10733""
","","","-1","","","12","13285","5722","&#9752;","elianto","#f73b6a7A"," ","-1","0","-10","[]","0","1","","","13285","6","3","3","lose","go","0"
"pit-trial","129","1104709","0.0-10.0","battery-v0.2","","""event"",""trial"",""time""
""fullscreenenter"",""1"",""2227""
""fullscreenexit"",""2"",""10733""
""blur"",""11"",""168454""
""focus"",""13"",""180382""
","""event"",""trial"",""time""
""blur"",""11"",""168454""
","""event"",""trial"",""time""
""focus"",""13"",""180382""
","""event"",""trial"",""time""
""fullscreenenter"",""1"",""2227""
","""event"",""trial"",""time""
""fullscreenexit"",""2"",""10733""
","","","-1","","","12","13285","5722","&#9728;","elianto","#f73b6a7A","-1","-1","1","0","[]","0","1","","","13285","7","0","4","lose","no-go","0"
"pit-trial","130","1109570","0.0-11.0","battery-v0.2","","""event"",""trial"",""time""
""fullscreenenter"",""1"",""2227""
""fullscreenexit"",""2"",""10733""
""blur"",""11"",""168454""
""focus"",""13"",""180382""
","""event"",""trial"",""time""
""blur"",""11"",""168454""
","""event"",""trial"",""time""
""focus"",""13"",""180382""
","""event"",""trial"",""time""
""fullscreenenter"",""1"",""2227""
","""event"",""trial"",""time""
""fullscreenexit"",""2"",""10733""
","","","-1","","","12","13285","5722","&#9733;","elianto","#3366ff99","-1","-1","1","0","[]","0","1","","","13285","8","2","2","win","no-go","1"
"pit-trial","131","1114429","0.0-12.0","battery-v0.2","","""event"",""trial"",""time""
""fullscreenenter"",""1"",""2227""
""fullscreenexit"",""2"",""10733""
""blur"",""11"",""168454""
""focus"",""13"",""180382""
","""event"",""trial"",""time""
""blur"",""11"",""168454""
","""event"",""trial"",""time""
""focus"",""13"",""180382""
","""event"",""trial"",""time""
""fullscreenenter"",""1"",""2227""
","""event"",""trial"",""time""
""fullscreenexit"",""2"",""10733""
","","","-1","","","12","13285","5722","&#9728;","elianto","#f73b6a7A","-1","-1","1","0","[]","0","1","","","13285","9","0","4","lose","no-go","0"
"pit-trial","132","1119304","0.0-13.0","battery-v0.2","","""event"",""trial"",""time""
""fullscreenenter"",""1"",""2227""
""fullscreenexit"",""2"",""10733""
""blur"",""11"",""168454""
""focus"",""13"",""180382""
","""event"",""trial"",""time""
""blur"",""11"",""168454""
","""event"",""trial"",""time""
""focus"",""13"",""180382""
","""event"",""trial"",""time""
""fullscreenenter"",""1"",""2227""
","""event"",""trial"",""time""
""fullscreenexit"",""2"",""10733""
","","","-1","","","12","13285","5722","&#9733;","elianto","#3366ff99","-1","-1","1","+10","[]","0","1","","","13285","10","2","2","win","no-go","0"
"pit-trial","133","1123330","0.0-14.0","battery-v0.2","","""event"",""trial"",""time""
""fullscreenenter"",""1"",""2227""
""fullscreenexit"",""2"",""10733""
""blur"",""11"",""168454""
""focus"",""13"",""180382""
","""event"",""trial"",""time""
""blur"",""11"",""168454""
","""event"",""trial"",""time""
""focus"",""13"",""180382""
","""event"",""trial"",""time""
""fullscreenenter"",""1"",""2227""
","""event"",""trial"",""time""
""fullscreenexit"",""2"",""10733""
","","","1157.5","","","12","13285","5722","&#9752;","elianto","#f73b6a7A"," "," ","1","0","[2012.4000000953674]","1","1","","","13285","11","3","3","lose","go","0"
"pit-trial","134","1127789","0.0-15.0","battery-v0.2","","""event"",""trial"",""time""
""fullscreenenter"",""1"",""2227""
""fullscreenexit"",""2"",""10733""
""blur"",""11"",""168454""
""focus"",""13"",""180382""
","""event"",""trial"",""time""
""blur"",""11"",""168454""
","""event"",""trial"",""time""
""focus"",""13"",""180382""
","""event"",""trial"",""time""
""fullscreenenter"",""1"",""2227""
","""event"",""trial"",""time""
""fullscreenexit"",""2"",""10733""
","","","1601.7999999523163","","","12","13285","5722","&#9730;","elianto","#3366ff99"," "," ","1","+10","[2452.399999976158]","1","1","","","13285","12","1","1","win","go","0"
"pit-trial","135","1132654","0.0-16.0","battery-v0.2","","""event"",""trial"",""time""
""fullscreenenter"",""1"",""2227""
""fullscreenexit"",""2"",""10733""
""blur"",""11"",""168454""
""focus"",""13"",""180382""
","""event"",""trial"",""time""
""blur"",""11"",""168454""
","""event"",""trial"",""time""
""focus"",""13"",""180382""
","""event"",""trial"",""time""
""fullscreenenter"",""1"",""2227""
","""event"",""trial"",""time""
""fullscreenexit"",""2"",""10733""
","","","-1","","","12","13285","5722","&#9752;","elianto","#f73b6a7A"," ","-1","0","-10","[4415.700000047684]","1","1","","","13285","13","3","3","lose","go","0"
"pit-trial","136","1137512","0.0-17.0","battery-v0.2","","""event"",""trial"",""time""
""fullscreenenter"",""1"",""2227""
""fullscreenexit"",""2"",""10733""
""blur"",""11"",""168454""
""focus"",""13"",""180382""
","""event"",""trial"",""time""
""blur"",""11"",""168454""
","""event"",""trial"",""time""
""focus"",""13"",""180382""
","""event"",""trial"",""time""
""fullscreenenter"",""1"",""2227""
","""event"",""trial"",""time""
""fullscreenexit"",""2"",""10733""
","","","-1","","","12","13285","5722","&#9733;","elianto","#3366ff99","-1","-1","1","+10","[]","0","1","","","13285","14","2","2","win","no-go","0"
"pit-trial","137","1140982","0.0-18.0","battery-v0.2","","""event"",""trial"",""time""
""fullscreenenter"",""1"",""2227""
""fullscreenexit"",""2"",""10733""
""blur"",""11"",""168454""
""focus"",""13"",""180382""
","""event"",""trial"",""time""
""blur"",""11"",""168454""
","""event"",""trial"",""time""
""focus"",""13"",""180382""
","""event"",""trial"",""time""
""fullscreenenter"",""1"",""2227""
","""event"",""trial"",""time""
""fullscreenexit"",""2"",""10733""
","","","610.6999999284744","","","12","13285","5722","&#9728;","elianto","#f73b6a7A","-1"," ","0","-10","[1462.0999999046326,2461.7999999523163]","2","1","","","13285","15","0","4","lose","no-go","0"
"pit-trial","138","1145062","0.0-19.0","battery-v0.2","","""event"",""trial"",""time""
""fullscreenenter"",""1"",""2227""
""fullscreenexit"",""2"",""10733""
""blur"",""11"",""168454""
""focus"",""13"",""180382""
","""event"",""trial"",""time""
""blur"",""11"",""168454""
","""event"",""trial"",""time""
""focus"",""13"",""180382""
","""event"",""trial"",""time""
""fullscreenenter"",""1"",""2227""
","""event"",""trial"",""time""
""fullscreenexit"",""2"",""10733""
","","","1223.6000000238419","","","12","13285","5722","&#9730;","elianto","#3366ff99"," "," ","1","+10","[2076]","1","1","","","13285","16","1","1","win","go","0"
"pit-trial","139","1149930","0.0-20.0","battery-v0.2","","""event"",""trial"",""time""
""fullscreenenter"",""1"",""2227""
""fullscreenexit"",""2"",""10733""
""blur"",""11"",""168454""
""focus"",""13"",""180382""
","""event"",""trial"",""time""
""blur"",""11"",""168454""
","""event"",""trial"",""time""
""focus"",""13"",""180382""
","""event"",""trial"",""time""
""fullscreenenter"",""1"",""2227""
","""event"",""trial"",""time""
""fullscreenexit"",""2"",""10733""
","","","-1","","","12","13285","5722","&#9733;","elianto","#3366ff99","-1","-1","1","0","[]","0","1","","","13285","17","2","2","win","no-go","1"
"pit-trial","140","1154789","0.0-21.0","battery-v0.2","","""event"",""trial"",""time""
""fullscreenenter"",""1"",""2227""
""fullscreenexit"",""2"",""10733""
""blur"",""11"",""168454""
""focus"",""13"",""180382""
","""event"",""trial"",""time""
""blur"",""11"",""168454""
","""event"",""trial"",""time""
""focus"",""13"",""180382""
","""event"",""trial"",""time""
""fullscreenenter"",""1"",""2227""
","""event"",""trial"",""time""
""fullscreenexit"",""2"",""10733""
","","","-1","","","12","13285","5722","&#9752;","elianto","#f73b6a7A"," ","-1","0","-10","[]","0","1","","","13285","18","3","3","lose","go","0"
"pit-trial","141","1159642","0.0-22.0","battery-v0.2","","""event"",""trial"",""time""
""fullscreenenter"",""1"",""2227""
""fullscreenexit"",""2"",""10733""
""blur"",""11"",""168454""
""focus"",""13"",""180382""
","""event"",""trial"",""time""
""blur"",""11"",""168454""
","""event"",""trial"",""time""
""focus"",""13"",""180382""
","""event"",""trial"",""time""
""fullscreenenter"",""1"",""2227""
","""event"",""trial"",""time""
""fullscreenexit"",""2"",""10733""
","","","-1","","","12","13285","5722","&#9728;","elianto","#f73b6a7A","-1","-1","1","0","[]","0","1","","","13285","19","0","4","lose","no-go","0"
"pit-trial","142","1163974","0.0-23.0","battery-v0.2","","""event"",""trial"",""time""
""fullscreenenter"",""1"",""2227""
""fullscreenexit"",""2"",""10733""
""blur"",""11"",""168454""
""focus"",""13"",""180382""
","""event"",""trial"",""time""
""blur"",""11"",""168454""
","""event"",""trial"",""time""
""focus"",""13"",""180382""
","""event"",""trial"",""time""
""fullscreenenter"",""1"",""2227""
","""event"",""trial"",""time""
""fullscreenexit"",""2"",""10733""
","","","1472.6000000238419","","","12","13285","5722","&#9730;","elianto","#3366ff99"," "," ","1","+10","[2323.100000023842]","1","1","","","13285","20","1","1","win","go","0"
"pit-instructions","143","1187564","0.0-24.0","battery-v0.2","","""event"",""trial"",""time""
""fullscreenenter"",""1"",""2227""
""fullscreenexit"",""2"",""10733""
""blur"",""11"",""168454""
""focus"",""13"",""180382""
","""event"",""trial"",""time""
""blur"",""11"",""168454""
","""event"",""trial"",""time""
""focus"",""13"",""180382""
","""event"",""trial"",""time""
""fullscreenenter"",""1"",""2227""
","""event"",""trial"",""time""
""fullscreenexit"",""2"",""10733""
","","[{""page_index"":0,""viewing_time"":7703.900000095367},{""page_index"":1,""viewing_time"":15881.299999952316}]","23586","","","","","","","","","","","","","","","","","","","","","","","",""
"pit-trial","144","1191740","0.0-25.0","battery-v0.2","","""event"",""trial"",""time""
""fullscreenenter"",""1"",""2227""
""fullscreenexit"",""2"",""10733""
""blur"",""11"",""168454""
""focus"",""13"",""180382""
","""event"",""trial"",""time""
""blur"",""11"",""168454""
","""event"",""trial"",""time""
""focus"",""13"",""180382""
","""event"",""trial"",""time""
""fullscreenenter"",""1"",""2227""
","""event"",""trial"",""time""
""fullscreenexit"",""2"",""10733""
","","","1298.8000000715256","","","12","13285","5722","y","elianto","#f73b6a7A"," "," ","1","-10","[2152.2000000476837]","1","2","","","13285","21","2","3","lose","go","1"
"pit-trial","145","1195583","0.0-26.0","battery-v0.2","","""event"",""trial"",""time""
""fullscreenenter"",""1"",""2227""
""fullscreenexit"",""2"",""10733""
""blur"",""11"",""168454""
""focus"",""13"",""180382""
","""event"",""trial"",""time""
""blur"",""11"",""168454""
","""event"",""trial"",""time""
""focus"",""13"",""180382""
","""event"",""trial"",""time""
""fullscreenenter"",""1"",""2227""
","""event"",""trial"",""time""
""fullscreenexit"",""2"",""10733""
","","","985","","","12","13285","5722","r","elianto","#3366ff99","-1"," ","0","0","[1835.5]","1","2","","","13285","22","1","2","win","no-go","0"
"pit-trial","146","1200455","0.0-27.0","battery-v0.2","","""event"",""trial"",""time""
""fullscreenenter"",""1"",""2227""
""fullscreenexit"",""2"",""10733""
""blur"",""11"",""168454""
""focus"",""13"",""180382""
","""event"",""trial"",""time""
""blur"",""11"",""168454""
","""event"",""trial"",""time""
""focus"",""13"",""180382""
","""event"",""trial"",""time""
""fullscreenenter"",""1"",""2227""
","""event"",""trial"",""time""
""fullscreenexit"",""2"",""10733""
","","","-1","","","12","13285","5722","h","elianto","#f73b6a7A","-1","-1","1","0","[]","0","2","","","13285","23","3","4","lose","no-go","0"
"pit-trial","147","1204053","0.0-28.0","battery-v0.2","","""event"",""trial"",""time""
""fullscreenenter"",""1"",""2227""
""fullscreenexit"",""2"",""10733""
""blur"",""11"",""168454""
""focus"",""13"",""180382""
","""event"",""trial"",""time""
""blur"",""11"",""168454""
","""event"",""trial"",""time""
""focus"",""13"",""180382""
","""event"",""trial"",""time""
""fullscreenenter"",""1"",""2227""
","""event"",""trial"",""time""
""fullscreenexit"",""2"",""10733""
","","","727.5","","","12","13285","5722","m","elianto","#f73b6a7A"," "," ","1","0","[1586.6000000238419]","1","2","","","13285","24","0","3","lose","go","0"
"pit-trial","148","1208920","0.0-29.0","battery-v0.2","","""event"",""trial"",""time""
""fullscreenenter"",""1"",""2227""
""fullscreenexit"",""2"",""10733""
""blur"",""11"",""168454""
""focus"",""13"",""180382""
","""event"",""trial"",""time""
""blur"",""11"",""168454""
","""event"",""trial"",""time""
""focus"",""13"",""180382""
","""event"",""trial"",""time""
""fullscreenenter"",""1"",""2227""
","""event"",""trial"",""time""
""fullscreenexit"",""2"",""10733""
","","","-1","","","12","13285","5722","h","elianto","#f73b6a7A","-1","-1","1","0","[]","0","2","","","13285","25","3","4","lose","no-go","0"
"pit-trial","149","1212859","0.0-30.0","battery-v0.2","","""event"",""trial"",""time""
""fullscreenenter"",""1"",""2227""
""fullscreenexit"",""2"",""10733""
""blur"",""11"",""168454""
""focus"",""13"",""180382""
","""event"",""trial"",""time""
""blur"",""11"",""168454""
","""event"",""trial"",""time""
""focus"",""13"",""180382""
","""event"",""trial"",""time""
""fullscreenenter"",""1"",""2227""
","""event"",""trial"",""time""
""fullscreenexit"",""2"",""10733""
","","","1078.7000000476837","","","12","13285","5722","r","elianto","#3366ff99","-1"," ","0","0","[1930.6000000238419]","1","2","","","13285","26","1","2","win","no-go","0"
"pit-trial","150","1216235","0.0-31.0","battery-v0.2","","""event"",""trial"",""time""
""fullscreenenter"",""1"",""2227""
""fullscreenexit"",""2"",""10733""
""blur"",""11"",""168454""
""focus"",""13"",""180382""
","""event"",""trial"",""time""
""blur"",""11"",""168454""
","""event"",""trial"",""time""
""focus"",""13"",""180382""
","""event"",""trial"",""time""
""fullscreenenter"",""1"",""2227""
","""event"",""trial"",""time""
""fullscreenexit"",""2"",""10733""
","","","515.6999999284744","","","12","13285","5722","m","elianto","#f73b6a7A"," "," ","1","0","[1370.0999999046326]","1","2","","","13285","27","0","3","lose","go","0"
"pit-trial","151","1219592","0.0-32.0","battery-v0.2","","""event"",""trial"",""time""
""fullscreenenter"",""1"",""2227""
""fullscreenexit"",""2"",""10733""
""blur"",""11"",""168454""
""focus"",""13"",""180382""
","""event"",""trial"",""time""
""blur"",""11"",""168454""
","""event"",""trial"",""time""
""focus"",""13"",""180382""
","""event"",""trial"",""time""
""fullscreenenter"",""1"",""2227""
","""event"",""trial"",""time""
""fullscreenexit"",""2"",""10733""
","","","494.5","","","12","13285","5722","y","elianto","#f73b6a7A"," "," ","1","-10","[1346.3999999761581]","1","2","","","13285","28","2","3","lose","go","1"
"pit-trial","152","1224450","0.0-33.0","battery-v0.2","","""event"",""trial"",""time""
""fullscreenenter"",""1"",""2227""
""fullscreenexit"",""2"",""10733""
""blur"",""11"",""168454""
""focus"",""13"",""180382""
","""event"",""trial"",""time""
""blur"",""11"",""168454""
","""event"",""trial"",""time""
""focus"",""13"",""180382""
","""event"",""trial"",""time""
""fullscreenenter"",""1"",""2227""
","""event"",""trial"",""time""
""fullscreenexit"",""2"",""10733""
","","","-1","","","12","13285","5722","r","elianto","#3366ff99","-1","-1","1","0","[]","0","2","","","13285","29","1","2","win","no-go","1"
"pit-trial","153","1227882","0.0-34.0","battery-v0.2","","""event"",""trial"",""time""
""fullscreenenter"",""1"",""2227""
""fullscreenexit"",""2"",""10733""
""blur"",""11"",""168454""
""focus"",""13"",""180382""
","""event"",""trial"",""time""
""blur"",""11"",""168454""
","""event"",""trial"",""time""
""focus"",""13"",""180382""
","""event"",""trial"",""time""
""fullscreenenter"",""1"",""2227""
","""event"",""trial"",""time""
""fullscreenexit"",""2"",""10733""
","","","570.1000000238419","","","12","13285","5722","y","elianto","#f73b6a7A"," "," ","1","0","[1422.2999999523163]","1","2","","","13285","30","2","3","lose","go","0"
"pit-trial","154","1231471","0.0-35.0","battery-v0.2","","""event"",""trial"",""time""
""fullscreenenter"",""1"",""2227""
""fullscreenexit"",""2"",""10733""
""blur"",""11"",""168454""
""focus"",""13"",""180382""
","""event"",""trial"",""time""
""blur"",""11"",""168454""
","""event"",""trial"",""time""
""focus"",""13"",""180382""
","""event"",""trial"",""time""
""fullscreenenter"",""1"",""2227""
","""event"",""trial"",""time""
""fullscreenexit"",""2"",""10733""
","","","732.7000000476837","","","12","13285","5722","m","elianto","#f73b6a7A"," "," ","1","0","[1585]","1","2","","","13285","31","0","3","lose","go","0"
