"trial_type","trial_index","time_elapsed","internal_node_id","task_version","subject_id","interactions","blur_events","focus_events","fullscreenenter_events","fullscreenexit_events","success","view_history","rt","responses","num_errors","age","subject","participantId","rune","rune_set","hex","correct","choice","accuracy","outcome","keys","total_keys","block","practice","value","sub","trial","stimulus","robot","valence","action","sham"
"pavlovia","0","26","0.0-0.0","battery-v0.2","","""event"",""trial"",""time""
""fullscreenenter"",""1"",""1701""
","
","
","""event"",""trial"",""time""
""fullscreenenter"",""1"",""1701""
","
","","","","","","","","","","","","","","","","","","","","","","","","","","",""
"fullscreen","1","2688","0.0-1.0","battery-v0.2","","""event"",""trial"",""time""
""fullscreenenter"",""1"",""1701""
","
","
","""event"",""trial"",""time""
""fullscreenenter"",""1"",""1701""
","
","true","","","","","","","","","","","","","","","","","","","","","","","","","",""
"pit-instructions","2","6226","0.0-2.0-0.0","battery-v0.2","","""event"",""trial"",""time""
""fullscreenenter"",""1"",""1701""
","
","
","""event"",""trial"",""time""
""fullscreenenter"",""1"",""1701""
","
","","[{""page_index"":0,""viewing_time"":3532.5999999940395}]","3534.7999999970198","","","","","","","","","","","","","","","","","","","","","","","",""
"pit-comprehension","3","9727","0.0-2.0-1.0-0.0","battery-v0.2","","""event"",""trial"",""time""
""fullscreenenter"",""1"",""1701""
","
","
","""event"",""trial"",""time""
""fullscreenenter"",""1"",""1701""
","
","","","3494.2000000029802","[""shark""]","0","19","10373","4280","","","","","","","","","","","","","","","","","","",""
"pit-instructions","4","10679","0.0-2.0-1.0-1.0","battery-v0.2","","""event"",""trial"",""time""
""fullscreenenter"",""1"",""1701""
","
","
","""event"",""trial"",""time""
""fullscreenenter"",""1"",""1701""
","
","","[{""page_index"":0,""viewing_time"":942.7000000029802}]","943","","","","","","","","","","","","","","","","","","","","","","","",""
"pit-comprehension","5","12932","0.0-2.0-2.0-0.0","battery-v0.2","","""event"",""trial"",""time""
""fullscreenenter"",""1"",""1701""
","
","
","""event"",""trial"",""time""
""fullscreenenter"",""1"",""1701""
","
","","","2249.0999999940395","[""tiger""]","0","19","10373","4280","","","","","","","","","","","","","","","","","","",""
"pit-instructions","6","13653","0.0-2.0-2.0-1.0","battery-v0.2","","""event"",""trial"",""time""
""fullscreenenter"",""1"",""1701""
","
","
","""event"",""trial"",""time""
""fullscreenenter"",""1"",""1701""
","
","","[{""page_index"":0,""viewing_time"":717.5999999940395}]","717.7999999970198","","","","","","","","","","","","","","","","","","","","","","","",""
"pit-instructions","7","360394","0.0-2.0-3.0","battery-v0.2","","""event"",""trial"",""time""
""fullscreenenter"",""1"",""1701""
","
","
","""event"",""trial"",""time""
""fullscreenenter"",""1"",""1701""
","
","","[{""page_index"":0,""viewing_time"":14610.5},{""page_index"":1,""viewing_time"":7408.4000000059605},{""page_index"":2,""viewing_time"":6803.70000000298},{""page_index"":3,""viewing_time"":5488.20000000298},{""page_index"":4,""viewing_time"":251823.29999999702},{""page_index"":5,""viewing_time"":6083},{""page_index"":6,""viewing_time"":6307.899999991059},{""page_index"":7,""viewing_time"":6411.20000000298},{""page_index"":8,""viewing_time"":6378.79999999702},{""page_index"":9,""viewing_time"":8119.20000000298},{""page_index"":10,""viewing_time"":7427},{""page_index"":11,""viewing_time"":7778.29999999702},{""page_index"":12,""viewing_time"":6668.300000011921},{""page_index"":13,""viewing_time"":5425.399999991059}]","346733.60000000894","","","","","","","","","","","","","","","","","","","","","","","",""
"pit-trial","8","363934","0.0-2.0-4.0-0.0","battery-v0.2","","""event"",""trial"",""time""
""fullscreenenter"",""1"",""1701""
","
","
","""event"",""trial"",""time""
""fullscreenenter"",""1"",""1701""
","
","","","674.2999999970198","","","19","10373","4280","&#9784;","elianto","#FFFFF080"," "," ","1","&#10004","[1529.1000000089407]","1","0","0","","","","","","","",""
"pit-trial","9","367448","0.0-2.0-4.1-0.1","battery-v0.2","","""event"",""trial"",""time""
""fullscreenenter"",""1"",""1701""
","
","
","""event"",""trial"",""time""
""fullscreenenter"",""1"",""1701""
","
","","","651.7000000029802","","","19","10373","4280","&#9784;","elianto","#FFFFF080"," "," ","1","&#10004","[1503.4000000059605]","1","0","0","","","","","","","",""
"pit-trial","10","370863","0.0-2.0-4.2-0.2","battery-v0.2","","""event"",""trial"",""time""
""fullscreenenter"",""1"",""1701""
","
","
","""event"",""trial"",""time""
""fullscreenenter"",""1"",""1701""
","
","","","550.3000000119209","","","19","10373","4280","&#9784;","elianto","#FFFFF080"," "," ","1","&#10004","[1407.2000000029802]","1","0","0","","","","","","","",""
"pit-trial","11","374211","0.0-2.0-4.3-0.3","battery-v0.2","","""event"",""trial"",""time""
""fullscreenenter"",""1"",""1701""
","
","
","""event"",""trial"",""time""
""fullscreenenter"",""1"",""1701""
","
","","","487.20000000298023","","","19","10373","4280","&#9784;","elianto","#FFFFF080"," "," ","1","&#10004","[1337.5]","1","0","0","","","","","","","",""
"pit-trial","12","377548","0.0-2.0-4.4-0.4","battery-v0.2","","""event"",""trial"",""time""
""fullscreenenter"",""1"",""1701""
","
","
","""event"",""trial"",""time""
""fullscreenenter"",""1"",""1701""
","
","","","479","","","19","10373","4280","&#9784;","elianto","#FFFFF080"," "," ","1","&#10004","[1329.7999999970198]","1","0","0","","","","","","","",""
"pit-instructions","13","399637","0.0-2.0-5.0","battery-v0.2","","""event"",""trial"",""time""
""fullscreenenter"",""1"",""1701""
","
","
","""event"",""trial"",""time""
""fullscreenenter"",""1"",""1701""
","
","","[{""page_index"":0,""viewing_time"":5622.79999999702},{""page_index"":1,""viewing_time"":6106.5},{""page_index"":2,""viewing_time"":4440.20000000298},{""page_index"":3,""viewing_time"":5915.5}]","22085.29999999702","","","","","","","","","","","","","","","","","","","","","","","",""
"pit-trial","14","403125","0.0-2.0-6.0-0.0","battery-v0.2","","""event"",""trial"",""time""
""fullscreenenter"",""1"",""1701""
","
","
","""event"",""trial"",""time""
""fullscreenenter"",""1"",""1701""
","
","","","630.2000000029802","","","19","10373","4280","&#9854;","elianto","#FFFFF080","-1"," ","0","&#10060","[1480.7000000029802]","1","0","1","","","","","","","",""
"pit-trial","15","407990","0.0-2.0-6.1-0.1","battery-v0.2","","""event"",""trial"",""time""
""fullscreenenter"",""1"",""1701""
","
","
","""event"",""trial"",""time""
""fullscreenenter"",""1"",""1701""
","
","","","-1","","","19","10373","4280","&#9854;","elianto","#FFFFF080","-1","-1","1","&#10004","[]","0","0","1","","","","","","","",""
"pit-trial","16","412855","0.0-2.0-6.2-0.2","battery-v0.2","","""event"",""trial"",""time""
""fullscreenenter"",""1"",""1701""
","
","
","""event"",""trial"",""time""
""fullscreenenter"",""1"",""1701""
","
","","","-1","","","19","10373","4280","&#9854;","elianto","#FFFFF080","-1","-1","1","&#10004","[]","0","0","1","","","","","","","",""
"pit-trial","17","417726","0.0-2.0-6.3-0.3","battery-v0.2","","""event"",""trial"",""time""
""fullscreenenter"",""1"",""1701""
","
","
","""event"",""trial"",""time""
""fullscreenenter"",""1"",""1701""
","
","","","-1","","","19","10373","4280","&#9854;","elianto","#FFFFF080","-1","-1","1","&#10004","[]","0","0","1","","","","","","","",""
"pit-trial","18","422590","0.0-2.0-6.4-0.4","battery-v0.2","","""event"",""trial"",""time""
""fullscreenenter"",""1"",""1701""
","
","
","""event"",""trial"",""time""
""fullscreenenter"",""1"",""1701""
","
","","","-1","","","19","10373","4280","&#9854;","elianto","#FFFFF080","-1","-1","1","&#10004","[]","0","0","1","","","","","","","",""
"pit-instructions","19","586821","0.0-2.0-7.0","battery-v0.2","","""event"",""trial"",""time""
""fullscreenenter"",""1"",""1701""
","
","
","""event"",""trial"",""time""
""fullscreenenter"",""1"",""1701""
","
","","[{""page_index"":0,""viewing_time"":9855.20000000298},{""page_index"":1,""viewing_time"":20113.39999999106},{""page_index"":2,""viewing_time"":5809.600000008941},{""page_index"":3,""viewing_time"":5976.79999999702},{""page_index"":4,""viewing_time"":6738},{""page_index"":5,""viewing_time"":5923.5},{""page_index"":6,""viewing_time"":4167.79999999702},{""page_index"":7,""viewing_time"":7341.5},{""page_index"":8,""viewing_time"":6292},{""page_index"":9,""viewing_time"":5329.5},{""page_index"":10,""viewing_time"":6801.9000000059605},{""page_index"":11,""viewing_time"":4787.70000000298},{""page_index"":12,""viewing_time"":6864.0999999940395},{""page_index"":13,""viewing_time"":6860.0999999940395},{""page_index"":14,""viewing_time"":18924.5},{""page_index"":15,""viewing_time"":28383.10000000894},{""page_index"":16,""viewing_time"":7157.0999999940395},{""page_index"":17,""viewing_time"":6900.20000000298}]","164226.59999999404","","","","","","","","","","","","","","","","","","","","","","","",""
"pit-trial","20","590153","0.0-2.0-8.0-0.0","battery-v0.2","","""event"",""trial"",""time""
""fullscreenenter"",""1"",""1701""
","
","
","""event"",""trial"",""time""
""fullscreenenter"",""1"",""1701""
","
","","","468.19999998807907","","","19","10373","4280","&#9776;","elianto","#3366ff99"," "," ","1","+10","[1324.7999999970198]","1","0","1","","","","","","","",""
"pit-trial","21","593440","0.0-2.0-8.0-1.0","battery-v0.2","","""event"",""trial"",""time""
""fullscreenenter"",""1"",""1701""
","
","
","""event"",""trial"",""time""
""fullscreenenter"",""1"",""1701""
","
","","","425.8999999910593","","","19","10373","4280","&#9776;","elianto","#3366ff99"," "," ","1","+10","[1277.3999999910593]","1","0","1","","","","","","","",""
"pit-trial","22","596695","0.0-2.0-8.0-2.0","battery-v0.2","","""event"",""trial"",""time""
""fullscreenenter"",""1"",""1701""
","
","
","""event"",""trial"",""time""
""fullscreenenter"",""1"",""1701""
","
","","","396","","","19","10373","4280","&#9776;","elianto","#3366ff99"," "," ","1","+10","[1247.6000000089407]","1","0","1","","","","","","","",""
"pit-trial","23","599719","0.0-2.0-8.0-3.0","battery-v0.2","","""event"",""trial"",""time""
""fullscreenenter"",""1"",""1701""
","
","
","""event"",""trial"",""time""
""fullscreenenter"",""1"",""1701""
","
","","","168","","","19","10373","4280","&#9776;","elianto","#3366ff99"," "," ","1","0","[1020.5]","1","0","1","","","","","","","",""
"pit-trial","24","602982","0.0-2.0-8.0-4.0","battery-v0.2","","""event"",""trial"",""time""
""fullscreenenter"",""1"",""1701""
","
","
","""event"",""trial"",""time""
""fullscreenenter"",""1"",""1701""
","
","","","401.59999999403954","","","19","10373","4280","&#9776;","elianto","#3366ff99"," "," ","1","+10","[1253.2999999970198]","1","0","1","","","","","","","",""
"pit-trial","25","606183","0.0-2.0-8.1-0.1","battery-v0.2","","""event"",""trial"",""time""
""fullscreenenter"",""1"",""1701""
","
","
","""event"",""trial"",""time""
""fullscreenenter"",""1"",""1701""
","
","","","338.79999999701977","","","19","10373","4280","&#9776;","elianto","#3366ff99"," "," ","1","+10","[1190.5999999940395]","1","0","1","","","","","","","",""
"pit-trial","26","609392","0.0-2.0-8.1-1.1","battery-v0.2","","""event"",""trial"",""time""
""fullscreenenter"",""1"",""1701""
","
","
","""event"",""trial"",""time""
""fullscreenenter"",""1"",""1701""
","
","","","347.40000000596046","","","19","10373","4280","&#9776;","elianto","#3366ff99"," "," ","1","+10","[1200]","1","0","1","","","","","","","",""
"pit-trial","27","612800","0.0-2.0-8.1-2.1","battery-v0.2","","""event"",""trial"",""time""
""fullscreenenter"",""1"",""1701""
","
","
","""event"",""trial"",""time""
""fullscreenenter"",""1"",""1701""
","
","","","546.6999999880791","","","19","10373","4280","&#9776;","elianto","#3366ff99"," "," ","1","+10","[1398.699999988079]","1","0","1","","","","","","","",""
"pit-trial","28","616130","0.0-2.0-8.1-3.1","battery-v0.2","","""event"",""trial"",""time""
""fullscreenenter"",""1"",""1701""
","
","
","""event"",""trial"",""time""
""fullscreenenter"",""1"",""1701""
","
","","","470.29999999701977","","","19","10373","4280","&#9776;","elianto","#3366ff99"," "," ","1","0","[1322]","1","0","1","","","","","","","",""
"pit-trial","29","619376","0.0-2.0-8.1-4.1","battery-v0.2","","""event"",""trial"",""time""
""fullscreenenter"",""1"",""1701""
","
","
","""event"",""trial"",""time""
""fullscreenenter"",""1"",""1701""
","
","","","379.3999999910593","","","19","10373","4280","&#9776;","elianto","#3366ff99"," "," ","1","+10","[1238.3999999910593]","1","0","1","","","","","","","",""
"pit-trial","30","622608","0.0-2.0-8.2-0.2","battery-v0.2","","""event"",""trial"",""time""
""fullscreenenter"",""1"",""1701""
","
","
","""event"",""trial"",""time""
""fullscreenenter"",""1"",""1701""
","
","","","360.6000000089407","","","19","10373","4280","&#9776;","elianto","#3366ff99"," "," ","1","+10","[1221.5999999940395]","1","0","1","","","","","","","",""
"pit-trial","31","625646","0.0-2.0-8.2-1.2","battery-v0.2","","""event"",""trial"",""time""
""fullscreenenter"",""1"",""1701""
","
","
","""event"",""trial"",""time""
""fullscreenenter"",""1"",""1701""
","
","","","177.3999999910593","","","19","10373","4280","&#9776;","elianto","#3366ff99"," "," ","1","+10","[1028.7999999970198]","1","0","1","","","","","","","",""
"pit-trial","32","628694","0.0-2.0-8.2-2.2","battery-v0.2","","""event"",""trial"",""time""
""fullscreenenter"",""1"",""1701""
","
","
","""event"",""trial"",""time""
""fullscreenenter"",""1"",""1701""
","
","","","191.29999999701977","","","19","10373","4280","&#9776;","elianto","#3366ff99"," "," ","1","+10","[1042.7999999970198]","1","0","1","","","","","","","",""
"pit-trial","33","632509","0.0-2.0-8.2-3.2","battery-v0.2","","""event"",""trial"",""time""
""fullscreenenter"",""1"",""1701""
","
","
","""event"",""trial"",""time""
""fullscreenenter"",""1"",""1701""
","
","","","956","","","19","10373","4280","&#9776;","elianto","#3366ff99"," "," ","1","0","[1811.2999999970198]","1","0","1","","","","","","","",""
"pit-trial","34","635642","0.0-2.0-8.2-4.2","battery-v0.2","","""event"",""trial"",""time""
""fullscreenenter"",""1"",""1701""
","
","
","""event"",""trial"",""time""
""fullscreenenter"",""1"",""1701""
","
","","","266.79999999701977","","","19","10373","4280","&#9776;","elianto","#3366ff99"," "," ","1","+10","[1121.5999999940395]","1","0","1","","","","","","","",""
"call-function","35","635644","0.0-2.0-9.0","battery-v0.2","","""event"",""trial"",""time""
""fullscreenenter"",""1"",""1701""
","
","
","""event"",""trial"",""time""
""fullscreenenter"",""1"",""1701""
","
","","","","","","","","","","","","","","","","","","","","","","","","","","",""
"pit-instructions","36","678096","0.0-2.0-10.0","battery-v0.2","","""event"",""trial"",""time""
""fullscreenenter"",""1"",""1701""
","
","
","""event"",""trial"",""time""
""fullscreenenter"",""1"",""1701""
","
","","[{""page_index"":0,""viewing_time"":5402.79999999702},{""page_index"":1,""viewing_time"":6362.800000011921},{""page_index"":2,""viewing_time"":9543.09999999404},{""page_index"":3,""viewing_time"":8920.70000000298},{""page_index"":4,""viewing_time"":12220.5}]","42450.20000000298","","","","","","","","","","","","","","","","","","","","","","","",""
"pit-trial","37","682961","0.0-2.0-11.0-0.0","battery-v0.2","","""event"",""trial"",""time""
""fullscreenenter"",""1"",""1701""
","
","
","""event"",""trial"",""time""
""fullscreenenter"",""1"",""1701""
","
","","","-1","","","19","10373","4280","&#9761;","elianto","#3366ff99","-1","-1","1","+10","[]","0","0","2","","","","","","","",""
"pit-trial","38","687824","0.0-2.0-11.0-1.0","battery-v0.2","","""event"",""trial"",""time""
""fullscreenenter"",""1"",""1701""
","
","
","""event"",""trial"",""time""
""fullscreenenter"",""1"",""1701""
","
","","","-1","","","19","10373","4280","&#9761;","elianto","#3366ff99","-1","-1","1","+10","[]","0","0","2","","","","","","","",""
"pit-trial","39","692689","0.0-2.0-11.0-2.0","battery-v0.2","","""event"",""trial"",""time""
""fullscreenenter"",""1"",""1701""
","
","
","""event"",""trial"",""time""
""fullscreenenter"",""1"",""1701""
","
","","","-1","","","19","10373","4280","&#9761;","elianto","#3366ff99","-1","-1","1","+10","[]","0","0","2","","","","","","","",""
"pit-trial","40","697553","0.0-2.0-11.0-3.0","battery-v0.2","","""event"",""trial"",""time""
""fullscreenenter"",""1"",""1701""
","
","
","""event"",""trial"",""time""
""fullscreenenter"",""1"",""1701""
","
","","","-1","","","19","10373","4280","&#9761;","elianto","#3366ff99","-1","-1","1","0","[]","0","0","2","","","","","","","",""
"pit-trial","41","702417","0.0-2.0-11.0-4.0","battery-v0.2","","""event"",""trial"",""time""
""fullscreenenter"",""1"",""1701""
","
","
","""event"",""trial"",""time""
""fullscreenenter"",""1"",""1701""
","
","","","-1","","","19","10373","4280","&#9761;","elianto","#3366ff99","-1","-1","1","+10","[]","0","0","2","","","","","","","",""
"pit-trial","42","707290","0.0-2.0-11.1-0.1","battery-v0.2","","""event"",""trial"",""time""
""fullscreenenter"",""1"",""1701""
","
","
","""event"",""trial"",""time""
""fullscreenenter"",""1"",""1701""
","
","","","-1","","","19","10373","4280","&#9761;","elianto","#3366ff99","-1","-1","1","+10","[]","0","0","2","","","","","","","",""
"pit-trial","43","712160","0.0-2.0-11.1-1.1","battery-v0.2","","""event"",""trial"",""time""
""fullscreenenter"",""1"",""1701""
","
","
","""event"",""trial"",""time""
""fullscreenenter"",""1"",""1701""
","
","","","-1","","","19","10373","4280","&#9761;","elianto","#3366ff99","-1","-1","1","+10","[]","0","0","2","","","","","","","",""
"pit-trial","44","717025","0.0-2.0-11.1-2.1","battery-v0.2","","""event"",""trial"",""time""
""fullscreenenter"",""1"",""1701""
","
","
","""event"",""trial"",""time""
""fullscreenenter"",""1"",""1701""
","
","","","-1","","","19","10373","4280","&#9761;","elianto","#3366ff99","-1","-1","1","+10","[]","0","0","2","","","","","","","",""
"pit-trial","45","721889","0.0-2.0-11.1-3.1","battery-v0.2","","""event"",""trial"",""time""
""fullscreenenter"",""1"",""1701""
","
","
","""event"",""trial"",""time""
""fullscreenenter"",""1"",""1701""
","
","","","-1","","","19","10373","4280","&#9761;","elianto","#3366ff99","-1","-1","1","0","[]","0","0","2","","","","","","","",""
"pit-trial","46","726753","0.0-2.0-11.1-4.1","battery-v0.2","","""event"",""trial"",""time""
""fullscreenenter"",""1"",""1701""
","
","
","""event"",""trial"",""time""
""fullscreenenter"",""1"",""1701""
","
","","","-1","","","19","10373","4280","&#9761;","elianto","#3366ff99","-1","-1","1","+10","[]","0","0","2","","","","","","","",""
"pit-trial","47","731619","0.0-2.0-11.2-0.2","battery-v0.2","","""event"",""trial"",""time""
""fullscreenenter"",""1"",""1701""
","
","
","""event"",""trial"",""time""
""fullscreenenter"",""1"",""1701""
","
","","","-1","","","19","10373","4280","&#9761;","elianto","#3366ff99","-1","-1","1","+10","[]","0","0","2","","","","","","","",""
"pit-trial","48","736489","0.0-2.0-11.2-1.2","battery-v0.2","","""event"",""trial"",""time""
""fullscreenenter"",""1"",""1701""
","
","
","""event"",""trial"",""time""
""fullscreenenter"",""1"",""1701""
","
","","","-1","","","19","10373","4280","&#9761;","elianto","#3366ff99","-1","-1","1","+10","[]","0","0","2","","","","","","","",""
"pit-trial","49","741354","0.0-2.0-11.2-2.2","battery-v0.2","","""event"",""trial"",""time""
""fullscreenenter"",""1"",""1701""
","
","
","""event"",""trial"",""time""
""fullscreenenter"",""1"",""1701""
","
","","","-1","","","19","10373","4280","&#9761;","elianto","#3366ff99","-1","-1","1","+10","[]","0","0","2","","","","","","","",""
"pit-trial","50","746215","0.0-2.0-11.2-3.2","battery-v0.2","","""event"",""trial"",""time""
""fullscreenenter"",""1"",""1701""
","
","
","""event"",""trial"",""time""
""fullscreenenter"",""1"",""1701""
","
","","","-1","","","19","10373","4280","&#9761;","elianto","#3366ff99","-1","-1","1","0","[]","0","0","2","","","","","","","",""
"pit-trial","51","751083","0.0-2.0-11.2-4.2","battery-v0.2","","""event"",""trial"",""time""
""fullscreenenter"",""1"",""1701""
","
","
","""event"",""trial"",""time""
""fullscreenenter"",""1"",""1701""
","
","","","-1","","","19","10373","4280","&#9761;","elianto","#3366ff99","-1","-1","1","+10","[]","0","0","2","","","","","","","",""
"pit-trial","52","755954","0.0-2.0-11.3-0.3","battery-v0.2","","""event"",""trial"",""time""
""fullscreenenter"",""1"",""1701""
","
","
","""event"",""trial"",""time""
""fullscreenenter"",""1"",""1701""
","
","","","-1","","","19","10373","4280","&#9761;","elianto","#3366ff99","-1","-1","1","+10","[]","0","0","2","","","","","","","",""
"pit-trial","53","760817","0.0-2.0-11.3-1.3","battery-v0.2","","""event"",""trial"",""time""
""fullscreenenter"",""1"",""1701""
","
","
","""event"",""trial"",""time""
""fullscreenenter"",""1"",""1701""
","
","","","-1","","","19","10373","4280","&#9761;","elianto","#3366ff99","-1","-1","1","+10","[]","0","0","2","","","","","","","",""
"pit-trial","54","765682","0.0-2.0-11.3-2.3","battery-v0.2","","""event"",""trial"",""time""
""fullscreenenter"",""1"",""1701""
","
","
","""event"",""trial"",""time""
""fullscreenenter"",""1"",""1701""
","
","","","-1","","","19","10373","4280","&#9761;","elianto","#3366ff99","-1","-1","1","+10","[]","0","0","2","","","","","","","",""
"pit-trial","55","770546","0.0-2.0-11.3-3.3","battery-v0.2","","""event"",""trial"",""time""
""fullscreenenter"",""1"",""1701""
","
","
","""event"",""trial"",""time""
""fullscreenenter"",""1"",""1701""
","
","","","-1","","","19","10373","4280","&#9761;","elianto","#3366ff99","-1","-1","1","0","[]","0","0","2","","","","","","","",""
"pit-trial","56","775412","0.0-2.0-11.3-4.3","battery-v0.2","","""event"",""trial"",""time""
""fullscreenenter"",""1"",""1701""
","
","
","""event"",""trial"",""time""
""fullscreenenter"",""1"",""1701""
","
","","","-1","","","19","10373","4280","&#9761;","elianto","#3366ff99","-1","-1","1","+10","[]","0","0","2","","","","","","","",""
"call-function","57","775414","0.0-2.0-12.0","battery-v0.2","","""event"",""trial"",""time""
""fullscreenenter"",""1"",""1701""
","
","
","""event"",""trial"",""time""
""fullscreenenter"",""1"",""1701""
","
","","","","","","","","","","","","","","","","","","","","","","","","","","",""
"pit-instructions","58","823671","0.0-2.0-13.0","battery-v0.2","","""event"",""trial"",""time""
""fullscreenenter"",""1"",""1701""
","
","
","""event"",""trial"",""time""
""fullscreenenter"",""1"",""1701""
","
","","[{""page_index"":0,""viewing_time"":13795.79999999702},{""page_index"":1,""viewing_time"":6588.9000000059605},{""page_index"":2,""viewing_time"":8753.59999999404},{""page_index"":3,""viewing_time"":11328.09999999404},{""page_index"":4,""viewing_time"":7789}]","48255.70000000298","","","","","","","","","","","","","","","","","","","","","","","",""
"pit-trial","59","827943","0.0-2.0-14.0-0.0","battery-v0.2","","""event"",""trial"",""time""
""fullscreenenter"",""1"",""1701""
","
","
","""event"",""trial"",""time""
""fullscreenenter"",""1"",""1701""
","
","","","1402.4000000059605","","","19","10373","4280","&#9826;","elianto","#f73b6a7A","-1"," ","0","-10","[2264.2000000029802]","1","0","3","","","","","","","",""
"pit-trial","60","832808","0.0-2.0-14.0-1.0","battery-v0.2","","""event"",""trial"",""time""
""fullscreenenter"",""1"",""1701""
","
","
","""event"",""trial"",""time""
""fullscreenenter"",""1"",""1701""
","
","","","-1","","","19","10373","4280","&#9826;","elianto","#f73b6a7A","-1","-1","1","0","[]","0","0","3","","","","","","","",""
"pit-trial","61","837672","0.0-2.0-14.0-2.0","battery-v0.2","","""event"",""trial"",""time""
""fullscreenenter"",""1"",""1701""
","
","
","""event"",""trial"",""time""
""fullscreenenter"",""1"",""1701""
","
","","","-1","","","19","10373","4280","&#9826;","elianto","#f73b6a7A","-1","-1","1","0","[]","0","0","3","","","","","","","",""
"pit-trial","62","842537","0.0-2.0-14.0-3.0","battery-v0.2","","""event"",""trial"",""time""
""fullscreenenter"",""1"",""1701""
","
","
","""event"",""trial"",""time""
""fullscreenenter"",""1"",""1701""
","
","","","-1","","","19","10373","4280","&#9826;","elianto","#f73b6a7A","-1","-1","1","-10","[]","0","0","3","","","","","","","",""
"pit-trial","63","845893","0.0-2.0-14.0-4.0","battery-v0.2","","""event"",""trial"",""time""
""fullscreenenter"",""1"",""1701""
","
","
","""event"",""trial"",""time""
""fullscreenenter"",""1"",""1701""
","
","","","492.80000001192093","","","19","10373","4280","&#9826;","elianto","#f73b6a7A","-1"," ","0","-10","[1344.9000000059605]","1","0","3","","","","","","","",""
"pit-trial","64","850763","0.0-2.0-14.1-0.1","battery-v0.2","","""event"",""trial"",""time""
""fullscreenenter"",""1"",""1701""
","
","
","""event"",""trial"",""time""
""fullscreenenter"",""1"",""1701""
","
","","","-1","","","19","10373","4280","&#9826;","elianto","#f73b6a7A","-1","-1","1","0","[]","0","0","3","","","","","","","",""
"pit-trial","65","855624","0.0-2.0-14.1-1.1","battery-v0.2","","""event"",""trial"",""time""
""fullscreenenter"",""1"",""1701""
","
","
","""event"",""trial"",""time""
""fullscreenenter"",""1"",""1701""
","
","","","-1","","","19","10373","4280","&#9826;","elianto","#f73b6a7A","-1","-1","1","0","[]","0","0","3","","","","","","","",""
"pit-trial","66","860488","0.0-2.0-14.1-2.1","battery-v0.2","","""event"",""trial"",""time""
""fullscreenenter"",""1"",""1701""
","
","
","""event"",""trial"",""time""
""fullscreenenter"",""1"",""1701""
","
","","","-1","","","19","10373","4280","&#9826;","elianto","#f73b6a7A","-1","-1","1","0","[]","0","0","3","","","","","","","",""
"pit-trial","67","865352","0.0-2.0-14.1-3.1","battery-v0.2","","""event"",""trial"",""time""
""fullscreenenter"",""1"",""1701""
","
","
","""event"",""trial"",""time""
""fullscreenenter"",""1"",""1701""
","
","","","-1","","","19","10373","4280","&#9826;","elianto","#f73b6a7A","-1","-1","1","-10","[]","0","0","3","","","","","","","",""
"pit-trial","68","870216","0.0-2.0-14.1-4.1","battery-v0.2","","""event"",""trial"",""time""
""fullscreenenter"",""1"",""1701""
","
","
","""event"",""trial"",""time""
""fullscreenenter"",""1"",""1701""
","
","","","-1","","","19","10373","4280","&#9826;","elianto","#f73b6a7A","-1","-1","1","0","[]","0","0","3","","","","","","","",""
"pit-trial","69","875080","0.0-2.0-14.2-0.2","battery-v0.2","","""event"",""trial"",""time""
""fullscreenenter"",""1"",""1701""
","
","
","""event"",""trial"",""time""
""fullscreenenter"",""1"",""1701""
","
","","","-1","","","19","10373","4280","&#9826;","elianto","#f73b6a7A","-1","-1","1","0","[]","0","0","3","","","","","","","",""
"pit-trial","70","879944","0.0-2.0-14.2-1.2","battery-v0.2","","""event"",""trial"",""time""
""fullscreenenter"",""1"",""1701""
","
","
","""event"",""trial"",""time""
""fullscreenenter"",""1"",""1701""
","
","","","-1","","","19","10373","4280","&#9826;","elianto","#f73b6a7A","-1","-1","1","0","[]","0","0","3","","","","","","","",""
"pit-trial","71","884811","0.0-2.0-14.2-2.2","battery-v0.2","","""event"",""trial"",""time""
""fullscreenenter"",""1"",""1701""
","
","
","""event"",""trial"",""time""
""fullscreenenter"",""1"",""1701""
","
","","","-1","","","19","10373","4280","&#9826;","elianto","#f73b6a7A","-1","-1","1","0","[]","0","0","3","","","","","","","",""
"pit-trial","72","889672","0.0-2.0-14.2-3.2","battery-v0.2","","""event"",""trial"",""time""
""fullscreenenter"",""1"",""1701""
","
","
","""event"",""trial"",""time""
""fullscreenenter"",""1"",""1701""
","
","","","-1","","","19","10373","4280","&#9826;","elianto","#f73b6a7A","-1","-1","1","-10","[]","0","0","3","","","","","","","",""
"pit-trial","73","894536","0.0-2.0-14.2-4.2","battery-v0.2","","""event"",""trial"",""time""
""fullscreenenter"",""1"",""1701""
","
","
","""event"",""trial"",""time""
""fullscreenenter"",""1"",""1701""
","
","","","-1","","","19","10373","4280","&#9826;","elianto","#f73b6a7A","-1","-1","1","0","[]","0","0","3","","","","","","","",""
"pit-trial","74","899404","0.0-2.0-14.3-0.3","battery-v0.2","","""event"",""trial"",""time""
""fullscreenenter"",""1"",""1701""
","
","
","""event"",""trial"",""time""
""fullscreenenter"",""1"",""1701""
","
","","","-1","","","19","10373","4280","&#9826;","elianto","#f73b6a7A","-1","-1","1","0","[]","0","0","3","","","","","","","",""
"pit-trial","75","904275","0.0-2.0-14.3-1.3","battery-v0.2","","""event"",""trial"",""time""
""fullscreenenter"",""1"",""1701""
","
","
","""event"",""trial"",""time""
""fullscreenenter"",""1"",""1701""
","
","","","-1","","","19","10373","4280","&#9826;","elianto","#f73b6a7A","-1","-1","1","0","[]","0","0","3","","","","","","","",""
"pit-trial","76","909139","0.0-2.0-14.3-2.3","battery-v0.2","","""event"",""trial"",""time""
""fullscreenenter"",""1"",""1701""
","
","
","""event"",""trial"",""time""
""fullscreenenter"",""1"",""1701""
","
","","","-1","","","19","10373","4280","&#9826;","elianto","#f73b6a7A","-1","-1","1","0","[]","0","0","3","","","","","","","",""
"pit-trial","77","914004","0.0-2.0-14.3-3.3","battery-v0.2","","""event"",""trial"",""time""
""fullscreenenter"",""1"",""1701""
","
","
","""event"",""trial"",""time""
""fullscreenenter"",""1"",""1701""
","
","","","-1","","","19","10373","4280","&#9826;","elianto","#f73b6a7A","-1","-1","1","-10","[]","0","0","3","","","","","","","",""
"pit-trial","78","918867","0.0-2.0-14.3-4.3","battery-v0.2","","""event"",""trial"",""time""
""fullscreenenter"",""1"",""1701""
","
","
","""event"",""trial"",""time""
""fullscreenenter"",""1"",""1701""
","
","","","-1","","","19","10373","4280","&#9826;","elianto","#f73b6a7A","-1","-1","1","0","[]","0","0","3","","","","","","","",""
"call-function","79","918868","0.0-2.0-15.0","battery-v0.2","","""event"",""trial"",""time""
""fullscreenenter"",""1"",""1701""
","
","
","""event"",""trial"",""time""
""fullscreenenter"",""1"",""1701""
","
","","","","","","","","","","","","","","","","","","","","","","","","","","",""
"pit-instructions","80","1026914","0.0-2.0-16.0","battery-v0.2","","""event"",""trial"",""time""
""fullscreenenter"",""1"",""1701""
","
","
","""event"",""trial"",""time""
""fullscreenenter"",""1"",""1701""
","
","","[{""page_index"":0,""viewing_time"":12888.79999999702},{""page_index"":1,""viewing_time"":62667},{""page_index"":2,""viewing_time"":5519},{""page_index"":3,""viewing_time"":26969.70000000298}]","108044.79999999702","","","","","","","","","","","","","","","","","","","","","","","",""
"pit-trial","81","1030737","0.0-2.0-17.0-0.0","battery-v0.2","","""event"",""trial"",""time""
""fullscreenenter"",""1"",""1701""
","
","
","""event"",""trial"",""time""
""fullscreenenter"",""1"",""1701""
","
","","","962.5","","","19","10373","4280","&#9789;","elianto","#f73b6a7A"," "," ","1","0","[1817.5]","1","0","4","","","","","","","",""
"pit-trial","82","1033978","0.0-2.0-17.0-1.0","battery-v0.2","","""event"",""trial"",""time""
""fullscreenenter"",""1"",""1701""
","
","
","""event"",""trial"",""time""
""fullscreenenter"",""1"",""1701""
","
","","","379.20000000298023","","","19","10373","4280","&#9789;","elianto","#f73b6a7A"," "," ","1","0","[851.7999999970198,1231.0999999940395]","2","0","4","","","","","","","",""
"pit-trial","83","1036882","0.0-2.0-17.0-2.0","battery-v0.2","","""event"",""trial"",""time""
""fullscreenenter"",""1"",""1701""
","
","
","""event"",""trial"",""time""
""fullscreenenter"",""1"",""1701""
","
","","","41.1000000089407","","","19","10373","4280","&#9789;","elianto","#f73b6a7A"," "," ","1","0","[897.2999999970198]","1","0","4","","","","","","","",""
"pit-trial","84","1039947","0.0-2.0-17.0-3.0","battery-v0.2","","""event"",""trial"",""time""
""fullscreenenter"",""1"",""1701""
","
","
","""event"",""trial"",""time""
""fullscreenenter"",""1"",""1701""
","
","","","202.3999999910593","","","19","10373","4280","&#9789;","elianto","#f73b6a7A"," "," ","1","-10","[1053.7000000029802]","1","0","4","","","","","","","",""
"pit-trial","85","1042921","0.0-2.0-17.0-4.0","battery-v0.2","","""event"",""trial"",""time""
""fullscreenenter"",""1"",""1701""
","
","
","""event"",""trial"",""time""
""fullscreenenter"",""1"",""1701""
","
","","","118.29999999701977","","","19","10373","4280","&#9789;","elianto","#f73b6a7A"," "," ","1","0","[969.5999999940395]","1","0","4","","","","","","","",""
"pit-trial","86","1045829","0.0-2.0-17.1-0.1","battery-v0.2","","""event"",""trial"",""time""
""fullscreenenter"",""1"",""1701""
","
","
","""event"",""trial"",""time""
""fullscreenenter"",""1"",""1701""
","
","","","40.1000000089407","","","19","10373","4280","&#9789;","elianto","#f73b6a7A"," "," ","1","0","[893.9000000059605]","1","0","4","","","","","","","",""
"pit-trial","87","1048730","0.0-2.0-17.1-1.1","battery-v0.2","","""event"",""trial"",""time""
""fullscreenenter"",""1"",""1701""
","
","
","""event"",""trial"",""time""
""fullscreenenter"",""1"",""1701""
","
","","","45.3999999910593","","","19","10373","4280","&#9789;","elianto","#f73b6a7A"," "," ","1","0","[898.2000000029802]","1","0","4","","","","","","","",""
"pit-trial","88","1051689","0.0-2.0-17.1-2.1","battery-v0.2","","""event"",""trial"",""time""
""fullscreenenter"",""1"",""1701""
","
","
","""event"",""trial"",""time""
""fullscreenenter"",""1"",""1701""
","
","","","101.6000000089407","","","19","10373","4280","&#9789;","elianto","#f73b6a7A"," "," ","1","0","[955.9000000059605]","1","0","4","","","","","","","",""
"pit-trial","89","1054597","0.0-2.0-17.1-3.1","battery-v0.2","","""event"",""trial"",""time""
""fullscreenenter"",""1"",""1701""
","
","
","""event"",""trial"",""time""
""fullscreenenter"",""1"",""1701""
","
","","","44.1000000089407","","","19","10373","4280","&#9789;","elianto","#f73b6a7A"," "," ","1","-10","[894.7000000029802]","1","0","4","","","","","","","",""
"pit-trial","90","1057765","0.0-2.0-17.1-4.1","battery-v0.2","","""event"",""trial"",""time""
""fullscreenenter"",""1"",""1701""
","
","
","""event"",""trial"",""time""
""fullscreenenter"",""1"",""1701""
","
","","","305.90000000596046","","","19","10373","4280","&#9789;","elianto","#f73b6a7A"," "," ","1","0","[794,1157.4000000059605]","2","0","4","","","","","","","",""
"pit-trial","91","1060716","0.0-2.0-17.2-0.2","battery-v0.2","","""event"",""trial"",""time""
""fullscreenenter"",""1"",""1701""
","
","
","""event"",""trial"",""time""
""fullscreenenter"",""1"",""1701""
","
","","","83.30000001192093","","","19","10373","4280","&#9789;","elianto","#f73b6a7A"," "," ","1","0","[939.9000000059605]","1","0","4","","","","","","","",""
"pit-trial","92","1063741","0.0-2.0-17.2-1.2","battery-v0.2","","""event"",""trial"",""time""
""fullscreenenter"",""1"",""1701""
","
","
","""event"",""trial"",""time""
""fullscreenenter"",""1"",""1701""
","
","","","161.5","","","19","10373","4280","&#9789;","elianto","#f73b6a7A"," "," ","1","0","[1013.4000000059605]","1","0","4","","","","","","","",""
"pit-trial","93","1066874","0.0-2.0-17.2-2.2","battery-v0.2","","""event"",""trial"",""time""
""fullscreenenter"",""1"",""1701""
","
","
","""event"",""trial"",""time""
""fullscreenenter"",""1"",""1701""
","
","","","272.6000000089407","","","19","10373","4280","&#9789;","elianto","#f73b6a7A"," "," ","1","0","[1124]","1","0","4","","","","","","","",""
"pit-trial","94","1069957","0.0-2.0-17.2-3.2","battery-v0.2","","""event"",""trial"",""time""
""fullscreenenter"",""1"",""1701""
","
","
","""event"",""trial"",""time""
""fullscreenenter"",""1"",""1701""
","
","","","217.70000000298023","","","19","10373","4280","&#9789;","elianto","#f73b6a7A"," "," ","1","-10","[1072.4000000059605]","1","0","4","","","","","","","",""
"pit-trial","95","1073237","0.0-2.0-17.2-4.2","battery-v0.2","","""event"",""trial"",""time""
""fullscreenenter"",""1"",""1701""
","
","
","""event"",""trial"",""time""
""fullscreenenter"",""1"",""1701""
","
","","","420.70000000298023","","","19","10373","4280","&#9789;","elianto","#f73b6a7A"," "," ","1","0","[1272.0999999940395]","1","0","4","","","","","","","",""
"pit-trial","96","1076365","0.0-2.0-17.3-0.3","battery-v0.2","","""event"",""trial"",""time""
""fullscreenenter"",""1"",""1701""
","
","
","""event"",""trial"",""time""
""fullscreenenter"",""1"",""1701""
","
","","","258.5","","","19","10373","4280","&#9789;","elianto","#f73b6a7A"," "," ","1","0","[1119.5]","1","0","4","","","","","","","",""
"pit-trial","97","1079477","0.0-2.0-17.3-1.3","battery-v0.2","","""event"",""trial"",""time""
""fullscreenenter"",""1"",""1701""
","
","
","""event"",""trial"",""time""
""fullscreenenter"",""1"",""1701""
","
","","","250.6000000089407","","","19","10373","4280","&#9789;","elianto","#f73b6a7A"," "," ","1","0","[1101]","1","0","4","","","","","","","",""
"pit-trial","98","1082693","0.0-2.0-17.3-2.3","battery-v0.2","","""event"",""trial"",""time""
""fullscreenenter"",""1"",""1701""
","
","
","""event"",""trial"",""time""
""fullscreenenter"",""1"",""1701""
","
","","","358.5","","","19","10373","4280","&#9789;","elianto","#f73b6a7A"," "," ","1","0","[1210.2999999970198]","1","0","4","","","","","","","",""
"pit-trial","99","1085859","0.0-2.0-17.3-3.3","battery-v0.2","","""event"",""trial"",""time""
""fullscreenenter"",""1"",""1701""
","
","
","""event"",""trial"",""time""
""fullscreenenter"",""1"",""1701""
","
","","","309.70000000298023","","","19","10373","4280","&#9789;","elianto","#f73b6a7A"," "," ","1","-10","[1161.800000011921]","1","0","4","","","","","","","",""
"pit-trial","100","1088885","0.0-2.0-17.3-4.3","battery-v0.2","","""event"",""trial"",""time""
""fullscreenenter"",""1"",""1701""
","
","
","""event"",""trial"",""time""
""fullscreenenter"",""1"",""1701""
","
","","","164","","","19","10373","4280","&#9789;","elianto","#f73b6a7A"," "," ","1","0","[1014.3999999910593]","1","0","4","","","","","","","",""
"call-function","101","1088887","0.0-2.0-18.0","battery-v0.2","","""event"",""trial"",""time""
""fullscreenenter"",""1"",""1701""
","
","
","""event"",""trial"",""time""
""fullscreenenter"",""1"",""1701""
","
","","","","","","","","","","","","","","","","","","","","","","","","","","",""
"pit-instructions","102","1571235","0.0-2.0-19.0","battery-v0.2","","""event"",""trial"",""time""
""fullscreenenter"",""1"",""1701""
","
","
","""event"",""trial"",""time""
""fullscreenenter"",""1"",""1701""
","
","","[{""page_index"":0,""viewing_time"":78815.29999999702},{""page_index"":1,""viewing_time"":7554.5},{""page_index"":2,""viewing_time"":19677.5},{""page_index"":3,""viewing_time"":42671.10000000894},{""page_index"":4,""viewing_time"":147870.39999999106},{""page_index"":5,""viewing_time"":8593},{""page_index"":6,""viewing_time"":11623.10000000894},{""page_index"":7,""viewing_time"":161707.70000000298},{""page_index"":8,""viewing_time"":3829.0999999940395}]","482342","","","","","","","","","","","","","","","","","","","","","","","",""
"pit-comprehension","103","1575621","0.0-2.0-20.0-0.0","battery-v0.2","","""event"",""trial"",""time""
""fullscreenenter"",""1"",""1701""
","
","
","""event"",""trial"",""time""
""fullscreenenter"",""1"",""1701""
","
","","","4381","[""SPACE""]","0","19","10373","4280","","","","","","","","","","","","","","","","","","",""
"pit-instructions","104","1578585","0.0-2.0-20.0-1.0","battery-v0.2","","""event"",""trial"",""time""
""fullscreenenter"",""1"",""1701""
","
","
","""event"",""trial"",""time""
""fullscreenenter"",""1"",""1701""
","
","","[{""page_index"":0,""viewing_time"":2933.2000000029802}]","2933.5999999940395","","","","","","","","","","","","","","","","","","","","","","","",""
"pit-comprehension","105","1583356","0.0-2.0-21.0-0.0","battery-v0.2","","""event"",""trial"",""time""
""fullscreenenter"",""1"",""1701""
","
","
","""event"",""trial"",""time""
""fullscreenenter"",""1"",""1701""
","
","","","4766.70000000298","[""10""]","0","19","10373","4280","","","","","","","","","","","","","","","","","","",""
"pit-instructions","106","1584574","0.0-2.0-21.0-1.0","battery-v0.2","","""event"",""trial"",""time""
""fullscreenenter"",""1"",""1701""
","
","
","""event"",""trial"",""time""
""fullscreenenter"",""1"",""1701""
","
","","[{""page_index"":0,""viewing_time"":1186.8999999910593}]","1187.2999999970198","","","","","","","","","","","","","","","","","","","","","","","",""
"pit-comprehension","107","1590618","0.0-2.0-22.0-0.0","battery-v0.2","","""event"",""trial"",""time""
""fullscreenenter"",""1"",""1701""
","
","
","""event"",""trial"",""time""
""fullscreenenter"",""1"",""1701""
","
","","","6040.899999991059","[""0""]","0","19","10373","4280","","","","","","","","","","","","","","","","","","",""
"pit-instructions","108","1592188","0.0-2.0-22.0-1.0","battery-v0.2","","""event"",""trial"",""time""
""fullscreenenter"",""1"",""1701""
","
","
","""event"",""trial"",""time""
""fullscreenenter"",""1"",""1701""
","
","","[{""page_index"":0,""viewing_time"":1539.2999999970198}]","1539.5","","","","","","","","","","","","","","","","","","","","","","","",""
"pit-comprehension","109","1600382","0.0-2.0-23.0-0.0","battery-v0.2","","""event"",""trial"",""time""
""fullscreenenter"",""1"",""1701""
","
","
","""event"",""trial"",""time""
""fullscreenenter"",""1"",""1701""
","
","","","8190.5","[""True""]","0","19","10373","4280","","","","","","","","","","","","","","","","","","",""
"pit-instructions","110","1601799","0.0-2.0-23.0-1.0","battery-v0.2","","""event"",""trial"",""time""
""fullscreenenter"",""1"",""1701""
","
","
","""event"",""trial"",""time""
""fullscreenenter"",""1"",""1701""
","
","","[{""page_index"":0,""viewing_time"":1385.7999999970198}]","1386.3999999910593","","","","","","","","","","","","","","","","","","","","","","","",""
"pit-comprehension","111","1609539","0.0-2.0-24.0-0.0","battery-v0.2","","""event"",""trial"",""time""
""fullscreenenter"",""1"",""1701""
","
","
","""event"",""trial"",""time""
""fullscreenenter"",""1"",""1701""
","
","","","7736.300000011921","[""True""]","0","19","10373","4280","","","","","","","","","","","","","","","","","","",""
"pit-instructions","112","1610957","0.0-2.0-24.0-1.0","battery-v0.2","","""event"",""trial"",""time""
""fullscreenenter"",""1"",""1701""
","
","
","""event"",""trial"",""time""
""fullscreenenter"",""1"",""1701""
","
","","[{""page_index"":0,""viewing_time"":1384.7000000029802}]","1384.7999999970198","","","","","","","","","","","","","","","","","","","","","","","",""
"pit-comprehension","113","1617355","0.0-2.0-25.0-0.0","battery-v0.2","","""event"",""trial"",""time""
""fullscreenenter"",""1"",""1701""
","
","
","""event"",""trial"",""time""
""fullscreenenter"",""1"",""1701""
","
","","","6394.899999991059","[""True""]","0","19","10373","4280","","","","","","","","","","","","","","","","","","",""
"pit-instructions","114","1618565","0.0-2.0-25.0-1.0","battery-v0.2","","""event"",""trial"",""time""
""fullscreenenter"",""1"",""1701""
","
","
","""event"",""trial"",""time""
""fullscreenenter"",""1"",""1701""
","
","","[{""page_index"":0,""viewing_time"":1176.2999999970198}]","1177","","","","","","","","","","","","","","","","","","","","","","","",""
"pit-comprehension","115","1623607","0.0-2.0-26.0-0.0","battery-v0.2","","""event"",""trial"",""time""
""fullscreenenter"",""1"",""1701""
","
","
","""event"",""trial"",""time""
""fullscreenenter"",""1"",""1701""
","
","","","5039.5999999940395","[""False""]","0","19","10373","4280","","","","","","","","","","","","","","","","","","",""
"pit-instructions","116","1624865","0.0-2.0-26.0-1.0","battery-v0.2","","""event"",""trial"",""time""
""fullscreenenter"",""1"",""1701""
","
","
","""event"",""trial"",""time""
""fullscreenenter"",""1"",""1701""
","
","","[{""page_index"":0,""viewing_time"":1224.2999999970198}]","1224.5999999940395","","","","","","","","","","","","","","","","","","","","","","","",""
"pit-instructions","117","1641197","0.0-3.0","battery-v0.2","","""event"",""trial"",""time""
""fullscreenenter"",""1"",""1701""
","
","
","""event"",""trial"",""time""
""fullscreenenter"",""1"",""1701""
","
","","[{""page_index"":0,""viewing_time"":3452.3999999910593},{""page_index"":1,""viewing_time"":5651.600000008941},{""page_index"":2,""viewing_time"":7225.399999991059}]","16329.70000000298","","","","","","","","","","","","","","","","","","","","","","","",""
"pit-trial","118","1644541","0.0-4.0","battery-v0.2","","""event"",""trial"",""time""
""fullscreenenter"",""1"",""1701""
","
","
","""event"",""trial"",""time""
""fullscreenenter"",""1"",""1701""
","
","","","471.3999999910593","","","19","10373","4280","&#9733;","elianto","#3366ff99","-1"," ","0","+10","[1322.4000000059605]","1","1","","","10373","1","2","2","win","no-go","1"
"pit-trial","119","1649413","0.0-5.0","battery-v0.2","","""event"",""trial"",""time""
""fullscreenenter"",""1"",""1701""
","
","
","""event"",""trial"",""time""
""fullscreenenter"",""1"",""1701""
","
","","","-1","","","19","10373","4280","&#9752;","elianto","#f73b6a7A"," ","-1","0","-10","[]","0","1","","","10373","2","3","3","lose","go","0"
"pit-trial","120","1653418","0.0-6.0","battery-v0.2","","""event"",""trial"",""time""
""fullscreenenter"",""1"",""1701""
","
","
","""event"",""trial"",""time""
""fullscreenenter"",""1"",""1701""
","
","","","1139.3999999910593","","","19","10373","4280","&#9728;","elianto","#f73b6a7A","-1"," ","0","-10","[1998.4000000059605]","1","1","","","10373","3","0","4","lose","no-go","0"
"pit-trial","121","1657250","0.0-7.0","battery-v0.2","","""event"",""trial"",""time""
""fullscreenenter"",""1"",""1701""
","
","
","""event"",""trial"",""time""
""fullscreenenter"",""1"",""1701""
","
","","","969.6000000089407","","","19","10373","4280","&#9730;","elianto","#3366ff99"," "," ","1","+10","[1821.2000000029802]","1","1","","","10373","4","1","1","win","go","0"
"pit-trial","122","1661112","0.0-8.0","battery-v0.2","","""event"",""trial"",""time""
""fullscreenenter"",""1"",""1701""
","
","
","""event"",""trial"",""time""
""fullscreenenter"",""1"",""1701""
","
","","","997.4000000059605","","","19","10373","4280","&#9752;","elianto","#f73b6a7A"," "," ","1","0","[1851.7000000029802]","1","1","","","10373","5","3","3","lose","go","0"
"pit-trial","123","1664891","0.0-9.0","battery-v0.2","","""event"",""trial"",""time""
""fullscreenenter"",""1"",""1701""
","
","
","""event"",""trial"",""time""
""fullscreenenter"",""1"",""1701""
","
","","","915.5","","","19","10373","4280","&#9730;","elianto","#3366ff99"," "," ","1","0","[1767.5]","1","1","","","10373","6","1","1","win","go","1"
"pit-trial","124","1669754","0.0-10.0","battery-v0.2","","""event"",""trial"",""time""
""fullscreenenter"",""1"",""1701""
","
","
","""event"",""trial"",""time""
""fullscreenenter"",""1"",""1701""
","
","","","-1","","","19","10373","4280","&#9728;","elianto","#f73b6a7A","-1","-1","1","0","[]","0","1","","","10373","7","0","4","lose","no-go","0"
"pit-trial","125","1673809","0.0-11.0","battery-v0.2","","""event"",""trial"",""time""
""fullscreenenter"",""1"",""1701""
","
","
","""event"",""trial"",""time""
""fullscreenenter"",""1"",""1701""
","
","","","1197.4000000059605","","","19","10373","4280","&#9733;","elianto","#3366ff99","-1"," ","0","0","[2050.800000011921]","1","1","","","10373","8","2","2","win","no-go","0"
"pit-trial","126","1678225","0.0-12.0","battery-v0.2","","""event"",""trial"",""time""
""fullscreenenter"",""1"",""1701""
","
","
","""event"",""trial"",""time""
""fullscreenenter"",""1"",""1701""
","
","","","1556.5","","","19","10373","4280","&#9752;","elianto","#f73b6a7A"," "," ","1","0","[2410.7000000029802]","1","1","","","10373","9","3","3","lose","go","0"
"pit-trial","127","1683089","0.0-13.0","battery-v0.2","","""event"",""trial"",""time""
""fullscreenenter"",""1"",""1701""
","
","
","""event"",""trial"",""time""
""fullscreenenter"",""1"",""1701""
","
","","","-1","","","19","10373","4280","&#9728;","elianto","#f73b6a7A","-1","-1","1","0","[]","0","1","","","10373","10","0","4","lose","no-go","0"
"pit-trial","128","1686491","0.0-14.0","battery-v0.2","","""event"",""trial"",""time""
""fullscreenenter"",""1"",""1701""
","
","
","""event"",""trial"",""time""
""fullscreenenter"",""1"",""1701""
","
","","","537.7000000029802","","","19","10373","4280","&#9733;","elianto","#3366ff99","-1"," ","0","+10","[1391.2000000029802]","1","1","","","10373","11","2","2","win","no-go","1"
"pit-trial","129","1690073","0.0-15.0","battery-v0.2","","""event"",""trial"",""time""
""fullscreenenter"",""1"",""1701""
","
","
","""event"",""trial"",""time""
""fullscreenenter"",""1"",""1701""
","
","","","723.7000000029802","","","19","10373","4280","&#9730;","elianto","#3366ff99"," "," ","1","+10","[1576.0999999940395]","1","1","","","10373","12","1","1","win","go","0"
"pit-trial","130","1693473","0.0-16.0","battery-v0.2","","""event"",""trial"",""time""
""fullscreenenter"",""1"",""1701""
","
","
","""event"",""trial"",""time""
""fullscreenenter"",""1"",""1701""
","
","","","537.7000000029802","","","19","10373","4280","&#9730;","elianto","#3366ff99"," "," ","1","+10","[1393.1000000089407]","1","1","","","10373","13","1","1","win","go","0"
"pit-trial","131","1696801","0.0-17.0","battery-v0.2","","""event"",""trial"",""time""
""fullscreenenter"",""1"",""1701""
","
","
","""event"",""trial"",""time""
""fullscreenenter"",""1"",""1701""
","
","","","470.59999999403954","","","19","10373","4280","&#9733;","elianto","#3366ff99","-1"," ","0","+10","[1321.2000000029802]","1","1","","","10373","14","2","2","win","no-go","1"
"pit-trial","132","1701665","0.0-18.0","battery-v0.2","","""event"",""trial"",""time""
""fullscreenenter"",""1"",""1701""
","
","
","""event"",""trial"",""time""
""fullscreenenter"",""1"",""1701""
","
","","","-1","","","19","10373","4280","&#9728;","elianto","#f73b6a7A","-1","-1","1","0","[]","0","1","","","10373","15","0","4","lose","no-go","0"
"pit-trial","133","1705356","0.0-19.0","battery-v0.2","","""event"",""trial"",""time""
""fullscreenenter"",""1"",""1701""
","
","
","""event"",""trial"",""time""
""fullscreenenter"",""1"",""1701""
","
","","","826.1000000089407","","","19","10373","4280","&#9752;","elianto","#f73b6a7A"," "," ","1","0","[1679.800000011921]","1","1","","","10373","16","3","3","lose","go","0"
"pit-trial","134","1709393","0.0-20.0","battery-v0.2","","""event"",""trial"",""time""
""fullscreenenter"",""1"",""1701""
","
","
","""event"",""trial"",""time""
""fullscreenenter"",""1"",""1701""
","
","","","1179.5","","","19","10373","4280","&#9752;","elianto","#f73b6a7A"," "," ","1","0","[2030.4000000059605]","1","1","","","10373","17","3","3","lose","go","0"
"pit-trial","135","1712796","0.0-21.0","battery-v0.2","","""event"",""trial"",""time""
""fullscreenenter"",""1"",""1701""
","
","
","""event"",""trial"",""time""
""fullscreenenter"",""1"",""1701""
","
","","","537.2999999970198","","","19","10373","4280","&#9730;","elianto","#3366ff99"," "," ","1","+10","[1393.8999999910593]","1","1","","","10373","18","1","1","win","go","0"
"pit-trial","136","1716097","0.0-22.0","battery-v0.2","","""event"",""trial"",""time""
""fullscreenenter"",""1"",""1701""
","
","
","""event"",""trial"",""time""
""fullscreenenter"",""1"",""1701""
","
","","","444.40000000596046","","","19","10373","4280","&#9733;","elianto","#3366ff99","-1"," ","0","0","[1296.7999999970198]","1","1","","","10373","19","2","2","win","no-go","0"
"pit-trial","137","1720961","0.0-23.0","battery-v0.2","","""event"",""trial"",""time""
""fullscreenenter"",""1"",""1701""
","
","
","""event"",""trial"",""time""
""fullscreenenter"",""1"",""1701""
","
","","","-1","","","19","10373","4280","&#9728;","elianto","#f73b6a7A","-1","-1","1","0","[]","0","1","","","10373","20","0","4","lose","no-go","0"
"pit-instructions","138","1734997","0.0-24.0","battery-v0.2","","""event"",""trial"",""time""
""fullscreenenter"",""1"",""1701""
","
","
","""event"",""trial"",""time""
""fullscreenenter"",""1"",""1701""
","
","","[{""page_index"":0,""viewing_time"":5617.20000000298},{""page_index"":1,""viewing_time"":8416.39999999106}]","14033.89999999106","","","","","","","","","","","","","","","","","","","","","","","",""
"pit-trial","139","1739867","0.0-25.0","battery-v0.2","","""event"",""trial"",""time""
""fullscreenenter"",""1"",""1701""
","
","
","""event"",""trial"",""time""
""fullscreenenter"",""1"",""1701""
","
","","","-1","","","19","10373","4280","h","elianto","#f73b6a7A"," ","-1","0","-10","[]","0","2","","","10373","21","3","3","lose","go","0"
"pit-trial","140","1744035","0.0-26.0","battery-v0.2","","""event"",""trial"",""time""
""fullscreenenter"",""1"",""1701""
","
","
","""event"",""trial"",""time""
""fullscreenenter"",""1"",""1701""
","
","","","1307.7999999970198","","","19","10373","4280","m","elianto","#f73b6a7A","-1"," ","0","-10","[2158.0999999940395]","1","2","","","10373","22","0","4","lose","no-go","0"
"pit-trial","141","1748389","0.0-27.0","battery-v0.2","","""event"",""trial"",""time""
""fullscreenenter"",""1"",""1701""
","
","
","""event"",""trial"",""time""
""fullscreenenter"",""1"",""1701""
","
","","","1488.5999999940395","","","19","10373","4280","y","elianto","#f73b6a7A","-1"," ","0","0","[2341.2000000029802]","1","2","","","10373","23","2","4","lose","no-go","1"
"pit-trial","142","1752108","0.0-28.0","battery-v0.2","","""event"",""trial"",""time""
""fullscreenenter"",""1"",""1701""
","
","
","""event"",""trial"",""time""
""fullscreenenter"",""1"",""1701""
","
","","","850.4000000059605","","","19","10373","4280","r","elianto","#3366ff99"," "," ","1","+10","[1706.7000000029802]","1","2","","","10373","24","1","1","win","go","0"
"pit-trial","143","1756969","0.0-29.0","battery-v0.2","","""event"",""trial"",""time""
""fullscreenenter"",""1"",""1701""
","
","
","""event"",""trial"",""time""
""fullscreenenter"",""1"",""1701""
","
","","","-1","","","19","10373","4280","m","elianto","#f73b6a7A","-1","-1","1","0","[]","0","2","","","10373","25","0","4","lose","no-go","0"
"pit-trial","144","1760707","0.0-30.0","battery-v0.2","","""event"",""trial"",""time""
""fullscreenenter"",""1"",""1701""
","
","
","""event"",""trial"",""time""
""fullscreenenter"",""1"",""1701""
","
","","","874.8999999910593","","","19","10373","4280","h","elianto","#f73b6a7A"," "," ","1","-10","[1728.7999999970198]","1","2","","","10373","26","3","3","lose","go","1"
"pit-trial","145","1764754","0.0-31.0","battery-v0.2","","""event"",""trial"",""time""
""fullscreenenter"",""1"",""1701""
","
","
","""event"",""trial"",""time""
""fullscreenenter"",""1"",""1701""
","
","","","1187.5","","","19","10373","4280","r","elianto","#3366ff99"," "," ","1","+10","[2040.1000000089407]","1","2","","","10373","27","1","1","win","go","0"
"pit-trial","146","1769065","0.0-32.0","battery-v0.2","","""event"",""trial"",""time""
""fullscreenenter"",""1"",""1701""
","
","
","""event"",""trial"",""time""
""fullscreenenter"",""1"",""1701""
","
","","","1452.4000000059605","","","19","10373","4280","y","elianto","#f73b6a7A","-1"," ","0","-10","[2307.9000000059605]","1","2","","","10373","28","2","4","lose","no-go","0"
"pit-trial","147","1773932","0.0-33.0","battery-v0.2","","""event"",""trial"",""time""
""fullscreenenter"",""1"",""1701""
","
","
","""event"",""trial"",""time""
""fullscreenenter"",""1"",""1701""
","
","","","-1","","","19","10373","4280","h","elianto","#f73b6a7A"," ","-1","0","-10","[]","0","2","","","10373","29","3","3","lose","go","0"
"pit-trial","148","1778797","0.0-34.0","battery-v0.2","","""event"",""trial"",""time""
""fullscreenenter"",""1"",""1701""
","
","
","""event"",""trial"",""time""
""fullscreenenter"",""1"",""1701""
","
","","","-1","","","19","10373","4280","m","elianto","#f73b6a7A","-1","-1","1","-10","[]","0","2","","","10373","30","0","4","lose","no-go","1"
"pit-trial","149","1782438","0.0-35.0","battery-v0.2","","""event"",""trial"",""time""
""fullscreenenter"",""1"",""1701""
","
","
","""event"",""trial"",""time""
""fullscreenenter"",""1"",""1701""
","
","","","779.7000000029802","","","19","10373","4280","y","elianto","#f73b6a7A","-1"," ","0","-10","[1631.2999999970198]","1","2","","","10373","31","2","4","lose","no-go","0"
"pit-trial","150","1785763","0.0-36.0","battery-v0.2","","""event"",""trial"",""time""
""fullscreenenter"",""1"",""1701""
","
","
","""event"",""trial"",""time""
""fullscreenenter"",""1"",""1701""
","
","","","463.90000000596046","","","19","10373","4280","r","elianto","#3366ff99"," "," ","1","0","[1317.300000011921]","1","2","","","10373","32","1","1","win","go","1"
"pit-trial","151","1790275","0.0-37.0","battery-v0.2","","""event"",""trial"",""time""
""fullscreenenter"",""1"",""1701""
","
","
","""event"",""trial"",""time""
""fullscreenenter"",""1"",""1701""
","
","","","1648.9000000059605","","","19","10373","4280","h","elianto","#f73b6a7A"," "," ","1","-10","[2501.7000000029802]","1","2","","","10373","33","3","3","lose","go","1"
"pit-trial","152","1794043","0.0-38.0","battery-v0.2","","""event"",""trial"",""time""
""fullscreenenter"",""1"",""1701""
","
","
","""event"",""trial"",""time""
""fullscreenenter"",""1"",""1701""
","
","","","904.7999999970198","","","19","10373","4280","r","elianto","#3366ff99"," "," ","1","+10","[1760.0999999940395]","1","2","","","10373","34","1","1","win","go","0"
"pit-trial","153","1798286","0.0-39.0","battery-v0.2","","""event"",""trial"",""time""
""fullscreenenter"",""1"",""1701""
","
","
","""event"",""trial"",""time""
""fullscreenenter"",""1"",""1701""
","
","","","1376.1000000089407","","","19","10373","4280","y","elianto","#f73b6a7A","-1"," ","0","-10","[2230.300000011921]","1","2","","","10373","35","2","4","lose","no-go","0"
"pit-trial","154","1802971","0.0-40.0","battery-v0.2","","""event"",""trial"",""time""
""fullscreenenter"",""1"",""1701""
","
","
","""event"",""trial"",""time""
""fullscreenenter"",""1"",""1701""
","
","","","1830.5","","","19","10373","4280","m","elianto","#f73b6a7A","-1"," ","0","-10","[2681.3999999910593]","1","2","","","10373","36","0","4","lose","no-go","0"
"pit-trial","155","1807454","0.0-41.0","battery-v0.2","","""event"",""trial"",""time""
""fullscreenenter"",""1"",""1701""
","
","
","""event"",""trial"",""time""
""fullscreenenter"",""1"",""1701""
","
","","","1616.6000000089407","","","19","10373","4280","h","elianto","#f73b6a7A"," "," ","1","-10","[2471.1000000089407]","1","2","","","10373","37","3","3","lose","go","1"
"pit-trial","156","1812317","0.0-42.0","battery-v0.2","","""event"",""trial"",""time""
""fullscreenenter"",""1"",""1701""
","
","
","""event"",""trial"",""time""
""fullscreenenter"",""1"",""1701""
","
","","","-1","","","19","10373","4280","m","elianto","#f73b6a7A","-1","-1","1","0","[]","0","2","","","10373","38","0","4","lose","no-go","0"
"pit-trial","157","1816035","0.0-43.0","battery-v0.2","","""event"",""trial"",""time""
""fullscreenenter"",""1"",""1701""
","
","
","""event"",""trial"",""time""
""fullscreenenter"",""1"",""1701""
","
","","","857.5999999940395","","","19","10373","4280","r","elianto","#3366ff99"," "," ","1","+10","[1710.699999988079]","1","2","","","10373","39","1","1","win","go","0"
"pit-trial","158","1820903","0.0-44.0","battery-v0.2","","""event"",""trial"",""time""
""fullscreenenter"",""1"",""1701""
","
","
","""event"",""trial"",""time""
""fullscreenenter"",""1"",""1701""
","
","","","-1","","","19","10373","4280","y","elianto","#f73b6a7A","-1","-1","1","0","[]","0","2","","","10373","40","2","4","lose","no-go","0"
"pit-trial","159","1824397","0.0-45.0","battery-v0.2","","""event"",""trial"",""time""
""fullscreenenter"",""1"",""1701""
","
","
","""event"",""trial"",""time""
""fullscreenenter"",""1"",""1701""
","
","","","630.2000000029802","","","19","10373","4280","r","elianto","#3366ff99"," "," ","1","+10","[1488.5]","1","2","","","10373","41","1","1","win","go","0"
"pit-trial","160","1829261","0.0-46.0","battery-v0.2","","""event"",""trial"",""time""
""fullscreenenter"",""1"",""1701""
","
","
","""event"",""trial"",""time""
""fullscreenenter"",""1"",""1701""
","
","","","-1","","","19","10373","4280","y","elianto","#f73b6a7A","-1","-1","1","0","[]","0","2","","","10373","42","2","4","lose","no-go","0"
"pit-trial","161","1834124","0.0-47.0","battery-v0.2","","""event"",""trial"",""time""
""fullscreenenter"",""1"",""1701""
","
","
","""event"",""trial"",""time""
""fullscreenenter"",""1"",""1701""
","
","","","-1","","","19","10373","4280","h","elianto","#f73b6a7A"," ","-1","0","-10","[]","0","2","","","10373","43","3","3","lose","go","0"
"pit-trial","162","1838990","0.0-48.0","battery-v0.2","","""event"",""trial"",""time""
""fullscreenenter"",""1"",""1701""
","
","
","""event"",""trial"",""time""
""fullscreenenter"",""1"",""1701""
","
","","","-1","","","19","10373","4280","m","elianto","#f73b6a7A","-1","-1","1","0","[]","0","2","","","10373","44","0","4","lose","no-go","0"
"pit-trial","163","1843854","0.0-49.0","battery-v0.2","","""event"",""trial"",""time""
""fullscreenenter"",""1"",""1701""
","
","
","""event"",""trial"",""time""
""fullscreenenter"",""1"",""1701""
","
","","","-1","","","19","10373","4280","y","elianto","#f73b6a7A","-1","-1","1","0","[]","0","2","","","10373","45","2","4","lose","no-go","0"
"pit-trial","164","1847803","0.0-50.0","battery-v0.2","","""event"",""trial"",""time""
""fullscreenenter"",""1"",""1701""
","
","
","""event"",""trial"",""time""
""fullscreenenter"",""1"",""1701""
","
","","","1087.7999999970198","","","19","10373","4280","z","elianto","#3366ff99","-1"," ","0","0","[1939.7999999970198]","1","2","","","10373","46","4","2","win","no-go","0"
"pit-trial","165","1852670","0.0-51.0","battery-v0.2","","""event"",""trial"",""time""
""fullscreenenter"",""1"",""1701""
","
","
","""event"",""trial"",""time""
""fullscreenenter"",""1"",""1701""
","
","","","-1","","","19","10373","4280","m","elianto","#f73b6a7A","-1","-1","1","0","[]","0","2","","","10373","47","0","4","lose","no-go","0"
"pit-trial","166","1857531","0.0-52.0","battery-v0.2","","""event"",""trial"",""time""
""fullscreenenter"",""1"",""1701""
","
","
","""event"",""trial"",""time""
""fullscreenenter"",""1"",""1701""
","
","","","-1","","","19","10373","4280","h","elianto","#f73b6a7A"," ","-1","0","-10","[]","0","2","","","10373","48","3","3","lose","go","0"
"pit-trial","167","1862399","0.0-53.0","battery-v0.2","","""event"",""trial"",""time""
""fullscreenenter"",""1"",""1701""
","
","
","""event"",""trial"",""time""
""fullscreenenter"",""1"",""1701""
","
","","","-1","","","19","10373","4280","m","elianto","#f73b6a7A","-1","-1","1","0","[]","0","2","","","10373","49","0","4","lose","no-go","0"
"pit-trial","168","1865758","0.0-54.0","battery-v0.2","","""event"",""trial"",""time""
""fullscreenenter"",""1"",""1701""
","
","
","""event"",""trial"",""time""
""fullscreenenter"",""1"",""1701""
","
","","","498.8999999910593","","","19","10373","4280","h","elianto","#f73b6a7A"," "," ","1","0","[1351.5]","1","2","","","10373","50","3","3","lose","go","0"
"pit-trial","169","1869332","0.0-55.0","battery-v0.2","","""event"",""trial"",""time""
""fullscreenenter"",""1"",""1701""
","
","
","""event"",""trial"",""time""
""fullscreenenter"",""1"",""1701""
","
","","","715.7000000029802","","","19","10373","4280","r","elianto","#3366ff99"," "," ","1","+10","[1567.2000000029802]","1","2","","","10373","51","1","1","win","go","0"
"pit-trial","170","1874199","0.0-56.0","battery-v0.2","","""event"",""trial"",""time""
""fullscreenenter"",""1"",""1701""
","
","
","""event"",""trial"",""time""
""fullscreenenter"",""1"",""1701""
","
","","","-1","","","19","10373","4280","z","elianto","#3366ff99","-1","-1","1","+10","[]","0","2","","","10373","52","4","2","win","no-go","0"
"pit-trial","171","1877908","0.0-57.0","battery-v0.2","","""event"",""trial"",""time""
""fullscreenenter"",""1"",""1701""
","
","
","""event"",""trial"",""time""
""fullscreenenter"",""1"",""1701""
","
","","","853.9000000059605","","","19","10373","4280","r","elianto","#3366ff99"," "," ","1","+10","[1706.2000000029802]","1","2","","","10373","53","1","1","win","go","0"
"pit-trial","172","1882772","0.0-58.0","battery-v0.2","","""event"",""trial"",""time""
""fullscreenenter"",""1"",""1701""
","
","
","""event"",""trial"",""time""
""fullscreenenter"",""1"",""1701""
","
","","","-1","","","19","10373","4280","y","elianto","#f73b6a7A","-1","-1","1","-10","[]","0","2","","","10373","54","2","4","lose","no-go","1"
"pit-trial","173","1887638","0.0-59.0","battery-v0.2","","""event"",""trial"",""time""
""fullscreenenter"",""1"",""1701""
","
","
","""event"",""trial"",""time""
""fullscreenenter"",""1"",""1701""
","
","","","-1","","","19","10373","4280","z","elianto","#3366ff99","-1","-1","1","0","[]","0","2","","","10373","55","4","2","win","no-go","1"
"pit-trial","174","1892500","0.0-60.0","battery-v0.2","","""event"",""trial"",""time""
""fullscreenenter"",""1"",""1701""
","
","
","""event"",""trial"",""time""
""fullscreenenter"",""1"",""1701""
","
","","","-1","","","19","10373","4280","m","elianto","#f73b6a7A","-1","-1","1","0","[]","0","2","","","10373","56","0","4","lose","no-go","0"
"pit-trial","175","1896107","0.0-61.0","battery-v0.2","","""event"",""trial"",""time""
""fullscreenenter"",""1"",""1701""
","
","
","""event"",""trial"",""time""
""fullscreenenter"",""1"",""1701""
","
","","","746.7999999970198","","","19","10373","4280","h","elianto","#f73b6a7A"," "," ","1","0","[1600.6000000089407]","1","2","","","10373","57","3","3","lose","go","0"
"pit-trial","176","1899671","0.0-62.0","battery-v0.2","","""event"",""trial"",""time""
""fullscreenenter"",""1"",""1701""
","
","
","""event"",""trial"",""time""
""fullscreenenter"",""1"",""1701""
","
","","","696.5999999940395","","","19","10373","4280","r","elianto","#3366ff99"," "," ","1","+10","[1551.5]","1","2","","","10373","58","1","1","win","go","0"
"pit-trial","177","1904543","0.0-63.0","battery-v0.2","","""event"",""trial"",""time""
""fullscreenenter"",""1"",""1701""
","
","
","""event"",""trial"",""time""
""fullscreenenter"",""1"",""1701""
","
","","","-1","","","19","10373","4280","z","elianto","#3366ff99","-1","-1","1","+10","[]","0","2","","","10373","59","4","2","win","no-go","0"
"pit-trial","178","1909407","0.0-64.0","battery-v0.2","","""event"",""trial"",""time""
""fullscreenenter"",""1"",""1701""
","
","
","""event"",""trial"",""time""
""fullscreenenter"",""1"",""1701""
","
","","","-1","","","19","10373","4280","m","elianto","#f73b6a7A","-1","-1","1","0","[]","0","2","","","10373","60","0","4","lose","no-go","0"
"pit-trial","179","1914270","0.0-65.0","battery-v0.2","","""event"",""trial"",""time""
""fullscreenenter"",""1"",""1701""
","
","
","""event"",""trial"",""time""
""fullscreenenter"",""1"",""1701""
","
","","","-1","","","19","10373","4280","z","elianto","#3366ff99","-1","-1","1","+10","[]","0","2","","","10373","61","4","2","win","no-go","0"
"pit-trial","180","1917638","0.0-66.0","battery-v0.2","","""event"",""trial"",""time""
""fullscreenenter"",""1"",""1701""
","
","
","""event"",""trial"",""time""
""fullscreenenter"",""1"",""1701""
","
","","","509.6000000089407","","","19","10373","4280","r","elianto","#3366ff99"," "," ","1","+10","[1362.1000000089407]","1","2","","","10373","62","1","1","win","go","0"
"pit-trial","181","1921487","0.0-67.0","battery-v0.2","","""event"",""trial"",""time""
""fullscreenenter"",""1"",""1701""
","
","
","""event"",""trial"",""time""
""fullscreenenter"",""1"",""1701""
","
","","","984.3999999910593","","","19","10373","4280","h","elianto","#f73b6a7A"," "," ","1","0","[1835.3999999910593]","1","2","","","10373","63","3","3","lose","go","0"
"pit-trial","182","1926351","0.0-68.0","battery-v0.2","","""event"",""trial"",""time""
""fullscreenenter"",""1"",""1701""
","
","
","""event"",""trial"",""time""
""fullscreenenter"",""1"",""1701""
","
","","","-1","","","19","10373","4280","y","elianto","#f73b6a7A","-1","-1","1","0","[]","0","2","","","10373","64","2","4","lose","no-go","0"
"pit-trial","183","1931215","0.0-69.0","battery-v0.2","","""event"",""trial"",""time""
""fullscreenenter"",""1"",""1701""
","
","
","""event"",""trial"",""time""
""fullscreenenter"",""1"",""1701""
","
","","","-1","","","19","10373","4280","y","elianto","#f73b6a7A","-1","-1","1","0","[]","0","2","","","10373","65","2","4","lose","no-go","0"
"pit-trial","184","1936079","0.0-70.0","battery-v0.2","","""event"",""trial"",""time""
""fullscreenenter"",""1"",""1701""
","
","
","""event"",""trial"",""time""
""fullscreenenter"",""1"",""1701""
","
","","","-1","","","19","10373","4280","z","elianto","#3366ff99","-1","-1","1","0","[]","0","2","","","10373","66","4","2","win","no-go","1"
"pit-trial","185","1939436","0.0-71.0","battery-v0.2","","""event"",""trial"",""time""
""fullscreenenter"",""1"",""1701""
","
","
","""event"",""trial"",""time""
""fullscreenenter"",""1"",""1701""
","
","","","496.20000000298023","","","19","10373","4280","r","elianto","#3366ff99"," "," ","1","+10","[1348.2000000029802]","1","2","","","10373","67","1","1","win","go","0"
"pit-trial","186","1943365","0.0-72.0","battery-v0.2","","""event"",""trial"",""time""
""fullscreenenter"",""1"",""1701""
","
","
","""event"",""trial"",""time""
""fullscreenenter"",""1"",""1701""
","
","","","1062.9000000059605","","","19","10373","4280","h","elianto","#f73b6a7A"," "," ","1","-10","[1917.7000000029802]","1","2","","","10373","68","3","3","lose","go","1"
"pit-trial","187","1947365","0.0-73.0","battery-v0.2","","""event"",""trial"",""time""
""fullscreenenter"",""1"",""1701""
","
","
","""event"",""trial"",""time""
""fullscreenenter"",""1"",""1701""
","
","","","1142.7000000029802","","","19","10373","4280","h","elianto","#f73b6a7A"," "," ","1","0","[1996.3999999910593]","1","2","","","10373","69","3","3","lose","go","0"
"pit-trial","188","1952231","0.0-74.0","battery-v0.2","","""event"",""trial"",""time""
""fullscreenenter"",""1"",""1701""
","
","
","""event"",""trial"",""time""
""fullscreenenter"",""1"",""1701""
","
","","","-1","","","19","10373","4280","z","elianto","#3366ff99","-1","-1","1","+10","[]","0","2","","","10373","70","4","2","win","no-go","0"
"pit-trial","189","1955599","0.0-75.0","battery-v0.2","","""event"",""trial"",""time""
""fullscreenenter"",""1"",""1701""
","
","
","""event"",""trial"",""time""
""fullscreenenter"",""1"",""1701""
","
","","","506","","","19","10373","4280","r","elianto","#3366ff99"," "," ","1","+10","[1357.2000000029802]","1","2","","","10373","71","1","1","win","go","0"
"pit-trial","190","1959661","0.0-76.0","battery-v0.2","","""event"",""trial"",""time""
""fullscreenenter"",""1"",""1701""
","
","
","""event"",""trial"",""time""
""fullscreenenter"",""1"",""1701""
","
","","","1200.2999999970198","","","19","10373","4280","c","elianto","#3366ff99"," "," ","1","0","[2051.5999999940395]","1","2","","","10373","72","5","1","win","go","1"
"pit-trial","191","1964528","0.0-77.0","battery-v0.2","","""event"",""trial"",""time""
""fullscreenenter"",""1"",""1701""
","
","
","""event"",""trial"",""time""
""fullscreenenter"",""1"",""1701""
","
","","","-1","","","19","10373","4280","c","elianto","#3366ff99"," ","-1","0","0","[]","0","2","","","10373","73","5","1","win","go","0"
"pit-trial","192","1968437","0.0-78.0","battery-v0.2","","""event"",""trial"",""time""
""fullscreenenter"",""1"",""1701""
","
","
","""event"",""trial"",""time""
""fullscreenenter"",""1"",""1701""
","
","","","1054.2000000029802","","","19","10373","4280","h","elianto","#f73b6a7A"," "," ","1","0","[1905.5]","1","2","","","10373","74","3","3","lose","go","0"
"pit-trial","193","1973301","0.0-79.0","battery-v0.2","","""event"",""trial"",""time""
""fullscreenenter"",""1"",""1701""
","
","
","""event"",""trial"",""time""
""fullscreenenter"",""1"",""1701""
","
","","","-1","","","19","10373","4280","z","elianto","#3366ff99","-1","-1","1","+10","[]","0","2","","","10373","75","4","2","win","no-go","0"
"pit-trial","194","1976964","0.0-80.0","battery-v0.2","","""event"",""trial"",""time""
""fullscreenenter"",""1"",""1701""
","
","
","""event"",""trial"",""time""
""fullscreenenter"",""1"",""1701""
","
","","","804.3999999910593","","","19","10373","4280","r","elianto","#3366ff99"," "," ","1","+10","[1657.6000000089407]","1","2","","","10373","76","1","1","win","go","0"
"pit-trial","195","1981829","0.0-81.0","battery-v0.2","","""event"",""trial"",""time""
""fullscreenenter"",""1"",""1701""
","
","
","""event"",""trial"",""time""
""fullscreenenter"",""1"",""1701""
","
","","","-1","","","19","10373","4280","b","elianto","#f73b6a7A","-1","-1","1","-10","[]","0","2","","","10373","77","6","4","lose","no-go","1"
"pit-trial","196","1986000","0.0-82.0","battery-v0.2","","""event"",""trial"",""time""
""fullscreenenter"",""1"",""1701""
","
","
","""event"",""trial"",""time""
""fullscreenenter"",""1"",""1701""
","
","","","1308.7999999970198","","","19","10373","4280","c","elianto","#3366ff99"," "," ","1","+10","[2163.2999999970198]","1","2","","","10373","78","5","1","win","go","0"
"pit-trial","197","1990863","0.0-83.0","battery-v0.2","","""event"",""trial"",""time""
""fullscreenenter"",""1"",""1701""
","
","
","""event"",""trial"",""time""
""fullscreenenter"",""1"",""1701""
","
","","","-1","","","19","10373","4280","z","elianto","#3366ff99","-1","-1","1","+10","[]","0","2","","","10373","79","4","2","win","no-go","0"
"pit-trial","198","1995008","0.0-84.0","battery-v0.2","","""event"",""trial"",""time""
""fullscreenenter"",""1"",""1701""
","
","
","""event"",""trial"",""time""
""fullscreenenter"",""1"",""1701""
","
","","","1280","","","19","10373","4280","h","elianto","#f73b6a7A"," "," ","1","0","[2132.300000011921]","1","2","","","10373","80","3","3","lose","go","0"
"pit-trial","199","1999872","0.0-85.0","battery-v0.2","","""event"",""trial"",""time""
""fullscreenenter"",""1"",""1701""
","
","
","""event"",""trial"",""time""
""fullscreenenter"",""1"",""1701""
","
","","","-1","","","19","10373","4280","z","elianto","#3366ff99","-1","-1","1","+10","[]","0","2","","","10373","81","4","2","win","no-go","0"
"pit-trial","200","2004741","0.0-86.0","battery-v0.2","","""event"",""trial"",""time""
""fullscreenenter"",""1"",""1701""
","
","
","""event"",""trial"",""time""
""fullscreenenter"",""1"",""1701""
","
","","","-1","","","19","10373","4280","b","elianto","#f73b6a7A","-1","-1","1","-10","[]","0","2","","","10373","82","6","4","lose","no-go","1"
"pit-trial","201","2009607","0.0-87.0","battery-v0.2","","""event"",""trial"",""time""
""fullscreenenter"",""1"",""1701""
","
","
","""event"",""trial"",""time""
""fullscreenenter"",""1"",""1701""
","
","","","-1","","","19","10373","4280","t","elianto","#f73b6a7A"," ","-1","0","-10","[]","0","2","","","10373","83","7","3","lose","go","0"
"pit-trial","202","2013242","0.0-88.0","battery-v0.2","","""event"",""trial"",""time""
""fullscreenenter"",""1"",""1701""
","
","
","""event"",""trial"",""time""
""fullscreenenter"",""1"",""1701""
","
","","","771","","","19","10373","4280","c","elianto","#3366ff99"," "," ","1","+10","[1622.8999999910593]","1","2","","","10373","84","5","1","win","go","0"
"pit-trial","203","2016838","0.0-89.0","battery-v0.2","","""event"",""trial"",""time""
""fullscreenenter"",""1"",""1701""
","
","
","""event"",""trial"",""time""
""fullscreenenter"",""1"",""1701""
","
","","","734.0999999940395","","","19","10373","4280","c","elianto","#3366ff99"," "," ","1","+10","[1591.0999999940395]","1","2","","","10373","85","5","1","win","go","0"
"pit-trial","204","2020632","0.0-90.0","battery-v0.2","","""event"",""trial"",""time""
""fullscreenenter"",""1"",""1701""
","
","
","""event"",""trial"",""time""
""fullscreenenter"",""1"",""1701""
","
","","","928.7000000029802","","","19","10373","4280","b","elianto","#f73b6a7A","-1"," ","0","-10","[1782.7000000029802]","1","2","","","10373","86","6","4","lose","no-go","0"
"pit-trial","205","2024457","0.0-91.0","battery-v0.2","","""event"",""trial"",""time""
""fullscreenenter"",""1"",""1701""
","
","
","""event"",""trial"",""time""
""fullscreenenter"",""1"",""1701""
","
","","","964.7000000029802","","","19","10373","4280","t","elianto","#f73b6a7A"," "," ","1","-10","[1815.2000000029802]","1","2","","","10373","87","7","3","lose","go","1"
"pit-trial","206","2029328","0.0-92.0","battery-v0.2","","""event"",""trial"",""time""
""fullscreenenter"",""1"",""1701""
","
","
","""event"",""trial"",""time""
""fullscreenenter"",""1"",""1701""
","
","","","-1","","","19","10373","4280","z","elianto","#3366ff99","-1","-1","1","+10","[]","0","2","","","10373","88","4","2","win","no-go","0"
"pit-trial","207","2034192","0.0-93.0","battery-v0.2","","""event"",""trial"",""time""
""fullscreenenter"",""1"",""1701""
","
","
","""event"",""trial"",""time""
""fullscreenenter"",""1"",""1701""
","
","","","-1","","","19","10373","4280","t","elianto","#f73b6a7A"," ","-1","0","-10","[]","0","2","","","10373","89","7","3","lose","go","0"
"pit-trial","208","2038813","0.0-94.0","battery-v0.2","","""event"",""trial"",""time""
""fullscreenenter"",""1"",""1701""
","
","
","""event"",""trial"",""time""
""fullscreenenter"",""1"",""1701""
","
","","","1763","","","19","10373","4280","b","elianto","#f73b6a7A","-1"," ","0","-10","[2614.2999999970198]","1","2","","","10373","90","6","4","lose","no-go","0"
"pit-trial","209","2042560","0.0-95.0","battery-v0.2","","""event"",""trial"",""time""
""fullscreenenter"",""1"",""1701""
","
","
","""event"",""trial"",""time""
""fullscreenenter"",""1"",""1701""
","
","","","885.7999999970198","","","19","10373","4280","c","elianto","#3366ff99"," "," ","1","+10","[1740]","1","2","","","10373","91","5","1","win","go","0"
"pit-trial","210","2047425","0.0-96.0","battery-v0.2","","""event"",""trial"",""time""
""fullscreenenter"",""1"",""1701""
","
","
","""event"",""trial"",""time""
""fullscreenenter"",""1"",""1701""
","
","","","-1","","","19","10373","4280","z","elianto","#3366ff99","-1","-1","1","+10","[]","0","2","","","10373","92","4","2","win","no-go","0"
"pit-trial","211","2052289","0.0-97.0","battery-v0.2","","""event"",""trial"",""time""
""fullscreenenter"",""1"",""1701""
","
","
","""event"",""trial"",""time""
""fullscreenenter"",""1"",""1701""
","
","","","-1","","","19","10373","4280","t","elianto","#f73b6a7A"," ","-1","0","-10","[]","0","2","","","10373","93","7","3","lose","go","0"
"pit-trial","212","2056134","0.0-98.0","battery-v0.2","","""event"",""trial"",""time""
""fullscreenenter"",""1"",""1701""
","
","
","""event"",""trial"",""time""
""fullscreenenter"",""1"",""1701""
","
","","","990.0999999940395","","","19","10373","4280","f","elianto","#3366ff99","-1"," ","0","+10","[1841.2000000029802]","1","2","","","10373","94","8","2","win","no-go","1"
"pit-trial","213","2060541","0.0-99.0","battery-v0.2","","""event"",""trial"",""time""
""fullscreenenter"",""1"",""1701""
","
","
","""event"",""trial"",""time""
""fullscreenenter"",""1"",""1701""
","
","","","1543.800000011921","","","19","10373","4280","b","elianto","#f73b6a7A","-1"," ","0","-10","[2400.1000000089407]","1","2","","","10373","95","6","4","lose","no-go","0"
"pit-trial","214","2064209","0.0-100.0","battery-v0.2","","""event"",""trial"",""time""
""fullscreenenter"",""1"",""1701""
","
","
","""event"",""trial"",""time""
""fullscreenenter"",""1"",""1701""
","
","","","804","","","19","10373","4280","c","elianto","#3366ff99"," "," ","1","0","[1654.7000000029802]","1","2","","","10373","96","5","1","win","go","1"
"pit-trial","215","2069073","0.0-101.0","battery-v0.2","","""event"",""trial"",""time""
""fullscreenenter"",""1"",""1701""
","
","
","""event"",""trial"",""time""
""fullscreenenter"",""1"",""1701""
","
","","","-1","","","19","10373","4280","b","elianto","#f73b6a7A","-1","-1","1","0","[2896.0999999940395]","1","2","","","10373","97","6","4","lose","no-go","0"
"pit-trial","216","2072705","0.0-102.0","battery-v0.2","","""event"",""trial"",""time""
""fullscreenenter"",""1"",""1701""
","
","
","""event"",""trial"",""time""
""fullscreenenter"",""1"",""1701""
","
","","","773.3999999910593","","","19","10373","4280","c","elianto","#3366ff99"," "," ","1","+10","[1625.0999999940395]","1","2","","","10373","98","5","1","win","go","0"
"pit-trial","217","2077409","0.0-103.0","battery-v0.2","","""event"",""trial"",""time""
""fullscreenenter"",""1"",""1701""
","
","
","""event"",""trial"",""time""
""fullscreenenter"",""1"",""1701""
","
","","","1839.2999999970198","","","19","10373","4280","t","elianto","#f73b6a7A"," "," ","1","0","[2690.7999999970198]","1","2","","","10373","99","7","3","lose","go","0"
"pit-trial","218","2082065","0.0-104.0","battery-v0.2","","""event"",""trial"",""time""
""fullscreenenter"",""1"",""1701""
","
","
","""event"",""trial"",""time""
""fullscreenenter"",""1"",""1701""
","
","","","1790.7000000029802","","","19","10373","4280","f","elianto","#3366ff99","-1"," ","0","0","[2643.4000000059605]","1","2","","","10373","100","8","2","win","no-go","0"
"pit-trial","219","2085547","0.0-105.0","battery-v0.2","","""event"",""trial"",""time""
""fullscreenenter"",""1"",""1701""
","
","
","""event"",""trial"",""time""
""fullscreenenter"",""1"",""1701""
","
","","","557.9000000059605","","","19","10373","4280","f","elianto","#3366ff99","-1"," ","0","+10","[1419.5999999940395]","1","2","","","10373","101","8","2","win","no-go","1"
"pit-trial","220","2089537","0.0-106.0","battery-v0.2","","""event"",""trial"",""time""
""fullscreenenter"",""1"",""1701""
","
","
","""event"",""trial"",""time""
""fullscreenenter"",""1"",""1701""
","
","","","1125.0999999940395","","","19","10373","4280","n","elianto","#3366ff99","-1"," ","0","0","[1982.4000000059605]","1","2","","","10373","102","9","2","win","no-go","0"
"pit-trial","221","2093496","0.0-107.0","battery-v0.2","","""event"",""trial"",""time""
""fullscreenenter"",""1"",""1701""
","
","
","""event"",""trial"",""time""
""fullscreenenter"",""1"",""1701""
","
","","","1101.7999999970198","","","19","10373","4280","b","elianto","#f73b6a7A","-1"," ","0","-10","[1953.2000000029802]","1","2","","","10373","103","6","4","lose","no-go","0"
"pit-trial","222","2097093","0.0-108.0","battery-v0.2","","""event"",""trial"",""time""
""fullscreenenter"",""1"",""1701""
","
","
","""event"",""trial"",""time""
""fullscreenenter"",""1"",""1701""
","
","","","739.3000000119209","","","19","10373","4280","c","elianto","#3366ff99"," "," ","1","+10","[1589.9000000059605]","1","2","","","10373","104","5","1","win","go","0"
"pit-trial","223","2101958","0.0-109.0","battery-v0.2","","""event"",""trial"",""time""
""fullscreenenter"",""1"",""1701""
","
","
","""event"",""trial"",""time""
""fullscreenenter"",""1"",""1701""
","
","","","-1","","","19","10373","4280","b","elianto","#f73b6a7A","-1","-1","1","0","[]","0","2","","","10373","105","6","4","lose","no-go","0"
"pit-trial","224","2106000","0.0-110.0","battery-v0.2","","""event"",""trial"",""time""
""fullscreenenter"",""1"",""1701""
","
","
","""event"",""trial"",""time""
""fullscreenenter"",""1"",""1701""
","
","","","1182.3999999910593","","","19","10373","4280","n","elianto","#3366ff99","-1"," ","0","0","[2034.0999999940395]","1","2","","","10373","106","9","2","win","no-go","0"
"pit-trial","225","2109713","0.0-111.0","battery-v0.2","","""event"",""trial"",""time""
""fullscreenenter"",""1"",""1701""
","
","
","""event"",""trial"",""time""
""fullscreenenter"",""1"",""1701""
","
","","","852.7999999970198","","","19","10373","4280","c","elianto","#3366ff99"," "," ","1","+10","[1705.8999999910593]","1","2","","","10373","107","5","1","win","go","0"
"pit-trial","226","2114439","0.0-112.0","battery-v0.2","","""event"",""trial"",""time""
""fullscreenenter"",""1"",""1701""
","
","
","""event"",""trial"",""time""
""fullscreenenter"",""1"",""1701""
","
","","","1863","","","19","10373","4280","f","elianto","#3366ff99","-1"," ","0","0","[2714.5]","1","2","","","10373","108","8","2","win","no-go","0"
"pit-trial","227","2119303","0.0-113.0","battery-v0.2","","""event"",""trial"",""time""
""fullscreenenter"",""1"",""1701""
","
","
","""event"",""trial"",""time""
""fullscreenenter"",""1"",""1701""
","
","","","-1","","","19","10373","4280","n","elianto","#3366ff99","-1","-1","1","+10","[]","0","2","","","10373","109","9","2","win","no-go","0"
"pit-trial","228","2124170","0.0-114.0","battery-v0.2","","""event"",""trial"",""time""
""fullscreenenter"",""1"",""1701""
","
","
","""event"",""trial"",""time""
""fullscreenenter"",""1"",""1701""
","
","","","-1","","","19","10373","4280","f","elianto","#3366ff99","-1","-1","1","+10","[]","0","2","","","10373","110","8","2","win","no-go","0"
"pit-trial","229","2129031","0.0-115.0","battery-v0.2","","""event"",""trial"",""time""
""fullscreenenter"",""1"",""1701""
","
","
","""event"",""trial"",""time""
""fullscreenenter"",""1"",""1701""
","
","","","-1","","","19","10373","4280","b","elianto","#f73b6a7A","-1","-1","1","-10","[]","0","2","","","10373","111","6","4","lose","no-go","1"
"pit-trial","230","2132599","0.0-116.0","battery-v0.2","","""event"",""trial"",""time""
""fullscreenenter"",""1"",""1701""
","
","
","""event"",""trial"",""time""
""fullscreenenter"",""1"",""1701""
","
","","","706.5999999940395","","","19","10373","4280","c","elianto","#3366ff99"," "," ","1","+10","[1560.5]","1","2","","","10373","112","5","1","win","go","0"
"pit-trial","231","2137463","0.0-117.0","battery-v0.2","","""event"",""trial"",""time""
""fullscreenenter"",""1"",""1701""
","
","
","""event"",""trial"",""time""
""fullscreenenter"",""1"",""1701""
","
","","","-1","","","19","10373","4280","n","elianto","#3366ff99","-1","-1","1","+10","[]","0","2","","","10373","113","9","2","win","no-go","0"
"pit-trial","232","2142329","0.0-118.0","battery-v0.2","","""event"",""trial"",""time""
""fullscreenenter"",""1"",""1701""
","
","
","""event"",""trial"",""time""
""fullscreenenter"",""1"",""1701""
","
","","","-1","","","19","10373","4280","f","elianto","#3366ff99","-1","-1","1","+10","[]","0","2","","","10373","114","8","2","win","no-go","0"
"pit-trial","233","2146078","0.0-119.0","battery-v0.2","","""event"",""trial"",""time""
""fullscreenenter"",""1"",""1701""
","
","
","""event"",""trial"",""time""
""fullscreenenter"",""1"",""1701""
","
","","","886.1999999880791","","","19","10373","4280","c","elianto","#3366ff99"," "," ","1","+10","[1740.5999999940395]","1","2","","","10373","115","5","1","win","go","0"
"pit-trial","234","2150415","0.0-120.0","battery-v0.2","","""event"",""trial"",""time""
""fullscreenenter"",""1"",""1701""
","
","
","""event"",""trial"",""time""
""fullscreenenter"",""1"",""1701""
","
","","","1475.8999999910593","","","19","10373","4280","t","elianto","#f73b6a7A"," "," ","1","0","[2329.7999999970198]","1","2","","","10373","116","7","3","lose","go","0"
"pit-trial","235","2155282","0.0-121.0","battery-v0.2","","""event"",""trial"",""time""
""fullscreenenter"",""1"",""1701""
","
","
","""event"",""trial"",""time""
""fullscreenenter"",""1"",""1701""
","
","","","-1","","","19","10373","4280","b","elianto","#f73b6a7A","-1","-1","1","-10","[]","0","2","","","10373","117","6","4","lose","no-go","1"
"pit-trial","236","2159010","0.0-122.0","battery-v0.2","","""event"",""trial"",""time""
""fullscreenenter"",""1"",""1701""
","
","
","""event"",""trial"",""time""
""fullscreenenter"",""1"",""1701""
","
","","","867.1000000089407","","","19","10373","4280","f","elianto","#3366ff99","-1"," ","0","0","[1718.1000000089407]","1","2","","","10373","118","8","2","win","no-go","0"
"pit-trial","237","2163875","0.0-123.0","battery-v0.2","","""event"",""trial"",""time""
""fullscreenenter"",""1"",""1701""
","
","
","""event"",""trial"",""time""
""fullscreenenter"",""1"",""1701""
","
","","","-1","","","19","10373","4280","n","elianto","#3366ff99","-1","-1","1","+10","[]","0","2","","","10373","119","9","2","win","no-go","0"
"pit-trial","238","2167616","0.0-124.0","battery-v0.2","","""event"",""trial"",""time""
""fullscreenenter"",""1"",""1701""
","
","
","""event"",""trial"",""time""
""fullscreenenter"",""1"",""1701""
","
","","","878.3000000119209","","","19","10373","4280","c","elianto","#3366ff99"," "," ","1","+10","[1729.800000011921]","1","2","","","10373","120","5","1","win","go","0"
"pit-trial","239","2171138","0.0-125.0","battery-v0.2","","""event"",""trial"",""time""
""fullscreenenter"",""1"",""1701""
","
","
","""event"",""trial"",""time""
""fullscreenenter"",""1"",""1701""
","
","","","662.4000000059605","","","19","10373","4280","c","elianto","#3366ff99"," "," ","1","0","[1516.2000000029802]","1","2","","","10373","121","5","1","win","go","1"
"pit-trial","240","2175999","0.0-126.0","battery-v0.2","","""event"",""trial"",""time""
""fullscreenenter"",""1"",""1701""
","
","
","""event"",""trial"",""time""
""fullscreenenter"",""1"",""1701""
","
","","","-1","","","19","10373","4280","n","elianto","#3366ff99","-1","-1","1","+10","[]","0","2","","","10373","122","9","2","win","no-go","0"
"pit-trial","241","2180177","0.0-127.0","battery-v0.2","","""event"",""trial"",""time""
""fullscreenenter"",""1"",""1701""
","
","
","""event"",""trial"",""time""
""fullscreenenter"",""1"",""1701""
","
","","","1315.7999999970198","","","19","10373","4280","t","elianto","#f73b6a7A"," "," ","1","0","[2166.3999999910593]","1","2","","","10373","123","7","3","lose","go","0"
"pit-trial","242","2185042","0.0-128.0","battery-v0.2","","""event"",""trial"",""time""
""fullscreenenter"",""1"",""1701""
","
","
","""event"",""trial"",""time""
""fullscreenenter"",""1"",""1701""
","
","","","-1","","","19","10373","4280","f","elianto","#3366ff99","-1","-1","1","0","[]","0","2","","","10373","124","8","2","win","no-go","1"
"pit-trial","243","2188763","0.0-129.0","battery-v0.2","","""event"",""trial"",""time""
""fullscreenenter"",""1"",""1701""
","
","
","""event"",""trial"",""time""
""fullscreenenter"",""1"",""1701""
","
","","","859","","","19","10373","4280","f","elianto","#3366ff99","-1"," ","0","0","[1710.6000000089407]","1","2","","","10373","125","8","2","win","no-go","0"
"pit-trial","244","2193026","0.0-130.0","battery-v0.2","","""event"",""trial"",""time""
""fullscreenenter"",""1"",""1701""
","
","
","""event"",""trial"",""time""
""fullscreenenter"",""1"",""1701""
","
","","","1390.2999999970198","","","19","10373","4280","b","elianto","#f73b6a7A","-1"," ","0","-10","[2249.199999988079]","1","2","","","10373","126","6","4","lose","no-go","0"
"pit-trial","245","2197890","0.0-131.0","battery-v0.2","","""event"",""trial"",""time""
""fullscreenenter"",""1"",""1701""
","
","
","""event"",""trial"",""time""
""fullscreenenter"",""1"",""1701""
","
","","","-1","","","19","10373","4280","t","elianto","#f73b6a7A"," ","-1","0","-10","[]","0","2","","","10373","127","7","3","lose","go","0"
"pit-trial","246","2202754","0.0-132.0","battery-v0.2","","""event"",""trial"",""time""
""fullscreenenter"",""1"",""1701""
","
","
","""event"",""trial"",""time""
""fullscreenenter"",""1"",""1701""
","
","","","-1","","","19","10373","4280","n","elianto","#3366ff99","-1","-1","1","0","[]","0","2","","","10373","128","9","2","win","no-go","1"
"pit-trial","247","2207618","0.0-133.0","battery-v0.2","","""event"",""trial"",""time""
""fullscreenenter"",""1"",""1701""
","
","
","""event"",""trial"",""time""
""fullscreenenter"",""1"",""1701""
","
","","","-1","","","19","10373","4280","n","elianto","#3366ff99","-1","-1","1","+10","[]","0","2","","","10373","129","9","2","win","no-go","0"
"pit-trial","248","2212482","0.0-134.0","battery-v0.2","","""event"",""trial"",""time""
""fullscreenenter"",""1"",""1701""
","
","
","""event"",""trial"",""time""
""fullscreenenter"",""1"",""1701""
","
","","","-1","","","19","10373","4280","b","elianto","#f73b6a7A","-1","-1","1","0","[]","0","2","","","10373","130","6","4","lose","no-go","0"
"pit-trial","249","2216600","0.0-135.0","battery-v0.2","","""event"",""trial"",""time""
""fullscreenenter"",""1"",""1701""
","
","
","""event"",""trial"",""time""
""fullscreenenter"",""1"",""1701""
","
","","","1260.2000000029802","","","19","10373","4280","f","elianto","#3366ff99","-1"," ","0","+10","[2111.7000000029802]","1","2","","","10373","131","8","2","win","no-go","1"
"pit-trial","250","2221145","0.0-136.0","battery-v0.2","","""event"",""trial"",""time""
""fullscreenenter"",""1"",""1701""
","
","
","""event"",""trial"",""time""
""fullscreenenter"",""1"",""1701""
","
","","","1685.5999999940395","","","19","10373","4280","t","elianto","#f73b6a7A"," "," ","1","0","[2540.2999999970198]","1","2","","","10373","132","7","3","lose","go","0"
"pit-trial","251","2225706","0.0-137.0","battery-v0.2","","""event"",""trial"",""time""
""fullscreenenter"",""1"",""1701""
","
","
","""event"",""trial"",""time""
""fullscreenenter"",""1"",""1701""
","
","","","1697.1000000089407","","","19","10373","4280","b","elianto","#f73b6a7A","-1"," ","0","-10","[2550]","1","2","","","10373","133","6","4","lose","no-go","0"
"pit-trial","252","2229706","0.0-138.0","battery-v0.2","","""event"",""trial"",""time""
""fullscreenenter"",""1"",""1701""
","
","
","""event"",""trial"",""time""
""fullscreenenter"",""1"",""1701""
","
","","","1134.7999999970198","","","19","10373","4280","t","elianto","#f73b6a7A"," "," ","1","-10","[1986.5]","1","2","","","10373","134","7","3","lose","go","1"
"pit-trial","253","2233688","0.0-139.0","battery-v0.2","","""event"",""trial"",""time""
""fullscreenenter"",""1"",""1701""
","
","
","""event"",""trial"",""time""
""fullscreenenter"",""1"",""1701""
","
","","","1124.300000011921","","","19","10373","4280","f","elianto","#3366ff99","-1"," ","0","0","[1977.5]","1","2","","","10373","135","8","2","win","no-go","0"
"pit-trial","254","2238552","0.0-140.0","battery-v0.2","","""event"",""trial"",""time""
""fullscreenenter"",""1"",""1701""
","
","
","""event"",""trial"",""time""
""fullscreenenter"",""1"",""1701""
","
","","","-1","","","19","10373","4280","n","elianto","#3366ff99","-1","-1","1","+10","[]","0","2","","","10373","136","9","2","win","no-go","0"
"pit-trial","255","2243418","0.0-141.0","battery-v0.2","","""event"",""trial"",""time""
""fullscreenenter"",""1"",""1701""
","
","
","""event"",""trial"",""time""
""fullscreenenter"",""1"",""1701""
","
","","","-1","","","19","10373","4280","b","elianto","#f73b6a7A","-1","-1","1","0","[]","0","2","","","10373","137","6","4","lose","no-go","0"
"pit-trial","256","2247307","0.0-142.0","battery-v0.2","","""event"",""trial"",""time""
""fullscreenenter"",""1"",""1701""
","
","
","""event"",""trial"",""time""
""fullscreenenter"",""1"",""1701""
","
","","","1024.7000000029802","","","19","10373","4280","t","elianto","#f73b6a7A"," "," ","1","0","[1877.0999999940395]","1","2","","","10373","138","7","3","lose","go","0"
"pit-trial","257","2250851","0.0-143.0","battery-v0.2","","""event"",""trial"",""time""
""fullscreenenter"",""1"",""1701""
","
","
","""event"",""trial"",""time""
""fullscreenenter"",""1"",""1701""
","
","","","681.0999999940395","","","19","10373","4280","f","elianto","#3366ff99","-1"," ","0","0","[1535.5]","1","2","","","10373","139","8","2","win","no-go","0"
"pit-trial","258","2255715","0.0-144.0","battery-v0.2","","""event"",""trial"",""time""
""fullscreenenter"",""1"",""1701""
","
","
","""event"",""trial"",""time""
""fullscreenenter"",""1"",""1701""
","
","","","-1","","","19","10373","4280","n","elianto","#3366ff99","-1","-1","1","+10","[]","0","2","","","10373","140","9","2","win","no-go","0"
"pit-instructions","259","2269686","0.0-145.0","battery-v0.2","","""event"",""trial"",""time""
""fullscreenenter"",""1"",""1701""
","
","
","""event"",""trial"",""time""
""fullscreenenter"",""1"",""1701""
","
","","[{""page_index"":0,""viewing_time"":5461.4000000059605},{""page_index"":1,""viewing_time"":8507.29999999702}]","13968.90000000596","","","","","","","","","","","","","","","","","","","","","","","",""
"pit-trial","260","2273340","0.0-146.0","battery-v0.2","","""event"",""trial"",""time""
""fullscreenenter"",""1"",""1701""
","
","
","""event"",""trial"",""time""
""fullscreenenter"",""1"",""1701""
","
","","","790.3999999910593","","","19","10373","4280","l","elianto","#3366ff99","-1"," ","0","0","[1640.699999988079]","1","3","","","10373","141","1","2","win","no-go","0"
"pit-trial","261","2277235","0.0-147.0","battery-v0.2","","""event"",""trial"",""time""
""fullscreenenter"",""1"",""1701""
","
","
","""event"",""trial"",""time""
""fullscreenenter"",""1"",""1701""
","
","","","1025.5","","","19","10373","4280","a","elianto","#f73b6a7A"," "," ","1","0","[1884]","1","3","","","10373","142","2","3","lose","go","0"
"pit-trial","262","2281347","0.0-148.0","battery-v0.2","","""event"",""trial"",""time""
""fullscreenenter"",""1"",""1701""
","
","
","""event"",""trial"",""time""
""fullscreenenter"",""1"",""1701""
","
","","","1252.300000011921","","","19","10373","4280","g","elianto","#f73b6a7A","-1"," ","0","-10","[2105.5]","1","3","","","10373","143","3","4","lose","no-go","0"
"pit-trial","263","2286210","0.0-149.0","battery-v0.2","","""event"",""trial"",""time""
""fullscreenenter"",""1"",""1701""
","
","
","""event"",""trial"",""time""
""fullscreenenter"",""1"",""1701""
","
","","","-1","","","19","10373","4280","u","elianto","#f73b6a7A"," ","-1","0","-10","[]","0","3","","","10373","144","0","3","lose","go","0"
"pit-trial","264","2291074","0.0-150.0","battery-v0.2","","""event"",""trial"",""time""
""fullscreenenter"",""1"",""1701""
","
","
","""event"",""trial"",""time""
""fullscreenenter"",""1"",""1701""
","
","","","-1","","","19","10373","4280","l","elianto","#3366ff99","-1","-1","1","+10","[]","0","3","","","10373","145","1","2","win","no-go","0"
"pit-trial","265","2295939","0.0-151.0","battery-v0.2","","""event"",""trial"",""time""
""fullscreenenter"",""1"",""1701""
","
","
","""event"",""trial"",""time""
""fullscreenenter"",""1"",""1701""
","
","","","-1","","","19","10373","4280","g","elianto","#f73b6a7A","-1","-1","1","0","[]","0","3","","","10373","146","3","4","lose","no-go","0"
"pit-trial","266","2300289","0.0-152.0","battery-v0.2","","""event"",""trial"",""time""
