"trial_type","trial_index","time_elapsed","internal_node_id","task_version","subject_id","interactions","blur_events","focus_events","fullscreenenter_events","fullscreenexit_events","success","view_history","rt","responses","num_errors","age","subject","participantId","rune","rune_set","hex","correct","choice","accuracy","outcome","keys","total_keys","block","practice","value","sub","trial","stimulus","robot","valence","action","sham"
"pavlovia","0","13","0.0-0.0","battery-v0.2","","""event"",""trial"",""time""
""fullscreenenter"",""1"",""2090""
","
","
","""event"",""trial"",""time""
""fullscreenenter"",""1"",""2090""
","
","","","","","","","","","","","","","","","","","","","","","","","","","","",""
"fullscreen","1","3074","0.0-1.0","battery-v0.2","","""event"",""trial"",""time""
""fullscreenenter"",""1"",""2090""
","
","
","""event"",""trial"",""time""
""fullscreenenter"",""1"",""2090""
","
","true","","","","","","","","","","","","","","","","","","","","","","","","","",""
"pit-instructions","2","6547","0.0-2.0-0.0","battery-v0.2","","""event"",""trial"",""time""
""fullscreenenter"",""1"",""2090""
","
","
","""event"",""trial"",""time""
""fullscreenenter"",""1"",""2090""
","
","","[{""page_index"":0,""viewing_time"":3469.5999999940395}]","3470.2999999821186","","","","","","","","","","","","","","","","","","","","","","","",""
"pit-comprehension","3","9157","0.0-2.0-1.0-0.0","battery-v0.2","","""event"",""trial"",""time""
""fullscreenenter"",""1"",""2090""
","
","
","""event"",""trial"",""time""
""fullscreenenter"",""1"",""2090""
","
","","","2604.7000000178814","[""shark""]","0","17","3364","1982","","","","","","","","","","","","","","","","","","",""
"pit-instructions","4","12093","0.0-2.0-1.0-1.0","battery-v0.2","","""event"",""trial"",""time""
""fullscreenenter"",""1"",""2090""
","
","
","""event"",""trial"",""time""
""fullscreenenter"",""1"",""2090""
","
","","[{""page_index"":0,""viewing_time"":2924.800000011921}]","2925.2000000178814","","","","","","","","","","","","","","","","","","","","","","","",""
"pit-comprehension","5","14249","0.0-2.0-2.0-0.0","battery-v0.2","","""event"",""trial"",""time""
""fullscreenenter"",""1"",""2090""
","
","
","""event"",""trial"",""time""
""fullscreenenter"",""1"",""2090""
","
","","","2149.9000000059605","[""tiger""]","0","17","3364","1982","","","","","","","","","","","","","","","","","","",""
"pit-instructions","6","16016","0.0-2.0-2.0-1.0","battery-v0.2","","""event"",""trial"",""time""
""fullscreenenter"",""1"",""2090""
""blur"",""7"",""20238""
""focus"",""7"",""20579""
""blur"",""7"",""21876""
""focus"",""7"",""22064""
""blur"",""7"",""23819""
""focus"",""7"",""24056""
","""event"",""trial"",""time""
""blur"",""7"",""20238""
""blur"",""7"",""21876""
""blur"",""7"",""23819""
","""event"",""trial"",""time""
""focus"",""7"",""20579""
""focus"",""7"",""22064""
""focus"",""7"",""24056""
","""event"",""trial"",""time""
""fullscreenenter"",""1"",""2090""
","
","","[{""page_index"":0,""viewing_time"":1764.0999999940395}]","1764.4000000059605","","","","","","","","","","","","","","","","","","","","","","","",""
"pit-instructions","7","120026","0.0-2.0-3.0","battery-v0.2","","""event"",""trial"",""time""
""fullscreenenter"",""1"",""2090""
""blur"",""7"",""20238""
""focus"",""7"",""20579""
""blur"",""7"",""21876""
""focus"",""7"",""22064""
""blur"",""7"",""23819""
""focus"",""7"",""24056""
","""event"",""trial"",""time""
""blur"",""7"",""20238""
""blur"",""7"",""21876""
""blur"",""7"",""23819""
","""event"",""trial"",""time""
""focus"",""7"",""20579""
""focus"",""7"",""22064""
""focus"",""7"",""24056""
","""event"",""trial"",""time""
""fullscreenenter"",""1"",""2090""
","
","","[{""page_index"":0,""viewing_time"":9460.5},{""page_index"":1,""viewing_time"":7091.9000000059605},{""page_index"":2,""viewing_time"":6492.199999988079},{""page_index"":3,""viewing_time"":5484.0999999940395},{""page_index"":4,""viewing_time"":6782},{""page_index"":5,""viewing_time"":9852.100000023842},{""page_index"":6,""viewing_time"":8455.899999976158},{""page_index"":7,""viewing_time"":7566},{""page_index"":8,""viewing_time"":6157.800000011921},{""page_index"":9,""viewing_time"":8170.199999988079},{""page_index"":10,""viewing_time"":7442},{""page_index"":11,""viewing_time"":8558},{""page_index"":12,""viewing_time"":7377.700000017881},{""page_index"":13,""viewing_time"":5116.299999982119}]","104007","","","","","","","","","","","","","","","","","","","","","","","",""
"pit-trial","8","123473","0.0-2.0-4.0-0.0","battery-v0.2","","""event"",""trial"",""time""
""fullscreenenter"",""1"",""2090""
""blur"",""7"",""20238""
""focus"",""7"",""20579""
""blur"",""7"",""21876""
""focus"",""7"",""22064""
""blur"",""7"",""23819""
""focus"",""7"",""24056""
","""event"",""trial"",""time""
""blur"",""7"",""20238""
""blur"",""7"",""21876""
""blur"",""7"",""23819""
","""event"",""trial"",""time""
""focus"",""7"",""20579""
""focus"",""7"",""22064""
""focus"",""7"",""24056""
","""event"",""trial"",""time""
""fullscreenenter"",""1"",""2090""
","
","","","581.7000000178814","","","17","3364","1982","&#9784;","elianto","#FFFFF080"," "," ","1","&#10004","[1441.7000000178814]","1","0","0","","","","","","","",""
"pit-trial","9","126899","0.0-2.0-4.1-0.1","battery-v0.2","","""event"",""trial"",""time""
""fullscreenenter"",""1"",""2090""
""blur"",""7"",""20238""
""focus"",""7"",""20579""
""blur"",""7"",""21876""
""focus"",""7"",""22064""
""blur"",""7"",""23819""
""focus"",""7"",""24056""
","""event"",""trial"",""time""
""blur"",""7"",""20238""
""blur"",""7"",""21876""
""blur"",""7"",""23819""
","""event"",""trial"",""time""
""focus"",""7"",""20579""
""focus"",""7"",""22064""
""focus"",""7"",""24056""
","""event"",""trial"",""time""
""fullscreenenter"",""1"",""2090""
","
","","","568","","","17","3364","1982","&#9784;","elianto","#FFFFF080"," "," ","1","&#10004","[1418.300000011921]","1","0","0","","","","","","","",""
"pit-trial","10","130196","0.0-2.0-4.2-0.2","battery-v0.2","","""event"",""trial"",""time""
""fullscreenenter"",""1"",""2090""
""blur"",""7"",""20238""
""focus"",""7"",""20579""
""blur"",""7"",""21876""
""focus"",""7"",""22064""
""blur"",""7"",""23819""
""focus"",""7"",""24056""
","""event"",""trial"",""time""
""blur"",""7"",""20238""
""blur"",""7"",""21876""
""blur"",""7"",""23819""
","""event"",""trial"",""time""
""focus"",""7"",""20579""
""focus"",""7"",""22064""
""focus"",""7"",""24056""
","""event"",""trial"",""time""
""fullscreenenter"",""1"",""2090""
","
","","","424.69999998807907","","","17","3364","1982","&#9784;","elianto","#FFFFF080"," "," ","1","&#10004","[1280.300000011921]","1","0","0","","","","","","","",""
"pit-trial","11","133538","0.0-2.0-4.3-0.3","battery-v0.2","","""event"",""trial"",""time""
""fullscreenenter"",""1"",""2090""
""blur"",""7"",""20238""
""focus"",""7"",""20579""
""blur"",""7"",""21876""
""focus"",""7"",""22064""
""blur"",""7"",""23819""
""focus"",""7"",""24056""
","""event"",""trial"",""time""
""blur"",""7"",""20238""
""blur"",""7"",""21876""
""blur"",""7"",""23819""
","""event"",""trial"",""time""
""focus"",""7"",""20579""
""focus"",""7"",""22064""
""focus"",""7"",""24056""
","""event"",""trial"",""time""
""fullscreenenter"",""1"",""2090""
","
","","","485.09999999403954","","","17","3364","1982","&#9784;","elianto","#FFFFF080"," "," ","1","&#10004","[1335.4000000059605]","1","0","0","","","","","","","",""
"pit-trial","12","137090","0.0-2.0-4.4-0.4","battery-v0.2","","""event"",""trial"",""time""
""fullscreenenter"",""1"",""2090""
""blur"",""7"",""20238""
""focus"",""7"",""20579""
""blur"",""7"",""21876""
""focus"",""7"",""22064""
""blur"",""7"",""23819""
""focus"",""7"",""24056""
","""event"",""trial"",""time""
""blur"",""7"",""20238""
""blur"",""7"",""21876""
""blur"",""7"",""23819""
","""event"",""trial"",""time""
""focus"",""7"",""20579""
""focus"",""7"",""22064""
""focus"",""7"",""24056""
","""event"",""trial"",""time""
""fullscreenenter"",""1"",""2090""
","
","","","672.5","","","17","3364","1982","&#9784;","elianto","#FFFFF080"," "," ","1","&#10004","[1537.800000011921]","1","0","0","","","","","","","",""
"pit-instructions","13","160634","0.0-2.0-5.0","battery-v0.2","","""event"",""trial"",""time""
""fullscreenenter"",""1"",""2090""
""blur"",""7"",""20238""
""focus"",""7"",""20579""
""blur"",""7"",""21876""
""focus"",""7"",""22064""
""blur"",""7"",""23819""
""focus"",""7"",""24056""
","""event"",""trial"",""time""
""blur"",""7"",""20238""
""blur"",""7"",""21876""
""blur"",""7"",""23819""
","""event"",""trial"",""time""
""focus"",""7"",""20579""
""focus"",""7"",""22064""
""focus"",""7"",""24056""
","""event"",""trial"",""time""
""fullscreenenter"",""1"",""2090""
","
","","[{""page_index"":0,""viewing_time"":5880.5999999940395},{""page_index"":1,""viewing_time"":5521.9000000059605},{""page_index"":2,""viewing_time"":6789.9000000059605},{""page_index"":3,""viewing_time"":5346.0999999940395}]","23539","","","","","","","","","","","","","","","","","","","","","","","",""
"pit-trial","14","165502","0.0-2.0-6.0-0.0","battery-v0.2","","""event"",""trial"",""time""
""fullscreenenter"",""1"",""2090""
""blur"",""7"",""20238""
""focus"",""7"",""20579""
""blur"",""7"",""21876""
""focus"",""7"",""22064""
""blur"",""7"",""23819""
""focus"",""7"",""24056""
","""event"",""trial"",""time""
""blur"",""7"",""20238""
""blur"",""7"",""21876""
""blur"",""7"",""23819""
","""event"",""trial"",""time""
""focus"",""7"",""20579""
""focus"",""7"",""22064""
""focus"",""7"",""24056""
","""event"",""trial"",""time""
""fullscreenenter"",""1"",""2090""
","
","","","-1","","","17","3364","1982","&#9854;","elianto","#FFFFF080","-1","-1","1","&#10004","[]","0","0","1","","","","","","","",""
"pit-trial","15","170380","0.0-2.0-6.1-0.1","battery-v0.2","","""event"",""trial"",""time""
""fullscreenenter"",""1"",""2090""
""blur"",""7"",""20238""
""focus"",""7"",""20579""
""blur"",""7"",""21876""
""focus"",""7"",""22064""
""blur"",""7"",""23819""
""focus"",""7"",""24056""
","""event"",""trial"",""time""
""blur"",""7"",""20238""
""blur"",""7"",""21876""
""blur"",""7"",""23819""
","""event"",""trial"",""time""
""focus"",""7"",""20579""
""focus"",""7"",""22064""
""focus"",""7"",""24056""
","""event"",""trial"",""time""
""fullscreenenter"",""1"",""2090""
","
","","","-1","","","17","3364","1982","&#9854;","elianto","#FFFFF080","-1","-1","1","&#10004","[]","0","0","1","","","","","","","",""
"pit-trial","16","175250","0.0-2.0-6.2-0.2","battery-v0.2","","""event"",""trial"",""time""
""fullscreenenter"",""1"",""2090""
""blur"",""7"",""20238""
""focus"",""7"",""20579""
""blur"",""7"",""21876""
""focus"",""7"",""22064""
""blur"",""7"",""23819""
""focus"",""7"",""24056""
","""event"",""trial"",""time""
""blur"",""7"",""20238""
""blur"",""7"",""21876""
""blur"",""7"",""23819""
","""event"",""trial"",""time""
""focus"",""7"",""20579""
""focus"",""7"",""22064""
""focus"",""7"",""24056""
","""event"",""trial"",""time""
""fullscreenenter"",""1"",""2090""
","
","","","-1","","","17","3364","1982","&#9854;","elianto","#FFFFF080","-1","-1","1","&#10004","[]","0","0","1","","","","","","","",""
"pit-trial","17","180111","0.0-2.0-6.3-0.3","battery-v0.2","","""event"",""trial"",""time""
""fullscreenenter"",""1"",""2090""
""blur"",""7"",""20238""
""focus"",""7"",""20579""
""blur"",""7"",""21876""
""focus"",""7"",""22064""
""blur"",""7"",""23819""
""focus"",""7"",""24056""
","""event"",""trial"",""time""
""blur"",""7"",""20238""
""blur"",""7"",""21876""
""blur"",""7"",""23819""
","""event"",""trial"",""time""
""focus"",""7"",""20579""
""focus"",""7"",""22064""
""focus"",""7"",""24056""
","""event"",""trial"",""time""
""fullscreenenter"",""1"",""2090""
","
","","","-1","","","17","3364","1982","&#9854;","elianto","#FFFFF080","-1","-1","1","&#10004","[]","0","0","1","","","","","","","",""
"pit-trial","18","184995","0.0-2.0-6.4-0.4","battery-v0.2","","""event"",""trial"",""time""
""fullscreenenter"",""1"",""2090""
""blur"",""7"",""20238""
""focus"",""7"",""20579""
""blur"",""7"",""21876""
""focus"",""7"",""22064""
""blur"",""7"",""23819""
""focus"",""7"",""24056""
","""event"",""trial"",""time""
""blur"",""7"",""20238""
""blur"",""7"",""21876""
""blur"",""7"",""23819""
","""event"",""trial"",""time""
""focus"",""7"",""20579""
""focus"",""7"",""22064""
""focus"",""7"",""24056""
","""event"",""trial"",""time""
""fullscreenenter"",""1"",""2090""
","
","","","-1","","","17","3364","1982","&#9854;","elianto","#FFFFF080","-1","-1","1","&#10004","[]","0","0","1","","","","","","","",""
"pit-instructions","19","337936","0.0-2.0-7.0","battery-v0.2","","""event"",""trial"",""time""
""fullscreenenter"",""1"",""2090""
""blur"",""7"",""20238""
""focus"",""7"",""20579""
""blur"",""7"",""21876""
""focus"",""7"",""22064""
""blur"",""7"",""23819""
""focus"",""7"",""24056""
","""event"",""trial"",""time""
""blur"",""7"",""20238""
""blur"",""7"",""21876""
""blur"",""7"",""23819""
","""event"",""trial"",""time""
""focus"",""7"",""20579""
""focus"",""7"",""22064""
""focus"",""7"",""24056""
","""event"",""trial"",""time""
""fullscreenenter"",""1"",""2090""
","
","","[{""page_index"":0,""viewing_time"":14772.299999982119},{""page_index"":1,""viewing_time"":7792},{""page_index"":2,""viewing_time"":7386},{""page_index"":3,""viewing_time"":7568.0999999940395},{""page_index"":4,""viewing_time"":6848.300000011921},{""page_index"":5,""viewing_time"":6841.9000000059605},{""page_index"":6,""viewing_time"":5090},{""page_index"":7,""viewing_time"":8469.90000000596},{""page_index"":8,""viewing_time"":7515.799999982119},{""page_index"":9,""viewing_time"":6192.0999999940395},{""page_index"":10,""viewing_time"":7150},{""page_index"":11,""viewing_time"":4663.9000000059605},{""page_index"":12,""viewing_time"":7082.200000017881},{""page_index"":13,""viewing_time"":10428.09999999404},{""page_index"":14,""viewing_time"":7483.799999982119},{""page_index"":15,""viewing_time"":23848},{""page_index"":16,""viewing_time"":6504},{""page_index"":17,""viewing_time"":7302.200000017881}]","152938.79999998212","","","","","","","","","","","","","","","","","","","","","","","",""
"pit-trial","20","341250","0.0-2.0-8.0-0.0","battery-v0.2","","""event"",""trial"",""time""
""fullscreenenter"",""1"",""2090""
""blur"",""7"",""20238""
""focus"",""7"",""20579""
""blur"",""7"",""21876""
""focus"",""7"",""22064""
""blur"",""7"",""23819""
""focus"",""7"",""24056""
","""event"",""trial"",""time""
""blur"",""7"",""20238""
""blur"",""7"",""21876""
""blur"",""7"",""23819""
","""event"",""trial"",""time""
""focus"",""7"",""20579""
""focus"",""7"",""22064""
""focus"",""7"",""24056""
","""event"",""trial"",""time""
""fullscreenenter"",""1"",""2090""
","
","","","437.19999998807907","","","17","3364","1982","&#9776;","elianto","#3366ff99"," "," ","1","+10","[1300.2999999821186]","1","0","1","","","","","","","",""
"pit-trial","21","344435","0.0-2.0-8.0-1.0","battery-v0.2","","""event"",""trial"",""time""
""fullscreenenter"",""1"",""2090""
""blur"",""7"",""20238""
""focus"",""7"",""20579""
""blur"",""7"",""21876""
""focus"",""7"",""22064""
""blur"",""7"",""23819""
""focus"",""7"",""24056""
","""event"",""trial"",""time""
""blur"",""7"",""20238""
""blur"",""7"",""21876""
""blur"",""7"",""23819""
","""event"",""trial"",""time""
""focus"",""7"",""20579""
""focus"",""7"",""22064""
""focus"",""7"",""24056""
","""event"",""trial"",""time""
""fullscreenenter"",""1"",""2090""
","
","","","326.40000000596046","","","17","3364","1982","&#9776;","elianto","#3366ff99"," "," ","1","+10","[1178.199999988079]","1","0","1","","","","","","","",""
"pit-trial","22","347887","0.0-2.0-8.0-2.0","battery-v0.2","","""event"",""trial"",""time""
""fullscreenenter"",""1"",""2090""
""blur"",""7"",""20238""
""focus"",""7"",""20579""
""blur"",""7"",""21876""
""focus"",""7"",""22064""
""blur"",""7"",""23819""
""focus"",""7"",""24056""
","""event"",""trial"",""time""
""blur"",""7"",""20238""
""blur"",""7"",""21876""
""blur"",""7"",""23819""
","""event"",""trial"",""time""
""focus"",""7"",""20579""
""focus"",""7"",""22064""
""focus"",""7"",""24056""
","""event"",""trial"",""time""
""fullscreenenter"",""1"",""2090""
","
","","","596.5","","","17","3364","1982","&#9776;","elianto","#3366ff99"," "," ","1","+10","[1448.9000000059605]","1","0","1","","","","","","","",""
"pit-trial","23","351310","0.0-2.0-8.0-3.0","battery-v0.2","","""event"",""trial"",""time""
""fullscreenenter"",""1"",""2090""
""blur"",""7"",""20238""
""focus"",""7"",""20579""
""blur"",""7"",""21876""
""focus"",""7"",""22064""
""blur"",""7"",""23819""
""focus"",""7"",""24056""
","""event"",""trial"",""time""
""blur"",""7"",""20238""
""blur"",""7"",""21876""
""blur"",""7"",""23819""
","""event"",""trial"",""time""
""focus"",""7"",""20579""
""focus"",""7"",""22064""
""focus"",""7"",""24056""
","""event"",""trial"",""time""
""fullscreenenter"",""1"",""2090""
","
","","","562.6999999880791","","","17","3364","1982","&#9776;","elianto","#3366ff99"," "," ","1","0","[1413.199999988079]","1","0","1","","","","","","","",""
"pit-trial","24","354453","0.0-2.0-8.0-4.0","battery-v0.2","","""event"",""trial"",""time""
""fullscreenenter"",""1"",""2090""
""blur"",""7"",""20238""
""focus"",""7"",""20579""
""blur"",""7"",""21876""
""focus"",""7"",""22064""
""blur"",""7"",""23819""
""focus"",""7"",""24056""
","""event"",""trial"",""time""
""blur"",""7"",""20238""
""blur"",""7"",""21876""
""blur"",""7"",""23819""
","""event"",""trial"",""time""
""focus"",""7"",""20579""
""focus"",""7"",""22064""
""focus"",""7"",""24056""
","""event"",""trial"",""time""
""fullscreenenter"",""1"",""2090""
","
","","","276.19999998807907","","","17","3364","1982","&#9776;","elianto","#3366ff99"," "," ","1","+10","[1126.4000000059605]","1","0","1","","","","","","","",""
"call-function","25","354455","0.0-2.0-9.0","battery-v0.2","","""event"",""trial"",""time""
""fullscreenenter"",""1"",""2090""
""blur"",""7"",""20238""
""focus"",""7"",""20579""
""blur"",""7"",""21876""
""focus"",""7"",""22064""
""blur"",""7"",""23819""
""focus"",""7"",""24056""
","""event"",""trial"",""time""
""blur"",""7"",""20238""
""blur"",""7"",""21876""
""blur"",""7"",""23819""
","""event"",""trial"",""time""
""focus"",""7"",""20579""
""focus"",""7"",""22064""
""focus"",""7"",""24056""
","""event"",""trial"",""time""
""fullscreenenter"",""1"",""2090""
","
","","","","","","","","","","","","","","","","","","","","","","","","","","",""
"pit-instructions","26","402124","0.0-2.0-10.0","battery-v0.2","","""event"",""trial"",""time""
""fullscreenenter"",""1"",""2090""
""blur"",""7"",""20238""
""focus"",""7"",""20579""
""blur"",""7"",""21876""
""focus"",""7"",""22064""
""blur"",""7"",""23819""
""focus"",""7"",""24056""
","""event"",""trial"",""time""
""blur"",""7"",""20238""
""blur"",""7"",""21876""
""blur"",""7"",""23819""
","""event"",""trial"",""time""
""focus"",""7"",""20579""
""focus"",""7"",""22064""
""focus"",""7"",""24056""
","""event"",""trial"",""time""
""fullscreenenter"",""1"",""2090""
","
","","[{""page_index"":0,""viewing_time"":5460.800000011921},{""page_index"":1,""viewing_time"":7650.0999999940395},{""page_index"":2,""viewing_time"":10397.90000000596},{""page_index"":3,""viewing_time"":13043.799999982119},{""page_index"":4,""viewing_time"":11116.09999999404}]","47669","","","","","","","","","","","","","","","","","","","","","","","",""
"pit-trial","27","406998","0.0-2.0-11.0-0.0","battery-v0.2","","""event"",""trial"",""time""
""fullscreenenter"",""1"",""2090""
""blur"",""7"",""20238""
""focus"",""7"",""20579""
""blur"",""7"",""21876""
""focus"",""7"",""22064""
""blur"",""7"",""23819""
""focus"",""7"",""24056""
","""event"",""trial"",""time""
""blur"",""7"",""20238""
""blur"",""7"",""21876""
""blur"",""7"",""23819""
","""event"",""trial"",""time""
""focus"",""7"",""20579""
""focus"",""7"",""22064""
""focus"",""7"",""24056""
","""event"",""trial"",""time""
""fullscreenenter"",""1"",""2090""
","
","","","-1","","","17","3364","1982","&#9761;","elianto","#3366ff99","-1","-1","1","+10","[288.5]","1","0","2","","","","","","","",""
"pit-trial","28","411866","0.0-2.0-11.0-1.0","battery-v0.2","","""event"",""trial"",""time""
""fullscreenenter"",""1"",""2090""
""blur"",""7"",""20238""
""focus"",""7"",""20579""
""blur"",""7"",""21876""
""focus"",""7"",""22064""
""blur"",""7"",""23819""
""focus"",""7"",""24056""
","""event"",""trial"",""time""
""blur"",""7"",""20238""
""blur"",""7"",""21876""
""blur"",""7"",""23819""
","""event"",""trial"",""time""
""focus"",""7"",""20579""
""focus"",""7"",""22064""
""focus"",""7"",""24056""
","""event"",""trial"",""time""
""fullscreenenter"",""1"",""2090""
","
","","","-1","","","17","3364","1982","&#9761;","elianto","#3366ff99","-1","-1","1","+10","[]","0","0","2","","","","","","","",""
"pit-trial","29","416731","0.0-2.0-11.0-2.0","battery-v0.2","","""event"",""trial"",""time""
""fullscreenenter"",""1"",""2090""
""blur"",""7"",""20238""
""focus"",""7"",""20579""
""blur"",""7"",""21876""
""focus"",""7"",""22064""
""blur"",""7"",""23819""
""focus"",""7"",""24056""
","""event"",""trial"",""time""
""blur"",""7"",""20238""
""blur"",""7"",""21876""
""blur"",""7"",""23819""
","""event"",""trial"",""time""
""focus"",""7"",""20579""
""focus"",""7"",""22064""
""focus"",""7"",""24056""
","""event"",""trial"",""time""
""fullscreenenter"",""1"",""2090""
","
","","","-1","","","17","3364","1982","&#9761;","elianto","#3366ff99","-1","-1","1","+10","[]","0","0","2","","","","","","","",""
"pit-trial","30","421609","0.0-2.0-11.0-3.0","battery-v0.2","","""event"",""trial"",""time""
""fullscreenenter"",""1"",""2090""
""blur"",""7"",""20238""
""focus"",""7"",""20579""
""blur"",""7"",""21876""
""focus"",""7"",""22064""
""blur"",""7"",""23819""
""focus"",""7"",""24056""
","""event"",""trial"",""time""
""blur"",""7"",""20238""
""blur"",""7"",""21876""
""blur"",""7"",""23819""
","""event"",""trial"",""time""
""focus"",""7"",""20579""
""focus"",""7"",""22064""
""focus"",""7"",""24056""
","""event"",""trial"",""time""
""fullscreenenter"",""1"",""2090""
","
","","","-1","","","17","3364","1982","&#9761;","elianto","#3366ff99","-1","-1","1","0","[]","0","0","2","","","","","","","",""
"pit-trial","31","426469","0.0-2.0-11.0-4.0","battery-v0.2","","""event"",""trial"",""time""
""fullscreenenter"",""1"",""2090""
""blur"",""7"",""20238""
""focus"",""7"",""20579""
""blur"",""7"",""21876""
""focus"",""7"",""22064""
""blur"",""7"",""23819""
""focus"",""7"",""24056""
","""event"",""trial"",""time""
""blur"",""7"",""20238""
""blur"",""7"",""21876""
""blur"",""7"",""23819""
","""event"",""trial"",""time""
""focus"",""7"",""20579""
""focus"",""7"",""22064""
""focus"",""7"",""24056""
","""event"",""trial"",""time""
""fullscreenenter"",""1"",""2090""
","
","","","-1","","","17","3364","1982","&#9761;","elianto","#3366ff99","-1","-1","1","+10","[]","0","0","2","","","","","","","",""
"call-function","32","426471","0.0-2.0-12.0","battery-v0.2","","""event"",""trial"",""time""
""fullscreenenter"",""1"",""2090""
""blur"",""7"",""20238""
""focus"",""7"",""20579""
""blur"",""7"",""21876""
""focus"",""7"",""22064""
""blur"",""7"",""23819""
""focus"",""7"",""24056""
","""event"",""trial"",""time""
""blur"",""7"",""20238""
""blur"",""7"",""21876""
""blur"",""7"",""23819""
","""event"",""trial"",""time""
""focus"",""7"",""20579""
""focus"",""7"",""22064""
""focus"",""7"",""24056""
","""event"",""trial"",""time""
""fullscreenenter"",""1"",""2090""
","
","","","","","","","","","","","","","","","","","","","","","","","","","","",""
"pit-instructions","33","462066","0.0-2.0-13.0","battery-v0.2","","""event"",""trial"",""time""
""fullscreenenter"",""1"",""2090""
""blur"",""7"",""20238""
""focus"",""7"",""20579""
""blur"",""7"",""21876""
""focus"",""7"",""22064""
""blur"",""7"",""23819""
""focus"",""7"",""24056""
","""event"",""trial"",""time""
""blur"",""7"",""20238""
""blur"",""7"",""21876""
""blur"",""7"",""23819""
","""event"",""trial"",""time""
""focus"",""7"",""20579""
""focus"",""7"",""22064""
""focus"",""7"",""24056""
","""event"",""trial"",""time""
""fullscreenenter"",""1"",""2090""
","
","","[{""page_index"":0,""viewing_time"":8406.5},{""page_index"":1,""viewing_time"":7176.0999999940395},{""page_index"":2,""viewing_time"":3229.9000000059605},{""page_index"":3,""viewing_time"":10153.899999976158},{""page_index"":4,""viewing_time"":6628.200000017881}]","35594.79999998212","","","","","","","","","","","","","","","","","","","","","","","",""
"pit-trial","34","465397","0.0-2.0-14.0-0.0","battery-v0.2","","""event"",""trial"",""time""
""fullscreenenter"",""1"",""2090""
""blur"",""7"",""20238""
""focus"",""7"",""20579""
""blur"",""7"",""21876""
""focus"",""7"",""22064""
""blur"",""7"",""23819""
""focus"",""7"",""24056""
","""event"",""trial"",""time""
""blur"",""7"",""20238""
""blur"",""7"",""21876""
""blur"",""7"",""23819""
","""event"",""trial"",""time""
""focus"",""7"",""20579""
""focus"",""7"",""22064""
""focus"",""7"",""24056""
","""event"",""trial"",""time""
""fullscreenenter"",""1"",""2090""
","
","","","462.7999999821186","","","17","3364","1982","&#9826;","elianto","#f73b6a7A","-1"," ","0","-10","[1314.199999988079]","1","0","3","","","","","","","",""
"pit-trial","35","470260","0.0-2.0-14.0-1.0","battery-v0.2","","""event"",""trial"",""time""
""fullscreenenter"",""1"",""2090""
""blur"",""7"",""20238""
""focus"",""7"",""20579""
""blur"",""7"",""21876""
""focus"",""7"",""22064""
""blur"",""7"",""23819""
""focus"",""7"",""24056""
","""event"",""trial"",""time""
""blur"",""7"",""20238""
""blur"",""7"",""21876""
""blur"",""7"",""23819""
","""event"",""trial"",""time""
""focus"",""7"",""20579""
""focus"",""7"",""22064""
""focus"",""7"",""24056""
","""event"",""trial"",""time""
""fullscreenenter"",""1"",""2090""
","
","","","-1","","","17","3364","1982","&#9826;","elianto","#f73b6a7A","-1","-1","1","0","[]","0","0","3","","","","","","","",""
"pit-trial","36","475121","0.0-2.0-14.0-2.0","battery-v0.2","","""event"",""trial"",""time""
""fullscreenenter"",""1"",""2090""
""blur"",""7"",""20238""
""focus"",""7"",""20579""
""blur"",""7"",""21876""
""focus"",""7"",""22064""
""blur"",""7"",""23819""
""focus"",""7"",""24056""
","""event"",""trial"",""time""
""blur"",""7"",""20238""
""blur"",""7"",""21876""
""blur"",""7"",""23819""
","""event"",""trial"",""time""
""focus"",""7"",""20579""
""focus"",""7"",""22064""
""focus"",""7"",""24056""
","""event"",""trial"",""time""
""fullscreenenter"",""1"",""2090""
","
","","","-1","","","17","3364","1982","&#9826;","elianto","#f73b6a7A","-1","-1","1","0","[]","0","0","3","","","","","","","",""
"pit-trial","37","479995","0.0-2.0-14.0-3.0","battery-v0.2","","""event"",""trial"",""time""
""fullscreenenter"",""1"",""2090""
""blur"",""7"",""20238""
""focus"",""7"",""20579""
""blur"",""7"",""21876""
""focus"",""7"",""22064""
""blur"",""7"",""23819""
""focus"",""7"",""24056""
","""event"",""trial"",""time""
""blur"",""7"",""20238""
""blur"",""7"",""21876""
""blur"",""7"",""23819""
","""event"",""trial"",""time""
""focus"",""7"",""20579""
""focus"",""7"",""22064""
""focus"",""7"",""24056""
","""event"",""trial"",""time""
""fullscreenenter"",""1"",""2090""
","
","","","-1","","","17","3364","1982","&#9826;","elianto","#f73b6a7A","-1","-1","1","-10","[]","0","0","3","","","","","","","",""
"pit-trial","38","484859","0.0-2.0-14.0-4.0","battery-v0.2","","""event"",""trial"",""time""
""fullscreenenter"",""1"",""2090""
""blur"",""7"",""20238""
""focus"",""7"",""20579""
""blur"",""7"",""21876""
""focus"",""7"",""22064""
""blur"",""7"",""23819""
""focus"",""7"",""24056""
","""event"",""trial"",""time""
""blur"",""7"",""20238""
""blur"",""7"",""21876""
""blur"",""7"",""23819""
","""event"",""trial"",""time""
""focus"",""7"",""20579""
""focus"",""7"",""22064""
""focus"",""7"",""24056""
","""event"",""trial"",""time""
""fullscreenenter"",""1"",""2090""
","
","","","-1","","","17","3364","1982","&#9826;","elianto","#f73b6a7A","-1","-1","1","0","[]","0","0","3","","","","","","","",""
"call-function","39","484860","0.0-2.0-15.0","battery-v0.2","","""event"",""trial"",""time""
""fullscreenenter"",""1"",""2090""
""blur"",""7"",""20238""
""focus"",""7"",""20579""
""blur"",""7"",""21876""
""focus"",""7"",""22064""
""blur"",""7"",""23819""
""focus"",""7"",""24056""
","""event"",""trial"",""time""
""blur"",""7"",""20238""
""blur"",""7"",""21876""
""blur"",""7"",""23819""
","""event"",""trial"",""time""
""focus"",""7"",""20579""
""focus"",""7"",""22064""
""focus"",""7"",""24056""
","""event"",""trial"",""time""
""fullscreenenter"",""1"",""2090""
","
","","","","","","","","","","","","","","","","","","","","","","","","","","",""
"pit-instructions","40","510902","0.0-2.0-16.0","battery-v0.2","","""event"",""trial"",""time""
""fullscreenenter"",""1"",""2090""
""blur"",""7"",""20238""
""focus"",""7"",""20579""
""blur"",""7"",""21876""
""focus"",""7"",""22064""
""blur"",""7"",""23819""
""focus"",""7"",""24056""
","""event"",""trial"",""time""
""blur"",""7"",""20238""
""blur"",""7"",""21876""
""blur"",""7"",""23819""
","""event"",""trial"",""time""
""focus"",""7"",""20579""
""focus"",""7"",""22064""
""focus"",""7"",""24056""
","""event"",""trial"",""time""
""fullscreenenter"",""1"",""2090""
","
","","[{""page_index"":0,""viewing_time"":6673.300000011921},{""page_index"":1,""viewing_time"":8017.5999999940395},{""page_index"":2,""viewing_time"":4149.799999982119},{""page_index"":3,""viewing_time"":7200}]","26041.09999999404","","","","","","","","","","","","","","","","","","","","","","","",""
"pit-trial","41","513824","0.0-2.0-17.0-0.0","battery-v0.2","","""event"",""trial"",""time""
""fullscreenenter"",""1"",""2090""
""blur"",""7"",""20238""
""focus"",""7"",""20579""
""blur"",""7"",""21876""
""focus"",""7"",""22064""
""blur"",""7"",""23819""
""focus"",""7"",""24056""
","""event"",""trial"",""time""
""blur"",""7"",""20238""
""blur"",""7"",""21876""
""blur"",""7"",""23819""
","""event"",""trial"",""time""
""focus"",""7"",""20579""
""focus"",""7"",""22064""
""focus"",""7"",""24056""
","""event"",""trial"",""time""
""fullscreenenter"",""1"",""2090""
","
","","","62.10000002384186","","","17","3364","1982","&#9789;","elianto","#f73b6a7A"," "," ","1","0","[918.5999999940395,1110.5,1302.7000000178814,1494.4000000059605,1686.5999999940395,1879.2000000178814,2070.5999999940395,2262.5999999940395,2486.4000000059605,2678.7000000178814,2870.5]","11","0","4","","","","","","","",""
"pit-trial","42","516706","0.0-2.0-17.0-1.0","battery-v0.2","","""event"",""trial"",""time""
""fullscreenenter"",""1"",""2090""
""blur"",""7"",""20238""
""focus"",""7"",""20579""
""blur"",""7"",""21876""
""focus"",""7"",""22064""
""blur"",""7"",""23819""
""focus"",""7"",""24056""
","""event"",""trial"",""time""
""blur"",""7"",""20238""
""blur"",""7"",""21876""
""blur"",""7"",""23819""
","""event"",""trial"",""time""
""focus"",""7"",""20579""
""focus"",""7"",""22064""
""focus"",""7"",""24056""
","""event"",""trial"",""time""
""fullscreenenter"",""1"",""2090""
","
","","","22.799999982118607","","","17","3364","1982","&#9789;","elianto","#f73b6a7A"," "," ","1","0","[141.09999999403954,332.19999998807907,492.2999999821186,716.2999999821186,876.1999999880791,1068.3999999761581,1284.2999999821186,1476.2999999821186,1668.2999999821186,1828.3999999761581,2020.3999999761581,2212.2999999821186,2372.199999988079,2596.399999976158,2788.2999999821186]","15","0","4","","","","","","","",""
"pit-trial","43","519609","0.0-2.0-17.0-2.0","battery-v0.2","","""event"",""trial"",""time""
""fullscreenenter"",""1"",""2090""
""blur"",""7"",""20238""
""focus"",""7"",""20579""
""blur"",""7"",""21876""
""focus"",""7"",""22064""
""blur"",""7"",""23819""
""focus"",""7"",""24056""
","""event"",""trial"",""time""
""blur"",""7"",""20238""
""blur"",""7"",""21876""
""blur"",""7"",""23819""
","""event"",""trial"",""time""
""focus"",""7"",""20579""
""focus"",""7"",""22064""
""focus"",""7"",""24056""
","""event"",""trial"",""time""
""fullscreenenter"",""1"",""2090""
","
","","","45","","","17","3364","1982","&#9789;","elianto","#f73b6a7A"," "," ","1","0","[97.89999997615814,291.59999999403954,481.89999997615814,708.8999999761581,897.7999999821186,1089.7999999821186,1313.7999999821186,1537.7999999821186,1729.7999999821186,1953.8999999761581]","10","0","4","","","","","","","",""
"pit-trial","44","522556","0.0-2.0-17.0-3.0","battery-v0.2","","""event"",""trial"",""time""
""fullscreenenter"",""1"",""2090""
""blur"",""7"",""20238""
""focus"",""7"",""20579""
""blur"",""7"",""21876""
""focus"",""7"",""22064""
""blur"",""7"",""23819""
""focus"",""7"",""24056""
","""event"",""trial"",""time""
""blur"",""7"",""20238""
""blur"",""7"",""21876""
""blur"",""7"",""23819""
","""event"",""trial"",""time""
""focus"",""7"",""20579""
""focus"",""7"",""22064""
""focus"",""7"",""24056""
","""event"",""trial"",""time""
""fullscreenenter"",""1"",""2090""
","
","","","75.10000002384186","","","17","3364","1982","&#9789;","elianto","#f73b6a7A"," "," ","1","-10","[931.5]","1","0","4","","","","","","","",""
"pit-trial","45","525590","0.0-2.0-17.0-4.0","battery-v0.2","","""event"",""trial"",""time""
""fullscreenenter"",""1"",""2090""
""blur"",""7"",""20238""
""focus"",""7"",""20579""
""blur"",""7"",""21876""
""focus"",""7"",""22064""
""blur"",""7"",""23819""
""focus"",""7"",""24056""
","""event"",""trial"",""time""
""blur"",""7"",""20238""
""blur"",""7"",""21876""
""blur"",""7"",""23819""
","""event"",""trial"",""time""
""focus"",""7"",""20579""
""focus"",""7"",""22064""
""focus"",""7"",""24056""
","""event"",""trial"",""time""
""fullscreenenter"",""1"",""2090""
","
","","","171.2999999821186","","","17","3364","1982","&#9789;","elianto","#f73b6a7A"," "," ","1","0","[1024.2999999821186]","1","0","4","","","","","","","",""
"call-function","46","525591","0.0-2.0-18.0","battery-v0.2","","""event"",""trial"",""time""
""fullscreenenter"",""1"",""2090""
""blur"",""7"",""20238""
""focus"",""7"",""20579""
""blur"",""7"",""21876""
""focus"",""7"",""22064""
""blur"",""7"",""23819""
""focus"",""7"",""24056""
","""event"",""trial"",""time""
""blur"",""7"",""20238""
""blur"",""7"",""21876""
""blur"",""7"",""23819""
","""event"",""trial"",""time""
""focus"",""7"",""20579""
""focus"",""7"",""22064""
""focus"",""7"",""24056""
","""event"",""trial"",""time""
""fullscreenenter"",""1"",""2090""
","
","","","","","","","","","","","","","","","","","","","","","","","","","","",""
"pit-instructions","47","605644","0.0-2.0-19.0","battery-v0.2","","""event"",""trial"",""time""
""fullscreenenter"",""1"",""2090""
""blur"",""7"",""20238""
""focus"",""7"",""20579""
""blur"",""7"",""21876""
""focus"",""7"",""22064""
""blur"",""7"",""23819""
""focus"",""7"",""24056""
","""event"",""trial"",""time""
""blur"",""7"",""20238""
""blur"",""7"",""21876""
""blur"",""7"",""23819""
","""event"",""trial"",""time""
""focus"",""7"",""20579""
""focus"",""7"",""22064""
""focus"",""7"",""24056""
","""event"",""trial"",""time""
""fullscreenenter"",""1"",""2090""
","
","","[{""page_index"":0,""viewing_time"":7524.5},{""page_index"":1,""viewing_time"":8041.9000000059605},{""page_index"":2,""viewing_time"":16863.79999998212},{""page_index"":3,""viewing_time"":8948.300000011921},{""page_index"":4,""viewing_time"":9952},{""page_index"":5,""viewing_time"":8514.09999999404},{""page_index"":6,""viewing_time"":8502},{""page_index"":7,""viewing_time"":7009.9000000059605},{""page_index"":8,""viewing_time"":4696.0999999940395}]","80053","","","","","","","","","","","","","","","","","","","","","","","",""
"pit-comprehension","48","609814","0.0-2.0-20.0-0.0","battery-v0.2","","""event"",""trial"",""time""
""fullscreenenter"",""1"",""2090""
""blur"",""7"",""20238""
""focus"",""7"",""20579""
""blur"",""7"",""21876""
""focus"",""7"",""22064""
""blur"",""7"",""23819""
""focus"",""7"",""24056""
","""event"",""trial"",""time""
""blur"",""7"",""20238""
""blur"",""7"",""21876""
""blur"",""7"",""23819""
","""event"",""trial"",""time""
""focus"",""7"",""20579""
""focus"",""7"",""22064""
""focus"",""7"",""24056""
","""event"",""trial"",""time""
""fullscreenenter"",""1"",""2090""
","
","","","4167.4000000059605","[""SPACE""]","0","17","3364","1982","","","","","","","","","","","","","","","","","","",""
"pit-instructions","49","612742","0.0-2.0-20.0-1.0","battery-v0.2","","""event"",""trial"",""time""
""fullscreenenter"",""1"",""2090""
""blur"",""7"",""20238""
""focus"",""7"",""20579""
""blur"",""7"",""21876""
""focus"",""7"",""22064""
""blur"",""7"",""23819""
""focus"",""7"",""24056""
","""event"",""trial"",""time""
""blur"",""7"",""20238""
""blur"",""7"",""21876""
""blur"",""7"",""23819""
","""event"",""trial"",""time""
""focus"",""7"",""20579""
""focus"",""7"",""22064""
""focus"",""7"",""24056""
","""event"",""trial"",""time""
""fullscreenenter"",""1"",""2090""
","
","","[{""page_index"":0,""viewing_time"":2892.9000000059605}]","2893.199999988079","","","","","","","","","","","","","","","","","","","","","","","",""
"pit-comprehension","50","616905","0.0-2.0-21.0-0.0","battery-v0.2","","""event"",""trial"",""time""
""fullscreenenter"",""1"",""2090""
""blur"",""7"",""20238""
""focus"",""7"",""20579""
""blur"",""7"",""21876""
""focus"",""7"",""22064""
""blur"",""7"",""23819""
""focus"",""7"",""24056""
","""event"",""trial"",""time""
""blur"",""7"",""20238""
""blur"",""7"",""21876""
""blur"",""7"",""23819""
","""event"",""trial"",""time""
""focus"",""7"",""20579""
""focus"",""7"",""22064""
""focus"",""7"",""24056""
","""event"",""trial"",""time""
""fullscreenenter"",""1"",""2090""
","
","","","4159.0999999940395","[""10""]","0","17","3364","1982","","","","","","","","","","","","","","","","","","",""
"pit-instructions","51","618314","0.0-2.0-21.0-1.0","battery-v0.2","","""event"",""trial"",""time""
""fullscreenenter"",""1"",""2090""
""blur"",""7"",""20238""
""focus"",""7"",""20579""
""blur"",""7"",""21876""
""focus"",""7"",""22064""
""blur"",""7"",""23819""
""focus"",""7"",""24056""
","""event"",""trial"",""time""
""blur"",""7"",""20238""
""blur"",""7"",""21876""
""blur"",""7"",""23819""
","""event"",""trial"",""time""
""focus"",""7"",""20579""
""focus"",""7"",""22064""
""focus"",""7"",""24056""
","""event"",""trial"",""time""
""fullscreenenter"",""1"",""2090""
","
","","[{""page_index"":0,""viewing_time"":1387.199999988079}]","1387.4000000059605","","","","","","","","","","","","","","","","","","","","","","","",""
"pit-comprehension","52","624665","0.0-2.0-22.0-0.0","battery-v0.2","","""event"",""trial"",""time""
""fullscreenenter"",""1"",""2090""
""blur"",""7"",""20238""
""focus"",""7"",""20579""
""blur"",""7"",""21876""
""focus"",""7"",""22064""
""blur"",""7"",""23819""
""focus"",""7"",""24056""
","""event"",""trial"",""time""
""blur"",""7"",""20238""
""blur"",""7"",""21876""
""blur"",""7"",""23819""
","""event"",""trial"",""time""
""focus"",""7"",""20579""
""focus"",""7"",""22064""
""focus"",""7"",""24056""
","""event"",""trial"",""time""
""fullscreenenter"",""1"",""2090""
","
","","","6347.600000023842","[""-10""]","1","17","3364","1982","","","","","","","","","","","","","","","","","","",""
"pit-instructions","53","627144","0.0-2.0-22.0-1.0","battery-v0.2","","""event"",""trial"",""time""
""fullscreenenter"",""1"",""2090""
""blur"",""7"",""20238""
""focus"",""7"",""20579""
""blur"",""7"",""21876""
""focus"",""7"",""22064""
""blur"",""7"",""23819""
""focus"",""7"",""24056""
","""event"",""trial"",""time""
""blur"",""7"",""20238""
""blur"",""7"",""21876""
""blur"",""7"",""23819""
","""event"",""trial"",""time""
""focus"",""7"",""20579""
""focus"",""7"",""22064""
""focus"",""7"",""24056""
","""event"",""trial"",""time""
""fullscreenenter"",""1"",""2090""
","
","","[{""page_index"":0,""viewing_time"":2455.4000000059605}]","2455.5999999940395","","","","","","","","","","","","","","","","","","","","","","","",""
"pit-instructions","54","627982","0.0-2.0-22.0-2.0-0.0","battery-v0.2","","""event"",""trial"",""time""
""fullscreenenter"",""1"",""2090""
""blur"",""7"",""20238""
""focus"",""7"",""20579""
""blur"",""7"",""21876""
""focus"",""7"",""22064""
""blur"",""7"",""23819""
""focus"",""7"",""24056""
","""event"",""trial"",""time""
""blur"",""7"",""20238""
""blur"",""7"",""21876""
""blur"",""7"",""23819""
","""event"",""trial"",""time""
""focus"",""7"",""20579""
""focus"",""7"",""22064""
""focus"",""7"",""24056""
","""event"",""trial"",""time""
""fullscreenenter"",""1"",""2090""
","
","","[{""page_index"":0,""viewing_time"":836}]","836.4000000059605","","","","","","","","","","","","","","","","","","","","","","","",""
"pit-comprehension","55","634018","0.0-2.0-22.1-0.1","battery-v0.2","","""event"",""trial"",""time""
""fullscreenenter"",""1"",""2090""
""blur"",""7"",""20238""
""focus"",""7"",""20579""
""blur"",""7"",""21876""
""focus"",""7"",""22064""
""blur"",""7"",""23819""
""focus"",""7"",""24056""
","""event"",""trial"",""time""
""blur"",""7"",""20238""
""blur"",""7"",""21876""
""blur"",""7"",""23819""
","""event"",""trial"",""time""
""focus"",""7"",""20579""
""focus"",""7"",""22064""
""focus"",""7"",""24056""
","""event"",""trial"",""time""
""fullscreenenter"",""1"",""2090""
","
","","","6034","[""0""]","0","17","3364","1982","","","","","","","","","","","","","","","","","","",""
"pit-instructions","56","635098","0.0-2.0-22.1-1.1","battery-v0.2","","""event"",""trial"",""time""
""fullscreenenter"",""1"",""2090""
""blur"",""7"",""20238""
""focus"",""7"",""20579""
""blur"",""7"",""21876""
""focus"",""7"",""22064""
""blur"",""7"",""23819""
""focus"",""7"",""24056""
","""event"",""trial"",""time""
""blur"",""7"",""20238""
""blur"",""7"",""21876""
""blur"",""7"",""23819""
","""event"",""trial"",""time""
""focus"",""7"",""20579""
""focus"",""7"",""22064""
""focus"",""7"",""24056""
","""event"",""trial"",""time""
""fullscreenenter"",""1"",""2090""
","
","","[{""page_index"":0,""viewing_time"":1054.7000000178814}]","1054.800000011921","","","","","","","","","","","","","","","","","","","","","","","",""
"pit-comprehension","57","646643","0.0-2.0-23.0-0.0","battery-v0.2","","""event"",""trial"",""time""
""fullscreenenter"",""1"",""2090""
""blur"",""7"",""20238""
""focus"",""7"",""20579""
""blur"",""7"",""21876""
""focus"",""7"",""22064""
""blur"",""7"",""23819""
""focus"",""7"",""24056""
","""event"",""trial"",""time""
""blur"",""7"",""20238""
""blur"",""7"",""21876""
""blur"",""7"",""23819""
","""event"",""trial"",""time""
""focus"",""7"",""20579""
""focus"",""7"",""22064""
""focus"",""7"",""24056""
","""event"",""trial"",""time""
""fullscreenenter"",""1"",""2090""
","
","","","11542.299999982119","[""True""]","0","17","3364","1982","","","","","","","","","","","","","","","","","","",""
"pit-instructions","58","648995","0.0-2.0-23.0-1.0","battery-v0.2","","""event"",""trial"",""time""
""fullscreenenter"",""1"",""2090""
""blur"",""7"",""20238""
""focus"",""7"",""20579""
""blur"",""7"",""21876""
""focus"",""7"",""22064""
""blur"",""7"",""23819""
""focus"",""7"",""24056""
","""event"",""trial"",""time""
""blur"",""7"",""20238""
""blur"",""7"",""21876""
""blur"",""7"",""23819""
","""event"",""trial"",""time""
""focus"",""7"",""20579""
""focus"",""7"",""22064""
""focus"",""7"",""24056""
","""event"",""trial"",""time""
""fullscreenenter"",""1"",""2090""
","
","","[{""page_index"":0,""viewing_time"":2323}]","2323.4000000059605","","","","","","","","","","","","","","","","","","","","","","","",""
"pit-comprehension","59","656207","0.0-2.0-24.0-0.0","battery-v0.2","","""event"",""trial"",""time""
""fullscreenenter"",""1"",""2090""
""blur"",""7"",""20238""
""focus"",""7"",""20579""
""blur"",""7"",""21876""
""focus"",""7"",""22064""
""blur"",""7"",""23819""
""focus"",""7"",""24056""
","""event"",""trial"",""time""
""blur"",""7"",""20238""
""blur"",""7"",""21876""
""blur"",""7"",""23819""
","""event"",""trial"",""time""
""focus"",""7"",""20579""
""focus"",""7"",""22064""
""focus"",""7"",""24056""
","""event"",""trial"",""time""
""fullscreenenter"",""1"",""2090""
","
","","","7209.600000023842","[""True""]","0","17","3364","1982","","","","","","","","","","","","","","","","","","",""
"pit-instructions","60","657370","0.0-2.0-24.0-1.0","battery-v0.2","","""event"",""trial"",""time""
""fullscreenenter"",""1"",""2090""
""blur"",""7"",""20238""
""focus"",""7"",""20579""
""blur"",""7"",""21876""
""focus"",""7"",""22064""
""blur"",""7"",""23819""
""focus"",""7"",""24056""
","""event"",""trial"",""time""
""blur"",""7"",""20238""
""blur"",""7"",""21876""
""blur"",""7"",""23819""
","""event"",""trial"",""time""
""focus"",""7"",""20579""
""focus"",""7"",""22064""
""focus"",""7"",""24056""
","""event"",""trial"",""time""
""fullscreenenter"",""1"",""2090""
","
","","[{""page_index"":0,""viewing_time"":1137.0999999940395}]","1137.2999999821186","","","","","","","","","","","","","","","","","","","","","","","",""
"pit-comprehension","61","663531","0.0-2.0-25.0-0.0","battery-v0.2","","""event"",""trial"",""time""
""fullscreenenter"",""1"",""2090""
""blur"",""7"",""20238""
""focus"",""7"",""20579""
""blur"",""7"",""21876""
""focus"",""7"",""22064""
""blur"",""7"",""23819""
""focus"",""7"",""24056""
","""event"",""trial"",""time""
""blur"",""7"",""20238""
""blur"",""7"",""21876""
""blur"",""7"",""23819""
","""event"",""trial"",""time""
""focus"",""7"",""20579""
""focus"",""7"",""22064""
""focus"",""7"",""24056""
","""event"",""trial"",""time""
""fullscreenenter"",""1"",""2090""
","
","","","6157.5999999940395","[""True""]","0","17","3364","1982","","","","","","","","","","","","","","","","","","",""
"pit-instructions","62","665062","0.0-2.0-25.0-1.0","battery-v0.2","","""event"",""trial"",""time""
""fullscreenenter"",""1"",""2090""
""blur"",""7"",""20238""
""focus"",""7"",""20579""
""blur"",""7"",""21876""
""focus"",""7"",""22064""
""blur"",""7"",""23819""
""focus"",""7"",""24056""
","""event"",""trial"",""time""
""blur"",""7"",""20238""
""blur"",""7"",""21876""
""blur"",""7"",""23819""
","""event"",""trial"",""time""
""focus"",""7"",""20579""
""focus"",""7"",""22064""
""focus"",""7"",""24056""
","""event"",""trial"",""time""
""fullscreenenter"",""1"",""2090""
","
","","[{""page_index"":0,""viewing_time"":1503.5999999940395}]","1503.7999999821186","","","","","","","","","","","","","","","","","","","","","","","",""
"pit-comprehension","63","670613","0.0-2.0-26.0-0.0","battery-v0.2","","""event"",""trial"",""time""
""fullscreenenter"",""1"",""2090""
""blur"",""7"",""20238""
""focus"",""7"",""20579""
""blur"",""7"",""21876""
""focus"",""7"",""22064""
""blur"",""7"",""23819""
""focus"",""7"",""24056""
","""event"",""trial"",""time""
""blur"",""7"",""20238""
""blur"",""7"",""21876""
""blur"",""7"",""23819""
","""event"",""trial"",""time""
""focus"",""7"",""20579""
""focus"",""7"",""22064""
""focus"",""7"",""24056""
","""event"",""trial"",""time""
""fullscreenenter"",""1"",""2090""
","
","","","5547.899999976158","[""False""]","0","17","3364","1982","","","","","","","","","","","","","","","","","","",""
"pit-instructions","64","673481","0.0-2.0-26.0-1.0","battery-v0.2","","""event"",""trial"",""time""
""fullscreenenter"",""1"",""2090""
""blur"",""7"",""20238""
""focus"",""7"",""20579""
""blur"",""7"",""21876""
""focus"",""7"",""22064""
""blur"",""7"",""23819""
""focus"",""7"",""24056""
","""event"",""trial"",""time""
""blur"",""7"",""20238""
""blur"",""7"",""21876""
""blur"",""7"",""23819""
","""event"",""trial"",""time""
""focus"",""7"",""20579""
""focus"",""7"",""22064""
""focus"",""7"",""24056""
","""event"",""trial"",""time""
""fullscreenenter"",""1"",""2090""
","
","","[{""page_index"":0,""viewing_time"":2838.7999999821186}]","2839.0999999940395","","","","","","","","","","","","","","","","","","","","","","","",""
"pit-instructions","65","690008","0.0-3.0","battery-v0.2","","""event"",""trial"",""time""
""fullscreenenter"",""1"",""2090""
""blur"",""7"",""20238""
""focus"",""7"",""20579""
""blur"",""7"",""21876""
""focus"",""7"",""22064""
""blur"",""7"",""23819""
""focus"",""7"",""24056""
","""event"",""trial"",""time""
""blur"",""7"",""20238""
""blur"",""7"",""21876""
""blur"",""7"",""23819""
","""event"",""trial"",""time""
""focus"",""7"",""20579""
""focus"",""7"",""22064""
""focus"",""7"",""24056""
","""event"",""trial"",""time""
""fullscreenenter"",""1"",""2090""
","
","","[{""page_index"":0,""viewing_time"":3191.7999999821186},{""page_index"":1,""viewing_time"":6315.9000000059605},{""page_index"":2,""viewing_time"":7017.700000017881}]","16525.69999998808","","","","","","","","","","","","","","","","","","","","","","","",""
"pit-trial","66","693846","0.0-4.0","battery-v0.2","","""event"",""trial"",""time""
""fullscreenenter"",""1"",""2090""
""blur"",""7"",""20238""
""focus"",""7"",""20579""
""blur"",""7"",""21876""
""focus"",""7"",""22064""
""blur"",""7"",""23819""
""focus"",""7"",""24056""
","""event"",""trial"",""time""
""blur"",""7"",""20238""
""blur"",""7"",""21876""
""blur"",""7"",""23819""
","""event"",""trial"",""time""
""focus"",""7"",""20579""
""focus"",""7"",""22064""
""focus"",""7"",""24056""
","""event"",""trial"",""time""
""fullscreenenter"",""1"",""2090""
","
","","","964.8000000119209","","","17","3364","1982","&#9752;","elianto","#f73b6a7A"," "," ","1","-10","[1826.8999999761581]","1","1","","","3364","1","3","3","lose","go","1"
"pit-trial","67","697704","0.0-5.0","battery-v0.2","","""event"",""trial"",""time""
""fullscreenenter"",""1"",""2090""
""blur"",""7"",""20238""
""focus"",""7"",""20579""
""blur"",""7"",""21876""
""focus"",""7"",""22064""
""blur"",""7"",""23819""
""focus"",""7"",""24056""
","""event"",""trial"",""time""
""blur"",""7"",""20238""
""blur"",""7"",""21876""
""blur"",""7"",""23819""
","""event"",""trial"",""time""
""focus"",""7"",""20579""
""focus"",""7"",""22064""
""focus"",""7"",""24056""
","""event"",""trial"",""time""
""fullscreenenter"",""1"",""2090""
","
","","","1002.1999999880791","","","17","3364","1982","&#9728;","elianto","#f73b6a7A","-1"," ","0","0","[1855.199999988079]","1","1","","","3364","2","0","4","lose","no-go","1"
"pit-trial","68","701579","0.0-6.0","battery-v0.2","","""event"",""trial"",""time""
""fullscreenenter"",""1"",""2090""
""blur"",""7"",""20238""
""focus"",""7"",""20579""
""blur"",""7"",""21876""
""focus"",""7"",""22064""
""blur"",""7"",""23819""
""focus"",""7"",""24056""
","""event"",""trial"",""time""
""blur"",""7"",""20238""
""blur"",""7"",""21876""
""blur"",""7"",""23819""
","""event"",""trial"",""time""
""focus"",""7"",""20579""
""focus"",""7"",""22064""
""focus"",""7"",""24056""
","""event"",""trial"",""time""
""fullscreenenter"",""1"",""2090""
","
","","","1003.2999999821186","","","17","3364","1982","&#9733;","elianto","#3366ff99","-1"," ","0","0","[1861.0999999940395]","1","1","","","3364","3","2","2","win","no-go","0"
"pit-trial","69","705291","0.0-7.0","battery-v0.2","","""event"",""trial"",""time""
""fullscreenenter"",""1"",""2090""
""blur"",""7"",""20238""
""focus"",""7"",""20579""
""blur"",""7"",""21876""
""focus"",""7"",""22064""
""blur"",""7"",""23819""
""focus"",""7"",""24056""
","""event"",""trial"",""time""
""blur"",""7"",""20238""
""blur"",""7"",""21876""
""blur"",""7"",""23819""
","""event"",""trial"",""time""
""focus"",""7"",""20579""
""focus"",""7"",""22064""
""focus"",""7"",""24056""
","""event"",""trial"",""time""
""fullscreenenter"",""1"",""2090""
","
","","","844.2000000178814","","","17","3364","1982","&#9730;","elianto","#3366ff99"," "," ","1","+10","[1697.199999988079]","1","1","","","3364","4","1","1","win","go","0"
"pit-trial","70","710164","0.0-8.0","battery-v0.2","","""event"",""trial"",""time""
""fullscreenenter"",""1"",""2090""
""blur"",""7"",""20238""
""focus"",""7"",""20579""
""blur"",""7"",""21876""
""focus"",""7"",""22064""
""blur"",""7"",""23819""
""focus"",""7"",""24056""
","""event"",""trial"",""time""
""blur"",""7"",""20238""
""blur"",""7"",""21876""
""blur"",""7"",""23819""
","""event"",""trial"",""time""
""focus"",""7"",""20579""
""focus"",""7"",""22064""
""focus"",""7"",""24056""
","""event"",""trial"",""time""
""fullscreenenter"",""1"",""2090""
","
","","","-1","","","17","3364","1982","&#9752;","elianto","#f73b6a7A"," ","-1","0","-10","[]","0","1","","","3364","5","3","3","lose","go","0"
"pit-trial","71","715040","0.0-9.0","battery-v0.2","","""event"",""trial"",""time""
""fullscreenenter"",""1"",""2090""
""blur"",""7"",""20238""
""focus"",""7"",""20579""
""blur"",""7"",""21876""
""focus"",""7"",""22064""
""blur"",""7"",""23819""
""focus"",""7"",""24056""
","""event"",""trial"",""time""
""blur"",""7"",""20238""
""blur"",""7"",""21876""
""blur"",""7"",""23819""
","""event"",""trial"",""time""
""focus"",""7"",""20579""
""focus"",""7"",""22064""
""focus"",""7"",""24056""
","""event"",""trial"",""time""
""fullscreenenter"",""1"",""2090""
","
","","","-1","","","17","3364","1982","&#9733;","elianto","#3366ff99","-1","-1","1","+10","[]","0","1","","","3364","6","2","2","win","no-go","0"
"pit-trial","72","718890","0.0-10.0","battery-v0.2","","""event"",""trial"",""time""
""fullscreenenter"",""1"",""2090""
""blur"",""7"",""20238""
""focus"",""7"",""20579""
""blur"",""7"",""21876""
""focus"",""7"",""22064""
""blur"",""7"",""23819""
""focus"",""7"",""24056""
","""event"",""trial"",""time""
""blur"",""7"",""20238""
""blur"",""7"",""21876""
""blur"",""7"",""23819""
","""event"",""trial"",""time""
""focus"",""7"",""20579""
""focus"",""7"",""22064""
""focus"",""7"",""24056""
","""event"",""trial"",""time""
""fullscreenenter"",""1"",""2090""
","
","","","991.6000000238419","","","17","3364","1982","&#9730;","elianto","#3366ff99"," "," ","1","+10","[1845.3999999761581]","1","1","","","3364","7","1","1","win","go","0"
"pit-trial","73","723743","0.0-11.0","battery-v0.2","","""event"",""trial"",""time""
""fullscreenenter"",""1"",""2090""
""blur"",""7"",""20238""
""focus"",""7"",""20579""
""blur"",""7"",""21876""
""focus"",""7"",""22064""
""blur"",""7"",""23819""
""focus"",""7"",""24056""
","""event"",""trial"",""time""
""blur"",""7"",""20238""
""blur"",""7"",""21876""
""blur"",""7"",""23819""
","""event"",""trial"",""time""
""focus"",""7"",""20579""
""focus"",""7"",""22064""
""focus"",""7"",""24056""
","""event"",""trial"",""time""
""fullscreenenter"",""1"",""2090""
","
","","","-1","","","17","3364","1982","&#9728;","elianto","#f73b6a7A","-1","-1","1","0","[]","0","1","","","3364","8","0","4","lose","no-go","0"
"pit-trial","74","728597","0.0-12.0","battery-v0.2","","""event"",""trial"",""time""
""fullscreenenter"",""1"",""2090""
""blur"",""7"",""20238""
""focus"",""7"",""20579""
""blur"",""7"",""21876""
""focus"",""7"",""22064""
""blur"",""7"",""23819""
""focus"",""7"",""24056""
","""event"",""trial"",""time""
""blur"",""7"",""20238""
""blur"",""7"",""21876""
""blur"",""7"",""23819""
","""event"",""trial"",""time""
""focus"",""7"",""20579""
""focus"",""7"",""22064""
""focus"",""7"",""24056""
","""event"",""trial"",""time""
""fullscreenenter"",""1"",""2090""
","
","","","-1","","","17","3364","1982","&#9733;","elianto","#3366ff99","-1","-1","1","+10","[]","0","1","","","3364","9","2","2","win","no-go","0"
"pit-trial","75","732143","0.0-13.0","battery-v0.2","","""event"",""trial"",""time""
""fullscreenenter"",""1"",""2090""
""blur"",""7"",""20238""
""focus"",""7"",""20579""
""blur"",""7"",""21876""
""focus"",""7"",""22064""
""blur"",""7"",""23819""
""focus"",""7"",""24056""
","""event"",""trial"",""time""
""blur"",""7"",""20238""
""blur"",""7"",""21876""
""blur"",""7"",""23819""
","""event"",""trial"",""time""
""focus"",""7"",""20579""
""focus"",""7"",""22064""
""focus"",""7"",""24056""
","""event"",""trial"",""time""
""fullscreenenter"",""1"",""2090""
","
","","","693.1000000238419","","","17","3364","1982","&#9730;","elianto","#3366ff99"," "," ","1","+10","[1544]","1","1","","","3364","10","1","1","win","go","0"
"pit-trial","76","735560","0.0-14.0","battery-v0.2","","""event"",""trial"",""time""
""fullscreenenter"",""1"",""2090""
""blur"",""7"",""20238""
""focus"",""7"",""20579""
""blur"",""7"",""21876""
""focus"",""7"",""22064""
""blur"",""7"",""23819""
""focus"",""7"",""24056""
","""event"",""trial"",""time""
""blur"",""7"",""20238""
""blur"",""7"",""21876""
""blur"",""7"",""23819""
","""event"",""trial"",""time""
""focus"",""7"",""20579""
""focus"",""7"",""22064""
""focus"",""7"",""24056""
","""event"",""trial"",""time""
""fullscreenenter"",""1"",""2090""
","
","","","563.2999999821186","","","17","3364","1982","&#9752;","elianto","#f73b6a7A"," "," ","1","0","[1413.7999999821186]","1","1","","","3364","11","3","3","lose","go","0"
"pit-trial","77","740413","0.0-15.0","battery-v0.2","","""event"",""trial"",""time""
""fullscreenenter"",""1"",""2090""
""blur"",""7"",""20238""
""focus"",""7"",""20579""
""blur"",""7"",""21876""
""focus"",""7"",""22064""
""blur"",""7"",""23819""
""focus"",""7"",""24056""
","""event"",""trial"",""time""
""blur"",""7"",""20238""
""blur"",""7"",""21876""
""blur"",""7"",""23819""
","""event"",""trial"",""time""
""focus"",""7"",""20579""
""focus"",""7"",""22064""
""focus"",""7"",""24056""
","""event"",""trial"",""time""
""fullscreenenter"",""1"",""2090""
","
","","","-1","","","17","3364","1982","&#9728;","elianto","#f73b6a7A","-1","-1","1","0","[]","0","1","","","3364","12","0","4","lose","no-go","0"
"pit-trial","78","744288","0.0-16.0","battery-v0.2","","""event"",""trial"",""time""
""fullscreenenter"",""1"",""2090""
""blur"",""7"",""20238""
""focus"",""7"",""20579""
""blur"",""7"",""21876""
""focus"",""7"",""22064""
""blur"",""7"",""23819""
""focus"",""7"",""24056""
","""event"",""trial"",""time""
""blur"",""7"",""20238""
""blur"",""7"",""21876""
""blur"",""7"",""23819""
","""event"",""trial"",""time""
""focus"",""7"",""20579""
""focus"",""7"",""22064""
""focus"",""7"",""24056""
","""event"",""trial"",""time""
""fullscreenenter"",""1"",""2090""
","
","","","1020.4000000059605","","","17","3364","1982","&#9752;","elianto","#f73b6a7A"," "," ","1","0","[1871.300000011921]","1","1","","","3364","13","3","3","lose","go","0"
"pit-trial","79","747704","0.0-17.0","battery-v0.2","","""event"",""trial"",""time""
""fullscreenenter"",""1"",""2090""
""blur"",""7"",""20238""
""focus"",""7"",""20579""
""blur"",""7"",""21876""
""focus"",""7"",""22064""
""blur"",""7"",""23819""
""focus"",""7"",""24056""
","""event"",""trial"",""time""
""blur"",""7"",""20238""
""blur"",""7"",""21876""
""blur"",""7"",""23819""
","""event"",""trial"",""time""
""focus"",""7"",""20579""
""focus"",""7"",""22064""
""focus"",""7"",""24056""
","""event"",""trial"",""time""
""fullscreenenter"",""1"",""2090""
","
","","","561.7000000178814","","","17","3364","1982","&#9730;","elianto","#3366ff99"," "," ","1","+10","[1412.4000000059605]","1","1","","","3364","14","1","1","win","go","0"
"pit-trial","80","752557","0.0-18.0","battery-v0.2","","""event"",""trial"",""time""
""fullscreenenter"",""1"",""2090""
""blur"",""7"",""20238""
""focus"",""7"",""20579""
""blur"",""7"",""21876""
""focus"",""7"",""22064""
""blur"",""7"",""23819""
""focus"",""7"",""24056""
","""event"",""trial"",""time""
""blur"",""7"",""20238""
""blur"",""7"",""21876""
""blur"",""7"",""23819""
","""event"",""trial"",""time""
""focus"",""7"",""20579""
""focus"",""7"",""22064""
""focus"",""7"",""24056""
","""event"",""trial"",""time""
""fullscreenenter"",""1"",""2090""
","
","","","-1","","","17","3364","1982","&#9733;","elianto","#3366ff99","-1","-1","1","+10","[]","0","1","","","3364","15","2","2","win","no-go","0"
"pit-trial","81","757411","0.0-19.0","battery-v0.2","","""event"",""trial"",""time""
""fullscreenenter"",""1"",""2090""
""blur"",""7"",""20238""
""focus"",""7"",""20579""
""blur"",""7"",""21876""
""focus"",""7"",""22064""
""blur"",""7"",""23819""
""focus"",""7"",""24056""
","""event"",""trial"",""time""
""blur"",""7"",""20238""
""blur"",""7"",""21876""
""blur"",""7"",""23819""
","""event"",""trial"",""time""
""focus"",""7"",""20579""
""focus"",""7"",""22064""
""focus"",""7"",""24056""
","""event"",""trial"",""time""
""fullscreenenter"",""1"",""2090""
","
","","","-1","","","17","3364","1982","&#9728;","elianto","#f73b6a7A","-1","-1","1","0","[]","0","1","","","3364","16","0","4","lose","no-go","0"
"pit-trial","82","761024","0.0-20.0","battery-v0.2","","""event"",""trial"",""time""
""fullscreenenter"",""1"",""2090""
""blur"",""7"",""20238""
""focus"",""7"",""20579""
""blur"",""7"",""21876""
""focus"",""7"",""22064""
""blur"",""7"",""23819""
""focus"",""7"",""24056""
","""event"",""trial"",""time""
""blur"",""7"",""20238""
""blur"",""7"",""21876""
""blur"",""7"",""23819""
","""event"",""trial"",""time""
""focus"",""7"",""20579""
""focus"",""7"",""22064""
""focus"",""7"",""24056""
","""event"",""trial"",""time""
""fullscreenenter"",""1"",""2090""
","
","","","759","","","17","3364","1982","&#9730;","elianto","#3366ff99"," "," ","1","+10","[1609.5]","1","1","","","3364","17","1","1","win","go","0"
"pit-trial","83","765877","0.0-21.0","battery-v0.2","","""event"",""trial"",""time""
""fullscreenenter"",""1"",""2090""
""blur"",""7"",""20238""
""focus"",""7"",""20579""
""blur"",""7"",""21876""
""focus"",""7"",""22064""
""blur"",""7"",""23819""
""focus"",""7"",""24056""
","""event"",""trial"",""time""
""blur"",""7"",""20238""
""blur"",""7"",""21876""
""blur"",""7"",""23819""
","""event"",""trial"",""time""
""focus"",""7"",""20579""
""focus"",""7"",""22064""
""focus"",""7"",""24056""
","""event"",""trial"",""time""
""fullscreenenter"",""1"",""2090""
","
","","","-1","","","17","3364","1982","&#9733;","elianto","#3366ff99","-1","-1","1","+10","[]","0","1","","","3364","18","2","2","win","no-go","0"
"pit-trial","84","769270","0.0-22.0","battery-v0.2","","""event"",""trial"",""time""
""fullscreenenter"",""1"",""2090""
""blur"",""7"",""20238""
""focus"",""7"",""20579""
""blur"",""7"",""21876""
""focus"",""7"",""22064""
""blur"",""7"",""23819""
""focus"",""7"",""24056""
","""event"",""trial"",""time""
""blur"",""7"",""20238""
""blur"",""7"",""21876""
""blur"",""7"",""23819""
","""event"",""trial"",""time""
""focus"",""7"",""20579""
""focus"",""7"",""22064""
""focus"",""7"",""24056""
","""event"",""trial"",""time""
""fullscreenenter"",""1"",""2090""
","
","","","540.5999999940395","","","17","3364","1982","&#9752;","elianto","#f73b6a7A"," "," ","1","0","[1391.2000000178814]","1","1","","","3364","19","3","3","lose","go","0"
"pit-trial","85","774125","0.0-23.0","battery-v0.2","","""event"",""trial"",""time""
""fullscreenenter"",""1"",""2090""
""blur"",""7"",""20238""
""focus"",""7"",""20579""
""blur"",""7"",""21876""
""focus"",""7"",""22064""
""blur"",""7"",""23819""
""focus"",""7"",""24056""
","""event"",""trial"",""time""
""blur"",""7"",""20238""
""blur"",""7"",""21876""
""blur"",""7"",""23819""
","""event"",""trial"",""time""
""focus"",""7"",""20579""
""focus"",""7"",""22064""
""focus"",""7"",""24056""
","""event"",""trial"",""time""
""fullscreenenter"",""1"",""2090""
","
","","","-1","","","17","3364","1982","&#9728;","elianto","#f73b6a7A","-1","-1","1","0","[]","0","1","","","3364","20","0","4","lose","no-go","0"
"pit-instructions","86","789484","0.0-24.0","battery-v0.2","","""event"",""trial"",""time""
""fullscreenenter"",""1"",""2090""
""blur"",""7"",""20238""
""focus"",""7"",""20579""
""blur"",""7"",""21876""
""focus"",""7"",""22064""
""blur"",""7"",""23819""
""focus"",""7"",""24056""
","""event"",""trial"",""time""
""blur"",""7"",""20238""
""blur"",""7"",""21876""
""blur"",""7"",""23819""
","""event"",""trial"",""time""
""focus"",""7"",""20579""
""focus"",""7"",""22064""
""focus"",""7"",""24056""
","""event"",""trial"",""time""
""fullscreenenter"",""1"",""2090""
","
","","[{""page_index"":0,""viewing_time"":8221.5},{""page_index"":1,""viewing_time"":7136}]","15357.90000000596","","","","","","","","","","","","","","","","","","","","","","","",""
"pit-trial","87","793082","0.0-25.0","battery-v0.2","","""event"",""trial"",""time""
""fullscreenenter"",""1"",""2090""
""blur"",""7"",""20238""
""focus"",""7"",""20579""
""blur"",""7"",""21876""
""focus"",""7"",""22064""
""blur"",""7"",""23819""
""focus"",""7"",""24056""
","""event"",""trial"",""time""
""blur"",""7"",""20238""
""blur"",""7"",""21876""
""blur"",""7"",""23819""
","""event"",""trial"",""time""
""focus"",""7"",""20579""
""focus"",""7"",""22064""
""focus"",""7"",""24056""
","""event"",""trial"",""time""
""fullscreenenter"",""1"",""2090""
","
","","","730.2000000178814","","","17","3364","1982","f","elianto","#3366ff99","-1"," ","0","+10","[1582.7000000178814]","1","2","","","3364","21","1","2","win","no-go","1"
"pit-trial","88","796978","0.0-26.0","battery-v0.2","","""event"",""trial"",""time""
""fullscreenenter"",""1"",""2090""
""blur"",""7"",""20238""
""focus"",""7"",""20579""
""blur"",""7"",""21876""
""focus"",""7"",""22064""
""blur"",""7"",""23819""
""focus"",""7"",""24056""
","""event"",""trial"",""time""
""blur"",""7"",""20238""
""blur"",""7"",""21876""
""blur"",""7"",""23819""
","""event"",""trial"",""time""
""focus"",""7"",""20579""
""focus"",""7"",""22064""
""focus"",""7"",""24056""
","""event"",""trial"",""time""
""fullscreenenter"",""1"",""2090""
","
","","","1037.5","","","17","3364","1982","b","elianto","#f73b6a7A","-1"," ","0","-10","[1889.5]","1","2","","","3364","22","3","4","lose","no-go","0"
"pit-trial","89","800974","0.0-27.0","battery-v0.2","","""event"",""trial"",""time""
""fullscreenenter"",""1"",""2090""
""blur"",""7"",""20238""
""focus"",""7"",""20579""
""blur"",""7"",""21876""
""focus"",""7"",""22064""
""blur"",""7"",""23819""
""focus"",""7"",""24056""
","""event"",""trial"",""time""
""blur"",""7"",""20238""
""blur"",""7"",""21876""
""blur"",""7"",""23819""
","""event"",""trial"",""time""
""focus"",""7"",""20579""
""focus"",""7"",""22064""
""focus"",""7"",""24056""
","""event"",""trial"",""time""
""fullscreenenter"",""1"",""2090""
","
","","","1134.9000000059605","","","17","3364","1982","t","elianto","#f73b6a7A"," "," ","1","-10","[1986.300000011921]","1","2","","","3364","23","2","3","lose","go","1"
"pit-trial","90","804780","0.0-28.0","battery-v0.2","","""event"",""trial"",""time""
""fullscreenenter"",""1"",""2090""
""blur"",""7"",""20238""
""focus"",""7"",""20579""
""blur"",""7"",""21876""
""focus"",""7"",""22064""
""blur"",""7"",""23819""
""focus"",""7"",""24056""
","""event"",""trial"",""time""
""blur"",""7"",""20238""
""blur"",""7"",""21876""
""blur"",""7"",""23819""
","""event"",""trial"",""time""
""focus"",""7"",""20579""
""focus"",""7"",""22064""
""focus"",""7"",""24056""
","""event"",""trial"",""time""
""fullscreenenter"",""1"",""2090""
","
","","","935.1999999880791","","","17","3364","1982","n","elianto","#f73b6a7A"," "," ","1","0","[1789.9000000059605]","1","2","","","3364","24","0","3","lose","go","0"
"pit-trial","91","809401","0.0-29.0","battery-v0.2","","""event"",""trial"",""time""
""fullscreenenter"",""1"",""2090""
""blur"",""7"",""20238""
""focus"",""7"",""20579""
""blur"",""7"",""21876""
""focus"",""7"",""22064""
""blur"",""7"",""23819""
""focus"",""7"",""24056""
","""event"",""trial"",""time""
""blur"",""7"",""20238""
""blur"",""7"",""21876""
""blur"",""7"",""23819""
","""event"",""trial"",""time""
""focus"",""7"",""20579""
""focus"",""7"",""22064""
""focus"",""7"",""24056""
","""event"",""trial"",""time""
""fullscreenenter"",""1"",""2090""
","
","","","1764.0999999940395","","","17","3364","1982","t","elianto","#f73b6a7A"," "," ","1","0","[2616.300000011921]","1","2","","","3364","25","2","3","lose","go","0"
"pit-trial","92","813341","0.0-30.0","battery-v0.2","","""event"",""trial"",""time""
""fullscreenenter"",""1"",""2090""
""blur"",""7"",""20238""
""focus"",""7"",""20579""
""blur"",""7"",""21876""
""focus"",""7"",""22064""
""blur"",""7"",""23819""
""focus"",""7"",""24056""
","""event"",""trial"",""time""
""blur"",""7"",""20238""
""blur"",""7"",""21876""
""blur"",""7"",""23819""
","""event"",""trial"",""time""
""focus"",""7"",""20579""
""focus"",""7"",""22064""
""focus"",""7"",""24056""
","""event"",""trial"",""time""
""fullscreenenter"",""1"",""2090""
","
","","","1071.2999999821186","","","17","3364","1982","n","elianto","#f73b6a7A"," "," ","1","0","[1923.2999999821186]","1","2","","","3364","26","0","3","lose","go","0"
"pit-trial","93","818206","0.0-31.0","battery-v0.2","","""event"",""trial"",""time""
""fullscreenenter"",""1"",""2090""
""blur"",""7"",""20238""
""focus"",""7"",""20579""
""blur"",""7"",""21876""
""focus"",""7"",""22064""
""blur"",""7"",""23819""
""focus"",""7"",""24056""
","""event"",""trial"",""time""
""blur"",""7"",""20238""
""blur"",""7"",""21876""
""blur"",""7"",""23819""
","""event"",""trial"",""time""
""focus"",""7"",""20579""
""focus"",""7"",""22064""
""focus"",""7"",""24056""
","""event"",""trial"",""time""
""fullscreenenter"",""1"",""2090""
","
","","","-1","","","17","3364","1982","b","elianto","#f73b6a7A","-1","-1","1","0","[]","0","2","","","3364","27","3","4","lose","no-go","0"
"pit-trial","94","821640","0.0-32.0","battery-v0.2","","""event"",""trial"",""time""
""fullscreenenter"",""1"",""2090""
""blur"",""7"",""20238""
""focus"",""7"",""20579""
""blur"",""7"",""21876""
""focus"",""7"",""22064""
""blur"",""7"",""23819""
""focus"",""7"",""24056""
","""event"",""trial"",""time""
""blur"",""7"",""20238""
""blur"",""7"",""21876""
""blur"",""7"",""23819""
","""event"",""trial"",""time""
""focus"",""7"",""20579""
""focus"",""7"",""22064""
""focus"",""7"",""24056""
","""event"",""trial"",""time""
""fullscreenenter"",""1"",""2090""
","
","","","574.8000000119209","","","17","3364","1982","f","elianto","#3366ff99","-1"," ","0","0","[1430.5]","1","2","","","3364","28","1","2","win","no-go","0"
"pit-trial","95","825408","0.0-33.0","battery-v0.2","","""event"",""trial"",""time""
""fullscreenenter"",""1"",""2090""
""blur"",""7"",""20238""
""focus"",""7"",""20579""
""blur"",""7"",""21876""
""focus"",""7"",""22064""
""blur"",""7"",""23819""
""focus"",""7"",""24056""
","""event"",""trial"",""time""
""blur"",""7"",""20238""
""blur"",""7"",""21876""
""blur"",""7"",""23819""
","""event"",""trial"",""time""
""focus"",""7"",""20579""
""focus"",""7"",""22064""
""focus"",""7"",""24056""
","""event"",""trial"",""time""
""fullscreenenter"",""1"",""2090""
","
","","","914.5999999940395","","","17","3364","1982","f","elianto","#3366ff99","-1"," ","0","+10","[1765.3999999761581]","1","2","","","3364","29","1","2","win","no-go","1"
"pit-trial","96","829208","0.0-34.0","battery-v0.2","","""event"",""trial"",""time""
""fullscreenenter"",""1"",""2090""
""blur"",""7"",""20238""
""focus"",""7"",""20579""
""blur"",""7"",""21876""
""focus"",""7"",""22064""
""blur"",""7"",""23819""
""focus"",""7"",""24056""
","""event"",""trial"",""time""
""blur"",""7"",""20238""
""blur"",""7"",""21876""
""blur"",""7"",""23819""
","""event"",""trial"",""time""
""focus"",""7"",""20579""
""focus"",""7"",""22064""
""focus"",""7"",""24056""
","""event"",""trial"",""time""
""fullscreenenter"",""1"",""2090""
","
","","","946.1999999880791","","","17","3364","1982","t","elianto","#f73b6a7A"," "," ","1","0","[1797.199999988079]","1","2","","","3364","30","2","3","lose","go","0"
"pit-trial","97","834062","0.0-35.0","battery-v0.2","","""event"",""trial"",""time""
""fullscreenenter"",""1"",""2090""
""blur"",""7"",""20238""
""focus"",""7"",""20579""
""blur"",""7"",""21876""
""focus"",""7"",""22064""
""blur"",""7"",""23819""
""focus"",""7"",""24056""
","""event"",""trial"",""time""
""blur"",""7"",""20238""
""blur"",""7"",""21876""
""blur"",""7"",""23819""
","""event"",""trial"",""time""
""focus"",""7"",""20579""
""focus"",""7"",""22064""
""focus"",""7"",""24056""
","""event"",""trial"",""time""
""fullscreenenter"",""1"",""2090""
","
","","","-1","","","17","3364","1982","b","elianto","#f73b6a7A","-1","-1","1","-10","[]","0","2","","","3364","31","3","4","lose","no-go","1"
"pit-trial","98","837520","0.0-36.0","battery-v0.2","","""event"",""trial"",""time""
""fullscreenenter"",""1"",""2090""
""blur"",""7"",""20238""
""focus"",""7"",""20579""
""blur"",""7"",""21876""
""focus"",""7"",""22064""
""blur"",""7"",""23819""
""focus"",""7"",""24056""
","""event"",""trial"",""time""
""blur"",""7"",""20238""
""blur"",""7"",""21876""
""blur"",""7"",""23819""
","""event"",""trial"",""time""
""focus"",""7"",""20579""
""focus"",""7"",""22064""
""focus"",""7"",""24056""
","""event"",""trial"",""time""
""fullscreenenter"",""1"",""2090""
","
","","","603.7999999821186","","","17","3364","1982","n","elianto","#f73b6a7A"," "," ","1","-10","[1455.0999999940395]","1","2","","","3364","32","0","3","lose","go","1"
"pit-trial","99","841512","0.0-37.0","battery-v0.2","","""event"",""trial"",""time""
""fullscreenenter"",""1"",""2090""
""blur"",""7"",""20238""
""focus"",""7"",""20579""
""blur"",""7"",""21876""
""focus"",""7"",""22064""
""blur"",""7"",""23819""
""focus"",""7"",""24056""
","""event"",""trial"",""time""
""blur"",""7"",""20238""
""blur"",""7"",""21876""
""blur"",""7"",""23819""
","""event"",""trial"",""time""
""focus"",""7"",""20579""
""focus"",""7"",""22064""
""focus"",""7"",""24056""
","""event"",""trial"",""time""
""fullscreenenter"",""1"",""2090""
","
","","","1139.4000000059605","","","17","3364","1982","n","elianto","#f73b6a7A"," "," ","1","-10","[1989.4000000059605]","1","2","","","3364","33","0","3","lose","go","1"
"pit-trial","100","846366","0.0-38.0","battery-v0.2","","""event"",""trial"",""time""
""fullscreenenter"",""1"",""2090""
""blur"",""7"",""20238""
""focus"",""7"",""20579""
""blur"",""7"",""21876""
""focus"",""7"",""22064""
""blur"",""7"",""23819""
""focus"",""7"",""24056""
","""event"",""trial"",""time""
""blur"",""7"",""20238""
""blur"",""7"",""21876""
""blur"",""7"",""23819""
","""event"",""trial"",""time""
""focus"",""7"",""20579""
""focus"",""7"",""22064""
""focus"",""7"",""24056""
","""event"",""trial"",""time""
""fullscreenenter"",""1"",""2090""
","
","","","-1","","","17","3364","1982","b","elianto","#f73b6a7A","-1","-1","1","0","[]","0","2","","","3364","34","3","4","lose","no-go","0"
"pit-trial","101","850201","0.0-39.0","battery-v0.2","","""event"",""trial"",""time""
""fullscreenenter"",""1"",""2090""
""blur"",""7"",""20238""
""focus"",""7"",""20579""
""blur"",""7"",""21876""
""focus"",""7"",""22064""
""blur"",""7"",""23819""
""focus"",""7"",""24056""
","""event"",""trial"",""time""
""blur"",""7"",""20238""
""blur"",""7"",""21876""
""blur"",""7"",""23819""
","""event"",""trial"",""time""
""focus"",""7"",""20579""
""focus"",""7"",""22064""
""focus"",""7"",""24056""
","""event"",""trial"",""time""
""fullscreenenter"",""1"",""2090""
","
","","","981.2000000178814","","","17","3364","1982","t","elianto","#f73b6a7A"," "," ","1","0","[1831.199999988079]","1","2","","","3364","35","2","3","lose","go","0"
"pit-trial","102","853656","0.0-40.0","battery-v0.2","","""event"",""trial"",""time""
""fullscreenenter"",""1"",""2090""
""blur"",""7"",""20238""
""focus"",""7"",""20579""
""blur"",""7"",""21876""
""focus"",""7"",""22064""
""blur"",""7"",""23819""
""focus"",""7"",""24056""
","""event"",""trial"",""time""
""blur"",""7"",""20238""
""blur"",""7"",""21876""
""blur"",""7"",""23819""
","""event"",""trial"",""time""
""focus"",""7"",""20579""
""focus"",""7"",""22064""
""focus"",""7"",""24056""
","""event"",""trial"",""time""
""fullscreenenter"",""1"",""2090""
","
","","","602.0999999940395","","","17","3364","1982","f","elianto","#3366ff99","-1"," ","0","0","[1452.199999988079]","1","2","","","3364","36","1","2","win","no-go","0"
"pit-trial","103","858510","0.0-41.0","battery-v0.2","","""event"",""trial"",""time""
""fullscreenenter"",""1"",""2090""
""blur"",""7"",""20238""
""focus"",""7"",""20579""
""blur"",""7"",""21876""
""focus"",""7"",""22064""
""blur"",""7"",""23819""
""focus"",""7"",""24056""
","""event"",""trial"",""time""
""blur"",""7"",""20238""
""blur"",""7"",""21876""
""blur"",""7"",""23819""
","""event"",""trial"",""time""
""focus"",""7"",""20579""
""focus"",""7"",""22064""
""focus"",""7"",""24056""
","""event"",""trial"",""time""
""fullscreenenter"",""1"",""2090""
","
","","","-1","","","17","3364","1982","b","elianto","#f73b6a7A","-1","-1","1","0","[]","0","2","","","3364","37","3","4","lose","no-go","0"
"pit-trial","104","862087","0.0-42.0","battery-v0.2","","""event"",""trial"",""time""
""fullscreenenter"",""1"",""2090""
""blur"",""7"",""20238""
""focus"",""7"",""20579""
""blur"",""7"",""21876""
""focus"",""7"",""22064""
""blur"",""7"",""23819""
""focus"",""7"",""24056""
","""event"",""trial"",""time""
""blur"",""7"",""20238""
""blur"",""7"",""21876""
""blur"",""7"",""23819""
","""event"",""trial"",""time""
""focus"",""7"",""20579""
""focus"",""7"",""22064""
""focus"",""7"",""24056""
","""event"",""trial"",""time""
""fullscreenenter"",""1"",""2090""
","
","","","724.7999999821186","","","17","3364","1982","f","elianto","#3366ff99","-1"," ","0","0","[1575.2999999821186]","1","2","","","3364","38","1","2","win","no-go","0"
"pit-trial","105","866940","0.0-43.0","battery-v0.2","","""event"",""trial"",""time""
""fullscreenenter"",""1"",""2090""
""blur"",""7"",""20238""
""focus"",""7"",""20579""
""blur"",""7"",""21876""
""focus"",""7"",""22064""
""blur"",""7"",""23819""
""focus"",""7"",""24056""
","""event"",""trial"",""time""
""blur"",""7"",""20238""
""blur"",""7"",""21876""
""blur"",""7"",""23819""
","""event"",""trial"",""time""
""focus"",""7"",""20579""
""focus"",""7"",""22064""
""focus"",""7"",""24056""
","""event"",""trial"",""time""
""fullscreenenter"",""1"",""2090""
","
","","","-1","","","17","3364","1982","n","elianto","#f73b6a7A"," ","-1","0","-10","[]","0","2","","","3364","39","0","3","lose","go","0"
"pit-trial","106","870527","0.0-44.0","battery-v0.2","","""event"",""trial"",""time""
""fullscreenenter"",""1"",""2090""
""blur"",""7"",""20238""
""focus"",""7"",""20579""
""blur"",""7"",""21876""
""focus"",""7"",""22064""
""blur"",""7"",""23819""
""focus"",""7"",""24056""
","""event"",""trial"",""time""
""blur"",""7"",""20238""
""blur"",""7"",""21876""
""blur"",""7"",""23819""
","""event"",""trial"",""time""
""focus"",""7"",""20579""
""focus"",""7"",""22064""
""focus"",""7"",""24056""
","""event"",""trial"",""time""
""fullscreenenter"",""1"",""2090""
","
","","","733.5","","","17","3364","1982","t","elianto","#f73b6a7A"," "," ","1","0","[1584.300000011921]","1","2","","","3364","40","2","3","lose","go","0"
"pit-trial","107","874264","0.0-45.0","battery-v0.2","","""event"",""trial"",""time""
""fullscreenenter"",""1"",""2090""
""blur"",""7"",""20238""
""focus"",""7"",""20579""
""blur"",""7"",""21876""
""focus"",""7"",""22064""
""blur"",""7"",""23819""
""focus"",""7"",""24056""
","""event"",""trial"",""time""
""blur"",""7"",""20238""
""blur"",""7"",""21876""
""blur"",""7"",""23819""
","""event"",""trial"",""time""
""focus"",""7"",""20579""
""focus"",""7"",""22064""
""focus"",""7"",""24056""
","""event"",""trial"",""time""
""fullscreenenter"",""1"",""2090""
","
","","","882.1999999880791","","","17","3364","1982","n","elianto","#f73b6a7A"," "," ","1","0","[1734]","1","2","","","3364","41","0","3","lose","go","0"
"pit-trial","108","878159","0.0-46.0","battery-v0.2","","""event"",""trial"",""time""
""fullscreenenter"",""1"",""2090""
""blur"",""7"",""20238""
""focus"",""7"",""20579""
""blur"",""7"",""21876""
""focus"",""7"",""22064""
""blur"",""7"",""23819""
""focus"",""7"",""24056""
","""event"",""trial"",""time""
""blur"",""7"",""20238""
""blur"",""7"",""21876""
""blur"",""7"",""23819""
","""event"",""trial"",""time""
""focus"",""7"",""20579""
""focus"",""7"",""22064""
""focus"",""7"",""24056""
","""event"",""trial"",""time""
""fullscreenenter"",""1"",""2090""
","
","","","1042.5999999940395","","","17","3364","1982","t","elianto","#f73b6a7A"," "," ","1","-10","[1893.0999999940395]","1","2","","","3364","42","2","3","lose","go","1"
"pit-trial","109","881671","0.0-47.0","battery-v0.2","","""event"",""trial"",""time""
""fullscreenenter"",""1"",""2090""
""blur"",""7"",""20238""
""focus"",""7"",""20579""
""blur"",""7"",""21876""
""focus"",""7"",""22064""
""blur"",""7"",""23819""
""focus"",""7"",""24056""
","""event"",""trial"",""time""
""blur"",""7"",""20238""
""blur"",""7"",""21876""
""blur"",""7"",""23819""
","""event"",""trial"",""time""
""focus"",""7"",""20579""
""focus"",""7"",""22064""
""focus"",""7"",""24056""
","""event"",""trial"",""time""
""fullscreenenter"",""1"",""2090""
","
","","","658.6999999880791","","","17","3364","1982","f","elianto","#3366ff99","-1"," ","0","0","[1509.300000011921]","1","2","","","3364","43","1","2","win","no-go","0"
"pit-trial","110","886524","0.0-48.0","battery-v0.2","","""event"",""trial"",""time""
""fullscreenenter"",""1"",""2090""
""blur"",""7"",""20238""
""focus"",""7"",""20579""
""blur"",""7"",""21876""
""focus"",""7"",""22064""
""blur"",""7"",""23819""
""focus"",""7"",""24056""
","""event"",""trial"",""time""
""blur"",""7"",""20238""
""blur"",""7"",""21876""
""blur"",""7"",""23819""
","""event"",""trial"",""time""
""focus"",""7"",""20579""
""focus"",""7"",""22064""
""focus"",""7"",""24056""
","""event"",""trial"",""time""
""fullscreenenter"",""1"",""2090""
","
","","","-1","","","17","3364","1982","b","elianto","#f73b6a7A","-1","-1","1","0","[]","0","2","","","3364","44","3","4","lose","no-go","0"
"pit-trial","111","891377","0.0-49.0","battery-v0.2","","""event"",""trial"",""time""
""fullscreenenter"",""1"",""2090""
""blur"",""7"",""20238""
""focus"",""7"",""20579""
""blur"",""7"",""21876""
""focus"",""7"",""22064""
""blur"",""7"",""23819""
""focus"",""7"",""24056""
","""event"",""trial"",""time""
""blur"",""7"",""20238""
""blur"",""7"",""21876""
""blur"",""7"",""23819""
","""event"",""trial"",""time""
""focus"",""7"",""20579""
""focus"",""7"",""22064""
""focus"",""7"",""24056""
","""event"",""trial"",""time""
""fullscreenenter"",""1"",""2090""
","
","","","-1","","","17","3364","1982","b","elianto","#f73b6a7A","-1","-1","1","0","[]","0","2","","","3364","45","3","4","lose","no-go","0"
"pit-trial","112","894904","0.0-50.0","battery-v0.2","","""event"",""trial"",""time""
""fullscreenenter"",""1"",""2090""
""blur"",""7"",""20238""
""focus"",""7"",""20579""
""blur"",""7"",""21876""
""focus"",""7"",""22064""
""blur"",""7"",""23819""
""focus"",""7"",""24056""
","""event"",""trial"",""time""
""blur"",""7"",""20238""
""blur"",""7"",""21876""
""blur"",""7"",""23819""
","""event"",""trial"",""time""
""focus"",""7"",""20579""
""focus"",""7"",""22064""
""focus"",""7"",""24056""
","""event"",""trial"",""time""
""fullscreenenter"",""1"",""2090""
","
","","","672.6999999880791","","","17","3364","1982","t","elianto","#f73b6a7A"," "," ","1","0","[1523.3999999761581]","1","2","","","3364","46","2","3","lose","go","0"
"pit-trial","113","898319","0.0-51.0","battery-v0.2","","""event"",""trial"",""time""
""fullscreenenter"",""1"",""2090""
""blur"",""7"",""20238""
""focus"",""7"",""20579""
""blur"",""7"",""21876""
""focus"",""7"",""22064""
""blur"",""7"",""23819""
""focus"",""7"",""24056""
","""event"",""trial"",""time""
""blur"",""7"",""20238""
""blur"",""7"",""21876""
""blur"",""7"",""23819""
","""event"",""trial"",""time""
""focus"",""7"",""20579""
""focus"",""7"",""22064""
""focus"",""7"",""24056""
","""event"",""trial"",""time""
""fullscreenenter"",""1"",""2090""
","
","","","562.2000000178814","","","17","3364","1982","f","elianto","#3366ff99","-1"," ","0","0","[1412.7000000178814]","1","2","","","3364","47","1","2","win","no-go","0"
"pit-trial","114","901702","0.0-52.0","battery-v0.2","","""event"",""trial"",""time""
""fullscreenenter"",""1"",""2090""
""blur"",""7"",""20238""
""focus"",""7"",""20579""
""blur"",""7"",""21876""
""focus"",""7"",""22064""
""blur"",""7"",""23819""
""focus"",""7"",""24056""
","""event"",""trial"",""time""
""blur"",""7"",""20238""
""blur"",""7"",""21876""
""blur"",""7"",""23819""
","""event"",""trial"",""time""
""focus"",""7"",""20579""
""focus"",""7"",""22064""
""focus"",""7"",""24056""
","""event"",""trial"",""time""
""fullscreenenter"",""1"",""2090""
","
","","","529.7000000178814","","","17","3364","1982","n","elianto","#f73b6a7A"," "," ","1","-10","[1381]","1","2","","","3364","48","0","3","lose","go","1"
"pit-trial","115","905640","0.0-53.0","battery-v0.2","","""event"",""trial"",""time""
""fullscreenenter"",""1"",""2090""
""blur"",""7"",""20238""
""focus"",""7"",""20579""
""blur"",""7"",""21876""
""focus"",""7"",""22064""
""blur"",""7"",""23819""
""focus"",""7"",""24056""
","""event"",""trial"",""time""
""blur"",""7"",""20238""
""blur"",""7"",""21876""
""blur"",""7"",""23819""
","""event"",""trial"",""time""
""focus"",""7"",""20579""
""focus"",""7"",""22064""
""focus"",""7"",""24056""
","""event"",""trial"",""time""
""fullscreenenter"",""1"",""2090""
","
","","","1083.0999999940395","","","17","3364","1982","t","elianto","#f73b6a7A"," "," ","1","0","[1933.800000011921]","1","2","","","3364","49","2","3","lose","go","0"
"pit-trial","116","910495","0.0-54.0","battery-v0.2","","""event"",""trial"",""time""
""fullscreenenter"",""1"",""2090""
""blur"",""7"",""20238""
""focus"",""7"",""20579""
""blur"",""7"",""21876""
""focus"",""7"",""22064""
""blur"",""7"",""23819""
""focus"",""7"",""24056""
","""event"",""trial"",""time""
""blur"",""7"",""20238""
""blur"",""7"",""21876""
""blur"",""7"",""23819""
","""event"",""trial"",""time""
""focus"",""7"",""20579""
""focus"",""7"",""22064""
""focus"",""7"",""24056""
","""event"",""trial"",""time""
""fullscreenenter"",""1"",""2090""
","
","","","-1","","","17","3364","1982","b","elianto","#f73b6a7A","-1","-1","1","0","[]","0","2","","","3364","50","3","4","lose","no-go","0"
"pit-trial","117","913911","0.0-55.0","battery-v0.2","","""event"",""trial"",""time""
""fullscreenenter"",""1"",""2090""
""blur"",""7"",""20238""
""focus"",""7"",""20579""
""blur"",""7"",""21876""
""focus"",""7"",""22064""
""blur"",""7"",""23819""
""focus"",""7"",""24056""
","""event"",""trial"",""time""
""blur"",""7"",""20238""
""blur"",""7"",""21876""
""blur"",""7"",""23819""
","""event"",""trial"",""time""
""focus"",""7"",""20579""
""focus"",""7"",""22064""
""focus"",""7"",""24056""
","""event"",""trial"",""time""
""fullscreenenter"",""1"",""2090""
","
","","","563.0999999940395","","","17","3364","1982","f","elianto","#3366ff99","-1"," ","0","+10","[1413.2000000178814]","1","2","","","3364","51","1","2","win","no-go","1"
"pit-trial","118","918764","0.0-56.0","battery-v0.2","","""event"",""trial"",""time""
""fullscreenenter"",""1"",""2090""
""blur"",""7"",""20238""
""focus"",""7"",""20579""
""blur"",""7"",""21876""
""focus"",""7"",""22064""
""blur"",""7"",""23819""
""focus"",""7"",""24056""
","""event"",""trial"",""time""
""blur"",""7"",""20238""
""blur"",""7"",""21876""
""blur"",""7"",""23819""
","""event"",""trial"",""time""
""focus"",""7"",""20579""
""focus"",""7"",""22064""
""focus"",""7"",""24056""
","""event"",""trial"",""time""
""fullscreenenter"",""1"",""2090""
","
","","","-1","","","17","3364","1982","n","elianto","#f73b6a7A"," ","-1","0","0","[]","0","2","","","3364","52","0","3","lose","go","1"
"pit-trial","119","922215","0.0-57.0","battery-v0.2","","""event"",""trial"",""time""
""fullscreenenter"",""1"",""2090""
""blur"",""7"",""20238""
""focus"",""7"",""20579""
""blur"",""7"",""21876""
""focus"",""7"",""22064""
""blur"",""7"",""23819""
""focus"",""7"",""24056""
","""event"",""trial"",""time""
""blur"",""7"",""20238""
""blur"",""7"",""21876""
""blur"",""7"",""23819""
","""event"",""trial"",""time""
""focus"",""7"",""20579""
""focus"",""7"",""22064""
""focus"",""7"",""24056""
","""event"",""trial"",""time""
""fullscreenenter"",""1"",""2090""
","
","","","598.3000000119209","","","17","3364","1982","f","elianto","#3366ff99","-1"," ","0","0","[1448.7000000178814]","1","2","","","3364","53","1","2","win","no-go","0"
"pit-trial","120","927068","0.0-58.0","battery-v0.2","","""event"",""trial"",""time""
""fullscreenenter"",""1"",""2090""
""blur"",""7"",""20238""
""focus"",""7"",""20579""
""blur"",""7"",""21876""
""focus"",""7"",""22064""
""blur"",""7"",""23819""
""focus"",""7"",""24056""
","""event"",""trial"",""time""
""blur"",""7"",""20238""
""blur"",""7"",""21876""
""blur"",""7"",""23819""
","""event"",""trial"",""time""
""focus"",""7"",""20579""
""focus"",""7"",""22064""
""focus"",""7"",""24056""
","""event"",""trial"",""time""
""fullscreenenter"",""1"",""2090""
","
","","","-1","","","17","3364","1982","b","elianto","#f73b6a7A","-1","-1","1","0","[]","0","2","","","3364","54","3","4","lose","no-go","0"
"pit-trial","121","931928","0.0-59.0","battery-v0.2","","""event"",""trial"",""time""
""fullscreenenter"",""1"",""2090""
""blur"",""7"",""20238""
""focus"",""7"",""20579""
""blur"",""7"",""21876""
""focus"",""7"",""22064""
""blur"",""7"",""23819""
""focus"",""7"",""24056""
","""event"",""trial"",""time""
""blur"",""7"",""20238""
""blur"",""7"",""21876""
""blur"",""7"",""23819""
","""event"",""trial"",""time""
""focus"",""7"",""20579""
""focus"",""7"",""22064""
""focus"",""7"",""24056""
","""event"",""trial"",""time""
""fullscreenenter"",""1"",""2090""
","
","","","-1","","","17","3364","1982","n","elianto","#f73b6a7A"," ","-1","0","-10","[]","0","2","","","3364","55","0","3","lose","go","0"
"pit-trial","122","935415","0.0-60.0","battery-v0.2","","""event"",""trial"",""time""
""fullscreenenter"",""1"",""2090""
""blur"",""7"",""20238""
""focus"",""7"",""20579""
""blur"",""7"",""21876""
""focus"",""7"",""22064""
""blur"",""7"",""23819""
""focus"",""7"",""24056""
","""event"",""trial"",""time""
""blur"",""7"",""20238""
""blur"",""7"",""21876""
""blur"",""7"",""23819""
","""event"",""trial"",""time""
""focus"",""7"",""20579""
""focus"",""7"",""22064""
""focus"",""7"",""24056""
","""event"",""trial"",""time""
""fullscreenenter"",""1"",""2090""
","
","","","633.9000000059605","","","17","3364","1982","t","elianto","#f73b6a7A"," "," ","1","0","[1485]","1","2","","","3364","56","2","3","lose","go","0"
"pit-trial","123","940268","0.0-61.0","battery-v0.2","","""event"",""trial"",""time""
""fullscreenenter"",""1"",""2090""
""blur"",""7"",""20238""
""focus"",""7"",""20579""
""blur"",""7"",""21876""
""focus"",""7"",""22064""
""blur"",""7"",""23819""
""focus"",""7"",""24056""
","""event"",""trial"",""time""
""blur"",""7"",""20238""
""blur"",""7"",""21876""
""blur"",""7"",""23819""
","""event"",""trial"",""time""
""focus"",""7"",""20579""
""focus"",""7"",""22064""
""focus"",""7"",""24056""
","""event"",""trial"",""time""
""fullscreenenter"",""1"",""2090""
","
","","","-1","","","17","3364","1982","n","elianto","#f73b6a7A"," ","-1","0","-10","[]","0","2","","","3364","57","0","3","lose","go","0"
"pit-trial","124","945120","0.0-62.0","battery-v0.2","","""event"",""trial"",""time""
""fullscreenenter"",""1"",""2090""
""blur"",""7"",""20238""
""focus"",""7"",""20579""
""blur"",""7"",""21876""
""focus"",""7"",""22064""
""blur"",""7"",""23819""
""focus"",""7"",""24056""
","""event"",""trial"",""time""
""blur"",""7"",""20238""
""blur"",""7"",""21876""
""blur"",""7"",""23819""
","""event"",""trial"",""time""
""focus"",""7"",""20579""
""focus"",""7"",""22064""
""focus"",""7"",""24056""
","""event"",""trial"",""time""
""fullscreenenter"",""1"",""2090""
","
","","","-1","","","17","3364","1982","b","elianto","#f73b6a7A","-1","-1","1","0","[]","0","2","","","3364","58","3","4","lose","no-go","0"
"pit-trial","125","948639","0.0-63.0","battery-v0.2","","""event"",""trial"",""time""
""fullscreenenter"",""1"",""2090""
""blur"",""7"",""20238""
""focus"",""7"",""20579""
""blur"",""7"",""21876""
""focus"",""7"",""22064""
""blur"",""7"",""23819""
""focus"",""7"",""24056""
","""event"",""trial"",""time""
""blur"",""7"",""20238""
""blur"",""7"",""21876""
""blur"",""7"",""23819""
","""event"",""trial"",""time""
""focus"",""7"",""20579""
""focus"",""7"",""22064""
""focus"",""7"",""24056""
","""event"",""trial"",""time""
""fullscreenenter"",""1"",""2090""
","
","","","665.1999999880791","","","17","3364","1982","t","elianto","#f73b6a7A"," "," ","1","0","[1516.2999999821186]","1","2","","","3364","59","2","3","lose","go","0"
"pit-trial","126","952184","0.0-64.0","battery-v0.2","","""event"",""trial"",""time""
""fullscreenenter"",""1"",""2090""
""blur"",""7"",""20238""
""focus"",""7"",""20579""
""blur"",""7"",""21876""
""focus"",""7"",""22064""
""blur"",""7"",""23819""
""focus"",""7"",""24056""
","""event"",""trial"",""time""
""blur"",""7"",""20238""
""blur"",""7"",""21876""
""blur"",""7"",""23819""
","""event"",""trial"",""time""
""focus"",""7"",""20579""
""focus"",""7"",""22064""
""focus"",""7"",""24056""
","""event"",""trial"",""time""
""fullscreenenter"",""1"",""2090""
","
","","","691.6999999880791","","","17","3364","1982","c","elianto","#3366ff99"," "," ","1","+10","[1542.0999999940395]","1","2","","","3364","60","4","1","win","go","0"
"pit-trial","127","956087","0.0-65.0","battery-v0.2","","""event"",""trial"",""time""
""fullscreenenter"",""1"",""2090""
""blur"",""7"",""20238""
""focus"",""7"",""20579""
""blur"",""7"",""21876""
""focus"",""7"",""22064""
""blur"",""7"",""23819""
""focus"",""7"",""24056""
","""event"",""trial"",""time""
""blur"",""7"",""20238""
""blur"",""7"",""21876""
""blur"",""7"",""23819""
","""event"",""trial"",""time""
""focus"",""7"",""20579""
""focus"",""7"",""22064""
""focus"",""7"",""24056""
","""event"",""trial"",""time""
""fullscreenenter"",""1"",""2090""
","
","","","1049.7999999821186","","","17","3364","1982","t","elianto","#f73b6a7A"," "," ","1","0","[1900.5]","1","2","","","3364","61","2","3","lose","go","0"
"pit-trial","128","959792","0.0-66.0","battery-v0.2","","""event"",""trial"",""time""
""fullscreenenter"",""1"",""2090""
""blur"",""7"",""20238""
""focus"",""7"",""20579""
""blur"",""7"",""21876""
""focus"",""7"",""22064""
""blur"",""7"",""23819""
""focus"",""7"",""24056""
","""event"",""trial"",""time""
""blur"",""7"",""20238""
""blur"",""7"",""21876""
""blur"",""7"",""23819""
","""event"",""trial"",""time""
""focus"",""7"",""20579""
""focus"",""7"",""22064""
""focus"",""7"",""24056""
","""event"",""trial"",""time""
""fullscreenenter"",""1"",""2090""
","
","","","850.2999999821186","","","17","3364","1982","f","elianto","#3366ff99","-1"," ","0","0","[1701.5]","1","2","","","3364","62","1","2","win","no-go","0"
"pit-trial","129","963431","0.0-67.0","battery-v0.2","","""event"",""trial"",""time""
""fullscreenenter"",""1"",""2090""
""blur"",""7"",""20238""
""focus"",""7"",""20579""
""blur"",""7"",""21876""
""focus"",""7"",""22064""
""blur"",""7"",""23819""
""focus"",""7"",""24056""
","""event"",""trial"",""time""
""blur"",""7"",""20238""
""blur"",""7"",""21876""
""blur"",""7"",""23819""
","""event"",""trial"",""time""
""focus"",""7"",""20579""
""focus"",""7"",""22064""
""focus"",""7"",""24056""
","""event"",""trial"",""time""
""fullscreenenter"",""1"",""2090""
","
","","","785.8000000119209","","","17","3364","1982","c","elianto","#3366ff99"," "," ","1","+10","[1636.6000000238419]","1","2","","","3364","63","4","1","win","go","0"
"pit-trial","130","968284","0.0-68.0","battery-v0.2","","""event"",""trial"",""time""
""fullscreenenter"",""1"",""2090""
""blur"",""7"",""20238""
""focus"",""7"",""20579""
""blur"",""7"",""21876""
""focus"",""7"",""22064""
""blur"",""7"",""23819""
""focus"",""7"",""24056""
","""event"",""trial"",""time""
""blur"",""7"",""20238""
""blur"",""7"",""21876""
""blur"",""7"",""23819""
","""event"",""trial"",""time""
""focus"",""7"",""20579""
""focus"",""7"",""22064""
""focus"",""7"",""24056""
","""event"",""trial"",""time""
""fullscreenenter"",""1"",""2090""
","
","","","-1","","","17","3364","1982","b","elianto","#f73b6a7A","-1","-1","1","0","[]","0","2","","","3364","64","3","4","lose","no-go","0"
"pit-trial","131","971807","0.0-69.0","battery-v0.2","","""event"",""trial"",""time""
""fullscreenenter"",""1"",""2090""
""blur"",""7"",""20238""
""focus"",""7"",""20579""
""blur"",""7"",""21876""
""focus"",""7"",""22064""
""blur"",""7"",""23819""
""focus"",""7"",""24056""
","""event"",""trial"",""time""
""blur"",""7"",""20238""
""blur"",""7"",""21876""
""blur"",""7"",""23819""
","""event"",""trial"",""time""
""focus"",""7"",""20579""
""focus"",""7"",""22064""
""focus"",""7"",""24056""
","""event"",""trial"",""time""
""fullscreenenter"",""1"",""2090""
","
","","","670.4000000059605","","","17","3364","1982","c","elianto","#3366ff99"," "," ","1","+10","[1520.800000011921]","1","2","","","3364","65","4","1","win","go","0"
"pit-trial","132","976661","0.0-70.0","battery-v0.2","","""event"",""trial"",""time""
""fullscreenenter"",""1"",""2090""
""blur"",""7"",""20238""
""focus"",""7"",""20579""
""blur"",""7"",""21876""
""focus"",""7"",""22064""
""blur"",""7"",""23819""
""focus"",""7"",""24056""
","""event"",""trial"",""time""
""blur"",""7"",""20238""
""blur"",""7"",""21876""
""blur"",""7"",""23819""
","""event"",""trial"",""time""
""focus"",""7"",""20579""
""focus"",""7"",""22064""
""focus"",""7"",""24056""
","""event"",""trial"",""time""
""fullscreenenter"",""1"",""2090""
","
","","","-1","","","17","3364","1982","b","elianto","#f73b6a7A","-1","-1","1","-10","[]","0","2","","","3364","66","3","4","lose","no-go","1"
"pit-trial","133","981514","0.0-71.0","battery-v0.2","","""event"",""trial"",""time""
""fullscreenenter"",""1"",""2090""
""blur"",""7"",""20238""
""focus"",""7"",""20579""
""blur"",""7"",""21876""
""focus"",""7"",""22064""
""blur"",""7"",""23819""
""focus"",""7"",""24056""
","""event"",""trial"",""time""
""blur"",""7"",""20238""
""blur"",""7"",""21876""
""blur"",""7"",""23819""
","""event"",""trial"",""time""
""focus"",""7"",""20579""
""focus"",""7"",""22064""
""focus"",""7"",""24056""
","""event"",""trial"",""time""
""fullscreenenter"",""1"",""2090""
","
","","","-1","","","17","3364","1982","z","elianto","#3366ff99","-1","-1","1","+10","[]","0","2","","","3364","67","5","2","win","no-go","0"
