"trial_type","trial_index","time_elapsed","internal_node_id","task_version","subject_id","interactions","blur_events","focus_events","fullscreenenter_events","fullscreenexit_events","success","view_history","rt","responses","num_errors","age","subject","participantId","rune","rune_set","hex","correct","choice","accuracy","outcome","keys","total_keys","block","practice","value","sub","trial","stimulus","robot","valence","action","sham"
"pavlovia","0","10","0.0-0.0","battery-v0.2","","""event"",""trial"",""time""
""blur"",""1"",""5834""
""focus"",""1"",""12193""
""fullscreenenter"",""1"",""12314""
","""event"",""trial"",""time""
""blur"",""1"",""5834""
","""event"",""trial"",""time""
""focus"",""1"",""12193""
","""event"",""trial"",""time""
""fullscreenenter"",""1"",""12314""
","
","","","","","","","","","","","","","","","","","","","","","","","","","","",""
"fullscreen","1","13303","0.0-1.0","battery-v0.2","","""event"",""trial"",""time""
""blur"",""1"",""5834""
""focus"",""1"",""12193""
""fullscreenenter"",""1"",""12314""
","""event"",""trial"",""time""
""blur"",""1"",""5834""
","""event"",""trial"",""time""
""focus"",""1"",""12193""
","""event"",""trial"",""time""
""fullscreenenter"",""1"",""12314""
","
","true","","","","","","","","","","","","","","","","","","","","","","","","","",""
"pit-instructions","2","32560","0.0-2.0-0.0","battery-v0.2","","""event"",""trial"",""time""
""blur"",""1"",""5834""
""focus"",""1"",""12193""
""fullscreenenter"",""1"",""12314""
","""event"",""trial"",""time""
""blur"",""1"",""5834""
","""event"",""trial"",""time""
""focus"",""1"",""12193""
","""event"",""trial"",""time""
""fullscreenenter"",""1"",""12314""
","
","","[{""page_index"":0,""viewing_time"":19253.29999998212}]","19253.69999998808","","","","","","","","","","","","","","","","","","","","","","","",""
"pit-comprehension","3","38848","0.0-2.0-1.0-0.0","battery-v0.2","","""event"",""trial"",""time""
""blur"",""1"",""5834""
""focus"",""1"",""12193""
""fullscreenenter"",""1"",""12314""
","""event"",""trial"",""time""
""blur"",""1"",""5834""
","""event"",""trial"",""time""
""focus"",""1"",""12193""
","""event"",""trial"",""time""
""fullscreenenter"",""1"",""12314""
","
","","","6284.0999999940395","[""shark""]","0","15","5875","3329","","","","","","","","","","","","","","","","","","",""
"pit-instructions","4","41356","0.0-2.0-1.0-1.0","battery-v0.2","","""event"",""trial"",""time""
""blur"",""1"",""5834""
""focus"",""1"",""12193""
""fullscreenenter"",""1"",""12314""
","""event"",""trial"",""time""
""blur"",""1"",""5834""
","""event"",""trial"",""time""
""focus"",""1"",""12193""
","""event"",""trial"",""time""
""fullscreenenter"",""1"",""12314""
","
","","[{""page_index"":0,""viewing_time"":2499.199999988079}]","2499.5999999940395","","","","","","","","","","","","","","","","","","","","","","","",""
"pit-comprehension","5","45705","0.0-2.0-2.0-0.0","battery-v0.2","","""event"",""trial"",""time""
""blur"",""1"",""5834""
""focus"",""1"",""12193""
""fullscreenenter"",""1"",""12314""
","""event"",""trial"",""time""
""blur"",""1"",""5834""
","""event"",""trial"",""time""
""focus"",""1"",""12193""
","""event"",""trial"",""time""
""fullscreenenter"",""1"",""12314""
","
","","","4344.5","[""tiger""]","0","15","5875","3329","","","","","","","","","","","","","","","","","","",""
"pit-instructions","6","47216","0.0-2.0-2.0-1.0","battery-v0.2","","""event"",""trial"",""time""
""blur"",""1"",""5834""
""focus"",""1"",""12193""
""fullscreenenter"",""1"",""12314""
","""event"",""trial"",""time""
""blur"",""1"",""5834""
","""event"",""trial"",""time""
""focus"",""1"",""12193""
","""event"",""trial"",""time""
""fullscreenenter"",""1"",""12314""
","
","","[{""page_index"":0,""viewing_time"":1508.7999999821186}]","1509.0999999940395","","","","","","","","","","","","","","","","","","","","","","","",""
"pit-instructions","7","213020","0.0-2.0-3.0","battery-v0.2","","""event"",""trial"",""time""
""blur"",""1"",""5834""
""focus"",""1"",""12193""
""fullscreenenter"",""1"",""12314""
","""event"",""trial"",""time""
""blur"",""1"",""5834""
","""event"",""trial"",""time""
""focus"",""1"",""12193""
","""event"",""trial"",""time""
""fullscreenenter"",""1"",""12314""
","
","","[{""page_index"":0,""viewing_time"":11067.299999982119},{""page_index"":1,""viewing_time"":6906},{""page_index"":2,""viewing_time"":8671.90000000596},{""page_index"":3,""viewing_time"":11993.800000011921},{""page_index"":4,""viewing_time"":22300.09999999404},{""page_index"":5,""viewing_time"":11092},{""page_index"":6,""viewing_time"":9356},{""page_index"":7,""viewing_time"":9822.800000011921},{""page_index"":8,""viewing_time"":10833.799999982119},{""page_index"":9,""viewing_time"":5427.800000011921},{""page_index"":10,""viewing_time"":9464.799999982119},{""page_index"":11,""viewing_time"":18741.30000001192},{""page_index"":12,""viewing_time"":19677.5},{""page_index"":13,""viewing_time"":10444.90000000596}]","165800.5","","","","","","","","","","","","","","","","","","","","","","","",""
"pit-trial","8","217894","0.0-2.0-4.0-0.0","battery-v0.2","","""event"",""trial"",""time""
""blur"",""1"",""5834""
""focus"",""1"",""12193""
""fullscreenenter"",""1"",""12314""
","""event"",""trial"",""time""
""blur"",""1"",""5834""
","""event"",""trial"",""time""
""focus"",""1"",""12193""
","""event"",""trial"",""time""
""fullscreenenter"",""1"",""12314""
","
","","","-1","","","15","5875","3329","&#9784;","elianto","#FFFFF080"," ","-1","0","&#10060","[]","0","0","0","","","","","","","",""
"pit-trial","9","221652","0.0-2.0-4.1-0.1","battery-v0.2","","""event"",""trial"",""time""
""blur"",""1"",""5834""
""focus"",""1"",""12193""
""fullscreenenter"",""1"",""12314""
","""event"",""trial"",""time""
""blur"",""1"",""5834""
","""event"",""trial"",""time""
""focus"",""1"",""12193""
","""event"",""trial"",""time""
""fullscreenenter"",""1"",""12314""
","
","","","884.6000000238419","","","15","5875","3329","&#9784;","elianto","#FFFFF080"," "," ","1","&#10004","[1744]","1","0","0","","","","","","","",""
"pit-trial","10","224797","0.0-2.0-4.2-0.2","battery-v0.2","","""event"",""trial"",""time""
""blur"",""1"",""5834""
""focus"",""1"",""12193""
""fullscreenenter"",""1"",""12314""
","""event"",""trial"",""time""
""blur"",""1"",""5834""
","""event"",""trial"",""time""
""focus"",""1"",""12193""
","""event"",""trial"",""time""
""fullscreenenter"",""1"",""12314""
","
","","","275.30000001192093","","","15","5875","3329","&#9784;","elianto","#FFFFF080"," "," ","1","&#10004","[1125.5,2734.4000000059605]","2","0","0","","","","","","","",""
"pit-trial","11","228411","0.0-2.0-4.3-0.3","battery-v0.2","","""event"",""trial"",""time""
""blur"",""1"",""5834""
""focus"",""1"",""12193""
""fullscreenenter"",""1"",""12314""
","""event"",""trial"",""time""
""blur"",""1"",""5834""
","""event"",""trial"",""time""
""focus"",""1"",""12193""
","""event"",""trial"",""time""
""fullscreenenter"",""1"",""12314""
","
","","","758.1999999880791","","","15","5875","3329","&#9784;","elianto","#FFFFF080"," "," ","1","&#10004","[1608.9000000059605]","1","0","0","","","","","","","",""
"pit-trial","12","231792","0.0-2.0-4.4-0.4","battery-v0.2","","""event"",""trial"",""time""
""blur"",""1"",""5834""
""focus"",""1"",""12193""
""fullscreenenter"",""1"",""12314""
","""event"",""trial"",""time""
""blur"",""1"",""5834""
","""event"",""trial"",""time""
""focus"",""1"",""12193""
","""event"",""trial"",""time""
""fullscreenenter"",""1"",""12314""
","
","","","519.5","","","15","5875","3329","&#9784;","elianto","#FFFFF080"," "," ","1","&#10004","[1370.0999999940395,1966.5999999940395]","2","0","0","","","","","","","",""
"pit-instructions","13","265216","0.0-2.0-5.0","battery-v0.2","","""event"",""trial"",""time""
""blur"",""1"",""5834""
""focus"",""1"",""12193""
""fullscreenenter"",""1"",""12314""
","""event"",""trial"",""time""
""blur"",""1"",""5834""
","""event"",""trial"",""time""
""focus"",""1"",""12193""
","""event"",""trial"",""time""
""fullscreenenter"",""1"",""12314""
","
","","[{""page_index"":0,""viewing_time"":5325.799999982119},{""page_index"":1,""viewing_time"":10206.200000017881},{""page_index"":2,""viewing_time"":8553.699999988079},{""page_index"":3,""viewing_time"":9338.09999999404}]","33424.29999998212","","","","","","","","","","","","","","","","","","","","","","","",""
"pit-trial","14","270091","0.0-2.0-6.0-0.0","battery-v0.2","","""event"",""trial"",""time""
""blur"",""1"",""5834""
""focus"",""1"",""12193""
""fullscreenenter"",""1"",""12314""
","""event"",""trial"",""time""
""blur"",""1"",""5834""
","""event"",""trial"",""time""
""focus"",""1"",""12193""
","""event"",""trial"",""time""
""fullscreenenter"",""1"",""12314""
","
","","","-1","","","15","5875","3329","&#9854;","elianto","#FFFFF080","-1","-1","1","&#10004","[]","0","0","1","","","","","","","",""
"pit-trial","15","274972","0.0-2.0-6.1-0.1","battery-v0.2","","""event"",""trial"",""time""
""blur"",""1"",""5834""
""focus"",""1"",""12193""
""fullscreenenter"",""1"",""12314""
","""event"",""trial"",""time""
""blur"",""1"",""5834""
","""event"",""trial"",""time""
""focus"",""1"",""12193""
","""event"",""trial"",""time""
""fullscreenenter"",""1"",""12314""
","
","","","-1","","","15","5875","3329","&#9854;","elianto","#FFFFF080","-1","-1","1","&#10004","[]","0","0","1","","","","","","","",""
"pit-trial","16","279857","0.0-2.0-6.2-0.2","battery-v0.2","","""event"",""trial"",""time""
""blur"",""1"",""5834""
""focus"",""1"",""12193""
""fullscreenenter"",""1"",""12314""
","""event"",""trial"",""time""
""blur"",""1"",""5834""
","""event"",""trial"",""time""
""focus"",""1"",""12193""
","""event"",""trial"",""time""
""fullscreenenter"",""1"",""12314""
","
","","","-1","","","15","5875","3329","&#9854;","elianto","#FFFFF080","-1","-1","1","&#10004","[]","0","0","1","","","","","","","",""
"pit-trial","17","284729","0.0-2.0-6.3-0.3","battery-v0.2","","""event"",""trial"",""time""
""blur"",""1"",""5834""
""focus"",""1"",""12193""
""fullscreenenter"",""1"",""12314""
","""event"",""trial"",""time""
""blur"",""1"",""5834""
","""event"",""trial"",""time""
""focus"",""1"",""12193""
","""event"",""trial"",""time""
""fullscreenenter"",""1"",""12314""
","
","","","-1","","","15","5875","3329","&#9854;","elianto","#FFFFF080","-1","-1","1","&#10004","[]","0","0","1","","","","","","","",""
"pit-trial","18","289600","0.0-2.0-6.4-0.4","battery-v0.2","","""event"",""trial"",""time""
""blur"",""1"",""5834""
""focus"",""1"",""12193""
""fullscreenenter"",""1"",""12314""
","""event"",""trial"",""time""
""blur"",""1"",""5834""
","""event"",""trial"",""time""
""focus"",""1"",""12193""
","""event"",""trial"",""time""
""fullscreenenter"",""1"",""12314""
","
","","","-1","","","15","5875","3329","&#9854;","elianto","#FFFFF080","-1","-1","1","&#10004","[]","0","0","1","","","","","","","",""
"pit-instructions","19","465672","0.0-2.0-7.0","battery-v0.2","","""event"",""trial"",""time""
""blur"",""1"",""5834""
""focus"",""1"",""12193""
""fullscreenenter"",""1"",""12314""
","""event"",""trial"",""time""
""blur"",""1"",""5834""
","""event"",""trial"",""time""
""focus"",""1"",""12193""
","""event"",""trial"",""time""
""fullscreenenter"",""1"",""12314""
","
","","[{""page_index"":0,""viewing_time"":17968.29999998212},{""page_index"":1,""viewing_time"":11161.800000011921},{""page_index"":2,""viewing_time"":9234},{""page_index"":3,""viewing_time"":8919.699999988079},{""page_index"":4,""viewing_time"":6014.9000000059605},{""page_index"":5,""viewing_time"":8175.5999999940395},{""page_index"":6,""viewing_time"":6600.300000011921},{""page_index"":7,""viewing_time"":10805.800000011921},{""page_index"":8,""viewing_time"":14333.59999999404},{""page_index"":9,""viewing_time"":9958.09999999404},{""page_index"":10,""viewing_time"":8518.40000000596},{""page_index"":11,""viewing_time"":7803.5999999940395},{""page_index"":12,""viewing_time"":9840.09999999404},{""page_index"":13,""viewing_time"":14572},{""page_index"":14,""viewing_time"":12125.800000011921},{""page_index"":15,""viewing_time"":6948.199999988079},{""page_index"":16,""viewing_time"":6405.9000000059605},{""page_index"":17,""viewing_time"":6682}]","176068.59999999404","","","","","","","","","","","","","","","","","","","","","","","",""
"pit-trial","20","469148","0.0-2.0-8.0-0.0","battery-v0.2","","""event"",""trial"",""time""
""blur"",""1"",""5834""
""focus"",""1"",""12193""
""fullscreenenter"",""1"",""12314""
","""event"",""trial"",""time""
""blur"",""1"",""5834""
","""event"",""trial"",""time""
""focus"",""1"",""12193""
","""event"",""trial"",""time""
""fullscreenenter"",""1"",""12314""
","
","","","607.3000000119209","","","15","5875","3329","&#9776;","elianto","#3366ff99"," "," ","1","+10","[1462.199999988079,2297.7999999821186,2934.5]","3","0","1","","","","","","","",""
"pit-trial","21","472599","0.0-2.0-8.0-1.0","battery-v0.2","","""event"",""trial"",""time""
""blur"",""1"",""5834""
""focus"",""1"",""12193""
""fullscreenenter"",""1"",""12314""
","""event"",""trial"",""time""
""blur"",""1"",""5834""
","""event"",""trial"",""time""
""focus"",""1"",""12193""
","""event"",""trial"",""time""
""fullscreenenter"",""1"",""12314""
","
","","","580.4000000059605","","","15","5875","3329","&#9776;","elianto","#3366ff99"," "," ","1","+10","[49.599999994039536,1440.8999999761581,1910.199999988079,2207.899999976158,2417.2999999821186,2603.5,2803.899999976158,2986.2999999821186,3174.0999999940395,3370.7999999821186]","10","0","1","","","","","","","",""
"pit-trial","22","475979","0.0-2.0-8.0-2.0","battery-v0.2","","""event"",""trial"",""time""
""blur"",""1"",""5834""
""focus"",""1"",""12193""
""fullscreenenter"",""1"",""12314""
","""event"",""trial"",""time""
""blur"",""1"",""5834""
","""event"",""trial"",""time""
""focus"",""1"",""12193""
","""event"",""trial"",""time""
""fullscreenenter"",""1"",""12314""
","
","","","506.80000001192093","","","15","5875","3329","&#9776;","elianto","#3366ff99"," "," ","1","+10","[126.09999999403954,1361.9000000059605,1828.4000000059605,2254.199999988079,2627,2998.9000000059605]","6","0","1","","","","","","","",""
"pit-trial","23","479440","0.0-2.0-8.0-3.0","battery-v0.2","","""event"",""trial"",""time""
""blur"",""1"",""5834""
""focus"",""1"",""12193""
""fullscreenenter"",""1"",""12314""
","""event"",""trial"",""time""
""blur"",""1"",""5834""
","""event"",""trial"",""time""
""focus"",""1"",""12193""
","""event"",""trial"",""time""
""fullscreenenter"",""1"",""12314""
","
","","","588.0999999940395","","","15","5875","3329","&#9776;","elianto","#3366ff99"," "," ","1","0","[43.400000005960464,1444.199999988079]","2","0","1","","","","","","","",""
"pit-trial","24","483098","0.0-2.0-8.0-4.0","battery-v0.2","","""event"",""trial"",""time""
""blur"",""1"",""5834""
""focus"",""1"",""12193""
""fullscreenenter"",""1"",""12314""
","""event"",""trial"",""time""
""blur"",""1"",""5834""
","""event"",""trial"",""time""
""focus"",""1"",""12193""
","""event"",""trial"",""time""
""fullscreenenter"",""1"",""12314""
","
","","","785.8000000119209","","","15","5875","3329","&#9776;","elianto","#3366ff99"," "," ","1","+10","[1642.300000011921]","1","0","1","","","","","","","",""
"pit-trial","25","486561","0.0-2.0-8.1-0.1","battery-v0.2","","""event"",""trial"",""time""
""blur"",""1"",""5834""
""focus"",""1"",""12193""
""fullscreenenter"",""1"",""12314""
","""event"",""trial"",""time""
""blur"",""1"",""5834""
","""event"",""trial"",""time""
""focus"",""1"",""12193""
","""event"",""trial"",""time""
""fullscreenenter"",""1"",""12314""
","
","","","587.3000000119209","","","15","5875","3329","&#9776;","elianto","#3366ff99"," "," ","1","+10","[1450.2000000178814]","1","0","1","","","","","","","",""
"pit-trial","26","489979","0.0-2.0-8.1-1.1","battery-v0.2","","""event"",""trial"",""time""
""blur"",""1"",""5834""
""focus"",""1"",""12193""
""fullscreenenter"",""1"",""12314""
","""event"",""trial"",""time""
""blur"",""1"",""5834""
","""event"",""trial"",""time""
""focus"",""1"",""12193""
","""event"",""trial"",""time""
""fullscreenenter"",""1"",""12314""
","
","","","541.5999999940395","","","15","5875","3329","&#9776;","elianto","#3366ff99"," "," ","1","+10","[1403.2000000178814]","1","0","1","","","","","","","",""
"pit-trial","27","493147","0.0-2.0-8.1-2.1","battery-v0.2","","""event"",""trial"",""time""
""blur"",""1"",""5834""
""focus"",""1"",""12193""
""fullscreenenter"",""1"",""12314""
","""event"",""trial"",""time""
""blur"",""1"",""5834""
","""event"",""trial"",""time""
""focus"",""1"",""12193""
","""event"",""trial"",""time""
""fullscreenenter"",""1"",""12314""
","
","","","298.7999999821186","","","15","5875","3329","&#9776;","elianto","#3366ff99"," "," ","1","+10","[1157.5999999940395,1738]","2","0","1","","","","","","","",""
"pit-trial","28","496207","0.0-2.0-8.1-3.1","battery-v0.2","","""event"",""trial"",""time""
""blur"",""1"",""5834""
""focus"",""1"",""12193""
""fullscreenenter"",""1"",""12314""
","""event"",""trial"",""time""
""blur"",""1"",""5834""
","""event"",""trial"",""time""
""focus"",""1"",""12193""
","""event"",""trial"",""time""
""fullscreenenter"",""1"",""12314""
","
","","","182.60000002384186","","","15","5875","3329","&#9776;","elianto","#3366ff99"," "," ","1","0","[1037.1000000238419,2880.300000011921]","2","0","1","","","","","","","",""
"pit-trial","29","499518","0.0-2.0-8.1-4.1","battery-v0.2","","""event"",""trial"",""time""
""blur"",""1"",""5834""
""focus"",""1"",""12193""
""fullscreenenter"",""1"",""12314""
","""event"",""trial"",""time""
""blur"",""1"",""5834""
","""event"",""trial"",""time""
""focus"",""1"",""12193""
","""event"",""trial"",""time""
""fullscreenenter"",""1"",""12314""
","
","","","441.5","","","15","5875","3329","&#9776;","elianto","#3366ff99"," "," ","1","+10","[1299.199999988079,3083.7999999821186]","2","0","1","","","","","","","",""
"pit-trial","30","503417","0.0-2.0-8.2-0.2","battery-v0.2","","""event"",""trial"",""time""
""blur"",""1"",""5834""
""focus"",""1"",""12193""
""fullscreenenter"",""1"",""12314""
","""event"",""trial"",""time""
""blur"",""1"",""5834""
","""event"",""trial"",""time""
""focus"",""1"",""12193""
","""event"",""trial"",""time""
""fullscreenenter"",""1"",""12314""
","
","","","1035.2999999821186","","","15","5875","3329","&#9776;","elianto","#3366ff99"," "," ","1","+10","[1894.5]","1","0","1","","","","","","","",""
"pit-trial","31","506921","0.0-2.0-8.2-1.2","battery-v0.2","","""event"",""trial"",""time""
""blur"",""1"",""5834""
""focus"",""1"",""12193""
""fullscreenenter"",""1"",""12314""
","""event"",""trial"",""time""
""blur"",""1"",""5834""
","""event"",""trial"",""time""
""focus"",""1"",""12193""
","""event"",""trial"",""time""
""fullscreenenter"",""1"",""12314""
","
","","","644.4000000059605","","","15","5875","3329","&#9776;","elianto","#3366ff99"," "," ","1","+10","[1498.0999999940395]","1","0","1","","","","","","","",""
"pit-trial","32","510296","0.0-2.0-8.2-2.2","battery-v0.2","","""event"",""trial"",""time""
""blur"",""1"",""5834""
""focus"",""1"",""12193""
""fullscreenenter"",""1"",""12314""
","""event"",""trial"",""time""
""blur"",""1"",""5834""
","""event"",""trial"",""time""
""focus"",""1"",""12193""
","""event"",""trial"",""time""
""fullscreenenter"",""1"",""12314""
","
","","","515.5","","","15","5875","3329","&#9776;","elianto","#3366ff99"," "," ","1","+10","[1366]","1","0","1","","","","","","","",""
"pit-trial","33","513648","0.0-2.0-8.2-3.2","battery-v0.2","","""event"",""trial"",""time""
""blur"",""1"",""5834""
""focus"",""1"",""12193""
""fullscreenenter"",""1"",""12314""
","""event"",""trial"",""time""
""blur"",""1"",""5834""
","""event"",""trial"",""time""
""focus"",""1"",""12193""
","""event"",""trial"",""time""
""fullscreenenter"",""1"",""12314""
","
","","","489.5","","","15","5875","3329","&#9776;","elianto","#3366ff99"," "," ","1","0","[1345]","1","0","1","","","","","","","",""
"pit-trial","34","516824","0.0-2.0-8.2-4.2","battery-v0.2","","""event"",""trial"",""time""
""blur"",""1"",""5834""
""focus"",""1"",""12193""
""fullscreenenter"",""1"",""12314""
","""event"",""trial"",""time""
""blur"",""1"",""5834""
","""event"",""trial"",""time""
""focus"",""1"",""12193""
","""event"",""trial"",""time""
""fullscreenenter"",""1"",""12314""
","
","","","317","","","15","5875","3329","&#9776;","elianto","#3366ff99"," "," ","1","+10","[1167.5999999940395]","1","0","1","","","","","","","",""
"call-function","35","516826","0.0-2.0-9.0","battery-v0.2","","""event"",""trial"",""time""
""blur"",""1"",""5834""
""focus"",""1"",""12193""
""fullscreenenter"",""1"",""12314""
","""event"",""trial"",""time""
""blur"",""1"",""5834""
","""event"",""trial"",""time""
""focus"",""1"",""12193""
","""event"",""trial"",""time""
""fullscreenenter"",""1"",""12314""
","
","","","","","","","","","","","","","","","","","","","","","","","","","","",""
"pit-instructions","36","558737","0.0-2.0-10.0","battery-v0.2","","""event"",""trial"",""time""
""blur"",""1"",""5834""
""focus"",""1"",""12193""
""fullscreenenter"",""1"",""12314""
","""event"",""trial"",""time""
""blur"",""1"",""5834""
","""event"",""trial"",""time""
""focus"",""1"",""12193""
","""event"",""trial"",""time""
""fullscreenenter"",""1"",""12314""
","
","","[{""page_index"":0,""viewing_time"":8052.600000023842},{""page_index"":1,""viewing_time"":6446},{""page_index"":2,""viewing_time"":9197.199999988079},{""page_index"":3,""viewing_time"":8122.199999988079},{""page_index"":4,""viewing_time"":10096.40000000596}]","41914.80000001192","","","","","","","","","","","","","","","","","","","","","","","",""
"pit-trial","37","562604","0.0-2.0-11.0-0.0","battery-v0.2","","""event"",""trial"",""time""
""blur"",""1"",""5834""
""focus"",""1"",""12193""
""fullscreenenter"",""1"",""12314""
","""event"",""trial"",""time""
""blur"",""1"",""5834""
","""event"",""trial"",""time""
""focus"",""1"",""12193""
","""event"",""trial"",""time""
""fullscreenenter"",""1"",""12314""
","
","","","978.6000000238419","","","15","5875","3329","&#9761;","elianto","#3366ff99","-1"," ","0","0","[1841.0999999940395]","1","0","2","","","","","","","",""
"pit-trial","38","567479","0.0-2.0-11.0-1.0","battery-v0.2","","""event"",""trial"",""time""
""blur"",""1"",""5834""
""focus"",""1"",""12193""
""fullscreenenter"",""1"",""12314""
","""event"",""trial"",""time""
""blur"",""1"",""5834""
","""event"",""trial"",""time""
""focus"",""1"",""12193""
","""event"",""trial"",""time""
""fullscreenenter"",""1"",""12314""
","
","","","-1","","","15","5875","3329","&#9761;","elianto","#3366ff99","-1","-1","1","+10","[3928.5]","1","0","2","","","","","","","",""
"pit-trial","39","570905","0.0-2.0-11.0-2.0","battery-v0.2","","""event"",""trial"",""time""
""blur"",""1"",""5834""
""focus"",""1"",""12193""
""fullscreenenter"",""1"",""12314""
","""event"",""trial"",""time""
""blur"",""1"",""5834""
","""event"",""trial"",""time""
""focus"",""1"",""12193""
","""event"",""trial"",""time""
""fullscreenenter"",""1"",""12314""
","
","","","545.8000000119209","","","15","5875","3329","&#9761;","elianto","#3366ff99","-1"," ","0","0","[1407.300000011921,2691.300000011921]","2","0","2","","","","","","","",""
"pit-trial","40","574112","0.0-2.0-11.0-3.0","battery-v0.2","","""event"",""trial"",""time""
""blur"",""1"",""5834""
""focus"",""1"",""12193""
""fullscreenenter"",""1"",""12314""
","""event"",""trial"",""time""
""blur"",""1"",""5834""
","""event"",""trial"",""time""
""focus"",""1"",""12193""
","""event"",""trial"",""time""
""fullscreenenter"",""1"",""12314""
","
","","","326.59999999403954","","","15","5875","3329","&#9761;","elianto","#3366ff99","-1"," ","0","+10","[744.5999999940395,1191.5]","2","0","2","","","","","","","",""
"pit-trial","41","578994","0.0-2.0-11.0-4.0","battery-v0.2","","""event"",""trial"",""time""
""blur"",""1"",""5834""
""focus"",""1"",""12193""
""fullscreenenter"",""1"",""12314""
","""event"",""trial"",""time""
""blur"",""1"",""5834""
","""event"",""trial"",""time""
""focus"",""1"",""12193""
","""event"",""trial"",""time""
""fullscreenenter"",""1"",""12314""
","
","","","-1","","","15","5875","3329","&#9761;","elianto","#3366ff99","-1","-1","1","+10","[]","0","0","2","","","","","","","",""
"pit-trial","42","582103","0.0-2.0-11.1-0.1","battery-v0.2","","""event"",""trial"",""time""
""blur"",""1"",""5834""
""focus"",""1"",""12193""
""fullscreenenter"",""1"",""12314""
","""event"",""trial"",""time""
""blur"",""1"",""5834""
","""event"",""trial"",""time""
""focus"",""1"",""12193""
","""event"",""trial"",""time""
""fullscreenenter"",""1"",""12314""
","
","","","252.5","","","15","5875","3329","&#9761;","elianto","#3366ff99","-1"," ","0","0","[1104.5999999940395,2988.800000011921]","2","0","2","","","","","","","",""
"pit-trial","43","585433","0.0-2.0-11.1-1.1","battery-v0.2","","""event"",""trial"",""time""
""blur"",""1"",""5834""
""focus"",""1"",""12193""
""fullscreenenter"",""1"",""12314""
","""event"",""trial"",""time""
""blur"",""1"",""5834""
","""event"",""trial"",""time""
""focus"",""1"",""12193""
","""event"",""trial"",""time""
""fullscreenenter"",""1"",""12314""
","
","","","461.10000002384186","","","15","5875","3329","&#9761;","elianto","#3366ff99","-1"," ","0","0","[1318]","1","0","2","","","","","","","",""
"pit-trial","44","588783","0.0-2.0-11.1-2.1","battery-v0.2","","""event"",""trial"",""time""
""blur"",""1"",""5834""
""focus"",""1"",""12193""
""fullscreenenter"",""1"",""12314""
","""event"",""trial"",""time""
""blur"",""1"",""5834""
","""event"",""trial"",""time""
""focus"",""1"",""12193""
","""event"",""trial"",""time""
""fullscreenenter"",""1"",""12314""
","
","","","474.59999999403954","","","15","5875","3329","&#9761;","elianto","#3366ff99","-1"," ","0","0","[1331.5]","1","0","2","","","","","","","",""
"pit-trial","45","592157","0.0-2.0-11.1-3.1","battery-v0.2","","""event"",""trial"",""time""
""blur"",""1"",""5834""
""focus"",""1"",""12193""
""fullscreenenter"",""1"",""12314""
","""event"",""trial"",""time""
""blur"",""1"",""5834""
","""event"",""trial"",""time""
""focus"",""1"",""12193""
","""event"",""trial"",""time""
""fullscreenenter"",""1"",""12314""
","
","","","516","","","15","5875","3329","&#9761;","elianto","#3366ff99","-1"," ","0","+10","[1371,2141]","2","0","2","","","","","","","",""
"pit-trial","46","595172","0.0-2.0-11.1-4.1","battery-v0.2","","""event"",""trial"",""time""
""blur"",""1"",""5834""
""focus"",""1"",""12193""
""fullscreenenter"",""1"",""12314""
","""event"",""trial"",""time""
""blur"",""1"",""5834""
","""event"",""trial"",""time""
""focus"",""1"",""12193""
","""event"",""trial"",""time""
""fullscreenenter"",""1"",""12314""
","
","","","156.80000001192093","","","15","5875","3329","&#9761;","elianto","#3366ff99","-1"," ","0","0","[1011.6999999880791,1674.2999999821186,2936.399999976158]","3","0","2","","","","","","","",""
"pit-trial","47","598596","0.0-2.0-11.2-0.2","battery-v0.2","","""event"",""trial"",""time""
""blur"",""1"",""5834""
""focus"",""1"",""12193""
""fullscreenenter"",""1"",""12314""
","""event"",""trial"",""time""
""blur"",""1"",""5834""
","""event"",""trial"",""time""
""focus"",""1"",""12193""
","""event"",""trial"",""time""
""fullscreenenter"",""1"",""12314""
","
","","","564","","","15","5875","3329","&#9761;","elianto","#3366ff99","-1"," ","0","0","[652.9000000059605,1419.0999999940395]","2","0","2","","","","","","","",""
"pit-trial","48","602334","0.0-2.0-11.2-1.2","battery-v0.2","","""event"",""trial"",""time""
""blur"",""1"",""5834""
""focus"",""1"",""12193""
""fullscreenenter"",""1"",""12314""
","""event"",""trial"",""time""
""blur"",""1"",""5834""
","""event"",""trial"",""time""
""focus"",""1"",""12193""
","""event"",""trial"",""time""
""fullscreenenter"",""1"",""12314""
","
","","","873.5999999940395","","","15","5875","3329","&#9761;","elianto","#3366ff99","-1"," ","0","0","[1728.5]","1","0","2","","","","","","","",""
"pit-trial","49","607201","0.0-2.0-11.2-2.2","battery-v0.2","","""event"",""trial"",""time""
""blur"",""1"",""5834""
""focus"",""1"",""12193""
""fullscreenenter"",""1"",""12314""
","""event"",""trial"",""time""
""blur"",""1"",""5834""
","""event"",""trial"",""time""
""focus"",""1"",""12193""
","""event"",""trial"",""time""
""fullscreenenter"",""1"",""12314""
","
","","","-1","","","15","5875","3329","&#9761;","elianto","#3366ff99","-1","-1","1","+10","[4807.9000000059605]","1","0","2","","","","","","","",""
"pit-trial","50","610968","0.0-2.0-11.2-3.2","battery-v0.2","","""event"",""trial"",""time""
""blur"",""1"",""5834""
""focus"",""1"",""12193""
""fullscreenenter"",""1"",""12314""
","""event"",""trial"",""time""
""blur"",""1"",""5834""
","""event"",""trial"",""time""
""focus"",""1"",""12193""
","""event"",""trial"",""time""
""fullscreenenter"",""1"",""12314""
","
","","","910.6999999880791","","","15","5875","3329","&#9761;","elianto","#3366ff99","-1"," ","0","+10","[812.7999999821186,1764.7999999821186]","2","0","2","","","","","","","",""
"pit-trial","51","614185","0.0-2.0-11.2-4.2","battery-v0.2","","""event"",""trial"",""time""
""blur"",""1"",""5834""
""focus"",""1"",""12193""
""fullscreenenter"",""1"",""12314""
","""event"",""trial"",""time""
""blur"",""1"",""5834""
","""event"",""trial"",""time""
""focus"",""1"",""12193""
","""event"",""trial"",""time""
""fullscreenenter"",""1"",""12314""
","
","","","361.60000002384186","","","15","5875","3329","&#9761;","elianto","#3366ff99","-1"," ","0","0","[1212.5]","1","0","2","","","","","","","",""
"pit-trial","52","619057","0.0-2.0-11.3-0.3","battery-v0.2","","""event"",""trial"",""time""
""blur"",""1"",""5834""
""focus"",""1"",""12193""
""fullscreenenter"",""1"",""12314""
","""event"",""trial"",""time""
""blur"",""1"",""5834""
","""event"",""trial"",""time""
""focus"",""1"",""12193""
","""event"",""trial"",""time""
""fullscreenenter"",""1"",""12314""
","
","","","-1","","","15","5875","3329","&#9761;","elianto","#3366ff99","-1","-1","1","+10","[4196.5999999940395,4631.700000017881]","2","0","2","","","","","","","",""
"pit-trial","53","622721","0.0-2.0-11.3-1.3","battery-v0.2","","""event"",""trial"",""time""
""blur"",""1"",""5834""
""focus"",""1"",""12193""
""fullscreenenter"",""1"",""12314""
","""event"",""trial"",""time""
""blur"",""1"",""5834""
","""event"",""trial"",""time""
""focus"",""1"",""12193""
","""event"",""trial"",""time""
""fullscreenenter"",""1"",""12314""
","
","","","800.6000000238419","","","15","5875","3329","&#9761;","elianto","#3366ff99","-1"," ","0","0","[54.599999994039536,292.09999999403954,501.40000000596046,723.8000000119209,1655.300000011921,2684.5999999940395,3306.699999988079]","7","0","2","","","","","","","",""
"pit-trial","54","625896","0.0-2.0-11.3-2.3","battery-v0.2","","""event"",""trial"",""time""
""blur"",""1"",""5834""
""focus"",""1"",""12193""
""fullscreenenter"",""1"",""12314""
","""event"",""trial"",""time""
""blur"",""1"",""5834""
","""event"",""trial"",""time""
""focus"",""1"",""12193""
","""event"",""trial"",""time""
""fullscreenenter"",""1"",""12314""
","
","","","314.30000001192093","","","15","5875","3329","&#9761;","elianto","#3366ff99","-1"," ","0","0","[568.8000000119209,1168,1865.5,2732.100000023842]","4","0","2","","","","","","","",""
"pit-trial","55","629144","0.0-2.0-11.3-3.3","battery-v0.2","","""event"",""trial"",""time""
""blur"",""1"",""5834""
""focus"",""1"",""12193""
""fullscreenenter"",""1"",""12314""
","""event"",""trial"",""time""
""blur"",""1"",""5834""
","""event"",""trial"",""time""
""focus"",""1"",""12193""
","""event"",""trial"",""time""
""fullscreenenter"",""1"",""12314""
","
","","","391.30000001192093","","","15","5875","3329","&#9761;","elianto","#3366ff99","-1"," ","0","+10","[412.09999999403954,1246.300000011921]","2","0","2","","","","","","","",""
"pit-trial","56","632369","0.0-2.0-11.3-4.3","battery-v0.2","","""event"",""trial"",""time""
""blur"",""1"",""5834""
""focus"",""1"",""12193""
""fullscreenenter"",""1"",""12314""
","""event"",""trial"",""time""
""blur"",""1"",""5834""
","""event"",""trial"",""time""
""focus"",""1"",""12193""
","""event"",""trial"",""time""
""fullscreenenter"",""1"",""12314""
","
","","","360.7999999821186","","","15","5875","3329","&#9761;","elianto","#3366ff99","-1"," ","0","0","[176.7999999821186,768.1999999880791,1216.2999999821186]","3","0","2","","","","","","","",""
"call-function","57","632371","0.0-2.0-12.0","battery-v0.2","","""event"",""trial"",""time""
""blur"",""1"",""5834""
""focus"",""1"",""12193""
""fullscreenenter"",""1"",""12314""
","""event"",""trial"",""time""
""blur"",""1"",""5834""
","""event"",""trial"",""time""
""focus"",""1"",""12193""
","""event"",""trial"",""time""
""fullscreenenter"",""1"",""12314""
","
","","","","","","","","","","","","","","","","","","","","","","","","","","",""
"pit-instructions","58","675563","0.0-2.0-13.0","battery-v0.2","","""event"",""trial"",""time""
""blur"",""1"",""5834""
""focus"",""1"",""12193""
""fullscreenenter"",""1"",""12314""
","""event"",""trial"",""time""
""blur"",""1"",""5834""
","""event"",""trial"",""time""
""focus"",""1"",""12193""
","""event"",""trial"",""time""
""fullscreenenter"",""1"",""12314""
","
","","[{""page_index"":0,""viewing_time"":11051.40000000596},{""page_index"":1,""viewing_time"":12234.199999988079},{""page_index"":2,""viewing_time"":5645.300000011921},{""page_index"":3,""viewing_time"":10217.90000000596},{""page_index"":4,""viewing_time"":4042.399999976158}]","43191.80000001192","","","","","","","","","","","","","","","","","","","","","","","",""
"pit-trial","59","679291","0.0-2.0-14.0-0.0","battery-v0.2","","""event"",""trial"",""time""
""blur"",""1"",""5834""
""focus"",""1"",""12193""
""fullscreenenter"",""1"",""12314""
","""event"",""trial"",""time""
""blur"",""1"",""5834""
","""event"",""trial"",""time""
""focus"",""1"",""12193""
","""event"",""trial"",""time""
""fullscreenenter"",""1"",""12314""
","
","","","859.5999999940395","","","15","5875","3329","&#9826;","elianto","#f73b6a7A","-1"," ","0","-10","[1719.1000000238419]","1","0","3","","","","","","","",""
"pit-trial","60","684157","0.0-2.0-14.0-1.0","battery-v0.2","","""event"",""trial"",""time""
""blur"",""1"",""5834""
""focus"",""1"",""12193""
""fullscreenenter"",""1"",""12314""
","""event"",""trial"",""time""
""blur"",""1"",""5834""
","""event"",""trial"",""time""
""focus"",""1"",""12193""
","""event"",""trial"",""time""
""fullscreenenter"",""1"",""12314""
","
","","","-1","","","15","5875","3329","&#9826;","elianto","#f73b6a7A","-1","-1","1","0","[]","0","0","3","","","","","","","",""
"pit-trial","61","687770","0.0-2.0-14.0-2.0","battery-v0.2","","""event"",""trial"",""time""
""blur"",""1"",""5834""
""focus"",""1"",""12193""
""fullscreenenter"",""1"",""12314""
","""event"",""trial"",""time""
""blur"",""1"",""5834""
","""event"",""trial"",""time""
""focus"",""1"",""12193""
","""event"",""trial"",""time""
""fullscreenenter"",""1"",""12314""
","
","","","740.5999999940395","","","15","5875","3329","&#9826;","elianto","#f73b6a7A","-1"," ","0","-10","[1597.5]","1","0","3","","","","","","","",""
"pit-trial","62","692648","0.0-2.0-14.0-3.0","battery-v0.2","","""event"",""trial"",""time""
""blur"",""1"",""5834""
""focus"",""1"",""12193""
""fullscreenenter"",""1"",""12314""
","""event"",""trial"",""time""
""blur"",""1"",""5834""
","""event"",""trial"",""time""
""focus"",""1"",""12193""
","""event"",""trial"",""time""
""fullscreenenter"",""1"",""12314""
","
","","","-1","","","15","5875","3329","&#9826;","elianto","#f73b6a7A","-1","-1","1","-10","[]","0","0","3","","","","","","","",""
"pit-trial","63","696132","0.0-2.0-14.0-4.0","battery-v0.2","","""event"",""trial"",""time""
""blur"",""1"",""5834""
""focus"",""1"",""12193""
""fullscreenenter"",""1"",""12314""
","""event"",""trial"",""time""
""blur"",""1"",""5834""
","""event"",""trial"",""time""
""focus"",""1"",""12193""
","""event"",""trial"",""time""
""fullscreenenter"",""1"",""12314""
","
","","","616.6999999880791","","","15","5875","3329","&#9826;","elianto","#f73b6a7A","-1"," ","0","-10","[1475.2999999821186]","1","0","3","","","","","","","",""
"pit-trial","64","701008","0.0-2.0-14.1-0.1","battery-v0.2","","""event"",""trial"",""time""
""blur"",""1"",""5834""
""focus"",""1"",""12193""
""fullscreenenter"",""1"",""12314""
","""event"",""trial"",""time""
""blur"",""1"",""5834""
","""event"",""trial"",""time""
""focus"",""1"",""12193""
","""event"",""trial"",""time""
""fullscreenenter"",""1"",""12314""
","
","","","-1","","","15","5875","3329","&#9826;","elianto","#f73b6a7A","-1","-1","1","0","[]","0","0","3","","","","","","","",""
"pit-trial","65","705888","0.0-2.0-14.1-1.1","battery-v0.2","","""event"",""trial"",""time""
""blur"",""1"",""5834""
""focus"",""1"",""12193""
""fullscreenenter"",""1"",""12314""
","""event"",""trial"",""time""
""blur"",""1"",""5834""
","""event"",""trial"",""time""
""focus"",""1"",""12193""
","""event"",""trial"",""time""
""fullscreenenter"",""1"",""12314""
","
","","","-1","","","15","5875","3329","&#9826;","elianto","#f73b6a7A","-1","-1","1","0","[]","0","0","3","","","","","","","",""
"pit-trial","66","710753","0.0-2.0-14.1-2.1","battery-v0.2","","""event"",""trial"",""time""
""blur"",""1"",""5834""
""focus"",""1"",""12193""
""fullscreenenter"",""1"",""12314""
","""event"",""trial"",""time""
""blur"",""1"",""5834""
","""event"",""trial"",""time""
""focus"",""1"",""12193""
","""event"",""trial"",""time""
""fullscreenenter"",""1"",""12314""
","
","","","-1","","","15","5875","3329","&#9826;","elianto","#f73b6a7A","-1","-1","1","0","[]","0","0","3","","","","","","","",""
"pit-trial","67","714145","0.0-2.0-14.1-3.1","battery-v0.2","","""event"",""trial"",""time""
""blur"",""1"",""5834""
""focus"",""1"",""12193""
""fullscreenenter"",""1"",""12314""
","""event"",""trial"",""time""
""blur"",""1"",""5834""
","""event"",""trial"",""time""
""focus"",""1"",""12193""
","""event"",""trial"",""time""
""fullscreenenter"",""1"",""12314""
","
","","","537","","","15","5875","3329","&#9826;","elianto","#f73b6a7A","-1"," ","0","0","[1389.199999988079,2376.399999976158]","2","0","3","","","","","","","",""
"pit-trial","68","719009","0.0-2.0-14.1-4.1","battery-v0.2","","""event"",""trial"",""time""
""blur"",""1"",""5834""
""focus"",""1"",""12193""
""fullscreenenter"",""1"",""12314""
","""event"",""trial"",""time""
""blur"",""1"",""5834""
","""event"",""trial"",""time""
""focus"",""1"",""12193""
","""event"",""trial"",""time""
""fullscreenenter"",""1"",""12314""
","
","","","-1","","","15","5875","3329","&#9826;","elianto","#f73b6a7A","-1","-1","1","0","[]","0","0","3","","","","","","","",""
"pit-trial","69","721993","0.0-2.0-14.2-0.2","battery-v0.2","","""event"",""trial"",""time""
""blur"",""1"",""5834""
""focus"",""1"",""12193""
""fullscreenenter"",""1"",""12314""
","""event"",""trial"",""time""
""blur"",""1"",""5834""
","""event"",""trial"",""time""
""focus"",""1"",""12193""
","""event"",""trial"",""time""
""fullscreenenter"",""1"",""12314""
","
","","","119.30000001192093","","","15","5875","3329","&#9826;","elianto","#f73b6a7A","-1"," ","0","-10","[973.1000000238419,2030.9000000059605]","2","0","3","","","","","","","",""
"pit-trial","70","726856","0.0-2.0-14.2-1.2","battery-v0.2","","""event"",""trial"",""time""
""blur"",""1"",""5834""
""focus"",""1"",""12193""
""fullscreenenter"",""1"",""12314""
","""event"",""trial"",""time""
""blur"",""1"",""5834""
","""event"",""trial"",""time""
""focus"",""1"",""12193""
","""event"",""trial"",""time""
""fullscreenenter"",""1"",""12314""
","
","","","-1","","","15","5875","3329","&#9826;","elianto","#f73b6a7A","-1","-1","1","0","[]","0","0","3","","","","","","","",""
"pit-trial","71","731720","0.0-2.0-14.2-2.2","battery-v0.2","","""event"",""trial"",""time""
""blur"",""1"",""5834""
""focus"",""1"",""12193""
""fullscreenenter"",""1"",""12314""
","""event"",""trial"",""time""
""blur"",""1"",""5834""
","""event"",""trial"",""time""
""focus"",""1"",""12193""
","""event"",""trial"",""time""
""fullscreenenter"",""1"",""12314""
","
","","","-1","","","15","5875","3329","&#9826;","elianto","#f73b6a7A","-1","-1","1","0","[]","0","0","3","","","","","","","",""
"pit-trial","72","736584","0.0-2.0-14.2-3.2","battery-v0.2","","""event"",""trial"",""time""
""blur"",""1"",""5834""
""focus"",""1"",""12193""
""fullscreenenter"",""1"",""12314""
","""event"",""trial"",""time""
""blur"",""1"",""5834""
","""event"",""trial"",""time""
""focus"",""1"",""12193""
","""event"",""trial"",""time""
""fullscreenenter"",""1"",""12314""
","
","","","-1","","","15","5875","3329","&#9826;","elianto","#f73b6a7A","-1","-1","1","-10","[633,2861.899999976158]","2","0","3","","","","","","","",""
"pit-trial","73","739551","0.0-2.0-14.2-4.2","battery-v0.2","","""event"",""trial"",""time""
""blur"",""1"",""5834""
""focus"",""1"",""12193""
""fullscreenenter"",""1"",""12314""
","""event"",""trial"",""time""
""blur"",""1"",""5834""
","""event"",""trial"",""time""
""focus"",""1"",""12193""
","""event"",""trial"",""time""
""fullscreenenter"",""1"",""12314""
","
","","","104.19999998807907","","","15","5875","3329","&#9826;","elianto","#f73b6a7A","-1"," ","0","-10","[959.1999999880791]","1","0","3","","","","","","","",""
"pit-trial","74","744415","0.0-2.0-14.3-0.3","battery-v0.2","","""event"",""trial"",""time""
""blur"",""1"",""5834""
""focus"",""1"",""12193""
""fullscreenenter"",""1"",""12314""
","""event"",""trial"",""time""
""blur"",""1"",""5834""
","""event"",""trial"",""time""
""focus"",""1"",""12193""
","""event"",""trial"",""time""
""fullscreenenter"",""1"",""12314""
","
","","","-1","","","15","5875","3329","&#9826;","elianto","#f73b6a7A","-1","-1","1","0","[]","0","0","3","","","","","","","",""
"pit-trial","75","749280","0.0-2.0-14.3-1.3","battery-v0.2","","""event"",""trial"",""time""
""blur"",""1"",""5834""
""focus"",""1"",""12193""
""fullscreenenter"",""1"",""12314""
","""event"",""trial"",""time""
""blur"",""1"",""5834""
","""event"",""trial"",""time""
""focus"",""1"",""12193""
","""event"",""trial"",""time""
""fullscreenenter"",""1"",""12314""
","
","","","-1","","","15","5875","3329","&#9826;","elianto","#f73b6a7A","-1","-1","1","0","[]","0","0","3","","","","","","","",""
"pit-trial","76","754143","0.0-2.0-14.3-2.3","battery-v0.2","","""event"",""trial"",""time""
""blur"",""1"",""5834""
""focus"",""1"",""12193""
""fullscreenenter"",""1"",""12314""
","""event"",""trial"",""time""
""blur"",""1"",""5834""
","""event"",""trial"",""time""
""focus"",""1"",""12193""
","""event"",""trial"",""time""
""fullscreenenter"",""1"",""12314""
","
","","","-1","","","15","5875","3329","&#9826;","elianto","#f73b6a7A","-1","-1","1","0","[]","0","0","3","","","","","","","",""
"pit-trial","77","759016","0.0-2.0-14.3-3.3","battery-v0.2","","""event"",""trial"",""time""
""blur"",""1"",""5834""
""focus"",""1"",""12193""
""fullscreenenter"",""1"",""12314""
","""event"",""trial"",""time""
""blur"",""1"",""5834""
","""event"",""trial"",""time""
""focus"",""1"",""12193""
","""event"",""trial"",""time""
""fullscreenenter"",""1"",""12314""
","
","","","-1","","","15","5875","3329","&#9826;","elianto","#f73b6a7A","-1","-1","1","-10","[]","0","0","3","","","","","","","",""
"pit-trial","78","763880","0.0-2.0-14.3-4.3","battery-v0.2","","""event"",""trial"",""time""
""blur"",""1"",""5834""
""focus"",""1"",""12193""
""fullscreenenter"",""1"",""12314""
","""event"",""trial"",""time""
""blur"",""1"",""5834""
","""event"",""trial"",""time""
""focus"",""1"",""12193""
","""event"",""trial"",""time""
""fullscreenenter"",""1"",""12314""
","
","","","-1","","","15","5875","3329","&#9826;","elianto","#f73b6a7A","-1","-1","1","0","[]","0","0","3","","","","","","","",""
"call-function","79","763881","0.0-2.0-15.0","battery-v0.2","","""event"",""trial"",""time""
""blur"",""1"",""5834""
""focus"",""1"",""12193""
""fullscreenenter"",""1"",""12314""
","""event"",""trial"",""time""
""blur"",""1"",""5834""
","""event"",""trial"",""time""
""focus"",""1"",""12193""
","""event"",""trial"",""time""
""fullscreenenter"",""1"",""12314""
","
","","","","","","","","","","","","","","","","","","","","","","","","","","",""
"pit-instructions","80","790411","0.0-2.0-16.0","battery-v0.2","","""event"",""trial"",""time""
""blur"",""1"",""5834""
""focus"",""1"",""12193""
""fullscreenenter"",""1"",""12314""
","""event"",""trial"",""time""
""blur"",""1"",""5834""
","""event"",""trial"",""time""
""focus"",""1"",""12193""
","""event"",""trial"",""time""
""fullscreenenter"",""1"",""12314""
","
","","[{""page_index"":0,""viewing_time"":9658.699999988079},{""page_index"":1,""viewing_time"":8083.9000000059605},{""page_index"":2,""viewing_time"":4664.5},{""page_index"":3,""viewing_time"":4121.4000000059605}]","26528.80000001192","","","","","","","","","","","","","","","","","","","","","","","",""
"pit-trial","81","795291","0.0-2.0-17.0-0.0","battery-v0.2","","""event"",""trial"",""time""
""blur"",""1"",""5834""
""focus"",""1"",""12193""
""fullscreenenter"",""1"",""12314""
","""event"",""trial"",""time""
""blur"",""1"",""5834""
","""event"",""trial"",""time""
""focus"",""1"",""12193""
","""event"",""trial"",""time""
""fullscreenenter"",""1"",""12314""
","
","","","-1","","","15","5875","3329","&#9789;","elianto","#f73b6a7A"," ","-1","0","-10","[]","0","0","4","","","","","","","",""
"pit-trial","82","798690","0.0-2.0-17.0-1.0","battery-v0.2","","""event"",""trial"",""time""
""blur"",""1"",""5834""
""focus"",""1"",""12193""
""fullscreenenter"",""1"",""12314""
","""event"",""trial"",""time""
""blur"",""1"",""5834""
","""event"",""trial"",""time""
""focus"",""1"",""12193""
","""event"",""trial"",""time""
""fullscreenenter"",""1"",""12314""
","
","","","544.1999999880791","","","15","5875","3329","&#9789;","elianto","#f73b6a7A"," "," ","1","0","[1394.5]","1","0","4","","","","","","","",""
"pit-trial","83","802017","0.0-2.0-17.0-2.0","battery-v0.2","","""event"",""trial"",""time""
""blur"",""1"",""5834""
""focus"",""1"",""12193""
""fullscreenenter"",""1"",""12314""
","""event"",""trial"",""time""
""blur"",""1"",""5834""
","""event"",""trial"",""time""
""focus"",""1"",""12193""
","""event"",""trial"",""time""
""fullscreenenter"",""1"",""12314""
","
","","","457.7000000178814","","","15","5875","3329","&#9789;","elianto","#f73b6a7A"," "," ","1","0","[1320.0999999940395]","1","0","4","","","","","","","",""
"pit-trial","84","805035","0.0-2.0-17.0-3.0","battery-v0.2","","""event"",""trial"",""time""
""blur"",""1"",""5834""
""focus"",""1"",""12193""
""fullscreenenter"",""1"",""12314""
","""event"",""trial"",""time""
""blur"",""1"",""5834""
","""event"",""trial"",""time""
""focus"",""1"",""12193""
","""event"",""trial"",""time""
""fullscreenenter"",""1"",""12314""
","
","","","150.7000000178814","","","15","5875","3329","&#9789;","elianto","#f73b6a7A"," "," ","1","-10","[487,1001.9000000059605]","2","0","4","","","","","","","",""
"pit-trial","85","809909","0.0-2.0-17.0-4.0","battery-v0.2","","""event"",""trial"",""time""
""blur"",""1"",""5834""
""focus"",""1"",""12193""
""fullscreenenter"",""1"",""12314""
","""event"",""trial"",""time""
""blur"",""1"",""5834""
","""event"",""trial"",""time""
""focus"",""1"",""12193""
","""event"",""trial"",""time""
""fullscreenenter"",""1"",""12314""
","
","","","-1","","","15","5875","3329","&#9789;","elianto","#f73b6a7A"," ","-1","0","-10","[]","0","0","4","","","","","","","",""
"pit-trial","86","814789","0.0-2.0-17.1-0.1","battery-v0.2","","""event"",""trial"",""time""
""blur"",""1"",""5834""
""focus"",""1"",""12193""
""fullscreenenter"",""1"",""12314""
","""event"",""trial"",""time""
""blur"",""1"",""5834""
","""event"",""trial"",""time""
""focus"",""1"",""12193""
","""event"",""trial"",""time""
""fullscreenenter"",""1"",""12314""
","
","","","-1","","","15","5875","3329","&#9789;","elianto","#f73b6a7A"," ","-1","0","-10","[]","0","0","4","","","","","","","",""
"pit-trial","87","819662","0.0-2.0-17.1-1.1","battery-v0.2","","""event"",""trial"",""time""
""blur"",""1"",""5834""
""focus"",""1"",""12193""
""fullscreenenter"",""1"",""12314""
","""event"",""trial"",""time""
""blur"",""1"",""5834""
","""event"",""trial"",""time""
""focus"",""1"",""12193""
","""event"",""trial"",""time""
""fullscreenenter"",""1"",""12314""
","
","","","-1","","","15","5875","3329","&#9789;","elianto","#f73b6a7A"," ","-1","0","-10","[]","0","0","4","","","","","","","",""
"pit-trial","88","824538","0.0-2.0-17.1-2.1","battery-v0.2","","""event"",""trial"",""time""
""blur"",""1"",""5834""
""focus"",""1"",""12193""
""fullscreenenter"",""1"",""12314""
","""event"",""trial"",""time""
""blur"",""1"",""5834""
","""event"",""trial"",""time""
""focus"",""1"",""12193""
","""event"",""trial"",""time""
""fullscreenenter"",""1"",""12314""
","
","","","-1","","","15","5875","3329","&#9789;","elianto","#f73b6a7A"," ","-1","0","-10","[]","0","0","4","","","","","","","",""
"pit-trial","89","829401","0.0-2.0-17.1-3.1","battery-v0.2","","""event"",""trial"",""time""
""blur"",""1"",""5834""
""focus"",""1"",""12193""
""fullscreenenter"",""1"",""12314""
","""event"",""trial"",""time""
""blur"",""1"",""5834""
","""event"",""trial"",""time""
""focus"",""1"",""12193""
","""event"",""trial"",""time""
""fullscreenenter"",""1"",""12314""
","
","","","-1","","","15","5875","3329","&#9789;","elianto","#f73b6a7A"," ","-1","0","0","[]","0","0","4","","","","","","","",""
"pit-trial","90","834265","0.0-2.0-17.1-4.1","battery-v0.2","","""event"",""trial"",""time""
""blur"",""1"",""5834""
""focus"",""1"",""12193""
""fullscreenenter"",""1"",""12314""
","""event"",""trial"",""time""
""blur"",""1"",""5834""
","""event"",""trial"",""time""
""focus"",""1"",""12193""
","""event"",""trial"",""time""
""fullscreenenter"",""1"",""12314""
","
","","","-1","","","15","5875","3329","&#9789;","elianto","#f73b6a7A"," ","-1","0","-10","[]","0","0","4","","","","","","","",""
"pit-trial","91","839128","0.0-2.0-17.2-0.2","battery-v0.2","","""event"",""trial"",""time""
""blur"",""1"",""5834""
""focus"",""1"",""12193""
""fullscreenenter"",""1"",""12314""
","""event"",""trial"",""time""
""blur"",""1"",""5834""
","""event"",""trial"",""time""
""focus"",""1"",""12193""
","""event"",""trial"",""time""
""fullscreenenter"",""1"",""12314""
","
","","","-1","","","15","5875","3329","&#9789;","elianto","#f73b6a7A"," ","-1","0","-10","[]","0","0","4","","","","","","","",""
"pit-trial","92","843993","0.0-2.0-17.2-1.2","battery-v0.2","","""event"",""trial"",""time""
""blur"",""1"",""5834""
""focus"",""1"",""12193""
""fullscreenenter"",""1"",""12314""
","""event"",""trial"",""time""
""blur"",""1"",""5834""
","""event"",""trial"",""time""
""focus"",""1"",""12193""
","""event"",""trial"",""time""
""fullscreenenter"",""1"",""12314""
","
","","","-1","","","15","5875","3329","&#9789;","elianto","#f73b6a7A"," ","-1","0","-10","[]","0","0","4","","","","","","","",""
"pit-trial","93","848857","0.0-2.0-17.2-2.2","battery-v0.2","","""event"",""trial"",""time""
""blur"",""1"",""5834""
""focus"",""1"",""12193""
""fullscreenenter"",""1"",""12314""
","""event"",""trial"",""time""
""blur"",""1"",""5834""
","""event"",""trial"",""time""
""focus"",""1"",""12193""
","""event"",""trial"",""time""
""fullscreenenter"",""1"",""12314""
","
","","","-1","","","15","5875","3329","&#9789;","elianto","#f73b6a7A"," ","-1","0","-10","[]","0","0","4","","","","","","","",""
"pit-trial","94","853720","0.0-2.0-17.2-3.2","battery-v0.2","","""event"",""trial"",""time""
""blur"",""1"",""5834""
""focus"",""1"",""12193""
""fullscreenenter"",""1"",""12314""
","""event"",""trial"",""time""
""blur"",""1"",""5834""
","""event"",""trial"",""time""
""focus"",""1"",""12193""
","""event"",""trial"",""time""
""fullscreenenter"",""1"",""12314""
","
","","","-1","","","15","5875","3329","&#9789;","elianto","#f73b6a7A"," ","-1","0","0","[]","0","0","4","","","","","","","",""
"pit-trial","95","858585","0.0-2.0-17.2-4.2","battery-v0.2","","""event"",""trial"",""time""
""blur"",""1"",""5834""
""focus"",""1"",""12193""
""fullscreenenter"",""1"",""12314""
","""event"",""trial"",""time""
""blur"",""1"",""5834""
","""event"",""trial"",""time""
""focus"",""1"",""12193""
","""event"",""trial"",""time""
""fullscreenenter"",""1"",""12314""
","
","","","-1","","","15","5875","3329","&#9789;","elianto","#f73b6a7A"," ","-1","0","-10","[]","0","0","4","","","","","","","",""
"pit-trial","96","863449","0.0-2.0-17.3-0.3","battery-v0.2","","""event"",""trial"",""time""
""blur"",""1"",""5834""
""focus"",""1"",""12193""
""fullscreenenter"",""1"",""12314""
""blur"",""97"",""872849""
","""event"",""trial"",""time""
""blur"",""1"",""5834""
""blur"",""97"",""872849""
","""event"",""trial"",""time""
""focus"",""1"",""12193""
","""event"",""trial"",""time""
""fullscreenenter"",""1"",""12314""
","
","","","-1","","","15","5875","3329","&#9789;","elianto","#f73b6a7A"," ","-1","0","-10","[]","0","0","4","","","","","","","",""
"pit-trial","97","872854","0.0-2.0-17.3-1.3","battery-v0.2","","""event"",""trial"",""time""
""blur"",""1"",""5834""
""focus"",""1"",""12193""
""fullscreenenter"",""1"",""12314""
""blur"",""97"",""872849""
""focus"",""98"",""872858""
""fullscreenexit"",""98"",""872866""
","""event"",""trial"",""time""
""blur"",""1"",""5834""
""blur"",""97"",""872849""
","""event"",""trial"",""time""
""focus"",""1"",""12193""
""focus"",""98"",""872858""
","""event"",""trial"",""time""
""fullscreenenter"",""1"",""12314""
","""event"",""trial"",""time""
""fullscreenexit"",""98"",""872866""
","","","-1","","","15","5875","3329","&#9789;","elianto","#f73b6a7A"," ","-1","0","-10","[]","0","0","4","","","","","","","",""
"pit-trial","98","877721","0.0-2.0-17.3-2.3","battery-v0.2","","""event"",""trial"",""time""
""blur"",""1"",""5834""
""focus"",""1"",""12193""
""fullscreenenter"",""1"",""12314""
""blur"",""97"",""872849""
""focus"",""98"",""872858""
""fullscreenexit"",""98"",""872866""
","""event"",""trial"",""time""
""blur"",""1"",""5834""
""blur"",""97"",""872849""
","""event"",""trial"",""time""
""focus"",""1"",""12193""
""focus"",""98"",""872858""
","""event"",""trial"",""time""
""fullscreenenter"",""1"",""12314""
","""event"",""trial"",""time""
""fullscreenexit"",""98"",""872866""
","","","-1","","","15","5875","3329","&#9789;","elianto","#f73b6a7A"," ","-1","0","-10","[]","0","0","4","","","","","","","",""
"pit-trial","99","882577","0.0-2.0-17.3-3.3","battery-v0.2","","""event"",""trial"",""time""
""blur"",""1"",""5834""
""focus"",""1"",""12193""
""fullscreenenter"",""1"",""12314""
""blur"",""97"",""872849""
""focus"",""98"",""872858""
""fullscreenexit"",""98"",""872866""
","""event"",""trial"",""time""
""blur"",""1"",""5834""
""blur"",""97"",""872849""
","""event"",""trial"",""time""
""focus"",""1"",""12193""
""focus"",""98"",""872858""
","""event"",""trial"",""time""
""fullscreenenter"",""1"",""12314""
","""event"",""trial"",""time""
""fullscreenexit"",""98"",""872866""
","","","-1","","","15","5875","3329","&#9789;","elianto","#f73b6a7A"," ","-1","0","0","[]","0","0","4","","","","","","","",""
"pit-trial","100","887441","0.0-2.0-17.3-4.3","battery-v0.2","","""event"",""trial"",""time""
""blur"",""1"",""5834""
""focus"",""1"",""12193""
""fullscreenenter"",""1"",""12314""
""blur"",""97"",""872849""
""focus"",""98"",""872858""
""fullscreenexit"",""98"",""872866""
","""event"",""trial"",""time""
""blur"",""1"",""5834""
""blur"",""97"",""872849""
","""event"",""trial"",""time""
""focus"",""1"",""12193""
""focus"",""98"",""872858""
","""event"",""trial"",""time""
""fullscreenenter"",""1"",""12314""
","""event"",""trial"",""time""
""fullscreenexit"",""98"",""872866""
","","","-1","","","15","5875","3329","&#9789;","elianto","#f73b6a7A"," ","-1","0","-10","[]","0","0","4","","","","","","","",""
"call-function","101","887442","0.0-2.0-18.0","battery-v0.2","","""event"",""trial"",""time""
""blur"",""1"",""5834""
""focus"",""1"",""12193""
""fullscreenenter"",""1"",""12314""
""blur"",""97"",""872849""
""focus"",""98"",""872858""
""fullscreenexit"",""98"",""872866""
""blur"",""102"",""891383""
""focus"",""102"",""894150""
","""event"",""trial"",""time""
""blur"",""1"",""5834""
""blur"",""97"",""872849""
""blur"",""102"",""891383""
","""event"",""trial"",""time""
""focus"",""1"",""12193""
""focus"",""98"",""872858""
""focus"",""102"",""894150""
","""event"",""trial"",""time""
""fullscreenenter"",""1"",""12314""
","""event"",""trial"",""time""
""fullscreenexit"",""98"",""872866""
","","","","","","","","","","","","","","","","","","","","","","","","","","",""
"pit-instructions","102","959613","0.0-2.0-19.0","battery-v0.2","","""event"",""trial"",""time""
""blur"",""1"",""5834""
""focus"",""1"",""12193""
""fullscreenenter"",""1"",""12314""
""blur"",""97"",""872849""
""focus"",""98"",""872858""
""fullscreenexit"",""98"",""872866""
""blur"",""102"",""891383""
""focus"",""102"",""894150""
","""event"",""trial"",""time""
""blur"",""1"",""5834""
""blur"",""97"",""872849""
""blur"",""102"",""891383""
","""event"",""trial"",""time""
""focus"",""1"",""12193""
""focus"",""98"",""872858""
""focus"",""102"",""894150""
","""event"",""trial"",""time""
""fullscreenenter"",""1"",""12314""
","""event"",""trial"",""time""
""fullscreenexit"",""98"",""872866""
","","[{""page_index"":0,""viewing_time"":8069.0999999940395},{""page_index"":1,""viewing_time"":7675.299999982119},{""page_index"":2,""viewing_time"":8321.800000011921},{""page_index"":3,""viewing_time"":14980.09999999404},{""page_index"":4,""viewing_time"":6388.800000011921},{""page_index"":5,""viewing_time"":8061.5},{""page_index"":6,""viewing_time"":5633.9000000059605},{""page_index"":7,""viewing_time"":4067.5999999940395},{""page_index"":8,""viewing_time"":8971.90000000596}]","72170.5","","","","","","","","","","","","","","","","","","","","","","","",""
"pit-comprehension","103","965984","0.0-2.0-20.0-0.0","battery-v0.2","","""event"",""trial"",""time""
""blur"",""1"",""5834""
""focus"",""1"",""12193""
""fullscreenenter"",""1"",""12314""
""blur"",""97"",""872849""
""focus"",""98"",""872858""
""fullscreenexit"",""98"",""872866""
""blur"",""102"",""891383""
""focus"",""102"",""894150""
","""event"",""trial"",""time""
""blur"",""1"",""5834""
""blur"",""97"",""872849""
""blur"",""102"",""891383""
","""event"",""trial"",""time""
""focus"",""1"",""12193""
""focus"",""98"",""872858""
""focus"",""102"",""894150""
","""event"",""trial"",""time""
""fullscreenenter"",""1"",""12314""
","""event"",""trial"",""time""
""fullscreenexit"",""98"",""872866""
","","","6367.4000000059605","[""SPACE""]","0","15","5875","3329","","","","","","","","","","","","","","","","","","",""
"pit-instructions","104","974129","0.0-2.0-20.0-1.0","battery-v0.2","","""event"",""trial"",""time""
""blur"",""1"",""5834""
""focus"",""1"",""12193""
""fullscreenenter"",""1"",""12314""
""blur"",""97"",""872849""
""focus"",""98"",""872858""
""fullscreenexit"",""98"",""872866""
""blur"",""102"",""891383""
""focus"",""102"",""894150""
","""event"",""trial"",""time""
""blur"",""1"",""5834""
""blur"",""97"",""872849""
""blur"",""102"",""891383""
","""event"",""trial"",""time""
""focus"",""1"",""12193""
""focus"",""98"",""872858""
""focus"",""102"",""894150""
","""event"",""trial"",""time""
""fullscreenenter"",""1"",""12314""
","""event"",""trial"",""time""
""fullscreenexit"",""98"",""872866""
","","[{""page_index"":0,""viewing_time"":8104.200000017881}]","8104.9000000059605","","","","","","","","","","","","","","","","","","","","","","","",""
"pit-comprehension","105","984691","0.0-2.0-21.0-0.0","battery-v0.2","","""event"",""trial"",""time""
""blur"",""1"",""5834""
""focus"",""1"",""12193""
""fullscreenenter"",""1"",""12314""
""blur"",""97"",""872849""
""focus"",""98"",""872858""
""fullscreenexit"",""98"",""872866""
""blur"",""102"",""891383""
""focus"",""102"",""894150""
","""event"",""trial"",""time""
""blur"",""1"",""5834""
""blur"",""97"",""872849""
""blur"",""102"",""891383""
","""event"",""trial"",""time""
""focus"",""1"",""12193""
""focus"",""98"",""872858""
""focus"",""102"",""894150""
","""event"",""trial"",""time""
""fullscreenenter"",""1"",""12314""
","""event"",""trial"",""time""
""fullscreenexit"",""98"",""872866""
","","","10559.5","[""10""]","0","15","5875","3329","","","","","","","","","","","","","","","","","","",""
"pit-instructions","106","989105","0.0-2.0-21.0-1.0","battery-v0.2","","""event"",""trial"",""time""
""blur"",""1"",""5834""
""focus"",""1"",""12193""
""fullscreenenter"",""1"",""12314""
""blur"",""97"",""872849""
""focus"",""98"",""872858""
""fullscreenexit"",""98"",""872866""
""blur"",""102"",""891383""
""focus"",""102"",""894150""
","""event"",""trial"",""time""
""blur"",""1"",""5834""
""blur"",""97"",""872849""
""blur"",""102"",""891383""
","""event"",""trial"",""time""
""focus"",""1"",""12193""
""focus"",""98"",""872858""
""focus"",""102"",""894150""
","""event"",""trial"",""time""
""fullscreenenter"",""1"",""12314""
","""event"",""trial"",""time""
""fullscreenexit"",""98"",""872866""
","","[{""page_index"":0,""viewing_time"":4372.800000011921}]","4373.100000023842","","","","","","","","","","","","","","","","","","","","","","","",""
"pit-comprehension","107","1002471","0.0-2.0-22.0-0.0","battery-v0.2","","""event"",""trial"",""time""
""blur"",""1"",""5834""
""focus"",""1"",""12193""
""fullscreenenter"",""1"",""12314""
""blur"",""97"",""872849""
""focus"",""98"",""872858""
""fullscreenexit"",""98"",""872866""
""blur"",""102"",""891383""
""focus"",""102"",""894150""
","""event"",""trial"",""time""
""blur"",""1"",""5834""
""blur"",""97"",""872849""
""blur"",""102"",""891383""
","""event"",""trial"",""time""
""focus"",""1"",""12193""
""focus"",""98"",""872858""
""focus"",""102"",""894150""
","""event"",""trial"",""time""
""fullscreenenter"",""1"",""12314""
","""event"",""trial"",""time""
""fullscreenexit"",""98"",""872866""
","","","13363.699999988079","[""10""]","1","15","5875","3329","","","","","","","","","","","","","","","","","","",""
"pit-instructions","108","1007433","0.0-2.0-22.0-1.0","battery-v0.2","","""event"",""trial"",""time""
""blur"",""1"",""5834""
""focus"",""1"",""12193""
""fullscreenenter"",""1"",""12314""
""blur"",""97"",""872849""
""focus"",""98"",""872858""
""fullscreenexit"",""98"",""872866""
""blur"",""102"",""891383""
""focus"",""102"",""894150""
","""event"",""trial"",""time""
""blur"",""1"",""5834""
""blur"",""97"",""872849""
""blur"",""102"",""891383""
","""event"",""trial"",""time""
""focus"",""1"",""12193""
""focus"",""98"",""872858""
""focus"",""102"",""894150""
","""event"",""trial"",""time""
""fullscreenenter"",""1"",""12314""
","""event"",""trial"",""time""
""fullscreenexit"",""98"",""872866""
","","[{""page_index"":0,""viewing_time"":4920.5999999940395}]","4920.899999976158","","","","","","","","","","","","","","","","","","","","","","","",""
"pit-instructions","109","1013135","0.0-2.0-22.0-2.0-0.0","battery-v0.2","","""event"",""trial"",""time""
""blur"",""1"",""5834""
""focus"",""1"",""12193""
""fullscreenenter"",""1"",""12314""
""blur"",""97"",""872849""
""focus"",""98"",""872858""
""fullscreenexit"",""98"",""872866""
""blur"",""102"",""891383""
""focus"",""102"",""894150""
","""event"",""trial"",""time""
""blur"",""1"",""5834""
""blur"",""97"",""872849""
""blur"",""102"",""891383""
","""event"",""trial"",""time""
""focus"",""1"",""12193""
""focus"",""98"",""872858""
""focus"",""102"",""894150""
","""event"",""trial"",""time""
""fullscreenenter"",""1"",""12314""
","""event"",""trial"",""time""
""fullscreenexit"",""98"",""872866""
","","[{""page_index"":0,""viewing_time"":5699.700000017881}]","5699.9000000059605","","","","","","","","","","","","","","","","","","","","","","","",""
"pit-comprehension","110","1019935","0.0-2.0-22.1-0.1","battery-v0.2","","""event"",""trial"",""time""
""blur"",""1"",""5834""
""focus"",""1"",""12193""
""fullscreenenter"",""1"",""12314""
""blur"",""97"",""872849""
""focus"",""98"",""872858""
""fullscreenexit"",""98"",""872866""
""blur"",""102"",""891383""
""focus"",""102"",""894150""
","""event"",""trial"",""time""
""blur"",""1"",""5834""
""blur"",""97"",""872849""
""blur"",""102"",""891383""
","""event"",""trial"",""time""
""focus"",""1"",""12193""
""focus"",""98"",""872858""
""focus"",""102"",""894150""
","""event"",""trial"",""time""
""fullscreenenter"",""1"",""12314""
","""event"",""trial"",""time""
""fullscreenexit"",""98"",""872866""
","","","6798.300000011921","[""0""]","0","15","5875","3329","","","","","","","","","","","","","","","","","","",""
"pit-instructions","111","1026053","0.0-2.0-22.1-1.1","battery-v0.2","","""event"",""trial"",""time""
""blur"",""1"",""5834""
""focus"",""1"",""12193""
""fullscreenenter"",""1"",""12314""
""blur"",""97"",""872849""
""focus"",""98"",""872858""
""fullscreenexit"",""98"",""872866""
""blur"",""102"",""891383""
""focus"",""102"",""894150""
","""event"",""trial"",""time""
""blur"",""1"",""5834""
""blur"",""97"",""872849""
""blur"",""102"",""891383""
","""event"",""trial"",""time""
""focus"",""1"",""12193""
""focus"",""98"",""872858""
""focus"",""102"",""894150""
","""event"",""trial"",""time""
""fullscreenenter"",""1"",""12314""
","""event"",""trial"",""time""
""fullscreenexit"",""98"",""872866""
","","[{""page_index"":0,""viewing_time"":6080.9000000059605}]","6081.199999988079","","","","","","","","","","","","","","","","","","","","","","","",""
"pit-comprehension","112","1042268","0.0-2.0-23.0-0.0","battery-v0.2","","""event"",""trial"",""time""
""blur"",""1"",""5834""
""focus"",""1"",""12193""
""fullscreenenter"",""1"",""12314""
""blur"",""97"",""872849""
""focus"",""98"",""872858""
""fullscreenexit"",""98"",""872866""
""blur"",""102"",""891383""
""focus"",""102"",""894150""
","""event"",""trial"",""time""
""blur"",""1"",""5834""
""blur"",""97"",""872849""
""blur"",""102"",""891383""
","""event"",""trial"",""time""
""focus"",""1"",""12193""
""focus"",""98"",""872858""
""focus"",""102"",""894150""
","""event"",""trial"",""time""
""fullscreenenter"",""1"",""12314""
","""event"",""trial"",""time""
""fullscreenexit"",""98"",""872866""
","","","16212.5","[""True""]","0","15","5875","3329","","","","","","","","","","","","","","","","","","",""
"pit-instructions","113","1048211","0.0-2.0-23.0-1.0","battery-v0.2","","""event"",""trial"",""time""
""blur"",""1"",""5834""
""focus"",""1"",""12193""
""fullscreenenter"",""1"",""12314""
""blur"",""97"",""872849""
""focus"",""98"",""872858""
""fullscreenexit"",""98"",""872866""
""blur"",""102"",""891383""
""focus"",""102"",""894150""
","""event"",""trial"",""time""
""blur"",""1"",""5834""
""blur"",""97"",""872849""
""blur"",""102"",""891383""
","""event"",""trial"",""time""
""focus"",""1"",""12193""
""focus"",""98"",""872858""
""focus"",""102"",""894150""
","""event"",""trial"",""time""
""fullscreenenter"",""1"",""12314""
","""event"",""trial"",""time""
""fullscreenexit"",""98"",""872866""
","","[{""page_index"":0,""viewing_time"":5902.800000011921}]","5903.199999988079","","","","","","","","","","","","","","","","","","","","","","","",""
"pit-comprehension","114","1056988","0.0-2.0-24.0-0.0","battery-v0.2","","""event"",""trial"",""time""
""blur"",""1"",""5834""
""focus"",""1"",""12193""
""fullscreenenter"",""1"",""12314""
""blur"",""97"",""872849""
""focus"",""98"",""872858""
""fullscreenexit"",""98"",""872866""
""blur"",""102"",""891383""
""focus"",""102"",""894150""
","""event"",""trial"",""time""
""blur"",""1"",""5834""
""blur"",""97"",""872849""
""blur"",""102"",""891383""
","""event"",""trial"",""time""
""focus"",""1"",""12193""
""focus"",""98"",""872858""
""focus"",""102"",""894150""
","""event"",""trial"",""time""
""fullscreenenter"",""1"",""12314""
","""event"",""trial"",""time""
""fullscreenexit"",""98"",""872866""
","","","8774.300000011921","[""True""]","0","15","5875","3329","","","","","","","","","","","","","","","","","","",""
"pit-instructions","115","1065906","0.0-2.0-24.0-1.0","battery-v0.2","","""event"",""trial"",""time""
""blur"",""1"",""5834""
""focus"",""1"",""12193""
""fullscreenenter"",""1"",""12314""
""blur"",""97"",""872849""
""focus"",""98"",""872858""
""fullscreenexit"",""98"",""872866""
""blur"",""102"",""891383""
""focus"",""102"",""894150""
","""event"",""trial"",""time""
""blur"",""1"",""5834""
""blur"",""97"",""872849""
""blur"",""102"",""891383""
","""event"",""trial"",""time""
""focus"",""1"",""12193""
""focus"",""98"",""872858""
""focus"",""102"",""894150""
","""event"",""trial"",""time""
""fullscreenenter"",""1"",""12314""
","""event"",""trial"",""time""
""fullscreenexit"",""98"",""872866""
","","[{""page_index"":0,""viewing_time"":8878.40000000596}]","8878.700000017881","","","","","","","","","","","","","","","","","","","","","","","",""
"pit-comprehension","116","1073815","0.0-2.0-25.0-0.0","battery-v0.2","","""event"",""trial"",""time""
""blur"",""1"",""5834""
""focus"",""1"",""12193""
""fullscreenenter"",""1"",""12314""
""blur"",""97"",""872849""
""focus"",""98"",""872858""
""fullscreenexit"",""98"",""872866""
""blur"",""102"",""891383""
""focus"",""102"",""894150""
","""event"",""trial"",""time""
""blur"",""1"",""5834""
""blur"",""97"",""872849""
""blur"",""102"",""891383""
","""event"",""trial"",""time""
""focus"",""1"",""12193""
""focus"",""98"",""872858""
""focus"",""102"",""894150""
","""event"",""trial"",""time""
""fullscreenenter"",""1"",""12314""
","""event"",""trial"",""time""
""fullscreenexit"",""98"",""872866""
","","","7905.4000000059605","[""True""]","0","15","5875","3329","","","","","","","","","","","","","","","","","","",""
"pit-instructions","117","1078715","0.0-2.0-25.0-1.0","battery-v0.2","","""event"",""trial"",""time""
""blur"",""1"",""5834""
""focus"",""1"",""12193""
""fullscreenenter"",""1"",""12314""
""blur"",""97"",""872849""
""focus"",""98"",""872858""
""fullscreenexit"",""98"",""872866""
""blur"",""102"",""891383""
""focus"",""102"",""894150""
","""event"",""trial"",""time""
""blur"",""1"",""5834""
""blur"",""97"",""872849""
""blur"",""102"",""891383""
","""event"",""trial"",""time""
""focus"",""1"",""12193""
""focus"",""98"",""872858""
""focus"",""102"",""894150""
","""event"",""trial"",""time""
""fullscreenenter"",""1"",""12314""
","""event"",""trial"",""time""
""fullscreenexit"",""98"",""872866""
","","[{""page_index"":0,""viewing_time"":4843.800000011921}]","4844","","","","","","","","","","","","","","","","","","","","","","","",""
"pit-comprehension","118","1085722","0.0-2.0-26.0-0.0","battery-v0.2","","""event"",""trial"",""time""
""blur"",""1"",""5834""
""focus"",""1"",""12193""
""fullscreenenter"",""1"",""12314""
""blur"",""97"",""872849""
""focus"",""98"",""872858""
""fullscreenexit"",""98"",""872866""
""blur"",""102"",""891383""
""focus"",""102"",""894150""
","""event"",""trial"",""time""
""blur"",""1"",""5834""
""blur"",""97"",""872849""
""blur"",""102"",""891383""
","""event"",""trial"",""time""
""focus"",""1"",""12193""
""focus"",""98"",""872858""
""focus"",""102"",""894150""
","""event"",""trial"",""time""
""fullscreenenter"",""1"",""12314""
","""event"",""trial"",""time""
""fullscreenexit"",""98"",""872866""
","","","7003.5","[""False""]","0","15","5875","3329","","","","","","","","","","","","","","","","","","",""
"pit-instructions","119","1091078","0.0-2.0-26.0-1.0","battery-v0.2","","""event"",""trial"",""time""
""blur"",""1"",""5834""
""focus"",""1"",""12193""
""fullscreenenter"",""1"",""12314""
""blur"",""97"",""872849""
""focus"",""98"",""872858""
""fullscreenexit"",""98"",""872866""
""blur"",""102"",""891383""
""focus"",""102"",""894150""
","""event"",""trial"",""time""
""blur"",""1"",""5834""
""blur"",""97"",""872849""
""blur"",""102"",""891383""
","""event"",""trial"",""time""
""focus"",""1"",""12193""
""focus"",""98"",""872858""
""focus"",""102"",""894150""
","""event"",""trial"",""time""
""fullscreenenter"",""1"",""12314""
","""event"",""trial"",""time""
""fullscreenexit"",""98"",""872866""
","","[{""page_index"":0,""viewing_time"":5311.199999988079}]","5311.5","","","","","","","","","","","","","","","","","","","","","","","",""
"pit-instructions","120","1111931","0.0-3.0","battery-v0.2","","""event"",""trial"",""time""
""blur"",""1"",""5834""
""focus"",""1"",""12193""
""fullscreenenter"",""1"",""12314""
""blur"",""97"",""872849""
""focus"",""98"",""872858""
""fullscreenexit"",""98"",""872866""
""blur"",""102"",""891383""
""focus"",""102"",""894150""
","""event"",""trial"",""time""
""blur"",""1"",""5834""
""blur"",""97"",""872849""
""blur"",""102"",""891383""
","""event"",""trial"",""time""
""focus"",""1"",""12193""
""focus"",""98"",""872858""
""focus"",""102"",""894150""
","""event"",""trial"",""time""
""fullscreenenter"",""1"",""12314""
","""event"",""trial"",""time""
""fullscreenexit"",""98"",""872866""
","","[{""page_index"":0,""viewing_time"":6894.0999999940395},{""page_index"":1,""viewing_time"":7517.299999982119},{""page_index"":2,""viewing_time"":6439.800000011921}]","20851.59999999404","","","","","","","","","","","","","","","","","","","","","","","",""
"pit-trial","121","1115567","0.0-4.0","battery-v0.2","","""event"",""trial"",""time""
""blur"",""1"",""5834""
""focus"",""1"",""12193""
""fullscreenenter"",""1"",""12314""
""blur"",""97"",""872849""
""focus"",""98"",""872858""
""fullscreenexit"",""98"",""872866""
""blur"",""102"",""891383""
""focus"",""102"",""894150""
","""event"",""trial"",""time""
""blur"",""1"",""5834""
""blur"",""97"",""872849""
""blur"",""102"",""891383""
","""event"",""trial"",""time""
""focus"",""1"",""12193""
""focus"",""98"",""872858""
""focus"",""102"",""894150""
","""event"",""trial"",""time""
""fullscreenenter"",""1"",""12314""
","""event"",""trial"",""time""
""fullscreenexit"",""98"",""872866""
","","","773","","","15","5875","3329","&#9733;","elianto","#3366ff99","-1"," ","0","0","[1623.2999999821186]","1","1","","","5875","1","2","2","win","no-go","0"
"pit-trial","122","1119155","0.0-5.0","battery-v0.2","","""event"",""trial"",""time""
""blur"",""1"",""5834""
""focus"",""1"",""12193""
""fullscreenenter"",""1"",""12314""
""blur"",""97"",""872849""
""focus"",""98"",""872858""
""fullscreenexit"",""98"",""872866""
""blur"",""102"",""891383""
""focus"",""102"",""894150""
","""event"",""trial"",""time""
""blur"",""1"",""5834""
""blur"",""97"",""872849""
""blur"",""102"",""891383""
","""event"",""trial"",""time""
""focus"",""1"",""12193""
""focus"",""98"",""872858""
""focus"",""102"",""894150""
","""event"",""trial"",""time""
""fullscreenenter"",""1"",""12314""
","""event"",""trial"",""time""
""fullscreenexit"",""98"",""872866""
","","","719.2000000178814","","","15","5875","3329","&#9730;","elianto","#3366ff99"," "," ","1","+10","[1578.5]","1","1","","","5875","2","1","1","win","go","0"
"pit-trial","123","1124030","0.0-6.0","battery-v0.2","","""event"",""trial"",""time""
""blur"",""1"",""5834""
""focus"",""1"",""12193""
""fullscreenenter"",""1"",""12314""
""blur"",""97"",""872849""
""focus"",""98"",""872858""
""fullscreenexit"",""98"",""872866""
""blur"",""102"",""891383""
""focus"",""102"",""894150""
","""event"",""trial"",""time""
""blur"",""1"",""5834""
""blur"",""97"",""872849""
""blur"",""102"",""891383""
","""event"",""trial"",""time""
""focus"",""1"",""12193""
""focus"",""98"",""872858""
""focus"",""102"",""894150""
","""event"",""trial"",""time""
""fullscreenenter"",""1"",""12314""
","""event"",""trial"",""time""
""fullscreenexit"",""98"",""872866""
","","","-1","","","15","5875","3329","&#9752;","elianto","#f73b6a7A"," ","-1","0","-10","[]","0","1","","","5875","3","3","3","lose","go","0"
"pit-trial","124","1128722","0.0-7.0","battery-v0.2","","""event"",""trial"",""time""
""blur"",""1"",""5834""
""focus"",""1"",""12193""
""fullscreenenter"",""1"",""12314""
""blur"",""97"",""872849""
""focus"",""98"",""872858""
""fullscreenexit"",""98"",""872866""
""blur"",""102"",""891383""
""focus"",""102"",""894150""
","""event"",""trial"",""time""
""blur"",""1"",""5834""
""blur"",""97"",""872849""
""blur"",""102"",""891383""
","""event"",""trial"",""time""
""focus"",""1"",""12193""
""focus"",""98"",""872858""
""focus"",""102"",""894150""
","""event"",""trial"",""time""
""fullscreenenter"",""1"",""12314""
","""event"",""trial"",""time""
""fullscreenexit"",""98"",""872866""
","","","1822.2000000178814","","","15","5875","3329","&#9728;","elianto","#f73b6a7A","-1"," ","0","-10","[2675.899999976158]","1","1","","","5875","4","0","4","lose","no-go","0"
"pit-trial","125","1133601","0.0-8.0","battery-v0.2","","""event"",""trial"",""time""
""blur"",""1"",""5834""
""focus"",""1"",""12193""
""fullscreenenter"",""1"",""12314""
""blur"",""97"",""872849""
""focus"",""98"",""872858""
""fullscreenexit"",""98"",""872866""
""blur"",""102"",""891383""
""focus"",""102"",""894150""
","""event"",""trial"",""time""
""blur"",""1"",""5834""
""blur"",""97"",""872849""
""blur"",""102"",""891383""
","""event"",""trial"",""time""
""focus"",""1"",""12193""
""focus"",""98"",""872858""
""focus"",""102"",""894150""
","""event"",""trial"",""time""
""fullscreenenter"",""1"",""12314""
","""event"",""trial"",""time""
""fullscreenexit"",""98"",""872866""
","","","-1","","","15","5875","3329","&#9752;","elianto","#f73b6a7A"," ","-1","0","-10","[]","0","1","","","5875","5","3","3","lose","go","0"
"pit-trial","126","1137172","0.0-9.0","battery-v0.2","","""event"",""trial"",""time""
""blur"",""1"",""5834""
""focus"",""1"",""12193""
""fullscreenenter"",""1"",""12314""
""blur"",""97"",""872849""
""focus"",""98"",""872858""
""fullscreenexit"",""98"",""872866""
""blur"",""102"",""891383""
""focus"",""102"",""894150""
","""event"",""trial"",""time""
""blur"",""1"",""5834""
""blur"",""97"",""872849""
""blur"",""102"",""891383""
","""event"",""trial"",""time""
""focus"",""1"",""12193""
""focus"",""98"",""872858""
""focus"",""102"",""894150""
","""event"",""trial"",""time""
""fullscreenenter"",""1"",""12314""
","""event"",""trial"",""time""
""fullscreenexit"",""98"",""872866""
","","","705.4000000059605","","","15","5875","3329","&#9733;","elianto","#3366ff99","-1"," ","0","+10","[1562.4000000059605]","1","1","","","5875","6","2","2","win","no-go","1"
"pit-trial","127","1140824","0.0-10.0","battery-v0.2","","""event"",""trial"",""time""
""blur"",""1"",""5834""
""focus"",""1"",""12193""
""fullscreenenter"",""1"",""12314""
""blur"",""97"",""872849""
""focus"",""98"",""872858""
""fullscreenexit"",""98"",""872866""
""blur"",""102"",""891383""
""focus"",""102"",""894150""
","""event"",""trial"",""time""
""blur"",""1"",""5834""
""blur"",""97"",""872849""
""blur"",""102"",""891383""
","""event"",""trial"",""time""
""focus"",""1"",""12193""
""focus"",""98"",""872858""
""focus"",""102"",""894150""
","""event"",""trial"",""time""
""fullscreenenter"",""1"",""12314""
","""event"",""trial"",""time""
""fullscreenexit"",""98"",""872866""
","","","784.2000000178814","","","15","5875","3329","&#9730;","elianto","#3366ff99"," "," ","1","+10","[1634.5]","1","1","","","5875","7","1","1","win","go","0"
"pit-trial","128","1145698","0.0-11.0","battery-v0.2","","""event"",""trial"",""time""
""blur"",""1"",""5834""
""focus"",""1"",""12193""
""fullscreenenter"",""1"",""12314""
""blur"",""97"",""872849""
""focus"",""98"",""872858""
""fullscreenexit"",""98"",""872866""
""blur"",""102"",""891383""
""focus"",""102"",""894150""
","""event"",""trial"",""time""
""blur"",""1"",""5834""
""blur"",""97"",""872849""
""blur"",""102"",""891383""
","""event"",""trial"",""time""
""focus"",""1"",""12193""
""focus"",""98"",""872858""
""focus"",""102"",""894150""
","""event"",""trial"",""time""
""fullscreenenter"",""1"",""12314""
","""event"",""trial"",""time""
""fullscreenexit"",""98"",""872866""
","","","-1","","","15","5875","3329","&#9728;","elianto","#f73b6a7A","-1","-1","1","0","[]","0","1","","","5875","8","0","4","lose","no-go","0"
"pit-trial","129","1149209","0.0-12.0","battery-v0.2","","""event"",""trial"",""time""
""blur"",""1"",""5834""
""focus"",""1"",""12193""
""fullscreenenter"",""1"",""12314""
""blur"",""97"",""872849""
""focus"",""98"",""872858""
""fullscreenexit"",""98"",""872866""
""blur"",""102"",""891383""
""focus"",""102"",""894150""
","""event"",""trial"",""time""
""blur"",""1"",""5834""
""blur"",""97"",""872849""
""blur"",""102"",""891383""
","""event"",""trial"",""time""
""focus"",""1"",""12193""
""focus"",""98"",""872858""
""focus"",""102"",""894150""
","""event"",""trial"",""time""
""fullscreenenter"",""1"",""12314""
","""event"",""trial"",""time""
""fullscreenexit"",""98"",""872866""
","","","653.1000000238419","","","15","5875","3329","&#9733;","elianto","#3366ff99","-1"," ","0","0","[1503.7999999821186]","1","1","","","5875","9","2","2","win","no-go","0"
"pit-trial","130","1152920","0.0-13.0","battery-v0.2","","""event"",""trial"",""time""
""blur"",""1"",""5834""
""focus"",""1"",""12193""
""fullscreenenter"",""1"",""12314""
""blur"",""97"",""872849""
""focus"",""98"",""872858""
""fullscreenexit"",""98"",""872866""
""blur"",""102"",""891383""
""focus"",""102"",""894150""
","""event"",""trial"",""time""
""blur"",""1"",""5834""
""blur"",""97"",""872849""
""blur"",""102"",""891383""
","""event"",""trial"",""time""
""focus"",""1"",""12193""
""focus"",""98"",""872858""
""focus"",""102"",""894150""
","""event"",""trial"",""time""
""fullscreenenter"",""1"",""12314""
","""event"",""trial"",""time""
""fullscreenexit"",""98"",""872866""
","","","858.1999999880791","","","15","5875","3329","&#9730;","elianto","#3366ff99"," "," ","1","+10","[1709.199999988079]","1","1","","","5875","10","1","1","win","go","0"
"pit-trial","131","1157783","0.0-14.0","battery-v0.2","","""event"",""trial"",""time""
""blur"",""1"",""5834""
""focus"",""1"",""12193""
""fullscreenenter"",""1"",""12314""
""blur"",""97"",""872849""
""focus"",""98"",""872858""
""fullscreenexit"",""98"",""872866""
""blur"",""102"",""891383""
""focus"",""102"",""894150""
","""event"",""trial"",""time""
""blur"",""1"",""5834""
""blur"",""97"",""872849""
""blur"",""102"",""891383""
","""event"",""trial"",""time""
""focus"",""1"",""12193""
""focus"",""98"",""872858""
""focus"",""102"",""894150""
","""event"",""trial"",""time""
""fullscreenenter"",""1"",""12314""
","""event"",""trial"",""time""
""fullscreenexit"",""98"",""872866""
","","","-1","","","15","5875","3329","&#9752;","elianto","#f73b6a7A"," ","-1","0","-10","[]","0","1","","","5875","11","3","3","lose","go","0"
"pit-trial","132","1162648","0.0-15.0","battery-v0.2","","""event"",""trial"",""time""
""blur"",""1"",""5834""
""focus"",""1"",""12193""
""fullscreenenter"",""1"",""12314""
""blur"",""97"",""872849""
""focus"",""98"",""872858""
""fullscreenexit"",""98"",""872866""
""blur"",""102"",""891383""
""focus"",""102"",""894150""
","""event"",""trial"",""time""
""blur"",""1"",""5834""
""blur"",""97"",""872849""
""blur"",""102"",""891383""
","""event"",""trial"",""time""
""focus"",""1"",""12193""
""focus"",""98"",""872858""
""focus"",""102"",""894150""
","""event"",""trial"",""time""
""fullscreenenter"",""1"",""12314""
","""event"",""trial"",""time""
""fullscreenexit"",""98"",""872866""
","","","-1","","","15","5875","3329","&#9728;","elianto","#f73b6a7A","-1","-1","1","0","[]","0","1","","","5875","12","0","4","lose","no-go","0"
"pit-trial","133","1166248","0.0-16.0","battery-v0.2","","""event"",""trial"",""time""
""blur"",""1"",""5834""
""focus"",""1"",""12193""
""fullscreenenter"",""1"",""12314""
""blur"",""97"",""872849""
""focus"",""98"",""872858""
""fullscreenexit"",""98"",""872866""
""blur"",""102"",""891383""
""focus"",""102"",""894150""
","""event"",""trial"",""time""
""blur"",""1"",""5834""
""blur"",""97"",""872849""
""blur"",""102"",""891383""
","""event"",""trial"",""time""
""focus"",""1"",""12193""
""focus"",""98"",""872858""
""focus"",""102"",""894150""
","""event"",""trial"",""time""
""fullscreenenter"",""1"",""12314""
","""event"",""trial"",""time""
""fullscreenexit"",""98"",""872866""
","","","745.5","","","15","5875","3329","&#9733;","elianto","#3366ff99","-1"," ","0","0","[1596]","1","1","","","5875","13","2","2","win","no-go","0"
"pit-trial","134","1171112","0.0-17.0","battery-v0.2","","""event"",""trial"",""time""
""blur"",""1"",""5834""
""focus"",""1"",""12193""
""fullscreenenter"",""1"",""12314""
""blur"",""97"",""872849""
""focus"",""98"",""872858""
""fullscreenexit"",""98"",""872866""
""blur"",""102"",""891383""
""focus"",""102"",""894150""
","""event"",""trial"",""time""
""blur"",""1"",""5834""
""blur"",""97"",""872849""
""blur"",""102"",""891383""
","""event"",""trial"",""time""
""focus"",""1"",""12193""
""focus"",""98"",""872858""
""focus"",""102"",""894150""
","""event"",""trial"",""time""
""fullscreenenter"",""1"",""12314""
","""event"",""trial"",""time""
""fullscreenexit"",""98"",""872866""
","","","-1","","","15","5875","3329","&#9728;","elianto","#f73b6a7A","-1","-1","1","0","[]","0","1","","","5875","14","0","4","lose","no-go","0"
"pit-trial","135","1174688","0.0-18.0","battery-v0.2","","""event"",""trial"",""time""
""blur"",""1"",""5834""
""focus"",""1"",""12193""
""fullscreenenter"",""1"",""12314""
""blur"",""97"",""872849""
""focus"",""98"",""872858""
""fullscreenexit"",""98"",""872866""
""blur"",""102"",""891383""
""focus"",""102"",""894150""
","""event"",""trial"",""time""
""blur"",""1"",""5834""
""blur"",""97"",""872849""
""blur"",""102"",""891383""
","""event"",""trial"",""time""
""focus"",""1"",""12193""
""focus"",""98"",""872858""
""focus"",""102"",""894150""
","""event"",""trial"",""time""
""fullscreenenter"",""1"",""12314""
","""event"",""trial"",""time""
""fullscreenexit"",""98"",""872866""
","","","715.3000000119209","","","15","5875","3329","&#9730;","elianto","#3366ff99"," "," ","1","+10","[212.89999997615814,1569.5]","2","1","","","5875","15","1","1","win","go","0"
"pit-trial","136","1179552","0.0-19.0","battery-v0.2","","""event"",""trial"",""time""
""blur"",""1"",""5834""
""focus"",""1"",""12193""
""fullscreenenter"",""1"",""12314""
""blur"",""97"",""872849""
""focus"",""98"",""872858""
""fullscreenexit"",""98"",""872866""
""blur"",""102"",""891383""
""focus"",""102"",""894150""
","""event"",""trial"",""time""
""blur"",""1"",""5834""
""blur"",""97"",""872849""
""blur"",""102"",""891383""
","""event"",""trial"",""time""
""focus"",""1"",""12193""
""focus"",""98"",""872858""
""focus"",""102"",""894150""
","""event"",""trial"",""time""
""fullscreenenter"",""1"",""12314""
","""event"",""trial"",""time""
""fullscreenexit"",""98"",""872866""
","","","-1","","","15","5875","3329","&#9752;","elianto","#f73b6a7A"," ","-1","0","-10","[]","0","1","","","5875","16","3","3","lose","go","0"
"pit-trial","137","1183216","0.0-20.0","battery-v0.2","","""event"",""trial"",""time""
""blur"",""1"",""5834""
""focus"",""1"",""12193""
""fullscreenenter"",""1"",""12314""
""blur"",""97"",""872849""
""focus"",""98"",""872858""
""fullscreenexit"",""98"",""872866""
""blur"",""102"",""891383""
""focus"",""102"",""894150""
","""event"",""trial"",""time""
""blur"",""1"",""5834""
""blur"",""97"",""872849""
""blur"",""102"",""891383""
","""event"",""trial"",""time""
""focus"",""1"",""12193""
""focus"",""98"",""872858""
""focus"",""102"",""894150""
","""event"",""trial"",""time""
""fullscreenenter"",""1"",""12314""
","""event"",""trial"",""time""
""fullscreenexit"",""98"",""872866""
","","","800.3000000119209","","","15","5875","3329","&#9730;","elianto","#3366ff99"," "," ","1","+10","[1654.5]","1","1","","","5875","17","1","1","win","go","0"
"pit-trial","138","1188080","0.0-21.0","battery-v0.2","","""event"",""trial"",""time""
""blur"",""1"",""5834""
""focus"",""1"",""12193""
""fullscreenenter"",""1"",""12314""
""blur"",""97"",""872849""
""focus"",""98"",""872858""
""fullscreenexit"",""98"",""872866""
""blur"",""102"",""891383""
""focus"",""102"",""894150""
","""event"",""trial"",""time""
""blur"",""1"",""5834""
""blur"",""97"",""872849""
""blur"",""102"",""891383""
","""event"",""trial"",""time""
""focus"",""1"",""12193""
""focus"",""98"",""872858""
""focus"",""102"",""894150""
","""event"",""trial"",""time""
""fullscreenenter"",""1"",""12314""
","""event"",""trial"",""time""
""fullscreenexit"",""98"",""872866""
","","","-1","","","15","5875","3329","&#9752;","elianto","#f73b6a7A"," ","-1","0","-10","[]","0","1","","","5875","18","3","3","lose","go","0"
"pit-trial","139","1191600","0.0-22.0","battery-v0.2","","""event"",""trial"",""time""
""blur"",""1"",""5834""
""focus"",""1"",""12193""
""fullscreenenter"",""1"",""12314""
""blur"",""97"",""872849""
""focus"",""98"",""872858""
""fullscreenexit"",""98"",""872866""
""blur"",""102"",""891383""
""focus"",""102"",""894150""
","""event"",""trial"",""time""
""blur"",""1"",""5834""
""blur"",""97"",""872849""
""blur"",""102"",""891383""
","""event"",""trial"",""time""
""focus"",""1"",""12193""
""focus"",""98"",""872858""
""focus"",""102"",""894150""
","""event"",""trial"",""time""
""fullscreenenter"",""1"",""12314""
","""event"",""trial"",""time""
""fullscreenexit"",""98"",""872866""
","","","658","","","15","5875","3329","&#9733;","elianto","#3366ff99","-1"," ","0","0","[1512.199999988079,2548.0999999940395,2927.199999988079]","3","1","","","5875","19","2","2","win","no-go","0"
"pit-trial","140","1196464","0.0-23.0","battery-v0.2","","""event"",""trial"",""time""
""blur"",""1"",""5834""
""focus"",""1"",""12193""
""fullscreenenter"",""1"",""12314""
""blur"",""97"",""872849""
""focus"",""98"",""872858""
""fullscreenexit"",""98"",""872866""
""blur"",""102"",""891383""
""focus"",""102"",""894150""
","""event"",""trial"",""time""
""blur"",""1"",""5834""
""blur"",""97"",""872849""
""blur"",""102"",""891383""
","""event"",""trial"",""time""
""focus"",""1"",""12193""
""focus"",""98"",""872858""
""focus"",""102"",""894150""
","""event"",""trial"",""time""
""fullscreenenter"",""1"",""12314""
","""event"",""trial"",""time""
""fullscreenexit"",""98"",""872866""
","","","-1","","","15","5875","3329","&#9728;","elianto","#f73b6a7A","-1","-1","1","-10","[]","0","1","","","5875","20","0","4","lose","no-go","1"
"pit-instructions","141","1210475","0.0-24.0","battery-v0.2","","""event"",""trial"",""time""
""blur"",""1"",""5834""
""focus"",""1"",""12193""
""fullscreenenter"",""1"",""12314""
""blur"",""97"",""872849""
""focus"",""98"",""872858""
""fullscreenexit"",""98"",""872866""
""blur"",""102"",""891383""
""focus"",""102"",""894150""
","""event"",""trial"",""time""
""blur"",""1"",""5834""
""blur"",""97"",""872849""
""blur"",""102"",""891383""
","""event"",""trial"",""time""
""focus"",""1"",""12193""
""focus"",""98"",""872858""
""focus"",""102"",""894150""
","""event"",""trial"",""time""
""fullscreenenter"",""1"",""12314""
","""event"",""trial"",""time""
""fullscreenexit"",""98"",""872866""
","","[{""page_index"":0,""viewing_time"":7040.9000000059605},{""page_index"":1,""viewing_time"":6967.5}]","14009","","","","","","","","","","","","","","","","","","","","","","","",""
"pit-trial","142","1214288","0.0-25.0","battery-v0.2","","""event"",""trial"",""time""
""blur"",""1"",""5834""
""focus"",""1"",""12193""
""fullscreenenter"",""1"",""12314""
""blur"",""97"",""872849""
""focus"",""98"",""872858""
""fullscreenexit"",""98"",""872866""
""blur"",""102"",""891383""
""focus"",""102"",""894150""
","""event"",""trial"",""time""
""blur"",""1"",""5834""
""blur"",""97"",""872849""
""blur"",""102"",""891383""
","""event"",""trial"",""time""
""focus"",""1"",""12193""
""focus"",""98"",""872858""
""focus"",""102"",""894150""
","""event"",""trial"",""time""
""fullscreenenter"",""1"",""12314""
","""event"",""trial"",""time""
""fullscreenexit"",""98"",""872866""
","","","943.3000000119209","","","15","5875","3329","d","elianto","#3366ff99","-1"," ","0","0","[1799.5999999940395]","1","2","","","5875","21","1","2","win","no-go","0"
"pit-trial","143","1219166","0.0-26.0","battery-v0.2","","""event"",""trial"",""time""
""blur"",""1"",""5834""
""focus"",""1"",""12193""
""fullscreenenter"",""1"",""12314""
""blur"",""97"",""872849""
""focus"",""98"",""872858""
""fullscreenexit"",""98"",""872866""
""blur"",""102"",""891383""
""focus"",""102"",""894150""
","""event"",""trial"",""time""
""blur"",""1"",""5834""
""blur"",""97"",""872849""
""blur"",""102"",""891383""
","""event"",""trial"",""time""
""focus"",""1"",""12193""
""focus"",""98"",""872858""
""focus"",""102"",""894150""
","""event"",""trial"",""time""
""fullscreenenter"",""1"",""12314""
","""event"",""trial"",""time""
""fullscreenexit"",""98"",""872866""
","","","-1","","","15","5875","3329","e","elianto","#f73b6a7A"," ","-1","0","-10","[]","0","2","","","5875","22","2","3","lose","go","0"
"pit-trial","144","1224043","0.0-27.0","battery-v0.2","","""event"",""trial"",""time""
""blur"",""1"",""5834""
""focus"",""1"",""12193""
""fullscreenenter"",""1"",""12314""
""blur"",""97"",""872849""
""focus"",""98"",""872858""
""fullscreenexit"",""98"",""872866""
""blur"",""102"",""891383""
""focus"",""102"",""894150""
","""event"",""trial"",""time""
""blur"",""1"",""5834""
""blur"",""97"",""872849""
""blur"",""102"",""891383""
","""event"",""trial"",""time""
""focus"",""1"",""12193""
""focus"",""98"",""872858""
""focus"",""102"",""894150""
","""event"",""trial"",""time""
""fullscreenenter"",""1"",""12314""
","""event"",""trial"",""time""
""fullscreenexit"",""98"",""872866""
","","","-1","","","15","5875","3329","w","elianto","#f73b6a7A","-1","-1","1","0","[]","0","2","","","5875","23","3","4","lose","no-go","0"
"pit-trial","145","1228915","0.0-28.0","battery-v0.2","","""event"",""trial"",""time""
""blur"",""1"",""5834""
""focus"",""1"",""12193""
""fullscreenenter"",""1"",""12314""
""blur"",""97"",""872849""
""focus"",""98"",""872858""
""fullscreenexit"",""98"",""872866""
""blur"",""102"",""891383""
""focus"",""102"",""894150""
","""event"",""trial"",""time""
""blur"",""1"",""5834""
""blur"",""97"",""872849""
""blur"",""102"",""891383""
","""event"",""trial"",""time""
""focus"",""1"",""12193""
""focus"",""98"",""872858""
""focus"",""102"",""894150""
","""event"",""trial"",""time""
""fullscreenenter"",""1"",""12314""
","""event"",""trial"",""time""
""fullscreenexit"",""98"",""872866""
","","","-1","","","15","5875","3329","j","elianto","#f73b6a7A"," ","-1","0","-10","[]","0","2","","","5875","24","0","3","lose","go","0"
"pit-trial","146","1233799","0.0-29.0","battery-v0.2","","""event"",""trial"",""time""
""blur"",""1"",""5834""
""focus"",""1"",""12193""
""fullscreenenter"",""1"",""12314""
""blur"",""97"",""872849""
""focus"",""98"",""872858""
""fullscreenexit"",""98"",""872866""
""blur"",""102"",""891383""
""focus"",""102"",""894150""
","""event"",""trial"",""time""
""blur"",""1"",""5834""
""blur"",""97"",""872849""
""blur"",""102"",""891383""
","""event"",""trial"",""time""
""focus"",""1"",""12193""
""focus"",""98"",""872858""
""focus"",""102"",""894150""
","""event"",""trial"",""time""
""fullscreenenter"",""1"",""12314""
","""event"",""trial"",""time""
""fullscreenexit"",""98"",""872866""
","","","-1","","","15","5875","3329","w","elianto","#f73b6a7A","-1","-1","1","0","[]","0","2","","","5875","25","3","4","lose","no-go","0"
"pit-trial","147","1238693","0.0-30.0","battery-v0.2","","""event"",""trial"",""time""
""blur"",""1"",""5834""
""focus"",""1"",""12193""
""fullscreenenter"",""1"",""12314""
""blur"",""97"",""872849""
""focus"",""98"",""872858""
""fullscreenexit"",""98"",""872866""
""blur"",""102"",""891383""
""focus"",""102"",""894150""
","""event"",""trial"",""time""
""blur"",""1"",""5834""
""blur"",""97"",""872849""
""blur"",""102"",""891383""
","""event"",""trial"",""time""
""focus"",""1"",""12193""
""focus"",""98"",""872858""
""focus"",""102"",""894150""
","""event"",""trial"",""time""
""fullscreenenter"",""1"",""12314""
","""event"",""trial"",""time""
""fullscreenexit"",""98"",""872866""
","","","-1","","","15","5875","3329","j","elianto","#f73b6a7A"," ","-1","0","0","[]","0","2","","","5875","26","0","3","lose","go","1"
"pit-trial","148","1243560","0.0-31.0","battery-v0.2","","""event"",""trial"",""time""
""blur"",""1"",""5834""
""focus"",""1"",""12193""
""fullscreenenter"",""1"",""12314""
""blur"",""97"",""872849""
""focus"",""98"",""872858""
""fullscreenexit"",""98"",""872866""
""blur"",""102"",""891383""
""focus"",""102"",""894150""
","""event"",""trial"",""time""
""blur"",""1"",""5834""
""blur"",""97"",""872849""
""blur"",""102"",""891383""
","""event"",""trial"",""time""
""focus"",""1"",""12193""
""focus"",""98"",""872858""
""focus"",""102"",""894150""
","""event"",""trial"",""time""
""fullscreenenter"",""1"",""12314""
","""event"",""trial"",""time""
""fullscreenexit"",""98"",""872866""
","","","-1","","","15","5875","3329","e","elianto","#f73b6a7A"," ","-1","0","-10","[]","0","2","","","5875","27","2","3","lose","go","0"
"pit-trial","149","1247441","0.0-32.0","battery-v0.2","","""event"",""trial"",""time""
""blur"",""1"",""5834""
""focus"",""1"",""12193""
""fullscreenenter"",""1"",""12314""
""blur"",""97"",""872849""
""focus"",""98"",""872858""
""fullscreenexit"",""98"",""872866""
""blur"",""102"",""891383""
""focus"",""102"",""894150""
","""event"",""trial"",""time""
""blur"",""1"",""5834""
""blur"",""97"",""872849""
""blur"",""102"",""891383""
","""event"",""trial"",""time""
""focus"",""1"",""12193""
""focus"",""98"",""872858""
""focus"",""102"",""894150""
","""event"",""trial"",""time""
""fullscreenenter"",""1"",""12314""
","""event"",""trial"",""time""
""fullscreenexit"",""98"",""872866""
","","","1021","","","15","5875","3329","d","elianto","#3366ff99","-1"," ","0","0","[1875.7999999821186]","1","2","","","5875","28","1","2","win","no-go","0"
"pit-trial","150","1252305","0.0-33.0","battery-v0.2","","""event"",""trial"",""time""
""blur"",""1"",""5834""
""focus"",""1"",""12193""
""fullscreenenter"",""1"",""12314""
""blur"",""97"",""872849""
""focus"",""98"",""872858""
""fullscreenexit"",""98"",""872866""
""blur"",""102"",""891383""
""focus"",""102"",""894150""
","""event"",""trial"",""time""
""blur"",""1"",""5834""
""blur"",""97"",""872849""
""blur"",""102"",""891383""
","""event"",""trial"",""time""
""focus"",""1"",""12193""
""focus"",""98"",""872858""
