"trial_type","trial_index","time_elapsed","internal_node_id","task_version","subject_id","interactions","blur_events","focus_events","fullscreenenter_events","fullscreenexit_events","success","view_history","rt","responses","num_errors","age","subject","participantId","rune","rune_set","hex","correct","choice","accuracy","outcome","keys","total_keys","block","practice","value","sub","trial","stimulus","robot","valence","action","sham"
"pavlovia","0","9","0.0-0.0","battery-v0.2","","""event"",""trial"",""time""
""fullscreenenter"",""1"",""1848""
","
","
","""event"",""trial"",""time""
""fullscreenenter"",""1"",""1848""
","
","","","","","","","","","","","","","","","","","","","","","","","","","","",""
"fullscreen","1","2848","0.0-1.0","battery-v0.2","","""event"",""trial"",""time""
""fullscreenenter"",""1"",""1848""
","
","
","""event"",""trial"",""time""
""fullscreenenter"",""1"",""1848""
","
","true","","","","","","","","","","","","","","","","","","","","","","","","","",""
"pit-instructions","2","6972","0.0-2.0-0.0","battery-v0.2","","""event"",""trial"",""time""
""fullscreenenter"",""1"",""1848""
","
","
","""event"",""trial"",""time""
""fullscreenenter"",""1"",""1848""
","
","","[{""page_index"":0,""viewing_time"":4116.29999999702}]","4117.0999999940395","","","","","","","","","","","","","","","","","","","","","","","",""
"pit-comprehension","3","9756","0.0-2.0-1.0-0.0","battery-v0.2","","""event"",""trial"",""time""
""fullscreenenter"",""1"",""1848""
","
","
","""event"",""trial"",""time""
""fullscreenenter"",""1"",""1848""
","
","","","2777.3999999910593","[""shark""]","0","20","7687","3983","","","","","","","","","","","","","","","","","","",""
"pit-instructions","4","11772","0.0-2.0-1.0-1.0","battery-v0.2","","""event"",""trial"",""time""
""fullscreenenter"",""1"",""1848""
","
","
","""event"",""trial"",""time""
""fullscreenenter"",""1"",""1848""
","
","","[{""page_index"":0,""viewing_time"":2008.7000000029802}]","2009.6000000089407","","","","","","","","","","","","","","","","","","","","","","","",""
"pit-comprehension","5","14139","0.0-2.0-2.0-0.0","battery-v0.2","","""event"",""trial"",""time""
""fullscreenenter"",""1"",""1848""
","
","
","""event"",""trial"",""time""
""fullscreenenter"",""1"",""1848""
","
","","","2360.9000000059605","[""tiger""]","0","20","7687","3983","","","","","","","","","","","","","","","","","","",""
"pit-instructions","6","17955","0.0-2.0-2.0-1.0","battery-v0.2","","""event"",""trial"",""time""
""fullscreenenter"",""1"",""1848""
","
","
","""event"",""trial"",""time""
""fullscreenenter"",""1"",""1848""
","
","","[{""page_index"":0,""viewing_time"":3810.7000000029802}]","3811.2999999970198","","","","","","","","","","","","","","","","","","","","","","","",""
"pit-instructions","7","120556","0.0-2.0-3.0","battery-v0.2","","""event"",""trial"",""time""
""fullscreenenter"",""1"",""1848""
","
","
","""event"",""trial"",""time""
""fullscreenenter"",""1"",""1848""
","
","","[{""page_index"":0,""viewing_time"":10694.40000000596},{""page_index"":1,""viewing_time"":6500.9000000059605},{""page_index"":2,""viewing_time"":6733.5999999940395},{""page_index"":3,""viewing_time"":5283.29999999702},{""page_index"":4,""viewing_time"":5950.100000008941},{""page_index"":5,""viewing_time"":7400.199999988079},{""page_index"":6,""viewing_time"":6900.5},{""page_index"":7,""viewing_time"":6699.9000000059605},{""page_index"":8,""viewing_time"":7083.29999999702},{""page_index"":9,""viewing_time"":8800.90000000596},{""page_index"":10,""viewing_time"":9166.39999999106},{""page_index"":11,""viewing_time"":7934.100000008941},{""page_index"":12,""viewing_time"":7216.20000000298},{""page_index"":13,""viewing_time"":6233.899999991059}]","102598.40000000596","","","","","","","","","","","","","","","","","","","","","","","",""
"pit-trial","8","124200","0.0-2.0-4.0-0.0","battery-v0.2","","""event"",""trial"",""time""
""fullscreenenter"",""1"",""1848""
","
","
","""event"",""trial"",""time""
""fullscreenenter"",""1"",""1848""
","
","","","787","","","20","7687","3983","&#9784;","elianto","#FFFFF080"," "," ","1","&#10004","[1637.3999999910593]","1","0","0","","","","","","","",""
"pit-trial","9","127932","0.0-2.0-4.1-0.1","battery-v0.2","","""event"",""trial"",""time""
""fullscreenenter"",""1"",""1848""
","
","
","""event"",""trial"",""time""
""fullscreenenter"",""1"",""1848""
","
","","","865.5","","","20","7687","3983","&#9784;","elianto","#FFFFF080"," "," ","1","&#10004","[1718.8999999910593]","1","0","0","","","","","","","",""
"pit-trial","10","131682","0.0-2.0-4.2-0.2","battery-v0.2","","""event"",""trial"",""time""
""fullscreenenter"",""1"",""1848""
","
","
","""event"",""trial"",""time""
""fullscreenenter"",""1"",""1848""
","
","","","884.2999999970198","","","20","7687","3983","&#9784;","elianto","#FFFFF080"," "," ","1","&#10004","[1742.5]","1","0","0","","","","","","","",""
"pit-trial","11","135396","0.0-2.0-4.3-0.3","battery-v0.2","","""event"",""trial"",""time""
""fullscreenenter"",""1"",""1848""
","
","
","""event"",""trial"",""time""
""fullscreenenter"",""1"",""1848""
","
","","","844.3999999910593","","","20","7687","3983","&#9784;","elianto","#FFFFF080"," "," ","1","&#10004","[1698.6000000089407]","1","0","0","","","","","","","",""
"pit-trial","12","139163","0.0-2.0-4.4-0.4","battery-v0.2","","""event"",""trial"",""time""
""fullscreenenter"",""1"",""1848""
","
","
","""event"",""trial"",""time""
""fullscreenenter"",""1"",""1848""
","
","","","900","","","20","7687","3983","&#9784;","elianto","#FFFFF080"," "," ","1","&#10004","[1756.5999999940395]","1","0","0","","","","","","","",""
"pit-instructions","13","161156","0.0-2.0-5.0","battery-v0.2","","""event"",""trial"",""time""
""fullscreenenter"",""1"",""1848""
","
","
","""event"",""trial"",""time""
""fullscreenenter"",""1"",""1848""
","
","","[{""page_index"":0,""viewing_time"":5637.29999999702},{""page_index"":1,""viewing_time"":6050.399999991059},{""page_index"":2,""viewing_time"":5166.800000011921},{""page_index"":3,""viewing_time"":5133.5999999940395}]","21988.89999999106","","","","","","","","","","","","","","","","","","","","","","","",""
"pit-trial","14","166029","0.0-2.0-6.0-0.0","battery-v0.2","","""event"",""trial"",""time""
""fullscreenenter"",""1"",""1848""
","
","
","""event"",""trial"",""time""
""fullscreenenter"",""1"",""1848""
","
","","","-1","","","20","7687","3983","&#9854;","elianto","#FFFFF080","-1","-1","1","&#10004","[]","0","0","1","","","","","","","",""
"pit-trial","15","170897","0.0-2.0-6.1-0.1","battery-v0.2","","""event"",""trial"",""time""
""fullscreenenter"",""1"",""1848""
","
","
","""event"",""trial"",""time""
""fullscreenenter"",""1"",""1848""
","
","","","-1","","","20","7687","3983","&#9854;","elianto","#FFFFF080","-1","-1","1","&#10004","[]","0","0","1","","","","","","","",""
"pit-trial","16","175763","0.0-2.0-6.2-0.2","battery-v0.2","","""event"",""trial"",""time""
""fullscreenenter"",""1"",""1848""
","
","
","""event"",""trial"",""time""
""fullscreenenter"",""1"",""1848""
","
","","","-1","","","20","7687","3983","&#9854;","elianto","#FFFFF080","-1","-1","1","&#10004","[]","0","0","1","","","","","","","",""
"pit-trial","17","180636","0.0-2.0-6.3-0.3","battery-v0.2","","""event"",""trial"",""time""
""fullscreenenter"",""1"",""1848""
","
","
","""event"",""trial"",""time""
""fullscreenenter"",""1"",""1848""
","
","","","-1","","","20","7687","3983","&#9854;","elianto","#FFFFF080","-1","-1","1","&#10004","[]","0","0","1","","","","","","","",""
"pit-trial","18","185505","0.0-2.0-6.4-0.4","battery-v0.2","","""event"",""trial"",""time""
""fullscreenenter"",""1"",""1848""
","
","
","""event"",""trial"",""time""
""fullscreenenter"",""1"",""1848""
","
","","","-1","","","20","7687","3983","&#9854;","elianto","#FFFFF080","-1","-1","1","&#10004","[]","0","0","1","","","","","","","",""
"pit-instructions","19","299973","0.0-2.0-7.0","battery-v0.2","","""event"",""trial"",""time""
""fullscreenenter"",""1"",""1848""
","
","
","""event"",""trial"",""time""
""fullscreenenter"",""1"",""1848""
","
","","[{""page_index"":0,""viewing_time"":6277.70000000298},{""page_index"":1,""viewing_time"":7351.9000000059605},{""page_index"":2,""viewing_time"":6149.5},{""page_index"":3,""viewing_time"":6317.29999999702},{""page_index"":4,""viewing_time"":5783.5},{""page_index"":5,""viewing_time"":5333.79999999702},{""page_index"":6,""viewing_time"":4383.5},{""page_index"":7,""viewing_time"":7799.4000000059605},{""page_index"":8,""viewing_time"":6567.5},{""page_index"":9,""viewing_time"":6066.79999999702},{""page_index"":10,""viewing_time"":6283.5},{""page_index"":11,""viewing_time"":4366.5999999940395},{""page_index"":12,""viewing_time"":6833.70000000298},{""page_index"":13,""viewing_time"":7016.79999999702},{""page_index"":14,""viewing_time"":7733.9000000059605},{""page_index"":15,""viewing_time"":6416.5999999940395},{""page_index"":16,""viewing_time"":6533.70000000298},{""page_index"":17,""viewing_time"":7250}]","114466.40000000596","","","","","","","","","","","","","","","","","","","","","","","",""
"pit-trial","20","303402","0.0-2.0-8.0-0.0","battery-v0.2","","""event"",""trial"",""time""
""fullscreenenter"",""1"",""1848""
","
","
","""event"",""trial"",""time""
""fullscreenenter"",""1"",""1848""
","
","","","558.9000000059605","","","20","7687","3983","&#9776;","elianto","#3366ff99"," "," ","1","+10","[1414]","1","0","1","","","","","","","",""
"pit-trial","21","306750","0.0-2.0-8.0-1.0","battery-v0.2","","""event"",""trial"",""time""
""fullscreenenter"",""1"",""1848""
","
","
","""event"",""trial"",""time""
""fullscreenenter"",""1"",""1848""
","
","","","489.20000000298023","","","20","7687","3983","&#9776;","elianto","#3366ff99"," "," ","1","+10","[1341.4000000059605]","1","0","1","","","","","","","",""
"pit-trial","22","310218","0.0-2.0-8.0-2.0","battery-v0.2","","""event"",""trial"",""time""
""fullscreenenter"",""1"",""1848""
","
","
","""event"",""trial"",""time""
""fullscreenenter"",""1"",""1848""
","
","","","603.7999999970198","","","20","7687","3983","&#9776;","elianto","#3366ff99"," "," ","1","+10","[1455.2999999970198]","1","0","1","","","","","","","",""
"pit-trial","23","313746","0.0-2.0-8.0-3.0","battery-v0.2","","""event"",""trial"",""time""
""fullscreenenter"",""1"",""1848""
","
","
","""event"",""trial"",""time""
""fullscreenenter"",""1"",""1848""
","
","","","657","","","20","7687","3983","&#9776;","elianto","#3366ff99"," "," ","1","0","[1512]","1","0","1","","","","","","","",""
"pit-trial","24","317106","0.0-2.0-8.0-4.0","battery-v0.2","","""event"",""trial"",""time""
""fullscreenenter"",""1"",""1848""
","
","
","""event"",""trial"",""time""
""fullscreenenter"",""1"",""1848""
","
","","","489.40000000596046","","","20","7687","3983","&#9776;","elianto","#3366ff99"," "," ","1","+10","[1348.3999999910593]","1","0","1","","","","","","","",""
"pit-trial","25","320538","0.0-2.0-8.1-0.1","battery-v0.2","","""event"",""trial"",""time""
""fullscreenenter"",""1"",""1848""
","
","
","""event"",""trial"",""time""
""fullscreenenter"",""1"",""1848""
","
","","","563.7000000029802","","","20","7687","3983","&#9776;","elianto","#3366ff99"," "," ","1","+10","[1418.7999999970198]","1","0","1","","","","","","","",""
"pit-trial","26","324013","0.0-2.0-8.1-1.1","battery-v0.2","","""event"",""trial"",""time""
""fullscreenenter"",""1"",""1848""
","
","
","""event"",""trial"",""time""
""fullscreenenter"",""1"",""1848""
","
","","","608.5","","","20","7687","3983","&#9776;","elianto","#3366ff99"," "," ","1","+10","[1466.7999999970198]","1","0","1","","","","","","","",""
"pit-trial","27","327501","0.0-2.0-8.1-2.1","battery-v0.2","","""event"",""trial"",""time""
""fullscreenenter"",""1"",""1848""
","
","
","""event"",""trial"",""time""
""fullscreenenter"",""1"",""1848""
","
","","","625.0999999940395","","","20","7687","3983","&#9776;","elianto","#3366ff99"," "," ","1","+10","[1480.3999999910593]","1","0","1","","","","","","","",""
"pit-trial","28","330921","0.0-2.0-8.1-3.1","battery-v0.2","","""event"",""trial"",""time""
""fullscreenenter"",""1"",""1848""
","
","
","""event"",""trial"",""time""
""fullscreenenter"",""1"",""1848""
","
","","","556.5","","","20","7687","3983","&#9776;","elianto","#3366ff99"," "," ","1","0","[1409.5]","1","0","1","","","","","","","",""
"pit-trial","29","334345","0.0-2.0-8.1-4.1","battery-v0.2","","""event"",""trial"",""time""
""fullscreenenter"",""1"",""1848""
","
","
","""event"",""trial"",""time""
""fullscreenenter"",""1"",""1848""
","
","","","556.7000000029802","","","20","7687","3983","&#9776;","elianto","#3366ff99"," "," ","1","+10","[1406.7000000029802]","1","0","1","","","","","","","",""
"pit-trial","30","337662","0.0-2.0-8.2-0.2","battery-v0.2","","""event"",""trial"",""time""
""fullscreenenter"",""1"",""1848""
","
","
","""event"",""trial"",""time""
""fullscreenenter"",""1"",""1848""
","
","","","451","","","20","7687","3983","&#9776;","elianto","#3366ff99"," "," ","1","+10","[1310]","1","0","1","","","","","","","",""
"pit-trial","31","340985","0.0-2.0-8.2-1.2","battery-v0.2","","""event"",""trial"",""time""
""fullscreenenter"",""1"",""1848""
","
","
","""event"",""trial"",""time""
""fullscreenenter"",""1"",""1848""
","
","","","456.70000000298023","","","20","7687","3983","&#9776;","elianto","#3366ff99"," "," ","1","+10","[1311.7999999970198]","1","0","1","","","","","","","",""
"pit-trial","32","344345","0.0-2.0-8.2-2.2","battery-v0.2","","""event"",""trial"",""time""
""fullscreenenter"",""1"",""1848""
","
","
","""event"",""trial"",""time""
""fullscreenenter"",""1"",""1848""
","
","","","486.80000001192093","","","20","7687","3983","&#9776;","elianto","#3366ff99"," "," ","1","+10","[1347]","1","0","1","","","","","","","",""
"pit-trial","33","347774","0.0-2.0-8.2-3.2","battery-v0.2","","""event"",""trial"",""time""
""fullscreenenter"",""1"",""1848""
","
","
","""event"",""trial"",""time""
""fullscreenenter"",""1"",""1848""
","
","","","566.6000000089407","","","20","7687","3983","&#9776;","elianto","#3366ff99"," "," ","1","0","[1418.699999988079]","1","0","1","","","","","","","",""
"pit-trial","34","351118","0.0-2.0-8.2-4.2","battery-v0.2","","""event"",""trial"",""time""
""fullscreenenter"",""1"",""1848""
","
","
","""event"",""trial"",""time""
""fullscreenenter"",""1"",""1848""
","
","","","481.1000000089407","","","20","7687","3983","&#9776;","elianto","#3366ff99"," "," ","1","+10","[1331.5999999940395]","1","0","1","","","","","","","",""
"call-function","35","351122","0.0-2.0-9.0","battery-v0.2","","""event"",""trial"",""time""
""fullscreenenter"",""1"",""1848""
","
","
","""event"",""trial"",""time""
""fullscreenenter"",""1"",""1848""
","
","","","","","","","","","","","","","","","","","","","","","","","","","","",""
"pit-instructions","36","392991","0.0-2.0-10.0","battery-v0.2","","""event"",""trial"",""time""
""fullscreenenter"",""1"",""1848""
","
","
","""event"",""trial"",""time""
""fullscreenenter"",""1"",""1848""
","
","","[{""page_index"":0,""viewing_time"":6449.899999991059},{""page_index"":1,""viewing_time"":7500.5},{""page_index"":2,""viewing_time"":10133.70000000298},{""page_index"":3,""viewing_time"":10167.09999999404},{""page_index"":4,""viewing_time"":7617.100000008941}]","41869.09999999404","","","","","","","","","","","","","","","","","","","","","","","",""
"pit-trial","37","396344","0.0-2.0-11.0-0.0","battery-v0.2","","""event"",""trial"",""time""
""fullscreenenter"",""1"",""1848""
","
","
","""event"",""trial"",""time""
""fullscreenenter"",""1"",""1848""
","
","","","490.3999999910593","","","20","7687","3983","&#9761;","elianto","#3366ff99","-1"," ","0","0","[1341.4000000059605]","1","0","2","","","","","","","",""
"pit-trial","38","399696","0.0-2.0-11.0-1.0","battery-v0.2","","""event"",""trial"",""time""
""fullscreenenter"",""1"",""1848""
","
","
","""event"",""trial"",""time""
""fullscreenenter"",""1"",""1848""
","
","","","486.5","","","20","7687","3983","&#9761;","elianto","#3366ff99","-1"," ","0","0","[1338.5999999940395]","1","0","2","","","","","","","",""
"pit-trial","39","404568","0.0-2.0-11.0-2.0","battery-v0.2","","""event"",""trial"",""time""
""fullscreenenter"",""1"",""1848""
","
","
","""event"",""trial"",""time""
""fullscreenenter"",""1"",""1848""
","
","","","-1","","","20","7687","3983","&#9761;","elianto","#3366ff99","-1","-1","1","+10","[]","0","0","2","","","","","","","",""
"pit-trial","40","409436","0.0-2.0-11.0-3.0","battery-v0.2","","""event"",""trial"",""time""
""fullscreenenter"",""1"",""1848""
","
","
","""event"",""trial"",""time""
""fullscreenenter"",""1"",""1848""
","
","","","-1","","","20","7687","3983","&#9761;","elianto","#3366ff99","-1","-1","1","0","[]","0","0","2","","","","","","","",""
"pit-trial","41","414304","0.0-2.0-11.0-4.0","battery-v0.2","","""event"",""trial"",""time""
""fullscreenenter"",""1"",""1848""
","
","
","""event"",""trial"",""time""
""fullscreenenter"",""1"",""1848""
","
","","","-1","","","20","7687","3983","&#9761;","elianto","#3366ff99","-1","-1","1","+10","[]","0","0","2","","","","","","","",""
"pit-trial","42","419175","0.0-2.0-11.1-0.1","battery-v0.2","","""event"",""trial"",""time""
""fullscreenenter"",""1"",""1848""
","
","
","""event"",""trial"",""time""
""fullscreenenter"",""1"",""1848""
","
","","","-1","","","20","7687","3983","&#9761;","elianto","#3366ff99","-1","-1","1","+10","[]","0","0","2","","","","","","","",""
"pit-trial","43","424047","0.0-2.0-11.1-1.1","battery-v0.2","","""event"",""trial"",""time""
""fullscreenenter"",""1"",""1848""
","
","
","""event"",""trial"",""time""
""fullscreenenter"",""1"",""1848""
","
","","","-1","","","20","7687","3983","&#9761;","elianto","#3366ff99","-1","-1","1","+10","[]","0","0","2","","","","","","","",""
"pit-trial","44","428916","0.0-2.0-11.1-2.1","battery-v0.2","","""event"",""trial"",""time""
""fullscreenenter"",""1"",""1848""
","
","
","""event"",""trial"",""time""
""fullscreenenter"",""1"",""1848""
","
","","","-1","","","20","7687","3983","&#9761;","elianto","#3366ff99","-1","-1","1","+10","[]","0","0","2","","","","","","","",""
"pit-trial","45","433780","0.0-2.0-11.1-3.1","battery-v0.2","","""event"",""trial"",""time""
""fullscreenenter"",""1"",""1848""
","
","
","""event"",""trial"",""time""
""fullscreenenter"",""1"",""1848""
","
","","","-1","","","20","7687","3983","&#9761;","elianto","#3366ff99","-1","-1","1","0","[]","0","0","2","","","","","","","",""
"pit-trial","46","438644","0.0-2.0-11.1-4.1","battery-v0.2","","""event"",""trial"",""time""
""fullscreenenter"",""1"",""1848""
","
","
","""event"",""trial"",""time""
""fullscreenenter"",""1"",""1848""
","
","","","-1","","","20","7687","3983","&#9761;","elianto","#3366ff99","-1","-1","1","+10","[]","0","0","2","","","","","","","",""
"pit-trial","47","443519","0.0-2.0-11.2-0.2","battery-v0.2","","""event"",""trial"",""time""
""fullscreenenter"",""1"",""1848""
","
","
","""event"",""trial"",""time""
""fullscreenenter"",""1"",""1848""
","
","","","-1","","","20","7687","3983","&#9761;","elianto","#3366ff99","-1","-1","1","+10","[]","0","0","2","","","","","","","",""
"pit-trial","48","448388","0.0-2.0-11.2-1.2","battery-v0.2","","""event"",""trial"",""time""
""fullscreenenter"",""1"",""1848""
","
","
","""event"",""trial"",""time""
""fullscreenenter"",""1"",""1848""
","
","","","-1","","","20","7687","3983","&#9761;","elianto","#3366ff99","-1","-1","1","+10","[]","0","0","2","","","","","","","",""
"pit-trial","49","453251","0.0-2.0-11.2-2.2","battery-v0.2","","""event"",""trial"",""time""
""fullscreenenter"",""1"",""1848""
","
","
","""event"",""trial"",""time""
""fullscreenenter"",""1"",""1848""
","
","","","-1","","","20","7687","3983","&#9761;","elianto","#3366ff99","-1","-1","1","+10","[]","0","0","2","","","","","","","",""
"pit-trial","50","458116","0.0-2.0-11.2-3.2","battery-v0.2","","""event"",""trial"",""time""
""fullscreenenter"",""1"",""1848""
","
","
","""event"",""trial"",""time""
""fullscreenenter"",""1"",""1848""
","
","","","-1","","","20","7687","3983","&#9761;","elianto","#3366ff99","-1","-1","1","0","[]","0","0","2","","","","","","","",""
"pit-trial","51","462980","0.0-2.0-11.2-4.2","battery-v0.2","","""event"",""trial"",""time""
""fullscreenenter"",""1"",""1848""
","
","
","""event"",""trial"",""time""
""fullscreenenter"",""1"",""1848""
","
","","","-1","","","20","7687","3983","&#9761;","elianto","#3366ff99","-1","-1","1","+10","[]","0","0","2","","","","","","","",""
"pit-trial","52","467854","0.0-2.0-11.3-0.3","battery-v0.2","","""event"",""trial"",""time""
""fullscreenenter"",""1"",""1848""
","
","
","""event"",""trial"",""time""
""fullscreenenter"",""1"",""1848""
","
","","","-1","","","20","7687","3983","&#9761;","elianto","#3366ff99","-1","-1","1","+10","[]","0","0","2","","","","","","","",""
"pit-trial","53","472723","0.0-2.0-11.3-1.3","battery-v0.2","","""event"",""trial"",""time""
""fullscreenenter"",""1"",""1848""
","
","
","""event"",""trial"",""time""
""fullscreenenter"",""1"",""1848""
","
","","","-1","","","20","7687","3983","&#9761;","elianto","#3366ff99","-1","-1","1","+10","[]","0","0","2","","","","","","","",""
"pit-trial","54","477587","0.0-2.0-11.3-2.3","battery-v0.2","","""event"",""trial"",""time""
""fullscreenenter"",""1"",""1848""
","
","
","""event"",""trial"",""time""
""fullscreenenter"",""1"",""1848""
","
","","","-1","","","20","7687","3983","&#9761;","elianto","#3366ff99","-1","-1","1","+10","[]","0","0","2","","","","","","","",""
"pit-trial","55","482451","0.0-2.0-11.3-3.3","battery-v0.2","","""event"",""trial"",""time""
""fullscreenenter"",""1"",""1848""
","
","
","""event"",""trial"",""time""
""fullscreenenter"",""1"",""1848""
","
","","","-1","","","20","7687","3983","&#9761;","elianto","#3366ff99","-1","-1","1","0","[]","0","0","2","","","","","","","",""
"pit-trial","56","487315","0.0-2.0-11.3-4.3","battery-v0.2","","""event"",""trial"",""time""
""fullscreenenter"",""1"",""1848""
","
","
","""event"",""trial"",""time""
""fullscreenenter"",""1"",""1848""
","
","","","-1","","","20","7687","3983","&#9761;","elianto","#3366ff99","-1","-1","1","+10","[]","0","0","2","","","","","","","",""
"call-function","57","487318","0.0-2.0-12.0","battery-v0.2","","""event"",""trial"",""time""
""fullscreenenter"",""1"",""1848""
","
","
","""event"",""trial"",""time""
""fullscreenenter"",""1"",""1848""
","
","","","","","","","","","","","","","","","","","","","","","","","","","","",""
"pit-instructions","58","523742","0.0-2.0-13.0","battery-v0.2","","""event"",""trial"",""time""
""fullscreenenter"",""1"",""1848""
","
","
","""event"",""trial"",""time""
""fullscreenenter"",""1"",""1848""
","
","","[{""page_index"":0,""viewing_time"":7405.20000000298},{""page_index"":1,""viewing_time"":9633.79999999702},{""page_index"":2,""viewing_time"":3516.5},{""page_index"":3,""viewing_time"":10983.70000000298},{""page_index"":4,""viewing_time"":4883.399999991059}]","36423.29999999702","","","","","","","","","","","","","","","","","","","","","","","",""
"pit-trial","59","526893","0.0-2.0-14.0-0.0","battery-v0.2","","""event"",""trial"",""time""
""fullscreenenter"",""1"",""1848""
","
","
","""event"",""trial"",""time""
""fullscreenenter"",""1"",""1848""
","
","","","284.19999998807907","","","20","7687","3983","&#9826;","elianto","#f73b6a7A","-1"," ","0","-10","[1134.8999999910593]","1","0","3","","","","","","","",""
"pit-trial","60","530053","0.0-2.0-14.0-1.0","battery-v0.2","","""event"",""trial"",""time""
""fullscreenenter"",""1"",""1848""
","
","
","""event"",""trial"",""time""
""fullscreenenter"",""1"",""1848""
","
","","","295.20000000298023","","","20","7687","3983","&#9826;","elianto","#f73b6a7A","-1"," ","0","-10","[1146.9000000059605]","1","0","3","","","","","","","",""
"pit-trial","61","534925","0.0-2.0-14.0-2.0","battery-v0.2","","""event"",""trial"",""time""
""fullscreenenter"",""1"",""1848""
","
","
","""event"",""trial"",""time""
""fullscreenenter"",""1"",""1848""
","
","","","-1","","","20","7687","3983","&#9826;","elianto","#f73b6a7A","-1","-1","1","0","[]","0","0","3","","","","","","","",""
"pit-trial","62","539797","0.0-2.0-14.0-3.0","battery-v0.2","","""event"",""trial"",""time""
""fullscreenenter"",""1"",""1848""
","
","
","""event"",""trial"",""time""
""fullscreenenter"",""1"",""1848""
","
","","","-1","","","20","7687","3983","&#9826;","elianto","#f73b6a7A","-1","-1","1","-10","[]","0","0","3","","","","","","","",""
"pit-trial","63","544666","0.0-2.0-14.0-4.0","battery-v0.2","","""event"",""trial"",""time""
""fullscreenenter"",""1"",""1848""
","
","
","""event"",""trial"",""time""
""fullscreenenter"",""1"",""1848""
","
","","","-1","","","20","7687","3983","&#9826;","elianto","#f73b6a7A","-1","-1","1","0","[]","0","0","3","","","","","","","",""
"pit-trial","64","549540","0.0-2.0-14.1-0.1","battery-v0.2","","""event"",""trial"",""time""
""fullscreenenter"",""1"",""1848""
","
","
","""event"",""trial"",""time""
""fullscreenenter"",""1"",""1848""
","
","","","-1","","","20","7687","3983","&#9826;","elianto","#f73b6a7A","-1","-1","1","0","[]","0","0","3","","","","","","","",""
"pit-trial","65","554411","0.0-2.0-14.1-1.1","battery-v0.2","","""event"",""trial"",""time""
""fullscreenenter"",""1"",""1848""
","
","
","""event"",""trial"",""time""
""fullscreenenter"",""1"",""1848""
","
","","","-1","","","20","7687","3983","&#9826;","elianto","#f73b6a7A","-1","-1","1","0","[]","0","0","3","","","","","","","",""
"pit-trial","66","559280","0.0-2.0-14.1-2.1","battery-v0.2","","""event"",""trial"",""time""
""fullscreenenter"",""1"",""1848""
","
","
","""event"",""trial"",""time""
""fullscreenenter"",""1"",""1848""
","
","","","-1","","","20","7687","3983","&#9826;","elianto","#f73b6a7A","-1","-1","1","0","[]","0","0","3","","","","","","","",""
"pit-trial","67","564144","0.0-2.0-14.1-3.1","battery-v0.2","","""event"",""trial"",""time""
""fullscreenenter"",""1"",""1848""
","
","
","""event"",""trial"",""time""
""fullscreenenter"",""1"",""1848""
","
","","","-1","","","20","7687","3983","&#9826;","elianto","#f73b6a7A","-1","-1","1","-10","[]","0","0","3","","","","","","","",""
"pit-trial","68","569008","0.0-2.0-14.1-4.1","battery-v0.2","","""event"",""trial"",""time""
""fullscreenenter"",""1"",""1848""
","
","
","""event"",""trial"",""time""
""fullscreenenter"",""1"",""1848""
","
","","","-1","","","20","7687","3983","&#9826;","elianto","#f73b6a7A","-1","-1","1","0","[]","0","0","3","","","","","","","",""
"pit-trial","69","573872","0.0-2.0-14.2-0.2","battery-v0.2","","""event"",""trial"",""time""
""fullscreenenter"",""1"",""1848""
","
","
","""event"",""trial"",""time""
""fullscreenenter"",""1"",""1848""
","
","","","-1","","","20","7687","3983","&#9826;","elianto","#f73b6a7A","-1","-1","1","0","[]","0","0","3","","","","","","","",""
"pit-trial","70","578736","0.0-2.0-14.2-1.2","battery-v0.2","","""event"",""trial"",""time""
""fullscreenenter"",""1"",""1848""
","
","
","""event"",""trial"",""time""
""fullscreenenter"",""1"",""1848""
","
","","","-1","","","20","7687","3983","&#9826;","elianto","#f73b6a7A","-1","-1","1","0","[]","0","0","3","","","","","","","",""
"pit-trial","71","583600","0.0-2.0-14.2-2.2","battery-v0.2","","""event"",""trial"",""time""
""fullscreenenter"",""1"",""1848""
","
","
","""event"",""trial"",""time""
""fullscreenenter"",""1"",""1848""
","
","","","-1","","","20","7687","3983","&#9826;","elianto","#f73b6a7A","-1","-1","1","0","[]","0","0","3","","","","","","","",""
"pit-trial","72","588463","0.0-2.0-14.2-3.2","battery-v0.2","","""event"",""trial"",""time""
""fullscreenenter"",""1"",""1848""
","
","
","""event"",""trial"",""time""
""fullscreenenter"",""1"",""1848""
","
","","","-1","","","20","7687","3983","&#9826;","elianto","#f73b6a7A","-1","-1","1","-10","[]","0","0","3","","","","","","","",""
"pit-trial","73","593327","0.0-2.0-14.2-4.2","battery-v0.2","","""event"",""trial"",""time""
""fullscreenenter"",""1"",""1848""
","
","
","""event"",""trial"",""time""
""fullscreenenter"",""1"",""1848""
","
","","","-1","","","20","7687","3983","&#9826;","elianto","#f73b6a7A","-1","-1","1","0","[]","0","0","3","","","","","","","",""
"pit-trial","74","598191","0.0-2.0-14.3-0.3","battery-v0.2","","""event"",""trial"",""time""
""fullscreenenter"",""1"",""1848""
","
","
","""event"",""trial"",""time""
""fullscreenenter"",""1"",""1848""
","
","","","-1","","","20","7687","3983","&#9826;","elianto","#f73b6a7A","-1","-1","1","0","[]","0","0","3","","","","","","","",""
"pit-trial","75","603055","0.0-2.0-14.3-1.3","battery-v0.2","","""event"",""trial"",""time""
""fullscreenenter"",""1"",""1848""
","
","
","""event"",""trial"",""time""
""fullscreenenter"",""1"",""1848""
","
","","","-1","","","20","7687","3983","&#9826;","elianto","#f73b6a7A","-1","-1","1","0","[]","0","0","3","","","","","","","",""
"pit-trial","76","607919","0.0-2.0-14.3-2.3","battery-v0.2","","""event"",""trial"",""time""
""fullscreenenter"",""1"",""1848""
","
","
","""event"",""trial"",""time""
""fullscreenenter"",""1"",""1848""
","
","","","-1","","","20","7687","3983","&#9826;","elianto","#f73b6a7A","-1","-1","1","0","[]","0","0","3","","","","","","","",""
"pit-trial","77","612783","0.0-2.0-14.3-3.3","battery-v0.2","","""event"",""trial"",""time""
""fullscreenenter"",""1"",""1848""
","
","
","""event"",""trial"",""time""
""fullscreenenter"",""1"",""1848""
","
","","","-1","","","20","7687","3983","&#9826;","elianto","#f73b6a7A","-1","-1","1","-10","[]","0","0","3","","","","","","","",""
"pit-trial","78","617646","0.0-2.0-14.3-4.3","battery-v0.2","","""event"",""trial"",""time""
""fullscreenenter"",""1"",""1848""
","
","
","""event"",""trial"",""time""
""fullscreenenter"",""1"",""1848""
","
","","","-1","","","20","7687","3983","&#9826;","elianto","#f73b6a7A","-1","-1","1","0","[]","0","0","3","","","","","","","",""
"call-function","79","617648","0.0-2.0-15.0","battery-v0.2","","""event"",""trial"",""time""
""fullscreenenter"",""1"",""1848""
","
","
","""event"",""trial"",""time""
""fullscreenenter"",""1"",""1848""
","
","","","","","","","","","","","","","","","","","","","","","","","","","","",""
"pit-instructions","80","643659","0.0-2.0-16.0","battery-v0.2","","""event"",""trial"",""time""
""fullscreenenter"",""1"",""1848""
","
","
","""event"",""trial"",""time""
""fullscreenenter"",""1"",""1848""
","
","","[{""page_index"":0,""viewing_time"":6692.5},{""page_index"":1,""viewing_time"":8967.10000000894},{""page_index"":2,""viewing_time"":4600.5},{""page_index"":3,""viewing_time"":5750.20000000298}]","26011","","","","","","","","","","","","","","","","","","","","","","","",""
"pit-trial","81","646978","0.0-2.0-17.0-0.0","battery-v0.2","","""event"",""trial"",""time""
""fullscreenenter"",""1"",""1848""
","
","
","""event"",""trial"",""time""
""fullscreenenter"",""1"",""1848""
","
","","","452.59999999403954","","","20","7687","3983","&#9789;","elianto","#f73b6a7A"," "," ","1","0","[1309.5]","1","0","4","","","","","","","",""
"pit-trial","82","650234","0.0-2.0-17.0-1.0","battery-v0.2","","""event"",""trial"",""time""
""fullscreenenter"",""1"",""1848""
","
","
","""event"",""trial"",""time""
""fullscreenenter"",""1"",""1848""
","
","","","388.20000000298023","","","20","7687","3983","&#9789;","elianto","#f73b6a7A"," "," ","1","0","[1241.8999999910593]","1","0","4","","","","","","","",""
"pit-trial","83","653634","0.0-2.0-17.0-2.0","battery-v0.2","","""event"",""trial"",""time""
""fullscreenenter"",""1"",""1848""
","
","
","""event"",""trial"",""time""
""fullscreenenter"",""1"",""1848""
","
","","","530.7999999970198","","","20","7687","3983","&#9789;","elianto","#f73b6a7A"," "," ","1","0","[1383.6000000089407]","1","0","4","","","","","","","",""
"pit-trial","84","656966","0.0-2.0-17.0-3.0","battery-v0.2","","""event"",""trial"",""time""
""fullscreenenter"",""1"",""1848""
","
","
","""event"",""trial"",""time""
""fullscreenenter"",""1"",""1848""
","
","","","467.90000000596046","","","20","7687","3983","&#9789;","elianto","#f73b6a7A"," "," ","1","-10","[1323.5]","1","0","4","","","","","","","",""
"pit-trial","85","660170","0.0-2.0-17.0-4.0","battery-v0.2","","""event"",""trial"",""time""
""fullscreenenter"",""1"",""1848""
","
","
","""event"",""trial"",""time""
""fullscreenenter"",""1"",""1848""
","
","","","338.59999999403954","","","20","7687","3983","&#9789;","elianto","#f73b6a7A"," "," ","1","0","[1189.9000000059605]","1","0","4","","","","","","","",""
"pit-trial","86","663346","0.0-2.0-17.1-0.1","battery-v0.2","","""event"",""trial"",""time""
""fullscreenenter"",""1"",""1848""
","
","
","""event"",""trial"",""time""
""fullscreenenter"",""1"",""1848""
","
","","","300.80000001192093","","","20","7687","3983","&#9789;","elianto","#f73b6a7A"," "," ","1","0","[1160.300000011921]","1","0","4","","","","","","","",""
"pit-trial","87","666418","0.0-2.0-17.1-1.1","battery-v0.2","","""event"",""trial"",""time""
""fullscreenenter"",""1"",""1848""
","
","
","""event"",""trial"",""time""
""fullscreenenter"",""1"",""1848""
","
","","","208.59999999403954","","","20","7687","3983","&#9789;","elianto","#f73b6a7A"," "," ","1","0","[1062]","1","0","4","","","","","","","",""
"pit-trial","88","669498","0.0-2.0-17.1-2.1","battery-v0.2","","""event"",""trial"",""time""
""fullscreenenter"",""1"",""1848""
","
","
","""event"",""trial"",""time""
""fullscreenenter"",""1"",""1848""
","
","","","213.79999999701977","","","20","7687","3983","&#9789;","elianto","#f73b6a7A"," "," ","1","0","[1070.0999999940395]","1","0","4","","","","","","","",""
"pit-trial","89","672586","0.0-2.0-17.1-3.1","battery-v0.2","","""event"",""trial"",""time""
""fullscreenenter"",""1"",""1848""
","
","
","""event"",""trial"",""time""
""fullscreenenter"",""1"",""1848""
","
","","","218.5","","","20","7687","3983","&#9789;","elianto","#f73b6a7A"," "," ","1","-10","[1078.3999999910593]","1","0","4","","","","","","","",""
"pit-trial","90","675672","0.0-2.0-17.1-4.1","battery-v0.2","","""event"",""trial"",""time""
""fullscreenenter"",""1"",""1848""
","
","
","""event"",""trial"",""time""
""fullscreenenter"",""1"",""1848""
","
","","","217.19999998807907","","","20","7687","3983","&#9789;","elianto","#f73b6a7A"," "," ","1","0","[1075.8999999910593]","1","0","4","","","","","","","",""
"pit-trial","91","678765","0.0-2.0-17.2-0.2","battery-v0.2","","""event"",""trial"",""time""
""fullscreenenter"",""1"",""1848""
","
","
","""event"",""trial"",""time""
""fullscreenenter"",""1"",""1848""
","
","","","231.80000001192093","","","20","7687","3983","&#9789;","elianto","#f73b6a7A"," "," ","1","0","[1083.3999999910593]","1","0","4","","","","","","","",""
"pit-trial","92","682029","0.0-2.0-17.2-1.2","battery-v0.2","","""event"",""trial"",""time""
""fullscreenenter"",""1"",""1848""
","
","
","""event"",""trial"",""time""
""fullscreenenter"",""1"",""1848""
","
","","","397.69999998807907","","","20","7687","3983","&#9789;","elianto","#f73b6a7A"," "," ","1","0","[1252.4000000059605]","1","0","4","","","","","","","",""
"pit-trial","93","685207","0.0-2.0-17.2-2.2","battery-v0.2","","""event"",""trial"",""time""
""fullscreenenter"",""1"",""1848""
","
","
","""event"",""trial"",""time""
""fullscreenenter"",""1"",""1848""
","
","","","312.3999999910593","","","20","7687","3983","&#9789;","elianto","#f73b6a7A"," "," ","1","0","[1166.3999999910593]","1","0","4","","","","","","","",""
"pit-trial","94","688344","0.0-2.0-17.2-3.2","battery-v0.2","","""event"",""trial"",""time""
""fullscreenenter"",""1"",""1848""
","
","
","""event"",""trial"",""time""
""fullscreenenter"",""1"",""1848""
","
","","","264.79999999701977","","","20","7687","3983","&#9789;","elianto","#f73b6a7A"," "," ","1","-10","[1121.9000000059605]","1","0","4","","","","","","","",""
"pit-trial","95","691560","0.0-2.0-17.2-4.2","battery-v0.2","","""event"",""trial"",""time""
""fullscreenenter"",""1"",""1848""
","
","
","""event"",""trial"",""time""
""fullscreenenter"",""1"",""1848""
","
","","","352.29999999701977","","","20","7687","3983","&#9789;","elianto","#f73b6a7A"," "," ","1","0","[1208.0999999940395]","1","0","4","","","","","","","",""
"pit-trial","96","694908","0.0-2.0-17.3-0.3","battery-v0.2","","""event"",""trial"",""time""
""fullscreenenter"",""1"",""1848""
","
","
","""event"",""trial"",""time""
""fullscreenenter"",""1"",""1848""
","
","","","481.09999999403954","","","20","7687","3983","&#9789;","elianto","#f73b6a7A"," "," ","1","0","[1340.7000000029802]","1","0","4","","","","","","","",""
"pit-trial","97","698151","0.0-2.0-17.3-1.3","battery-v0.2","","""event"",""trial"",""time""
""fullscreenenter"",""1"",""1848""
","
","
","""event"",""trial"",""time""
""fullscreenenter"",""1"",""1848""
","
","","","375.5","","","20","7687","3983","&#9789;","elianto","#f73b6a7A"," "," ","1","0","[1232]","1","0","4","","","","","","","",""
"pit-trial","98","701580","0.0-2.0-17.3-2.3","battery-v0.2","","""event"",""trial"",""time""
""fullscreenenter"",""1"",""1848""
","
","
","""event"",""trial"",""time""
""fullscreenenter"",""1"",""1848""
","
","","","573.2000000029802","","","20","7687","3983","&#9789;","elianto","#f73b6a7A"," "," ","1","0","[1424.3999999910593]","1","0","4","","","","","","","",""
"pit-trial","99","705062","0.0-2.0-17.3-3.3","battery-v0.2","","""event"",""trial"",""time""
""fullscreenenter"",""1"",""1848""
","
","
","""event"",""trial"",""time""
""fullscreenenter"",""1"",""1848""
","
","","","613.6000000089407","","","20","7687","3983","&#9789;","elianto","#f73b6a7A"," "," ","1","-10","[1468.5]","1","0","4","","","","","","","",""
"pit-trial","100","708245","0.0-2.0-17.3-4.3","battery-v0.2","","""event"",""trial"",""time""
""fullscreenenter"",""1"",""1848""
","
","
","""event"",""trial"",""time""
""fullscreenenter"",""1"",""1848""
","
","","","321.59999999403954","","","20","7687","3983","&#9789;","elianto","#f73b6a7A"," "," ","1","0","[1176]","1","0","4","","","","","","","",""
"call-function","101","708249","0.0-2.0-18.0","battery-v0.2","","""event"",""trial"",""time""
""fullscreenenter"",""1"",""1848""
","
","
","""event"",""trial"",""time""
""fullscreenenter"",""1"",""1848""
","
","","","","","","","","","","","","","","","","","","","","","","","","","","",""
"pit-instructions","102","779622","0.0-2.0-19.0","battery-v0.2","","""event"",""trial"",""time""
""fullscreenenter"",""1"",""1848""
","
","
","""event"",""trial"",""time""
""fullscreenenter"",""1"",""1848""
","
","","[{""page_index"":0,""viewing_time"":6707.29999999702},{""page_index"":1,""viewing_time"":6100.79999999702},{""page_index"":2,""viewing_time"":14516.90000000596},{""page_index"":3,""viewing_time"":7916.79999999702},{""page_index"":4,""viewing_time"":8567},{""page_index"":5,""viewing_time"":8100.70000000298},{""page_index"":6,""viewing_time"":8383.29999999702},{""page_index"":7,""viewing_time"":6283.20000000298},{""page_index"":8,""viewing_time"":4800.399999991059}]","71377.19999998808","","","","","","","","","","","","","","","","","","","","","","","",""
"pit-comprehension","103","785724","0.0-2.0-20.0-0.0","battery-v0.2","","""event"",""trial"",""time""
""fullscreenenter"",""1"",""1848""
","
","
","""event"",""trial"",""time""
""fullscreenenter"",""1"",""1848""
","
","","","6095.79999999702","[""SPACE""]","0","20","7687","3983","","","","","","","","","","","","","","","","","","",""
"pit-instructions","104","788606","0.0-2.0-20.0-1.0","battery-v0.2","","""event"",""trial"",""time""
""fullscreenenter"",""1"",""1848""
","
","
","""event"",""trial"",""time""
""fullscreenenter"",""1"",""1848""
","
","","[{""page_index"":0,""viewing_time"":2852.8999999910593}]","2853.5","","","","","","","","","","","","","","","","","","","","","","","",""
"pit-comprehension","105","796090","0.0-2.0-21.0-0.0","battery-v0.2","","""event"",""trial"",""time""
""fullscreenenter"",""1"",""1848""
","
","
","""event"",""trial"",""time""
""fullscreenenter"",""1"",""1848""
","
","","","7478.9000000059605","[""10""]","0","20","7687","3983","","","","","","","","","","","","","","","","","","",""
"pit-instructions","106","799772","0.0-2.0-21.0-1.0","battery-v0.2","","""event"",""trial"",""time""
""fullscreenenter"",""1"",""1848""
","
","
","""event"",""trial"",""time""
""fullscreenenter"",""1"",""1848""
","
","","[{""page_index"":0,""viewing_time"":3649.1000000089407}]","3649.7000000029802","","","","","","","","","","","","","","","","","","","","","","","",""
"pit-comprehension","107","807591","0.0-2.0-22.0-0.0","battery-v0.2","","""event"",""trial"",""time""
""fullscreenenter"",""1"",""1848""
","
","
","""event"",""trial"",""time""
""fullscreenenter"",""1"",""1848""
","
","","","7813","[""0""]","0","20","7687","3983","","","","","","","","","","","","","","","","","","",""
"pit-instructions","108","809089","0.0-2.0-22.0-1.0","battery-v0.2","","""event"",""trial"",""time""
""fullscreenenter"",""1"",""1848""
","
","
","""event"",""trial"",""time""
""fullscreenenter"",""1"",""1848""
","
","","[{""page_index"":0,""viewing_time"":1468.0999999940395}]","1468.7000000029802","","","","","","","","","","","","","","","","","","","","","","","",""
"pit-comprehension","109","818240","0.0-2.0-23.0-0.0","battery-v0.2","","""event"",""trial"",""time""
""fullscreenenter"",""1"",""1848""
","
","
","""event"",""trial"",""time""
""fullscreenenter"",""1"",""1848""
","
","","","9145.5","[""True""]","0","20","7687","3983","","","","","","","","","","","","","","","","","","",""
"pit-instructions","110","819806","0.0-2.0-23.0-1.0","battery-v0.2","","""event"",""trial"",""time""
""fullscreenenter"",""1"",""1848""
","
","
","""event"",""trial"",""time""
""fullscreenenter"",""1"",""1848""
","
","","[{""page_index"":0,""viewing_time"":1534.7999999970198}]","1535.4000000059605","","","","","","","","","","","","","","","","","","","","","","","",""
"pit-comprehension","111","827507","0.0-2.0-24.0-0.0","battery-v0.2","","""event"",""trial"",""time""
""fullscreenenter"",""1"",""1848""
","
","
","""event"",""trial"",""time""
""fullscreenenter"",""1"",""1848""
","
","","","7695.800000011921","[""True""]","0","20","7687","3983","","","","","","","","","","","","","","","","","","",""
"pit-instructions","112","829022","0.0-2.0-24.0-1.0","battery-v0.2","","""event"",""trial"",""time""
""fullscreenenter"",""1"",""1848""
","
","
","""event"",""trial"",""time""
""fullscreenenter"",""1"",""1848""
","
","","[{""page_index"":0,""viewing_time"":1483.7999999970198}]","1484.4000000059605","","","","","","","","","","","","","","","","","","","","","","","",""
"pit-comprehension","113","835921","0.0-2.0-25.0-0.0","battery-v0.2","","""event"",""trial"",""time""
""fullscreenenter"",""1"",""1848""
","
","
","""event"",""trial"",""time""
""fullscreenenter"",""1"",""1848""
","
","","","6894.20000000298","[""True""]","0","20","7687","3983","","","","","","","","","","","","","","","","","","",""
"pit-instructions","114","837489","0.0-2.0-25.0-1.0","battery-v0.2","","""event"",""trial"",""time""
""fullscreenenter"",""1"",""1848""
","
","
","""event"",""trial"",""time""
""fullscreenenter"",""1"",""1848""
","
","","[{""page_index"":0,""viewing_time"":1539.7000000029802}]","1540.2999999970198","","","","","","","","","","","","","","","","","","","","","","","",""
"pit-comprehension","115","843223","0.0-2.0-26.0-0.0","battery-v0.2","","""event"",""trial"",""time""
""fullscreenenter"",""1"",""1848""
","
","
","""event"",""trial"",""time""
""fullscreenenter"",""1"",""1848""
","
","","","5729.20000000298","[""False""]","0","20","7687","3983","","","","","","","","","","","","","","","","","","",""
"pit-instructions","116","845006","0.0-2.0-26.0-1.0","battery-v0.2","","""event"",""trial"",""time""
""fullscreenenter"",""1"",""1848""
","
","
","""event"",""trial"",""time""
""fullscreenenter"",""1"",""1848""
","
","","[{""page_index"":0,""viewing_time"":1748.5}]","1749.1000000089407","","","","","","","","","","","","","","","","","","","","","","","",""
"pit-instructions","117","862073","0.0-3.0","battery-v0.2","","""event"",""trial"",""time""
""fullscreenenter"",""1"",""1848""
","
","
","""event"",""trial"",""time""
""fullscreenenter"",""1"",""1848""
","
","","[{""page_index"":0,""viewing_time"":4312.79999999702},{""page_index"":1,""viewing_time"":5083.29999999702},{""page_index"":2,""viewing_time"":7667.20000000298}]","17063.89999999106","","","","","","","","","","","","","","","","","","","","","","","",""
"pit-trial","118","865713","0.0-4.0","battery-v0.2","","""event"",""trial"",""time""
""fullscreenenter"",""1"",""1848""
","
","
","""event"",""trial"",""time""
""fullscreenenter"",""1"",""1848""
","
","","","767","","","20","7687","3983","&#9752;","elianto","#f73b6a7A"," "," ","1","0","[1621.2000000029802]","1","1","","","7687","1","3","3","lose","go","0"
"pit-trial","119","869345","0.0-5.0","battery-v0.2","","""event"",""trial"",""time""
""fullscreenenter"",""1"",""1848""
","
","
","""event"",""trial"",""time""
""fullscreenenter"",""1"",""1848""
","
","","","760.5999999940395","","","20","7687","3983","&#9733;","elianto","#3366ff99","-1"," ","0","0","[1618.5999999940395]","1","1","","","7687","2","2","2","win","no-go","0"
"pit-trial","120","873332","0.0-6.0","battery-v0.2","","""event"",""trial"",""time""
""fullscreenenter"",""1"",""1848""
","
","
","""event"",""trial"",""time""
""fullscreenenter"",""1"",""1848""
","
","","","1121","","","20","7687","3983","&#9728;","elianto","#f73b6a7A","-1"," ","0","-10","[1980.9000000059605]","1","1","","","7687","3","0","4","lose","no-go","0"
"pit-trial","121","877200","0.0-7.0","battery-v0.2","","""event"",""trial"",""time""
""fullscreenenter"",""1"",""1848""
","
","
","""event"",""trial"",""time""
""fullscreenenter"",""1"",""1848""
","
","","","995.8000000119209","","","20","7687","3983","&#9730;","elianto","#3366ff99"," "," ","1","0","[1851.2000000029802]","1","1","","","7687","4","1","1","win","go","1"
"pit-trial","122","881646","0.0-8.0","battery-v0.2","","""event"",""trial"",""time""
""fullscreenenter"",""1"",""1848""
","
","
","""event"",""trial"",""time""
""fullscreenenter"",""1"",""1848""
","
","","","1575","","","20","7687","3983","&#9733;","elianto","#3366ff99","-1"," ","0","0","[2431.3999999910593]","1","1","","","7687","5","2","2","win","no-go","0"
"pit-trial","123","886520","0.0-9.0","battery-v0.2","","""event"",""trial"",""time""
""fullscreenenter"",""1"",""1848""
","
","
","""event"",""trial"",""time""
""fullscreenenter"",""1"",""1848""
","
","","","-1","","","20","7687","3983","&#9728;","elianto","#f73b6a7A","-1","-1","1","0","[]","0","1","","","7687","6","0","4","lose","no-go","0"
"pit-trial","124","890220","0.0-10.0","battery-v0.2","","""event"",""trial"",""time""
""fullscreenenter"",""1"",""1848""
","
","
","""event"",""trial"",""time""
""fullscreenenter"",""1"",""1848""
","
","","","842.5","","","20","7687","3983","&#9752;","elianto","#f73b6a7A"," "," ","1","0","[1692.5999999940395]","1","1","","","7687","7","3","3","lose","go","0"
"pit-trial","125","894686","0.0-11.0","battery-v0.2","","""event"",""trial"",""time""
""fullscreenenter"",""1"",""1848""
","
","
","""event"",""trial"",""time""
""fullscreenenter"",""1"",""1848""
","
","","","1605.5","","","20","7687","3983","&#9730;","elianto","#3366ff99"," "," ","1","0","[2457.5999999940395]","1","1","","","7687","8","1","1","win","go","1"
"pit-trial","126","899560","0.0-12.0","battery-v0.2","","""event"",""trial"",""time""
""fullscreenenter"",""1"",""1848""
","
","
","""event"",""trial"",""time""
""fullscreenenter"",""1"",""1848""
","
","","","-1","","","20","7687","3983","&#9728;","elianto","#f73b6a7A","-1","-1","1","0","[]","0","1","","","7687","9","0","4","lose","no-go","0"
"pit-trial","127","903230","0.0-13.0","battery-v0.2","","""event"",""trial"",""time""
""fullscreenenter"",""1"",""1848""
","
","
","""event"",""trial"",""time""
""fullscreenenter"",""1"",""1848""
","
","","","804.5","","","20","7687","3983","&#9733;","elianto","#3366ff99","-1"," ","0","0","[1659.800000011921]","1","1","","","7687","10","2","2","win","no-go","0"
"pit-trial","128","907726","0.0-14.0","battery-v0.2","","""event"",""trial"",""time""
""fullscreenenter"",""1"",""1848""
","
","
","""event"",""trial"",""time""
""fullscreenenter"",""1"",""1848""
","
","","","1634.6000000089407","","","20","7687","3983","&#9752;","elianto","#f73b6a7A"," "," ","1","0","[2484.5]","1","1","","","7687","11","3","3","lose","go","0"
"pit-trial","129","912595","0.0-15.0","battery-v0.2","","""event"",""trial"",""time""
""fullscreenenter"",""1"",""1848""
","
","
","""event"",""trial"",""time""
""fullscreenenter"",""1"",""1848""
","
","","","-1","","","20","7687","3983","&#9730;","elianto","#3366ff99"," ","-1","0","0","[]","0","1","","","7687","12","1","1","win","go","0"
"pit-trial","130","916595","0.0-16.0","battery-v0.2","","""event"",""trial"",""time""
""fullscreenenter"",""1"",""1848""
","
","
","""event"",""trial"",""time""
""fullscreenenter"",""1"",""1848""
","
","","","1140.800000011921","","","20","7687","3983","&#9752;","elianto","#f73b6a7A"," "," ","1","0","[1992.0999999940395]","1","1","","","7687","13","3","3","lose","go","0"
"pit-trial","131","921453","0.0-17.0","battery-v0.2","","""event"",""trial"",""time""
""fullscreenenter"",""1"",""1848""
","
","
","""event"",""trial"",""time""
""fullscreenenter"",""1"",""1848""
","
","","","-1","","","20","7687","3983","&#9728;","elianto","#f73b6a7A","-1","-1","1","-10","[]","0","1","","","7687","14","0","4","lose","no-go","1"
"pit-trial","132","925453","0.0-18.0","battery-v0.2","","""event"",""trial"",""time""
""fullscreenenter"",""1"",""1848""
","
","
","""event"",""trial"",""time""
""fullscreenenter"",""1"",""1848""
","
","","","1131.5999999940395","","","20","7687","3983","&#9733;","elianto","#3366ff99","-1"," ","0","0","[1991]","1","1","","","7687","15","2","2","win","no-go","0"
"pit-trial","133","928867","0.0-19.0","battery-v0.2","","""event"",""trial"",""time""
""fullscreenenter"",""1"",""1848""
","
","
","""event"",""trial"",""time""
""fullscreenenter"",""1"",""1848""
","
","","","552.7999999970198","","","20","7687","3983","&#9730;","elianto","#3366ff99"," "," ","1","0","[1403.2000000029802]","1","1","","","7687","16","1","1","win","go","1"
"pit-trial","134","932546","0.0-20.0","battery-v0.2","","""event"",""trial"",""time""
""fullscreenenter"",""1"",""1848""
","
","
","""event"",""trial"",""time""
""fullscreenenter"",""1"",""1848""
","
","","","816.7000000029802","","","20","7687","3983","&#9752;","elianto","#f73b6a7A"," "," ","1","0","[1671.2000000029802]","1","1","","","7687","17","3","3","lose","go","0"
"pit-trial","135","937410","0.0-21.0","battery-v0.2","","""event"",""trial"",""time""
""fullscreenenter"",""1"",""1848""
","
","
","""event"",""trial"",""time""
""fullscreenenter"",""1"",""1848""
","
","","","-1","","","20","7687","3983","&#9733;","elianto","#3366ff99","-1","-1","1","+10","[]","0","1","","","7687","18","2","2","win","no-go","0"
"pit-trial","136","942274","0.0-22.0","battery-v0.2","","""event"",""trial"",""time""
""fullscreenenter"",""1"",""1848""
","
","
","""event"",""trial"",""time""
""fullscreenenter"",""1"",""1848""
","
","","","-1","","","20","7687","3983","&#9730;","elianto","#3366ff99"," ","-1","0","0","[2980.300000011921]","1","1","","","7687","19","1","1","win","go","0"
"pit-trial","137","947138","0.0-23.0","battery-v0.2","","""event"",""trial"",""time""
""fullscreenenter"",""1"",""1848""
","
","
","""event"",""trial"",""time""
""fullscreenenter"",""1"",""1848""
","
","","","-1","","","20","7687","3983","&#9728;","elianto","#f73b6a7A","-1","-1","1","0","[]","0","1","","","7687","20","0","4","lose","no-go","0"
"pit-instructions","138","960573","0.0-24.0","battery-v0.2","","""event"",""trial"",""time""
""fullscreenenter"",""1"",""1848""
","
","
","""event"",""trial"",""time""
""fullscreenenter"",""1"",""1848""
","
","","[{""page_index"":0,""viewing_time"":6464.699999988079},{""page_index"":1,""viewing_time"":6966.600000008941}]","13431.89999999106","","","","","","","","","","","","","","","","","","","","","","","",""
"pit-trial","139","964213","0.0-25.0","battery-v0.2","","""event"",""trial"",""time""
""fullscreenenter"",""1"",""1848""
","
","
","""event"",""trial"",""time""
""fullscreenenter"",""1"",""1848""
","
","","","772.4000000059605","","","20","7687","3983","j","elianto","#f73b6a7A"," "," ","1","0","[1628]","1","2","","","7687","21","0","3","lose","go","0"
"pit-trial","140","967774","0.0-26.0","battery-v0.2","","""event"",""trial"",""time""
""fullscreenenter"",""1"",""1848""
","
","
","""event"",""trial"",""time""
""fullscreenenter"",""1"",""1848""
","
","","","691.5","","","20","7687","3983","d","elianto","#3366ff99","-1"," ","0","0","[1549.699999988079]","1","2","","","7687","22","1","2","win","no-go","0"
"pit-trial","141","971822","0.0-27.0","battery-v0.2","","""event"",""trial"",""time""
""fullscreenenter"",""1"",""1848""
","
","
","""event"",""trial"",""time""
""fullscreenenter"",""1"",""1848""
","
","","","1179.7000000029802","","","20","7687","3983","e","elianto","#f73b6a7A"," "," ","1","-10","[2035.5999999940395]","1","2","","","7687","23","2","3","lose","go","1"
"pit-trial","142","976030","0.0-28.0","battery-v0.2","","""event"",""trial"",""time""
""fullscreenenter"",""1"",""1848""
","
","
","""event"",""trial"",""time""
""fullscreenenter"",""1"",""1848""
","
","","","1341.1000000089407","","","20","7687","3983","w","elianto","#f73b6a7A","-1"," ","0","-10","[2197.7999999970198]","1","2","","","7687","24","3","4","lose","no-go","0"
"pit-trial","143","980446","0.0-29.0","battery-v0.2","","""event"",""trial"",""time""
""fullscreenenter"",""1"",""1848""
","
","
","""event"",""trial"",""time""
""fullscreenenter"",""1"",""1848""
","
","","","1543.5999999940395","","","20","7687","3983","e","elianto","#f73b6a7A"," "," ","1","0","[2401.2999999970198]","1","2","","","7687","25","2","3","lose","go","0"
"pit-trial","144","985318","0.0-30.0","battery-v0.2","","""event"",""trial"",""time""
""fullscreenenter"",""1"",""1848""
","
","
","""event"",""trial"",""time""
""fullscreenenter"",""1"",""1848""
","
","","","-1","","","20","7687","3983","w","elianto","#f73b6a7A","-1","-1","1","0","[]","0","2","","","7687","26","3","4","lose","no-go","0"
"pit-trial","145","990186","0.0-31.0","battery-v0.2","","""event"",""trial"",""time""
""fullscreenenter"",""1"",""1848""
","
","
","""event"",""trial"",""time""
""fullscreenenter"",""1"",""1848""
","
","","","-1","","","20","7687","3983","j","elianto","#f73b6a7A"," ","-1","0","0","[]","0","2","","","7687","27","0","3","lose","go","1"
"pit-trial","146","994163","0.0-32.0","battery-v0.2","","""event"",""trial"",""time""
""fullscreenenter"",""1"",""1848""
","
","
","""event"",""trial"",""time""
""fullscreenenter"",""1"",""1848""
","
","","","1110.800000011921","","","20","7687","3983","d","elianto","#3366ff99","-1"," ","0","+10","[1964.2000000029802]","1","2","","","7687","28","1","2","win","no-go","1"
"pit-trial","147","999032","0.0-33.0","battery-v0.2","","""event"",""trial"",""time""
""fullscreenenter"",""1"",""1848""
","
","
","""event"",""trial"",""time""
""fullscreenenter"",""1"",""1848""
","
","","","-1","","","20","7687","3983","w","elianto","#f73b6a7A","-1","-1","1","0","[]","0","2","","","7687","29","3","4","lose","no-go","0"
"pit-trial","148","1003096","0.0-34.0","battery-v0.2","","""event"",""trial"",""time""
""fullscreenenter"",""1"",""1848""
","
","
","""event"",""trial"",""time""
""fullscreenenter"",""1"",""1848""
","
","","","1199.2999999970198","","","20","7687","3983","d","elianto","#3366ff99","-1"," ","0","0","[2055.1000000089407]","1","2","","","7687","30","1","2","win","no-go","0"
"pit-trial","149","1007843","0.0-35.0","battery-v0.2","","""event"",""trial"",""time""
""fullscreenenter"",""1"",""1848""
","
","
","""event"",""trial"",""time""
""fullscreenenter"",""1"",""1848""
","
","","","1880.4000000059605","","","20","7687","3983","e","elianto","#f73b6a7A"," "," ","1","0","[2733.2000000029802]","1","2","","","7687","31","2","3","lose","go","0"
"pit-trial","150","1012714","0.0-36.0","battery-v0.2","","""event"",""trial"",""time""
""fullscreenenter"",""1"",""1848""
","
","
","""event"",""trial"",""time""
""fullscreenenter"",""1"",""1848""
","
","","","-1","","","20","7687","3983","j","elianto","#f73b6a7A"," ","-1","0","0","[]","0","2","","","7687","32","0","3","lose","go","1"
"pit-trial","151","1017587","0.0-37.0","battery-v0.2","","""event"",""trial"",""time""
""fullscreenenter"",""1"",""1848""
","
","
","""event"",""trial"",""time""
""fullscreenenter"",""1"",""1848""
","
","","","-1","","","20","7687","3983","e","elianto","#f73b6a7A"," ","-1","0","-10","[]","0","2","","","7687","33","2","3","lose","go","0"
"pit-trial","152","1022456","0.0-38.0","battery-v0.2","","""event"",""trial"",""time""
""fullscreenenter"",""1"",""1848""
","
","
","""event"",""trial"",""time""
""fullscreenenter"",""1"",""1848""
","
","","","-1","","","20","7687","3983","w","elianto","#f73b6a7A","-1","-1","1","0","[]","0","2","","","7687","34","3","4","lose","no-go","0"
"pit-trial","153","1027320","0.0-39.0","battery-v0.2","","""event"",""trial"",""time""
""fullscreenenter"",""1"",""1848""
","
","
","""event"",""trial"",""time""
""fullscreenenter"",""1"",""1848""
","
","","","-1","","","20","7687","3983","d","elianto","#3366ff99","-1","-1","1","+10","[]","0","2","","","7687","35","1","2","win","no-go","0"
"pit-trial","154","1032184","0.0-40.0","battery-v0.2","","""event"",""trial"",""time""
""fullscreenenter"",""1"",""1848""
","
","
","""event"",""trial"",""time""
""fullscreenenter"",""1"",""1848""
","
","","","-1","","","20","7687","3983","j","elianto","#f73b6a7A"," ","-1","0","-10","[]","0","2","","","7687","36","0","3","lose","go","0"
"pit-trial","155","1035992","0.0-41.0","battery-v0.2","","""event"",""trial"",""time""
""fullscreenenter"",""1"",""1848""
","
","
","""event"",""trial"",""time""
""fullscreenenter"",""1"",""1848""
","
","","","941","","","20","7687","3983","j","elianto","#f73b6a7A"," "," ","1","-10","[1795.3999999910593]","1","2","","","7687","37","0","3","lose","go","1"
"pit-trial","156","1040002","0.0-42.0","battery-v0.2","","""event"",""trial"",""time""
""fullscreenenter"",""1"",""1848""
","
","
","""event"",""trial"",""time""
""fullscreenenter"",""1"",""1848""
","
","","","1146","","","20","7687","3983","e","elianto","#f73b6a7A"," "," ","1","0","[1997.1000000089407]","1","2","","","7687","38","2","3","lose","go","0"
"pit-trial","157","1044871","0.0-43.0","battery-v0.2","","""event"",""trial"",""time""
""fullscreenenter"",""1"",""1848""
","
","
","""event"",""trial"",""time""
""fullscreenenter"",""1"",""1848""
","
","","","-1","","","20","7687","3983","w","elianto","#f73b6a7A","-1","-1","1","0","[]","0","2","","","7687","39","3","4","lose","no-go","0"
"pit-trial","158","1048657","0.0-44.0","battery-v0.2","","""event"",""trial"",""time""
""fullscreenenter"",""1"",""1848""
","
","
","""event"",""trial"",""time""
""fullscreenenter"",""1"",""1848""
","
","","","927.2999999970198","","","20","7687","3983","d","elianto","#3366ff99","-1"," ","0","+10","[1777.7999999970198]","1","2","","","7687","40","1","2","win","no-go","1"
"pit-trial","159","1052584","0.0-45.0","battery-v0.2","","""event"",""trial"",""time""
""fullscreenenter"",""1"",""1848""
","
","
","""event"",""trial"",""time""
""fullscreenenter"",""1"",""1848""
","
","","","1067.8999999910593","","","20","7687","3983","e","elianto","#f73b6a7A"," "," ","1","0","[1919.3999999910593]","1","2","","","7687","41","2","3","lose","go","0"
"pit-trial","160","1057447","0.0-46.0","battery-v0.2","","""event"",""trial"",""time""
""fullscreenenter"",""1"",""1848""
","
","
","""event"",""trial"",""time""
""fullscreenenter"",""1"",""1848""
","
","","","-1","","","20","7687","3983","d","elianto","#3366ff99","-1","-1","1","0","[]","0","2","","","7687","42","1","2","win","no-go","1"
"pit-trial","161","1061784","0.0-47.0","battery-v0.2","","""event"",""trial"",""time""
""fullscreenenter"",""1"",""1848""
","
","
","""event"",""trial"",""time""
""fullscreenenter"",""1"",""1848""
","
","","","1479.5","","","20","7687","3983","j","elianto","#f73b6a7A"," "," ","1","0","[2330.5999999940395]","1","2","","","7687","43","0","3","lose","go","0"
"pit-trial","162","1066652","0.0-48.0","battery-v0.2","","""event"",""trial"",""time""
""fullscreenenter"",""1"",""1848""
","
","
","""event"",""trial"",""time""
""fullscreenenter"",""1"",""1848""
","
","","","-1","","","20","7687","3983","w","elianto","#f73b6a7A","-1","-1","1","0","[]","0","2","","","7687","44","3","4","lose","no-go","0"
"pit-trial","163","1070634","0.0-49.0","battery-v0.2","","""event"",""trial"",""time""
""fullscreenenter"",""1"",""1848""
","
","
","""event"",""trial"",""time""
""fullscreenenter"",""1"",""1848""
","
","","","1117.8999999910593","","","20","7687","3983","d","elianto","#3366ff99","-1"," ","0","0","[1973.2999999970198]","1","2","","","7687","45","1","2","win","no-go","0"
"pit-trial","164","1075505","0.0-50.0","battery-v0.2","","""event"",""trial"",""time""
""fullscreenenter"",""1"",""1848""
","
","
","""event"",""trial"",""time""
""fullscreenenter"",""1"",""1848""
","
","","","-1","","","20","7687","3983","w","elianto","#f73b6a7A","-1","-1","1","0","[]","0","2","","","7687","46","3","4","lose","no-go","0"
"pit-trial","165","1079367","0.0-51.0","battery-v0.2","","""event"",""trial"",""time""
""fullscreenenter"",""1"",""1848""
","
","
","""event"",""trial"",""time""
""fullscreenenter"",""1"",""1848""
","
","","","996.3000000119209","","","20","7687","3983","e","elianto","#f73b6a7A"," "," ","1","0","[1856.4000000059605]","1","2","","","7687","47","2","3","lose","go","0"
"pit-trial","166","1083617","0.0-52.0","battery-v0.2","","""event"",""trial"",""time""
""fullscreenenter"",""1"",""1848""
","
","
","""event"",""trial"",""time""
""fullscreenenter"",""1"",""1848""
","
","","","1384.9000000059605","","","20","7687","3983","j","elianto","#f73b6a7A"," "," ","1","0","[2239.4000000059605]","1","2","","","7687","48","0","3","lose","go","0"
"pit-trial","167","1088486","0.0-53.0","battery-v0.2","","""event"",""trial"",""time""
""fullscreenenter"",""1"",""1848""
","
","
","""event"",""trial"",""time""
""fullscreenenter"",""1"",""1848""
","
","","","-1","","","20","7687","3983","d","elianto","#3366ff99","-1","-1","1","+10","[]","0","2","","","7687","49","1","2","win","no-go","0"
"pit-trial","168","1093355","0.0-54.0","battery-v0.2","","""event"",""trial"",""time""
""fullscreenenter"",""1"",""1848""
","
","
","""event"",""trial"",""time""
""fullscreenenter"",""1"",""1848""
","
","","","-1","","","20","7687","3983","w","elianto","#f73b6a7A","-1","-1","1","0","[]","0","2","","","7687","50","3","4","lose","no-go","0"
"pit-trial","169","1097206","0.0-55.0","battery-v0.2","","""event"",""trial"",""time""
""fullscreenenter"",""1"",""1848""
","
","
","""event"",""trial"",""time""
""fullscreenenter"",""1"",""1848""
","
","","","985.8000000119209","","","20","7687","3983","j","elianto","#f73b6a7A"," "," ","1","0","[1845]","1","2","","","7687","51","0","3","lose","go","0"
"pit-trial","170","1100774","0.0-56.0","battery-v0.2","","""event"",""trial"",""time""
""fullscreenenter"",""1"",""1848""
","
","
","""event"",""trial"",""time""
""fullscreenenter"",""1"",""1848""
","
","","","700.7999999970198","","","20","7687","3983","e","elianto","#f73b6a7A"," "," ","1","0","[1555.7000000029802]","1","2","","","7687","52","2","3","lose","go","0"
"pit-trial","171","1105638","0.0-57.0","battery-v0.2","","""event"",""trial"",""time""
""fullscreenenter"",""1"",""1848""
","
","
","""event"",""trial"",""time""
""fullscreenenter"",""1"",""1848""
","
","","","-1","","","20","7687","3983","d","elianto","#3366ff99","-1","-1","1","+10","[]","0","2","","","7687","53","1","2","win","no-go","0"
"pit-trial","172","1110502","0.0-58.0","battery-v0.2","","""event"",""trial"",""time""
""fullscreenenter"",""1"",""1848""
","
","
","""event"",""trial"",""time""
""fullscreenenter"",""1"",""1848""
","
","","","-1","","","20","7687","3983","w","elianto","#f73b6a7A","-1","-1","1","0","[]","0","2","","","7687","54","3","4","lose","no-go","0"
"pit-trial","173","1114640","0.0-59.0","battery-v0.2","","""event"",""trial"",""time""
""fullscreenenter"",""1"",""1848""
","
","
","""event"",""trial"",""time""
""fullscreenenter"",""1"",""1848""
","
","","","1275","","","20","7687","3983","e","elianto","#f73b6a7A"," "," ","1","0","[2129.4000000059605]","1","2","","","7687","55","2","3","lose","go","0"
"pit-trial","174","1118208","0.0-60.0","battery-v0.2","","""event"",""trial"",""time""
""fullscreenenter"",""1"",""1848""
","
","
","""event"",""trial"",""time""
""fullscreenenter"",""1"",""1848""
","
","","","703.8000000119209","","","20","7687","3983","j","elianto","#f73b6a7A"," "," ","1","0","[1558.7999999970198]","1","2","","","7687","56","0","3","lose","go","0"
"pit-trial","175","1122112","0.0-61.0","battery-v0.2","","""event"",""trial"",""time""
""fullscreenenter"",""1"",""1848""
","
","
","""event"",""trial"",""time""
""fullscreenenter"",""1"",""1848""
","
","","","1029.800000011921","","","20","7687","3983","j","elianto","#f73b6a7A"," "," ","1","0","[1890.1000000089407]","1","2","","","7687","57","0","3","lose","go","0"
"pit-trial","176","1126981","0.0-62.0","battery-v0.2","","""event"",""trial"",""time""
""fullscreenenter"",""1"",""1848""
","
","
","""event"",""trial"",""time""
""fullscreenenter"",""1"",""1848""
","
","","","-1","","","20","7687","3983","w","elianto","#f73b6a7A","-1","-1","1","0","[]","0","2","","","7687","58","3","4","lose","no-go","0"
"pit-trial","177","1130741","0.0-63.0","battery-v0.2","","""event"",""trial"",""time""
""fullscreenenter"",""1"",""1848""
","
","
","""event"",""trial"",""time""
""fullscreenenter"",""1"",""1848""
","
","","","896.5999999940395","","","20","7687","3983","e","elianto","#f73b6a7A"," "," ","1","0","[1751.5999999940395]","1","2","","","7687","59","2","3","lose","go","0"
"pit-trial","178","1134816","0.0-64.0","battery-v0.2","","""event"",""trial"",""time""
""fullscreenenter"",""1"",""1848""
","
","
","""event"",""trial"",""time""
""fullscreenenter"",""1"",""1848""
","
","","","1212.199999988079","","","20","7687","3983","s","elianto","#3366ff99"," "," ","1","+10","[2062.699999988079]","1","2","","","7687","60","4","1","win","go","0"
"pit-trial","179","1138351","0.0-65.0","battery-v0.2","","""event"",""trial"",""time""
""fullscreenenter"",""1"",""1848""
","
","
","""event"",""trial"",""time""
""fullscreenenter"",""1"",""1848""
","
","","","665.8999999910593","","","20","7687","3983","s","elianto","#3366ff99"," "," ","1","+10","[1521.2999999970198]","1","2","","","7687","61","4","1","win","go","0"
"pit-trial","180","1143215","0.0-66.0","battery-v0.2","","""event"",""trial"",""time""
""fullscreenenter"",""1"",""1848""
","
","
","""event"",""trial"",""time""
""fullscreenenter"",""1"",""1848""
","
","","","-1","","","20","7687","3983","d","elianto","#3366ff99","-1","-1","1","+10","[]","0","2","","","7687","62","1","2","win","no-go","0"
"pit-trial","181","1147045","0.0-67.0","battery-v0.2","","""event"",""trial"",""time""
""fullscreenenter"",""1"",""1848""
","
","
","""event"",""trial"",""time""
""fullscreenenter"",""1"",""1848""
","
","","","965.3000000119209","","","20","7687","3983","e","elianto","#f73b6a7A"," "," ","1","0","[1821.0999999940395]","1","2","","","7687","63","2","3","lose","go","0"
"pit-trial","182","1151909","0.0-68.0","battery-v0.2","","""event"",""trial"",""time""
""fullscreenenter"",""1"",""1848""
","
","
","""event"",""trial"",""time""
""fullscreenenter"",""1"",""1848""
","
","","","-1","","","20","7687","3983","w","elianto","#f73b6a7A","-1","-1","1","-10","[]","0","2","","","7687","64","3","4","lose","no-go","1"
"pit-trial","183","1155599","0.0-69.0","battery-v0.2","","""event"",""trial"",""time""
""fullscreenenter"",""1"",""1848""
","
","
","""event"",""trial"",""time""
""fullscreenenter"",""1"",""1848""
","
","","","820","","","20","7687","3983","s","elianto","#3366ff99"," "," ","1","+10","[1675.2000000029802]","1","2","","","7687","65","4","1","win","go","0"
"pit-trial","184","1160469","0.0-70.0","battery-v0.2","","""event"",""trial"",""time""
""fullscreenenter"",""1"",""1848""
","
","
","""event"",""trial"",""time""
""fullscreenenter"",""1"",""1848""
","
","","","-1","","","20","7687","3983","d","elianto","#3366ff99","-1","-1","1","+10","[]","0","2","","","7687","66","1","2","win","no-go","0"
"pit-trial","185","1165333","0.0-71.0","battery-v0.2","","""event"",""trial"",""time""
""fullscreenenter"",""1"",""1848""
","
","
","""event"",""trial"",""time""
""fullscreenenter"",""1"",""1848""
","
","","","-1","","","20","7687","3983","w","elianto","#f73b6a7A","-1","-1","1","-10","[]","0","2","","","7687","67","3","4","lose","no-go","1"
"pit-trial","186","1169167","0.0-72.0","battery-v0.2","","""event"",""trial"",""time""
""fullscreenenter"",""1"",""1848""
","
","
","""event"",""trial"",""time""
""fullscreenenter"",""1"",""1848""
","
","","","970.7000000029802","","","20","7687","3983","p","elianto","#3366ff99","-1"," ","0","+10","[1821.7999999970198]","1","2","","","7687","68","5","2","win","no-go","1"
"pit-trial","187","1172820","0.0-73.0","battery-v0.2","","""event"",""trial"",""time""
""fullscreenenter"",""1"",""1848""
","
","
","""event"",""trial"",""time""
""fullscreenenter"",""1"",""1848""
","
","","","784.2000000029802","","","20","7687","3983","p","elianto","#3366ff99","-1"," ","0","0","[1643.2000000029802]","1","2","","","7687","69","5","2","win","no-go","0"
"pit-trial","188","1176692","0.0-74.0","battery-v0.2","","""event"",""trial"",""time""
""fullscreenenter"",""1"",""1848""
","
","
","""event"",""trial"",""time""
""fullscreenenter"",""1"",""1848""
","
","","","1010","","","20","7687","3983","e","elianto","#f73b6a7A"," "," ","1","-10","[1864.5]","1","2","","","7687","70","2","3","lose","go","1"
"pit-trial","189","1180383","0.0-75.0","battery-v0.2","","""event"",""trial"",""time""
""fullscreenenter"",""1"",""1848""
","
","
","""event"",""trial"",""time""
""fullscreenenter"",""1"",""1848""
","
","","","825.7999999970198","","","20","7687","3983","s","elianto","#3366ff99"," "," ","1","+10","[1677.2999999970198]","1","2","","","7687","71","4","1","win","go","0"
"pit-trial","190","1185252","0.0-76.0","battery-v0.2","","""event"",""trial"",""time""
""fullscreenenter"",""1"",""1848""
","
","
","""event"",""trial"",""time""
""fullscreenenter"",""1"",""1848""
","
","","","-1","","","20","7687","3983","d","elianto","#3366ff99","-1","-1","1","+10","[]","0","2","","","7687","72","1","2","win","no-go","0"
"pit-trial","191","1189231","0.0-77.0","battery-v0.2","","""event"",""trial"",""time""
""fullscreenenter"",""1"",""1848""
","
","
","""event"",""trial"",""time""
""fullscreenenter"",""1"",""1848""
","
","","","1113.800000011921","","","20","7687","3983","s","elianto","#3366ff99"," "," ","1","+10","[1967.5]","1","2","","","7687","73","4","1","win","go","0"
"pit-trial","192","1193327","0.0-78.0","battery-v0.2","","""event"",""trial"",""time""
""fullscreenenter"",""1"",""1848""
","
","
","""event"",""trial"",""time""
""fullscreenenter"",""1"",""1848""
","
","","","1229.5","","","20","7687","3983","w","elianto","#f73b6a7A","-1"," ","0","-10","[2087.5]","1","2","","","7687","74","3","4","lose","no-go","0"
"pit-trial","193","1196927","0.0-79.0","battery-v0.2","","""event"",""trial"",""time""
""fullscreenenter"",""1"",""1848""
","
","
","""event"",""trial"",""time""
""fullscreenenter"",""1"",""1848""
","
","","","729.3000000119209","","","20","7687","3983","p","elianto","#3366ff99","-1"," ","0","0","[1589.6000000089407]","1","2","","","7687","75","5","2","win","no-go","0"
"pit-trial","194","1201796","0.0-80.0","battery-v0.2","","""event"",""trial"",""time""
""fullscreenenter"",""1"",""1848""
","
","
","""event"",""trial"",""time""
""fullscreenenter"",""1"",""1848""
","
","","","-1","","","20","7687","3983","d","elianto","#3366ff99","-1","-1","1","+10","[]","0","2","","","7687","76","1","2","win","no-go","0"
"pit-trial","195","1205438","0.0-81.0","battery-v0.2","","""event"",""trial"",""time""
""fullscreenenter"",""1"",""1848""
","
","
","""event"",""trial"",""time""
""fullscreenenter"",""1"",""1848""
","
","","","778.4000000059605","","","20","7687","3983","s","elianto","#3366ff99"," "," ","1","0","[1633.2000000029802]","1","2","","","7687","77","4","1","win","go","1"
"pit-trial","196","1210307","0.0-82.0","battery-v0.2","","""event"",""trial"",""time""
""fullscreenenter"",""1"",""1848""
","
","
","""event"",""trial"",""time""
""fullscreenenter"",""1"",""1848""
","
","","","-1","","","20","7687","3983","w","elianto","#f73b6a7A","-1","-1","1","0","[]","0","2","","","7687","78","3","4","lose","no-go","0"
"pit-trial","197","1215171","0.0-83.0","battery-v0.2","","""event"",""trial"",""time""
""fullscreenenter"",""1"",""1848""
","
","
","""event"",""trial"",""time""
""fullscreenenter"",""1"",""1848""
","
","","","-1","","","20","7687","3983","p","elianto","#3366ff99","-1","-1","1","+10","[]","0","2","","","7687","79","5","2","win","no-go","0"
"pit-trial","198","1218627","0.0-84.0","battery-v0.2","","""event"",""trial"",""time""
""fullscreenenter"",""1"",""1848""
","
","
","""event"",""trial"",""time""
""fullscreenenter"",""1"",""1848""
","
","","","596","","","20","7687","3983","s","elianto","#3366ff99"," "," ","1","+10","[1451.2999999970198]","1","2","","","7687","80","4","1","win","go","0"
"pit-trial","199","1223491","0.0-85.0","battery-v0.2","","""event"",""trial"",""time""
""fullscreenenter"",""1"",""1848""
","
","
","""event"",""trial"",""time""
""fullscreenenter"",""1"",""1848""
","
","","","-1","","","20","7687","3983","p","elianto","#3366ff99","-1","-1","1","0","[]","0","2","","","7687","81","5","2","win","no-go","1"
"pit-trial","200","1227747","0.0-86.0","battery-v0.2","","""event"",""trial"",""time""
""fullscreenenter"",""1"",""1848""
","
","
","""event"",""trial"",""time""
""fullscreenenter"",""1"",""1848""
","
","","","1390.7999999970198","","","20","7687","3983","a","elianto","#f73b6a7A","-1"," ","0","-10","[2244.0999999940395]","1","2","","","7687","82","7","4","lose","no-go","0"
"pit-trial","201","1232440","0.0-87.0","battery-v0.2","","""event"",""trial"",""time""
""fullscreenenter"",""1"",""1848""
","
","
","""event"",""trial"",""time""
""fullscreenenter"",""1"",""1848""
","
","","","1821.7000000029802","","","20","7687","3983","w","elianto","#f73b6a7A","-1"," ","0","-10","[2676]","1","2","","","7687","83","3","4","lose","no-go","0"
"pit-trial","202","1236051","0.0-88.0","battery-v0.2","","""event"",""trial"",""time""
""fullscreenenter"",""1"",""1848""
","
","
","""event"",""trial"",""time""
""fullscreenenter"",""1"",""1848""
","
","","","752","","","20","7687","3983","s","elianto","#3366ff99"," "," ","1","+10","[1605.4000000059605]","1","2","","","7687","84","4","1","win","go","0"
"pit-trial","203","1240915","0.0-89.0","battery-v0.2","","""event"",""trial"",""time""
""fullscreenenter"",""1"",""1848""
","
","
","""event"",""trial"",""time""
""fullscreenenter"",""1"",""1848""
","
","","","-1","","","20","7687","3983","a","elianto","#f73b6a7A","-1","-1","1","0","[]","0","2","","","7687","85","7","4","lose","no-go","0"
"pit-trial","204","1245779","0.0-90.0","battery-v0.2","","""event"",""trial"",""time""
""fullscreenenter"",""1"",""1848""
","
","
","""event"",""trial"",""time""
""fullscreenenter"",""1"",""1848""
","
","","","-1","","","20","7687","3983","g","elianto","#f73b6a7A"," ","-1","0","-10","[]","0","2","","","7687","86","6","3","lose","go","0"
"pit-trial","205","1249357","0.0-91.0","battery-v0.2","","""event"",""trial"",""time""
""fullscreenenter"",""1"",""1848""
","
","
","""event"",""trial"",""time""
""fullscreenenter"",""1"",""1848""
","
","","","715.7999999970198","","","20","7687","3983","s","elianto","#3366ff99"," "," ","1","+10","[1570.3999999910593]","1","2","","","7687","87","4","1","win","go","0"
"pit-trial","206","1254226","0.0-92.0","battery-v0.2","","""event"",""trial"",""time""
""fullscreenenter"",""1"",""1848""
","
","
","""event"",""trial"",""time""
""fullscreenenter"",""1"",""1848""
","
","","","-1","","","20","7687","3983","p","elianto","#3366ff99","-1","-1","1","+10","[]","0","2","","","7687","88","5","2","win","no-go","0"
"pit-trial","207","1259090","0.0-93.0","battery-v0.2","","""event"",""trial"",""time""
""fullscreenenter"",""1"",""1848""
","
","
","""event"",""trial"",""time""
""fullscreenenter"",""1"",""1848""
","
","","","-1","","","20","7687","3983","a","elianto","#f73b6a7A","-1","-1","1","0","[3029.6000000089407]","1","2","","","7687","89","7","4","lose","no-go","0"
"pit-trial","208","1262685","0.0-94.0","battery-v0.2","","""event"",""trial"",""time""
""fullscreenenter"",""1"",""1848""
","
","
","""event"",""trial"",""time""
""fullscreenenter"",""1"",""1848""
","
","","","730.2000000029802","","","20","7687","3983","s","elianto","#3366ff99"," "," ","1","+10","[1584.9000000059605]","1","2","","","7687","90","4","1","win","go","0"
"pit-trial","209","1266717","0.0-95.0","battery-v0.2","","""event"",""trial"",""time""
""fullscreenenter"",""1"",""1848""
","
","
","""event"",""trial"",""time""
""fullscreenenter"",""1"",""1848""
","
","","","1161.4000000059605","","","20","7687","3983","g","elianto","#f73b6a7A"," "," ","1","0","[2021.7000000029802]","1","2","","","7687","91","6","3","lose","go","0"
"pit-trial","210","1271586","0.0-96.0","battery-v0.2","","""event"",""trial"",""time""
""fullscreenenter"",""1"",""1848""
","
","
","""event"",""trial"",""time""
""fullscreenenter"",""1"",""1848""
","
","","","-1","","","20","7687","3983","p","elianto","#3366ff99","-1","-1","1","+10","[]","0","2","","","7687","92","5","2","win","no-go","0"
"pit-trial","211","1276205","0.0-97.0","battery-v0.2","","""event"",""trial"",""time""
""fullscreenenter"",""1"",""1848""
","
","
","""event"",""trial"",""time""
""fullscreenenter"",""1"",""1848""
","
","","","1753.7000000029802","","","20","7687","3983","g","elianto","#f73b6a7A"," "," ","1","0","[2607.2000000029802]","1","2","","","7687","93","6","3","lose","go","0"
"pit-trial","212","1281074","0.0-98.0","battery-v0.2","","""event"",""trial"",""time""
""fullscreenenter"",""1"",""1848""
","
","
","""event"",""trial"",""time""
""fullscreenenter"",""1"",""1848""
","
","","","-1","","","20","7687","3983","p","elianto","#3366ff99","-1","-1","1","0","[]","0","2","","","7687","94","5","2","win","no-go","1"
"pit-trial","213","1285938","0.0-99.0","battery-v0.2","","""event"",""trial"",""time""
""fullscreenenter"",""1"",""1848""
","
","
","""event"",""trial"",""time""
""fullscreenenter"",""1"",""1848""
","
","","","-1","","","20","7687","3983","a","elianto","#f73b6a7A","-1","-1","1","-10","[]","0","2","","","7687","95","7","4","lose","no-go","1"
"pit-trial","214","1289714","0.0-100.0","battery-v0.2","","""event"",""trial"",""time""
""fullscreenenter"",""1"",""1848""
","
","
","""event"",""trial"",""time""
""fullscreenenter"",""1"",""1848""
","
","","","915.5999999940395","","","20","7687","3983","l","elianto","#3366ff99"," "," ","1","+10","[1770.0999999940395]","1","2","","","7687","96","8","1","win","go","0"
"pit-trial","215","1293324","0.0-101.0","battery-v0.2","","""event"",""trial"",""time""
""fullscreenenter"",""1"",""1848""
","
","
","""event"",""trial"",""time""
""fullscreenenter"",""1"",""1848""
","
","","","741.8000000119209","","","20","7687","3983","l","elianto","#3366ff99"," "," ","1","+10","[1596.7000000029802]","1","2","","","7687","97","8","1","win","go","0"
"pit-trial","216","1298193","0.0-102.0","battery-v0.2","","""event"",""trial"",""time""
""fullscreenenter"",""1"",""1848""
","
","
","""event"",""trial"",""time""
""fullscreenenter"",""1"",""1848""
","
","","","-1","","","20","7687","3983","p","elianto","#3366ff99","-1","-1","1","+10","[]","0","2","","","7687","98","5","2","win","no-go","0"
"pit-trial","217","1303057","0.0-103.0","battery-v0.2","","""event"",""trial"",""time""
""fullscreenenter"",""1"",""1848""
","
","
","""event"",""trial"",""time""
""fullscreenenter"",""1"",""1848""
","
","","","-1","","","20","7687","3983","a","elianto","#f73b6a7A","-1","-1","1","-10","[2984.8999999910593]","1","2","","","7687","99","7","4","lose","no-go","1"
"pit-trial","218","1307452","0.0-104.0","battery-v0.2","","""event"",""trial"",""time""
""fullscreenenter"",""1"",""1848""
","
","
","""event"",""trial"",""time""
""fullscreenenter"",""1"",""1848""
","
","","","1534.7999999970198","","","20","7687","3983","g","elianto","#f73b6a7A"," "," ","1","0","[2386.5]","1","2","","","7687","100","6","3","lose","go","0"
"pit-trial","219","1311057","0.0-105.0","battery-v0.2","","""event"",""trial"",""time""
""fullscreenenter"",""1"",""1848""
","
","
","""event"",""trial"",""time""
""fullscreenenter"",""1"",""1848""
","
","","","738.2999999970198","","","20","7687","3983","l","elianto","#3366ff99"," "," ","1","+10","[1597.800000011921]","1","2","","","7687","101","8","1","win","go","0"
"pit-trial","220","1315921","0.0-106.0","battery-v0.2","","""event"",""trial"",""time""
""fullscreenenter"",""1"",""1848""
","
","
","""event"",""trial"",""time""
""fullscreenenter"",""1"",""1848""
","
","","","-1","","","20","7687","3983","p","elianto","#3366ff99","-1","-1","1","+10","[]","0","2","","","7687","102","5","2","win","no-go","0"
"pit-trial","221","1320017","0.0-107.0","battery-v0.2","","""event"",""trial"",""time""
""fullscreenenter"",""1"",""1848""
","
","
","""event"",""trial"",""time""
""fullscreenenter"",""1"",""1848""
","
","","","1229.6000000089407","","","20","7687","3983","a","elianto","#f73b6a7A","-1"," ","0","-10","[2083.9000000059605]","1","2","","","7687","103","7","4","lose","no-go","0"
"pit-trial","222","1323771","0.0-108.0","battery-v0.2","","""event"",""trial"",""time""
""fullscreenenter"",""1"",""1848""
","
","
","""event"",""trial"",""time""
""fullscreenenter"",""1"",""1848""
","
","","","891.7000000029802","","","20","7687","3983","u","elianto","#3366ff99"," "," ","1","+10","[1742.7000000029802]","1","2","","","7687","104","9","1","win","go","0"
"pit-trial","223","1327387","0.0-109.0","battery-v0.2","","""event"",""trial"",""time""
""fullscreenenter"",""1"",""1848""
","
","
","""event"",""trial"",""time""
""fullscreenenter"",""1"",""1848""
","
","","","743.7999999970198","","","20","7687","3983","s","elianto","#3366ff99"," "," ","1","+10","[1604.9000000059605]","1","2","","","7687","105","4","1","win","go","0"
"pit-trial","224","1332257","0.0-110.0","battery-v0.2","","""event"",""trial"",""time""
""fullscreenenter"",""1"",""1848""
","
","
","""event"",""trial"",""time""
""fullscreenenter"",""1"",""1848""
","
","","","-1","","","20","7687","3983","g","elianto","#f73b6a7A"," ","-1","0","-10","[]","0","2","","","7687","106","6","3","lose","go","0"
"pit-trial","225","1335968","0.0-111.0","battery-v0.2","","""event"",""trial"",""time""
""fullscreenenter"",""1"",""1848""
","
","
","""event"",""trial"",""time""
""fullscreenenter"",""1"",""1848""
","
","","","848.1000000089407","","","20","7687","3983","u","elianto","#3366ff99"," "," ","1","+10","[1700]","1","2","","","7687","107","9","1","win","go","0"
"pit-trial","226","1339536","0.0-112.0","battery-v0.2","","""event"",""trial"",""time""
""fullscreenenter"",""1"",""1848""
","
","
","""event"",""trial"",""time""
""fullscreenenter"",""1"",""1848""
","
","","","703.9000000059605","","","20","7687","3983","l","elianto","#3366ff99"," "," ","1","+10","[1558.7000000029802]","1","2","","","7687","108","8","1","win","go","0"
"pit-trial","227","1343051","0.0-113.0","battery-v0.2","","""event"",""trial"",""time""
""fullscreenenter"",""1"",""1848""
","
","
","""event"",""trial"",""time""
""fullscreenenter"",""1"",""1848""
","
","","","648.1000000089407","","","20","7687","3983","l","elianto","#3366ff99"," "," ","1","0","[1501.5999999940395]","1","2","","","7687","109","8","1","win","go","1"
"pit-trial","228","1346539","0.0-114.0","battery-v0.2","","""event"",""trial"",""time""
""fullscreenenter"",""1"",""1848""
","
","
","""event"",""trial"",""time""
""fullscreenenter"",""1"",""1848""
","
","","","623.7000000029802","","","20","7687","3983","p","elianto","#3366ff99","-1"," ","0","0","[1474.7000000029802]","1","2","","","7687","110","5","2","win","no-go","0"
"pit-trial","229","1350347","0.0-115.0","battery-v0.2","","""event"",""trial"",""time""
""fullscreenenter"",""1"",""1848""
","
","
","""event"",""trial"",""time""
""fullscreenenter"",""1"",""1848""
","
","","","934.4000000059605","","","20","7687","3983","g","elianto","#f73b6a7A"," "," ","1","0","[1793.8999999910593]","1","2","","","7687","111","6","3","lose","go","0"
"pit-trial","230","1354080","0.0-116.0","battery-v0.2","","""event"",""trial"",""time""
""fullscreenenter"",""1"",""1848""
","
","
","""event"",""trial"",""time""
""fullscreenenter"",""1"",""1848""
","
","","","866.2999999970198","","","20","7687","3983","u","elianto","#3366ff99"," "," ","1","0","[1725.7999999970198]","1","2","","","7687","112","9","1","win","go","1"
"pit-trial","231","1358944","0.0-117.0","battery-v0.2","","""event"",""trial"",""time""
""fullscreenenter"",""1"",""1848""
","
","
","""event"",""trial"",""time""
""fullscreenenter"",""1"",""1848""
","
","","","-1","","","20","7687","3983","p","elianto","#3366ff99","-1","-1","1","+10","[]","0","2","","","7687","113","5","2","win","no-go","0"
"pit-trial","232","1362522","0.0-118.0","battery-v0.2","","""event"",""trial"",""time""
""fullscreenenter"",""1"",""1848""
","
","
","""event"",""trial"",""time""
""fullscreenenter"",""1"",""1848""
","
","","","717.0999999940395","","","20","7687","3983","g","elianto","#f73b6a7A"," "," ","1","-10","[1569.199999988079]","1","2","","","7687","114","6","3","lose","go","1"
"pit-trial","233","1366624","0.0-119.0","battery-v0.2","","""event"",""trial"",""time""
""fullscreenenter"",""1"",""1848""
","
","
","""event"",""trial"",""time""
""fullscreenenter"",""1"",""1848""
","
","","","1233.3999999910593","","","20","7687","3983","u","elianto","#3366ff99"," "," ","1","+10","[2095.5]","1","2","","","7687","115","9","1","win","go","0"
"pit-trial","234","1370394","0.0-120.0","battery-v0.2","","""event"",""trial"",""time""
""fullscreenenter"",""1"",""1848""
","
","
","""event"",""trial"",""time""
""fullscreenenter"",""1"",""1848""
","
","","","904.3000000119209","","","20","7687","3983","l","elianto","#3366ff99"," "," ","1","+10","[1759.0999999940395]","1","2","","","7687","116","8","1","win","go","0"
"pit-trial","235","1374272","0.0-121.0","battery-v0.2","","""event"",""trial"",""time""
""fullscreenenter"",""1"",""1848""
","
","
","""event"",""trial"",""time""
""fullscreenenter"",""1"",""1848""
","
","","","1016.3999999910593","","","20","7687","3983","g","elianto","#f73b6a7A"," "," ","1","0","[1868.7999999970198]","1","2","","","7687","117","6","3","lose","go","0"
"pit-trial","236","1377792","0.0-122.0","battery-v0.2","","""event"",""trial"",""time""
""fullscreenenter"",""1"",""1848""
","
","
","""event"",""trial"",""time""
""fullscreenenter"",""1"",""1848""
","
","","","660.2000000029802","","","20","7687","3983","l","elianto","#3366ff99"," "," ","1","+10","[1515]","1","2","","","7687","118","8","1","win","go","0"
"pit-trial","237","1382655","0.0-123.0","battery-v0.2","","""event"",""trial"",""time""
""fullscreenenter"",""1"",""1848""
","
","
","""event"",""trial"",""time""
""fullscreenenter"",""1"",""1848""
","
","","","-1","","","20","7687","3983","p","elianto","#3366ff99","-1","-1","1","+10","[]","0","2","","","7687","119","5","2","win","no-go","0"
"pit-trial","238","1386719","0.0-124.0","battery-v0.2","","""event"",""trial"",""time""
""fullscreenenter"",""1"",""1848""
","
","
","""event"",""trial"",""time""
""fullscreenenter"",""1"",""1848""
","
","","","1200.7000000029802","","","20","7687","3983","u","elianto","#3366ff99"," "," ","1","0","[2055.2999999970198]","1","2","","","7687","120","9","1","win","go","1"
"pit-trial","239","1390778","0.0-125.0","battery-v0.2","","""event"",""trial"",""time""
""fullscreenenter"",""1"",""1848""
","
","
","""event"",""trial"",""time""
""fullscreenenter"",""1"",""1848""
","
","","","1190.5","","","20","7687","3983","a","elianto","#f73b6a7A","-1"," ","0","-10","[2045.1000000089407]","1","2","","","7687","121","7","4","lose","no-go","0"
"pit-trial","240","1394991","0.0-126.0","battery-v0.2","","""event"",""trial"",""time""
""fullscreenenter"",""1"",""1848""
","
","
","""event"",""trial"",""time""
""fullscreenenter"",""1"",""1848""
","
","","","1349.7000000029802","","","20","7687","3983","u","elianto","#3366ff99"," "," ","1","+10","[2207.7000000029802]","1","2","","","7687","122","9","1","win","go","0"
"pit-trial","241","1398858","0.0-127.0","battery-v0.2","","""event"",""trial"",""time""
""fullscreenenter"",""1"",""1848""
","
","
","""event"",""trial"",""time""
""fullscreenenter"",""1"",""1848""
","
","","","1003","","","20","7687","3983","g","elianto","#f73b6a7A"," "," ","1","0","[1858.5999999940395]","1","2","","","7687","123","6","3","lose","go","0"
"pit-trial","242","1402474","0.0-128.0","battery-v0.2","","""event"",""trial"",""time""
""fullscreenenter"",""1"",""1848""
","
","
","""event"",""trial"",""time""
""fullscreenenter"",""1"",""1848""
","
","","","747.9000000059605","","","20","7687","3983","l","elianto","#3366ff99"," "," ","1","0","[1608]","1","2","","","7687","124","8","1","win","go","1"
"pit-trial","243","1407343","0.0-129.0","battery-v0.2","","""event"",""trial"",""time""
""fullscreenenter"",""1"",""1848""
","
","
","""event"",""trial"",""time""
""fullscreenenter"",""1"",""1848""
","
","","","-1","","","20","7687","3983","a","elianto","#f73b6a7A","-1","-1","1","0","[]","0","2","","","7687","125","7","4","lose","no-go","0"
"pit-trial","244","1411092","0.0-130.0","battery-v0.2","","""event"",""trial"",""time""
""fullscreenenter"",""1"",""1848""
","
","
","""event"",""trial"",""time""
""fullscreenenter"",""1"",""1848""
","
","","","881.9000000059605","","","20","7687","3983","u","elianto","#3366ff99"," "," ","1","+10","[1738.9000000059605]","1","2","","","7687","126","9","1","win","go","0"
"pit-trial","245","1415241","0.0-131.0","battery-v0.2","","""event"",""trial"",""time""
""fullscreenenter"",""1"",""1848""
","
","
","""event"",""trial"",""time""
""fullscreenenter"",""1"",""1848""
","
","","","1277.2000000029802","","","20","7687","3983","g","elianto","#f73b6a7A"," "," ","1","0","[2134.5999999940395]","1","2","","","7687","127","6","3","lose","go","0"
"pit-trial","246","1418847","0.0-132.0","battery-v0.2","","""event"",""trial"",""time""
""fullscreenenter"",""1"",""1848""
","
","
","""event"",""trial"",""time""
""fullscreenenter"",""1"",""1848""
","
","","","734.8000000119209","","","20","7687","3983","l","elianto","#3366ff99"," "," ","1","+10","[1595.300000011921]","1","2","","","7687","128","8","1","win","go","0"
"pit-trial","247","1422553","0.0-133.0","battery-v0.2","","""event"",""trial"",""time""
""fullscreenenter"",""1"",""1848""
","
","
","""event"",""trial"",""time""
""fullscreenenter"",""1"",""1848""
","
","","","839.3000000119209","","","20","7687","3983","g","elianto","#f73b6a7A"," "," ","1","0","[1693.8999999910593]","1","2","","","7687","129","6","3","lose","go","0"
"pit-trial","248","1426089","0.0-134.0","battery-v0.2","","""event"",""trial"",""time""
""fullscreenenter"",""1"",""1848""
","
","
","""event"",""trial"",""time""
""fullscreenenter"",""1"",""1848""
","
","","","676.6999999880791","","","20","7687","3983","l","elianto","#3366ff99"," "," ","1","+10","[1527.5999999940395]","1","2","","","7687","130","8","1","win","go","0"
"pit-trial","249","1429950","0.0-135.0","battery-v0.2","","""event"",""trial"",""time""
""fullscreenenter"",""1"",""1848""
","
","
","""event"",""trial"",""time""
""fullscreenenter"",""1"",""1848""
","
","","","997.7999999970198","","","20","7687","3983","u","elianto","#3366ff99"," "," ","1","+10","[1851]","1","2","","","7687","131","9","1","win","go","0"
"pit-trial","250","1434814","0.0-136.0","battery-v0.2","","""event"",""trial"",""time""
""fullscreenenter"",""1"",""1848""
","
","
","""event"",""trial"",""time""
""fullscreenenter"",""1"",""1848""
","
","","","-1","","","20","7687","3983","a","elianto","#f73b6a7A","-1","-1","1","-10","[]","0","2","","","7687","132","7","4","lose","no-go","1"
"pit-trial","251","1438329","0.0-137.0","battery-v0.2","","""event"",""trial"",""time""
""fullscreenenter"",""1"",""1848""
","
","
","""event"",""trial"",""time""
""fullscreenenter"",""1"",""1848""
","
","","","651.5","","","20","7687","3983","u","elianto","#3366ff99"," "," ","1","0","[1508.8999999910593]","1","2","","","7687","133","9","1","win","go","1"
"pit-trial","252","1441817","0.0-138.0","battery-v0.2","","""event"",""trial"",""time""
""fullscreenenter"",""1"",""1848""
","
","
","""event"",""trial"",""time""
""fullscreenenter"",""1"",""1848""
","
","","","612.9000000059605","","","20","7687","3983","l","elianto","#3366ff99"," "," ","1","+10","[1475]","1","2","","","7687","134","8","1","win","go","0"
"pit-trial","253","1446686","0.0-139.0","battery-v0.2","","""event"",""trial"",""time""
""fullscreenenter"",""1"",""1848""
","
","
","""event"",""trial"",""time""
""fullscreenenter"",""1"",""1848""
","
","","","-1","","","20","7687","3983","g","elianto","#f73b6a7A"," ","-1","0","-10","[]","0","2","","","7687","135","6","3","lose","go","0"
"pit-trial","254","1450295","0.0-140.0","battery-v0.2","","""event"",""trial"",""time""
""fullscreenenter"",""1"",""1848""
","
","
","""event"",""trial"",""time""
""fullscreenenter"",""1"",""1848""
","
","","","748.2999999970198","","","20","7687","3983","a","elianto","#f73b6a7A","-1"," ","0","-10","[1603.2999999970198]","1","2","","","7687","136","7","4","lose","no-go","0"
"pit-trial","255","1454072","0.0-141.0","battery-v0.2","","""event"",""trial"",""time""
""fullscreenenter"",""1"",""1848""
","
","
","""event"",""trial"",""time""
""fullscreenenter"",""1"",""1848""
","
","","","914.3999999910593","","","20","7687","3983","g","elianto","#f73b6a7A"," "," ","1","0","[1767.5]","1","2","","","7687","137","6","3","lose","go","0"
"pit-trial","256","1457774","0.0-142.0","battery-v0.2","","""event"",""trial"",""time""
""fullscreenenter"",""1"",""1848""
","
","
","""event"",""trial"",""time""
""fullscreenenter"",""1"",""1848""
","
","","","838.5999999940395","","","20","7687","3983","l","elianto","#3366ff99"," "," ","1","+10","[1690.7000000029802]","1","2","","","7687","138","8","1","win","go","0"
"pit-trial","257","1461518","0.0-143.0","battery-v0.2","","""event"",""trial"",""time""
""fullscreenenter"",""1"",""1848""
","
","
","""event"",""trial"",""time""
""fullscreenenter"",""1"",""1848""
","
","","","880","","","20","7687","3983","a","elianto","#f73b6a7A","-1"," ","0","-10","[1734.9000000059605]","1","2","","","7687","139","7","4","lose","no-go","0"
"pit-trial","258","1465112","0.0-144.0","battery-v0.2","","""event"",""trial"",""time""
""fullscreenenter"",""1"",""1848""
","
","
","""event"",""trial"",""time""
""fullscreenenter"",""1"",""1848""
","
","","","725.5","","","20","7687","3983","u","elianto","#3366ff99"," "," ","1","0","[1582.2000000029802]","1","2","","","7687","140","9","1","win","go","1"
"pit-instructions","259","1545760","0.0-145.0","battery-v0.2","","""event"",""trial"",""time""
""fullscreenenter"",""1"",""1848""
","
","
","""event"",""trial"",""time""
""fullscreenenter"",""1"",""1848""
","
","","[{""page_index"":0,""viewing_time"":72528.5},{""page_index"":1,""viewing_time"":8117.100000008941}]","80646.20000000298","","","","","","","","","","","","","","","","","","","","","","","",""
"pit-trial","260","1549460","0.0-146.0","battery-v0.2","","""event"",""trial"",""time""
""fullscreenenter"",""1"",""1848""
","
","
","""event"",""trial"",""time""
""fullscreenenter"",""1"",""1848""
","
","","","832.3999999910593","","","20","7687","3983","f","elianto","#3366ff99"," "," ","1","+10","[1687.9000000059605]","1","3","","","7687","141","1","1","win","go","0"
"pit-trial","261","1553376","0.0-147.0","battery-v0.2","","""event"",""trial"",""time""
""fullscreenenter"",""1"",""1848""
","
","
","""event"",""trial"",""time""
""fullscreenenter"",""1"",""1848""
","
","","","1047.4000000059605","","","20","7687","3983","t","elianto","#f73b6a7A","-1"," ","0","-10","[1903.1000000089407]","1","3","","","7687","142","2","4","lose","no-go","0"
"pit-trial","262","1557259","0.0-148.0","battery-v0.2","","""event"",""trial"",""time""
""fullscreenenter"",""1"",""1848""
","
","
","""event"",""trial"",""time""
""fullscreenenter"",""1"",""1848""
","
","","","1022.9000000059605","","","20","7687","3983","b","elianto","#f73b6a7A"," "," ","1","0","[1875.9000000059605]","1","3","","","7687","143","3","3","lose","go","0"
"pit-trial","263","1561188","0.0-149.0","battery-v0.2","","""event"",""trial"",""time""
""fullscreenenter"",""1"",""1848""
","
","
","""event"",""trial"",""time""
""fullscreenenter"",""1"",""1848""
","
","","","1063.9000000059605","","","20","7687","3983","n","elianto","#f73b6a7A","-1"," ","0","-10","[1920.7000000029802]","1","3","","","7687","144","0","4","lose","no-go","0"
"pit-trial","264","1564680","0.0-150.0","battery-v0.2","","""event"",""trial"",""time""
""fullscreenenter"",""1"",""1848""
","
","
","""event"",""trial"",""time""
""fullscreenenter"",""1"",""1848""
","
","","","623.5999999940395","","","20","7687","3983","f","elianto","#3366ff99"," "," ","1","+10","[1477]","1","3","","","7687","145","1","1","win","go","0"
"pit-trial","265","1569176","0.0-151.0","battery-v0.2","","""event"",""trial"",""time""
""fullscreenenter"",""1"",""1848""
","
","
","""event"",""trial"",""time""
""fullscreenenter"",""1"",""1848""
","
","","","1621.7000000029802","","","20","7687","3983","b","elianto","#f73b6a7A"," "," ","1","0","[2480.2000000029802]","1","3","","","7687","146","3","3","lose","go","0"
"pit-trial","266","1574048","0.0-152.0","battery-v0.2","","""event"",""trial"",""time""
""fullscreenenter"",""1"",""1848""
","
","
","""event"",""trial"",""time""
""fullscreenenter"",""1"",""1848""
","
","","","-1","","","20","7687","3983","n","elianto","#f73b6a7A","-1","-1","1","-10","[]","0","3","","","7687","147","0","4","lose","no-go","1"
