"trial_type","trial_index","time_elapsed","internal_node_id","task_version","subject_id","interactions","blur_events","focus_events","fullscreenenter_events","fullscreenexit_events","success","view_history","rt","responses","num_errors","age","subject","participantId","rune","rune_set","hex","correct","choice","accuracy","outcome","keys","total_keys","block","practice","value","sub","trial","stimulus","robot","valence","action","sham"
"pavlovia","0","8","0.0-0.0","battery-v0.2","","""event"",""trial"",""time""
""fullscreenenter"",""1"",""2502""
","
","
","""event"",""trial"",""time""
""fullscreenenter"",""1"",""2502""
","
","","","","","","","","","","","","","","","","","","","","","","","","","","",""
"fullscreen","1","3488","0.0-1.0","battery-v0.2","","""event"",""trial"",""time""
""fullscreenenter"",""1"",""2502""
","
","
","""event"",""trial"",""time""
""fullscreenenter"",""1"",""2502""
","
","true","","","","","","","","","","","","","","","","","","","","","","","","","",""
"pit-instructions","2","10436","0.0-2.0-0.0","battery-v0.2","","""event"",""trial"",""time""
""fullscreenenter"",""1"",""2502""
","
","
","""event"",""trial"",""time""
""fullscreenenter"",""1"",""2502""
","
","","[{""page_index"":0,""viewing_time"":6944.799999952316}]","6945.5","","","","","","","","","","","","","","","","","","","","","","","",""
"pit-comprehension","3","14518","0.0-2.0-1.0-0.0","battery-v0.2","","""event"",""trial"",""time""
""fullscreenenter"",""1"",""2502""
","
","
","""event"",""trial"",""time""
""fullscreenenter"",""1"",""2502""
","
","","","4078.900000035763","[""shark""]","0","15","3983","928","","","","","","","","","","","","","","","","","","",""
"pit-instructions","4","15612","0.0-2.0-1.0-1.0","battery-v0.2","","""event"",""trial"",""time""
""fullscreenenter"",""1"",""2502""
","
","
","""event"",""trial"",""time""
""fullscreenenter"",""1"",""2502""
","
","","[{""page_index"":0,""viewing_time"":1084.699999988079}]","1084.7999999523163","","","","","","","","","","","","","","","","","","","","","","","",""
"pit-comprehension","5","18052","0.0-2.0-2.0-0.0","battery-v0.2","","""event"",""trial"",""time""
""fullscreenenter"",""1"",""2502""
","
","
","""event"",""trial"",""time""
""fullscreenenter"",""1"",""2502""
","
","","","2438.5","[""tiger""]","0","15","3983","928","","","","","","","","","","","","","","","","","","",""
"pit-instructions","6","18860","0.0-2.0-2.0-1.0","battery-v0.2","","""event"",""trial"",""time""
""fullscreenenter"",""1"",""2502""
","
","
","""event"",""trial"",""time""
""fullscreenenter"",""1"",""2502""
","
","","[{""page_index"":0,""viewing_time"":805.3000000119209}]","805.5","","","","","","","","","","","","","","","","","","","","","","","",""
"pit-instructions","7","110091","0.0-2.0-3.0","battery-v0.2","","""event"",""trial"",""time""
""fullscreenenter"",""1"",""2502""
","
","
","""event"",""trial"",""time""
""fullscreenenter"",""1"",""2502""
","
","","[{""page_index"":0,""viewing_time"":7894.300000011921},{""page_index"":1,""viewing_time"":5576},{""page_index"":2,""viewing_time"":6655.799999952316},{""page_index"":3,""viewing_time"":6264.300000011921},{""page_index"":4,""viewing_time"":5056.199999988079},{""page_index"":5,""viewing_time"":5127.700000047684},{""page_index"":6,""viewing_time"":6912.5},{""page_index"":7,""viewing_time"":6351.399999976158},{""page_index"":8,""viewing_time"":6816},{""page_index"":9,""viewing_time"":7647.800000011921},{""page_index"":10,""viewing_time"":8688.399999976158},{""page_index"":11,""viewing_time"":7120.199999988079},{""page_index"":12,""viewing_time"":6559.800000011921},{""page_index"":13,""viewing_time"":4559.900000035763}]","91230.69999998808","","","","","","","","","","","","","","","","","","","","","","","",""
"pit-trial","8","113614","0.0-2.0-4.0-0.0","battery-v0.2","","""event"",""trial"",""time""
""fullscreenenter"",""1"",""2502""
","
","
","""event"",""trial"",""time""
""fullscreenenter"",""1"",""2502""
","
","","","657","","","15","3983","928","&#9784;","elianto","#FFFFF080"," "," ","1","&#10004","[1511.800000011921]","1","0","0","","","","","","","",""
"pit-trial","9","117090","0.0-2.0-4.1-0.1","battery-v0.2","","""event"",""trial"",""time""
""fullscreenenter"",""1"",""2502""
","
","
","""event"",""trial"",""time""
""fullscreenenter"",""1"",""2502""
","
","","","609.3000000119209","","","15","3983","928","&#9784;","elianto","#FFFFF080"," "," ","1","&#10004","[1459.699999988079]","1","0","0","","","","","","","",""
"pit-trial","10","120680","0.0-2.0-4.2-0.2","battery-v0.2","","""event"",""trial"",""time""
""fullscreenenter"",""1"",""2502""
","
","
","""event"",""trial"",""time""
""fullscreenenter"",""1"",""2502""
","
","","","720.3999999761581","","","15","3983","928","&#9784;","elianto","#FFFFF080"," "," ","1","&#10004","[1573.8999999761581]","1","0","0","","","","","","","",""
"pit-trial","11","124160","0.0-2.0-4.3-0.3","battery-v0.2","","""event"",""trial"",""time""
""fullscreenenter"",""1"",""2502""
","
","
","""event"",""trial"",""time""
""fullscreenenter"",""1"",""2502""
","
","","","609.1000000238419","","","15","3983","928","&#9784;","elianto","#FFFFF080"," "," ","1","&#10004","[1459.0999999642372]","1","0","0","","","","","","","",""
"pit-trial","12","127600","0.0-2.0-4.4-0.4","battery-v0.2","","""event"",""trial"",""time""
""fullscreenenter"",""1"",""2502""
","
","
","""event"",""trial"",""time""
""fullscreenenter"",""1"",""2502""
","
","","","574.8000000119209","","","15","3983","928","&#9784;","elianto","#FFFFF080"," "," ","1","&#10004","[1425.2000000476837]","1","0","0","","","","","","","",""
"pit-instructions","13","147851","0.0-2.0-5.0","battery-v0.2","","""event"",""trial"",""time""
""fullscreenenter"",""1"",""2502""
","
","
","""event"",""trial"",""time""
""fullscreenenter"",""1"",""2502""
","
","","[{""page_index"":0,""viewing_time"":4558.800000011921},{""page_index"":1,""viewing_time"":6136},{""page_index"":2,""viewing_time"":4208.099999964237},{""page_index"":3,""viewing_time"":5343.900000035763}]","20247.100000023842","","","","","","","","","","","","","","","","","","","","","","","",""
"pit-trial","14","152719","0.0-2.0-6.0-0.0","battery-v0.2","","""event"",""trial"",""time""
""fullscreenenter"",""1"",""2502""
","
","
","""event"",""trial"",""time""
""fullscreenenter"",""1"",""2502""
","
","","","-1","","","15","3983","928","&#9854;","elianto","#FFFFF080","-1","-1","1","&#10004","[]","0","0","1","","","","","","","",""
"pit-trial","15","157609","0.0-2.0-6.1-0.1","battery-v0.2","","""event"",""trial"",""time""
""fullscreenenter"",""1"",""2502""
","
","
","""event"",""trial"",""time""
""fullscreenenter"",""1"",""2502""
","
","","","-1","","","15","3983","928","&#9854;","elianto","#FFFFF080","-1","-1","1","&#10004","[]","0","0","1","","","","","","","",""
"pit-trial","16","162490","0.0-2.0-6.2-0.2","battery-v0.2","","""event"",""trial"",""time""
""fullscreenenter"",""1"",""2502""
","
","
","""event"",""trial"",""time""
""fullscreenenter"",""1"",""2502""
","
","","","-1","","","15","3983","928","&#9854;","elianto","#FFFFF080","-1","-1","1","&#10004","[]","0","0","1","","","","","","","",""
"pit-trial","17","167379","0.0-2.0-6.3-0.3","battery-v0.2","","""event"",""trial"",""time""
""fullscreenenter"",""1"",""2502""
","
","
","""event"",""trial"",""time""
""fullscreenenter"",""1"",""2502""
","
","","","-1","","","15","3983","928","&#9854;","elianto","#FFFFF080","-1","-1","1","&#10004","[]","0","0","1","","","","","","","",""
"pit-trial","18","172269","0.0-2.0-6.4-0.4","battery-v0.2","","""event"",""trial"",""time""
""fullscreenenter"",""1"",""2502""
","
","
","""event"",""trial"",""time""
""fullscreenenter"",""1"",""2502""
","
","","","-1","","","15","3983","928","&#9854;","elianto","#FFFFF080","-1","-1","1","&#10004","[]","0","0","1","","","","","","","",""
"pit-instructions","19","282971","0.0-2.0-7.0","battery-v0.2","","""event"",""trial"",""time""
""fullscreenenter"",""1"",""2502""
","
","
","""event"",""trial"",""time""
""fullscreenenter"",""1"",""2502""
","
","","[{""page_index"":0,""viewing_time"":5377.100000023842},{""page_index"":1,""viewing_time"":6063.899999976158},{""page_index"":2,""viewing_time"":5047.600000023842},{""page_index"":3,""viewing_time"":5400.300000011921},{""page_index"":4,""viewing_time"":6864.099999964237},{""page_index"":5,""viewing_time"":5192.600000023842},{""page_index"":6,""viewing_time"":4055.399999976158},{""page_index"":7,""viewing_time"":8791.900000035763},{""page_index"":8,""viewing_time"":8272.699999988079},{""page_index"":9,""viewing_time"":5631},{""page_index"":10,""viewing_time"":6056.399999976158},{""page_index"":11,""viewing_time"":4616},{""page_index"":12,""viewing_time"":6951.900000035763},{""page_index"":13,""viewing_time"":6815.699999988079},{""page_index"":14,""viewing_time"":6576.300000011921},{""page_index"":15,""viewing_time"":6336},{""page_index"":16,""viewing_time"":6063.899999976158},{""page_index"":17,""viewing_time"":6584}]","110697.10000002384","","","","","","","","","","","","","","","","","","","","","","","",""
"pit-trial","20","286490","0.0-2.0-8.0-0.0","battery-v0.2","","""event"",""trial"",""time""
""fullscreenenter"",""1"",""2502""
","
","
","""event"",""trial"",""time""
""fullscreenenter"",""1"",""2502""
","
","","","647.4000000357628","","","15","3983","928","&#9776;","elianto","#3366ff99"," "," ","1","+10","[1504.3999999761581]","1","0","1","","","","","","","",""
"pit-trial","21","289809","0.0-2.0-8.0-1.0","battery-v0.2","","""event"",""trial"",""time""
""fullscreenenter"",""1"",""2502""
","
","
","""event"",""trial"",""time""
""fullscreenenter"",""1"",""2502""
","
","","","449.19999998807907","","","15","3983","928","&#9776;","elianto","#3366ff99"," "," ","1","+10","[1304.0999999642372]","1","0","1","","","","","","","",""
"pit-trial","22","293159","0.0-2.0-8.0-2.0","battery-v0.2","","""event"",""trial"",""time""
""fullscreenenter"",""1"",""2502""
","
","
","""event"",""trial"",""time""
""fullscreenenter"",""1"",""2502""
","
","","","468.0999999642372","","","15","3983","928","&#9776;","elianto","#3366ff99"," "," ","1","+10","[1322.0999999642372]","1","0","1","","","","","","","",""
"pit-trial","23","296499","0.0-2.0-8.0-3.0","battery-v0.2","","""event"",""trial"",""time""
""fullscreenenter"",""1"",""2502""
","
","
","""event"",""trial"",""time""
""fullscreenenter"",""1"",""2502""
","
","","","470.80000001192093","","","15","3983","928","&#9776;","elianto","#3366ff99"," "," ","1","0","[1323.6000000238419]","1","0","1","","","","","","","",""
"pit-trial","24","299709","0.0-2.0-8.0-4.0","battery-v0.2","","""event"",""trial"",""time""
""fullscreenenter"",""1"",""2502""
","
","
","""event"",""trial"",""time""
""fullscreenenter"",""1"",""2502""
","
","","","342.19999998807907","","","15","3983","928","&#9776;","elianto","#3366ff99"," "," ","1","+10","[1198]","1","0","1","","","","","","","",""
"pit-trial","25","303059","0.0-2.0-8.1-0.1","battery-v0.2","","""event"",""trial"",""time""
""fullscreenenter"",""1"",""2502""
","
","
","""event"",""trial"",""time""
""fullscreenenter"",""1"",""2502""
","
","","","488","","","15","3983","928","&#9776;","elianto","#3366ff99"," "," ","1","+10","[1341.699999988079]","1","0","1","","","","","","","",""
"pit-trial","26","306489","0.0-2.0-8.1-1.1","battery-v0.2","","""event"",""trial"",""time""
""fullscreenenter"",""1"",""2502""
","
","
","""event"",""trial"",""time""
""fullscreenenter"",""1"",""2502""
","
","","","554.8000000119209","","","15","3983","928","&#9776;","elianto","#3366ff99"," "," ","1","+10","[1407.6000000238419]","1","0","1","","","","","","","",""
"pit-trial","27","310729","0.0-2.0-8.1-2.1","battery-v0.2","","""event"",""trial"",""time""
""fullscreenenter"",""1"",""2502""
","
","
","""event"",""trial"",""time""
""fullscreenenter"",""1"",""2502""
","
","","","1361.3999999761581","","","15","3983","928","&#9776;","elianto","#3366ff99"," "," ","1","+10","[2217.100000023842]","1","0","1","","","","","","","",""
"pit-trial","28","314326","0.0-2.0-8.1-3.1","battery-v0.2","","""event"",""trial"",""time""
""fullscreenenter"",""1"",""2502""
","
","
","""event"",""trial"",""time""
""fullscreenenter"",""1"",""2502""
","
","","","740.1999999880791","","","15","3983","928","&#9776;","elianto","#3366ff99"," "," ","1","0","[1591.199999988079]","1","0","1","","","","","","","",""
"pit-trial","29","317598","0.0-2.0-8.1-4.1","battery-v0.2","","""event"",""trial"",""time""
""fullscreenenter"",""1"",""2502""
","
","
","""event"",""trial"",""time""
""fullscreenenter"",""1"",""2502""
","
","","","415.4000000357628","","","15","3983","928","&#9776;","elianto","#3366ff99"," "," ","1","+10","[1268.1000000238419]","1","0","1","","","","","","","",""
"pit-trial","30","321054","0.0-2.0-8.2-0.2","battery-v0.2","","""event"",""trial"",""time""
""fullscreenenter"",""1"",""2502""
","
","
","""event"",""trial"",""time""
""fullscreenenter"",""1"",""2502""
","
","","","590.3000000119209","","","15","3983","928","&#9776;","elianto","#3366ff99"," "," ","1","+10","[1443.800000011921]","1","0","1","","","","","","","",""
"pit-trial","31","324350","0.0-2.0-8.2-1.2","battery-v0.2","","""event"",""trial"",""time""
""fullscreenenter"",""1"",""2502""
","
","
","""event"",""trial"",""time""
""fullscreenenter"",""1"",""2502""
","
","","","432.10000002384186","","","15","3983","928","&#9776;","elianto","#3366ff99"," "," ","1","+10","[1285.300000011921]","1","0","1","","","","","","","",""
"pit-trial","32","327599","0.0-2.0-8.2-2.2","battery-v0.2","","""event"",""trial"",""time""
""fullscreenenter"",""1"",""2502""
","
","
","""event"",""trial"",""time""
""fullscreenenter"",""1"",""2502""
","
","","","383.5","","","15","3983","928","&#9776;","elianto","#3366ff99"," "," ","1","+10","[1236.699999988079]","1","0","1","","","","","","","",""
"pit-trial","33","330853","0.0-2.0-8.2-3.2","battery-v0.2","","""event"",""trial"",""time""
""fullscreenenter"",""1"",""2502""
","
","
","""event"",""trial"",""time""
""fullscreenenter"",""1"",""2502""
","
","","","398.2000000476837","","","15","3983","928","&#9776;","elianto","#3366ff99"," "," ","1","0","[1249.300000011921]","1","0","1","","","","","","","",""
"pit-trial","34","334262","0.0-2.0-8.2-4.2","battery-v0.2","","""event"",""trial"",""time""
""fullscreenenter"",""1"",""2502""
","
","
","""event"",""trial"",""time""
""fullscreenenter"",""1"",""2502""
","
","","","549.9000000357628","","","15","3983","928","&#9776;","elianto","#3366ff99"," "," ","1","+10","[1403.6000000238419]","1","0","1","","","","","","","",""
"call-function","35","334265","0.0-2.0-9.0","battery-v0.2","","""event"",""trial"",""time""
""fullscreenenter"",""1"",""2502""
","
","
","""event"",""trial"",""time""
""fullscreenenter"",""1"",""2502""
","
","","","","","","","","","","","","","","","","","","","","","","","","","","",""
"pit-instructions","36","373659","0.0-2.0-10.0","battery-v0.2","","""event"",""trial"",""time""
""fullscreenenter"",""1"",""2502""
","
","
","""event"",""trial"",""time""
""fullscreenenter"",""1"",""2502""
","
","","[{""page_index"":0,""viewing_time"":5553.699999988079},{""page_index"":1,""viewing_time"":6423.099999964237},{""page_index"":2,""viewing_time"":9096},{""page_index"":3,""viewing_time"":11279.700000047684},{""page_index"":4,""viewing_time"":7040.399999976158}]","39393.09999996424","","","","","","","","","","","","","","","","","","","","","","","",""
"pit-trial","37","377113","0.0-2.0-11.0-0.0","battery-v0.2","","""event"",""trial"",""time""
""fullscreenenter"",""1"",""2502""
","
","
","""event"",""trial"",""time""
""fullscreenenter"",""1"",""2502""
","
","","","578.4000000357628","","","15","3983","928","&#9761;","elianto","#3366ff99","-1"," ","0","0","[1432.300000011921]","1","0","2","","","","","","","",""
"pit-trial","38","381993","0.0-2.0-11.0-1.0","battery-v0.2","","""event"",""trial"",""time""
""fullscreenenter"",""1"",""2502""
","
","
","""event"",""trial"",""time""
""fullscreenenter"",""1"",""2502""
","
","","","-1","","","15","3983","928","&#9761;","elianto","#3366ff99","-1","-1","1","+10","[]","0","0","2","","","","","","","",""
"pit-trial","39","386883","0.0-2.0-11.0-2.0","battery-v0.2","","""event"",""trial"",""time""
""fullscreenenter"",""1"",""2502""
","
","
","""event"",""trial"",""time""
""fullscreenenter"",""1"",""2502""
","
","","","-1","","","15","3983","928","&#9761;","elianto","#3366ff99","-1","-1","1","+10","[]","0","0","2","","","","","","","",""
"pit-trial","40","391763","0.0-2.0-11.0-3.0","battery-v0.2","","""event"",""trial"",""time""
""fullscreenenter"",""1"",""2502""
","
","
","""event"",""trial"",""time""
""fullscreenenter"",""1"",""2502""
","
","","","-1","","","15","3983","928","&#9761;","elianto","#3366ff99","-1","-1","1","0","[]","0","0","2","","","","","","","",""
"pit-trial","41","396653","0.0-2.0-11.0-4.0","battery-v0.2","","""event"",""trial"",""time""
""fullscreenenter"",""1"",""2502""
","
","
","""event"",""trial"",""time""
""fullscreenenter"",""1"",""2502""
","
","","","-1","","","15","3983","928","&#9761;","elianto","#3366ff99","-1","-1","1","+10","[]","0","0","2","","","","","","","",""
"pit-trial","42","401542","0.0-2.0-11.1-0.1","battery-v0.2","","""event"",""trial"",""time""
""fullscreenenter"",""1"",""2502""
","
","
","""event"",""trial"",""time""
""fullscreenenter"",""1"",""2502""
","
","","","-1","","","15","3983","928","&#9761;","elianto","#3366ff99","-1","-1","1","+10","[]","0","0","2","","","","","","","",""
"pit-trial","43","406405","0.0-2.0-11.1-1.1","battery-v0.2","","""event"",""trial"",""time""
""fullscreenenter"",""1"",""2502""
","
","
","""event"",""trial"",""time""
""fullscreenenter"",""1"",""2502""
","
","","","-1","","","15","3983","928","&#9761;","elianto","#3366ff99","-1","-1","1","+10","[]","0","0","2","","","","","","","",""
"pit-trial","44","411277","0.0-2.0-11.1-2.1","battery-v0.2","","""event"",""trial"",""time""
""fullscreenenter"",""1"",""2502""
","
","
","""event"",""trial"",""time""
""fullscreenenter"",""1"",""2502""
","
","","","-1","","","15","3983","928","&#9761;","elianto","#3366ff99","-1","-1","1","+10","[]","0","0","2","","","","","","","",""
"pit-trial","45","416141","0.0-2.0-11.1-3.1","battery-v0.2","","""event"",""trial"",""time""
""fullscreenenter"",""1"",""2502""
","
","
","""event"",""trial"",""time""
""fullscreenenter"",""1"",""2502""
","
","","","-1","","","15","3983","928","&#9761;","elianto","#3366ff99","-1","-1","1","0","[]","0","0","2","","","","","","","",""
"pit-trial","46","421005","0.0-2.0-11.1-4.1","battery-v0.2","","""event"",""trial"",""time""
""fullscreenenter"",""1"",""2502""
","
","
","""event"",""trial"",""time""
""fullscreenenter"",""1"",""2502""
","
","","","-1","","","15","3983","928","&#9761;","elianto","#3366ff99","-1","-1","1","+10","[]","0","0","2","","","","","","","",""
"pit-trial","47","425870","0.0-2.0-11.2-0.2","battery-v0.2","","""event"",""trial"",""time""
""fullscreenenter"",""1"",""2502""
","
","
","""event"",""trial"",""time""
""fullscreenenter"",""1"",""2502""
","
","","","-1","","","15","3983","928","&#9761;","elianto","#3366ff99","-1","-1","1","+10","[]","0","0","2","","","","","","","",""
"pit-trial","48","430733","0.0-2.0-11.2-1.2","battery-v0.2","","""event"",""trial"",""time""
""fullscreenenter"",""1"",""2502""
","
","
","""event"",""trial"",""time""
""fullscreenenter"",""1"",""2502""
","
","","","-1","","","15","3983","928","&#9761;","elianto","#3366ff99","-1","-1","1","+10","[]","0","0","2","","","","","","","",""
"pit-trial","49","435598","0.0-2.0-11.2-2.2","battery-v0.2","","""event"",""trial"",""time""
""fullscreenenter"",""1"",""2502""
","
","
","""event"",""trial"",""time""
""fullscreenenter"",""1"",""2502""
","
","","","-1","","","15","3983","928","&#9761;","elianto","#3366ff99","-1","-1","1","+10","[]","0","0","2","","","","","","","",""
"pit-trial","50","440462","0.0-2.0-11.2-3.2","battery-v0.2","","""event"",""trial"",""time""
""fullscreenenter"",""1"",""2502""
","
","
","""event"",""trial"",""time""
""fullscreenenter"",""1"",""2502""
","
","","","-1","","","15","3983","928","&#9761;","elianto","#3366ff99","-1","-1","1","0","[]","0","0","2","","","","","","","",""
"pit-trial","51","445327","0.0-2.0-11.2-4.2","battery-v0.2","","""event"",""trial"",""time""
""fullscreenenter"",""1"",""2502""
","
","
","""event"",""trial"",""time""
""fullscreenenter"",""1"",""2502""
","
","","","-1","","","15","3983","928","&#9761;","elianto","#3366ff99","-1","-1","1","+10","[]","0","0","2","","","","","","","",""
"pit-trial","52","450197","0.0-2.0-11.3-0.3","battery-v0.2","","""event"",""trial"",""time""
""fullscreenenter"",""1"",""2502""
","
","
","""event"",""trial"",""time""
""fullscreenenter"",""1"",""2502""
","
","","","-1","","","15","3983","928","&#9761;","elianto","#3366ff99","-1","-1","1","+10","[]","0","0","2","","","","","","","",""
"pit-trial","53","455061","0.0-2.0-11.3-1.3","battery-v0.2","","""event"",""trial"",""time""
""fullscreenenter"",""1"",""2502""
","
","
","""event"",""trial"",""time""
""fullscreenenter"",""1"",""2502""
","
","","","-1","","","15","3983","928","&#9761;","elianto","#3366ff99","-1","-1","1","+10","[]","0","0","2","","","","","","","",""
"pit-trial","54","459927","0.0-2.0-11.3-2.3","battery-v0.2","","""event"",""trial"",""time""
""fullscreenenter"",""1"",""2502""
","
","
","""event"",""trial"",""time""
""fullscreenenter"",""1"",""2502""
","
","","","-1","","","15","3983","928","&#9761;","elianto","#3366ff99","-1","-1","1","+10","[]","0","0","2","","","","","","","",""
"pit-trial","55","464789","0.0-2.0-11.3-3.3","battery-v0.2","","""event"",""trial"",""time""
""fullscreenenter"",""1"",""2502""
","
","
","""event"",""trial"",""time""
""fullscreenenter"",""1"",""2502""
","
","","","-1","","","15","3983","928","&#9761;","elianto","#3366ff99","-1","-1","1","0","[]","0","0","2","","","","","","","",""
"pit-trial","56","469654","0.0-2.0-11.3-4.3","battery-v0.2","","""event"",""trial"",""time""
""fullscreenenter"",""1"",""2502""
","
","
","""event"",""trial"",""time""
""fullscreenenter"",""1"",""2502""
","
","","","-1","","","15","3983","928","&#9761;","elianto","#3366ff99","-1","-1","1","+10","[]","0","0","2","","","","","","","",""
"call-function","57","469657","0.0-2.0-12.0","battery-v0.2","","""event"",""trial"",""time""
""fullscreenenter"",""1"",""2502""
","
","
","""event"",""trial"",""time""
""fullscreenenter"",""1"",""2502""
","
","","","","","","","","","","","","","","","","","","","","","","","","","","",""
"pit-instructions","58","501675","0.0-2.0-13.0","battery-v0.2","","""event"",""trial"",""time""
""fullscreenenter"",""1"",""2502""
","
","
","""event"",""trial"",""time""
""fullscreenenter"",""1"",""2502""
","
","","[{""page_index"":0,""viewing_time"":5008.800000011921},{""page_index"":1,""viewing_time"":8233},{""page_index"":2,""viewing_time"":3655.399999976158},{""page_index"":3,""viewing_time"":10063.800000011921},{""page_index"":4,""viewing_time"":5056.199999988079}]","32017.5","","","","","","","","","","","","","","","","","","","","","","","",""
"pit-trial","59","506556","0.0-2.0-14.0-0.0","battery-v0.2","","""event"",""trial"",""time""
""fullscreenenter"",""1"",""2502""
","
","
","""event"",""trial"",""time""
""fullscreenenter"",""1"",""2502""
","
","","","-1","","","15","3983","928","&#9826;","elianto","#f73b6a7A","-1","-1","1","0","[]","0","0","3","","","","","","","",""
"pit-trial","60","511425","0.0-2.0-14.0-1.0","battery-v0.2","","""event"",""trial"",""time""
""fullscreenenter"",""1"",""2502""
","
","
","""event"",""trial"",""time""
""fullscreenenter"",""1"",""2502""
","
","","","-1","","","15","3983","928","&#9826;","elianto","#f73b6a7A","-1","-1","1","0","[]","0","0","3","","","","","","","",""
"pit-trial","61","516296","0.0-2.0-14.0-2.0","battery-v0.2","","""event"",""trial"",""time""
""fullscreenenter"",""1"",""2502""
","
","
","""event"",""trial"",""time""
""fullscreenenter"",""1"",""2502""
","
","","","-1","","","15","3983","928","&#9826;","elianto","#f73b6a7A","-1","-1","1","0","[]","0","0","3","","","","","","","",""
"pit-trial","62","519566","0.0-2.0-14.0-3.0","battery-v0.2","","""event"",""trial"",""time""
""fullscreenenter"",""1"",""2502""
","
","
","""event"",""trial"",""time""
""fullscreenenter"",""1"",""2502""
","
","","","399.39999997615814","","","15","3983","928","&#9826;","elianto","#f73b6a7A","-1"," ","0","0","[1250.4000000357628,2202.100000023842,2537.400000035763]","3","0","3","","","","","","","",""
"pit-trial","63","524456","0.0-2.0-14.0-4.0","battery-v0.2","","""event"",""trial"",""time""
""fullscreenenter"",""1"",""2502""
","
","
","""event"",""trial"",""time""
""fullscreenenter"",""1"",""2502""
","
","","","-1","","","15","3983","928","&#9826;","elianto","#f73b6a7A","-1","-1","1","0","[]","0","0","3","","","","","","","",""
"pit-trial","64","529336","0.0-2.0-14.1-0.1","battery-v0.2","","""event"",""trial"",""time""
""fullscreenenter"",""1"",""2502""
","
","
","""event"",""trial"",""time""
""fullscreenenter"",""1"",""2502""
","
","","","-1","","","15","3983","928","&#9826;","elianto","#f73b6a7A","-1","-1","1","0","[]","0","0","3","","","","","","","",""
"pit-trial","65","534199","0.0-2.0-14.1-1.1","battery-v0.2","","""event"",""trial"",""time""
""fullscreenenter"",""1"",""2502""
","
","
","""event"",""trial"",""time""
""fullscreenenter"",""1"",""2502""
","
","","","-1","","","15","3983","928","&#9826;","elianto","#f73b6a7A","-1","-1","1","0","[]","0","0","3","","","","","","","",""
"pit-trial","66","539064","0.0-2.0-14.1-2.1","battery-v0.2","","""event"",""trial"",""time""
""fullscreenenter"",""1"",""2502""
","
","
","""event"",""trial"",""time""
""fullscreenenter"",""1"",""2502""
","
","","","-1","","","15","3983","928","&#9826;","elianto","#f73b6a7A","-1","-1","1","0","[]","0","0","3","","","","","","","",""
"pit-trial","67","543927","0.0-2.0-14.1-3.1","battery-v0.2","","""event"",""trial"",""time""
""fullscreenenter"",""1"",""2502""
","
","
","""event"",""trial"",""time""
""fullscreenenter"",""1"",""2502""
","
","","","-1","","","15","3983","928","&#9826;","elianto","#f73b6a7A","-1","-1","1","-10","[]","0","0","3","","","","","","","",""
"pit-trial","68","548793","0.0-2.0-14.1-4.1","battery-v0.2","","""event"",""trial"",""time""
""fullscreenenter"",""1"",""2502""
","
","
","""event"",""trial"",""time""
""fullscreenenter"",""1"",""2502""
","
","","","-1","","","15","3983","928","&#9826;","elianto","#f73b6a7A","-1","-1","1","0","[]","0","0","3","","","","","","","",""
"pit-trial","69","553662","0.0-2.0-14.2-0.2","battery-v0.2","","""event"",""trial"",""time""
""fullscreenenter"",""1"",""2502""
","
","
","""event"",""trial"",""time""
""fullscreenenter"",""1"",""2502""
","
","","","-1","","","15","3983","928","&#9826;","elianto","#f73b6a7A","-1","-1","1","0","[]","0","0","3","","","","","","","",""
"pit-trial","70","558534","0.0-2.0-14.2-1.2","battery-v0.2","","""event"",""trial"",""time""
""fullscreenenter"",""1"",""2502""
","
","
","""event"",""trial"",""time""
""fullscreenenter"",""1"",""2502""
","
","","","-1","","","15","3983","928","&#9826;","elianto","#f73b6a7A","-1","-1","1","0","[]","0","0","3","","","","","","","",""
"pit-trial","71","563415","0.0-2.0-14.2-2.2","battery-v0.2","","""event"",""trial"",""time""
""fullscreenenter"",""1"",""2502""
","
","
","""event"",""trial"",""time""
""fullscreenenter"",""1"",""2502""
","
","","","-1","","","15","3983","928","&#9826;","elianto","#f73b6a7A","-1","-1","1","0","[]","0","0","3","","","","","","","",""
"pit-trial","72","568278","0.0-2.0-14.2-3.2","battery-v0.2","","""event"",""trial"",""time""
""fullscreenenter"",""1"",""2502""
","
","
","""event"",""trial"",""time""
""fullscreenenter"",""1"",""2502""
","
","","","-1","","","15","3983","928","&#9826;","elianto","#f73b6a7A","-1","-1","1","-10","[]","0","0","3","","","","","","","",""
"pit-trial","73","573141","0.0-2.0-14.2-4.2","battery-v0.2","","""event"",""trial"",""time""
""fullscreenenter"",""1"",""2502""
","
","
","""event"",""trial"",""time""
""fullscreenenter"",""1"",""2502""
","
","","","-1","","","15","3983","928","&#9826;","elianto","#f73b6a7A","-1","-1","1","0","[]","0","0","3","","","","","","","",""
"pit-trial","74","578006","0.0-2.0-14.3-0.3","battery-v0.2","","""event"",""trial"",""time""
""fullscreenenter"",""1"",""2502""
","
","
","""event"",""trial"",""time""
""fullscreenenter"",""1"",""2502""
","
","","","-1","","","15","3983","928","&#9826;","elianto","#f73b6a7A","-1","-1","1","0","[]","0","0","3","","","","","","","",""
"pit-trial","75","582877","0.0-2.0-14.3-1.3","battery-v0.2","","""event"",""trial"",""time""
""fullscreenenter"",""1"",""2502""
","
","
","""event"",""trial"",""time""
""fullscreenenter"",""1"",""2502""
","
","","","-1","","","15","3983","928","&#9826;","elianto","#f73b6a7A","-1","-1","1","0","[]","0","0","3","","","","","","","",""
"pit-trial","76","587750","0.0-2.0-14.3-2.3","battery-v0.2","","""event"",""trial"",""time""
""fullscreenenter"",""1"",""2502""
","
","
","""event"",""trial"",""time""
""fullscreenenter"",""1"",""2502""
","
","","","-1","","","15","3983","928","&#9826;","elianto","#f73b6a7A","-1","-1","1","0","[]","0","0","3","","","","","","","",""
"pit-trial","77","592613","0.0-2.0-14.3-3.3","battery-v0.2","","""event"",""trial"",""time""
""fullscreenenter"",""1"",""2502""
","
","
","""event"",""trial"",""time""
""fullscreenenter"",""1"",""2502""
","
","","","-1","","","15","3983","928","&#9826;","elianto","#f73b6a7A","-1","-1","1","-10","[]","0","0","3","","","","","","","",""
"pit-trial","78","597477","0.0-2.0-14.3-4.3","battery-v0.2","","""event"",""trial"",""time""
""fullscreenenter"",""1"",""2502""
","
","
","""event"",""trial"",""time""
""fullscreenenter"",""1"",""2502""
","
","","","-1","","","15","3983","928","&#9826;","elianto","#f73b6a7A","-1","-1","1","0","[]","0","0","3","","","","","","","",""
"call-function","79","597480","0.0-2.0-15.0","battery-v0.2","","""event"",""trial"",""time""
""fullscreenenter"",""1"",""2502""
","
","
","""event"",""trial"",""time""
""fullscreenenter"",""1"",""2502""
","
","","","","","","","","","","","","","","","","","","","","","","","","","","",""
"pit-instructions","80","620986","0.0-2.0-16.0","battery-v0.2","","""event"",""trial"",""time""
""fullscreenenter"",""1"",""2502""
","
","
","""event"",""trial"",""time""
""fullscreenenter"",""1"",""2502""
","
","","[{""page_index"":0,""viewing_time"":6569},{""page_index"":1,""viewing_time"":8247.699999988079},{""page_index"":2,""viewing_time"":4023.699999988079},{""page_index"":3,""viewing_time"":4664.200000047684}]","23504.899999976158","","","","","","","","","","","","","","","","","","","","","","","",""
"pit-trial","81","625862","0.0-2.0-17.0-0.0","battery-v0.2","","""event"",""trial"",""time""
""fullscreenenter"",""1"",""2502""
","
","
","""event"",""trial"",""time""
""fullscreenenter"",""1"",""2502""
","
","","","-1","","","15","3983","928","&#9789;","elianto","#f73b6a7A"," ","-1","0","-10","[]","0","0","4","","","","","","","",""
"pit-trial","82","628951","0.0-2.0-17.0-1.0","battery-v0.2","","""event"",""trial"",""time""
""fullscreenenter"",""1"",""2502""
","
","
","""event"",""trial"",""time""
""fullscreenenter"",""1"",""2502""
","
","","","227.30000001192093","","","15","3983","928","&#9789;","elianto","#f73b6a7A"," "," ","1","0","[1078.300000011921,1281.6000000238419,1490.4000000357628,1977.2000000476837,2179.300000011921,2449.7000000476837,2701.2000000476837]","7","0","4","","","","","","","",""
"pit-trial","83","631832","0.0-2.0-17.0-2.0","battery-v0.2","","""event"",""trial"",""time""
""fullscreenenter"",""1"",""2502""
","
","
","""event"",""trial"",""time""
""fullscreenenter"",""1"",""2502""
","
","","","13","","","15","3983","928","&#9789;","elianto","#f73b6a7A"," "," ","1","0","[865.5999999642372,1811,2123,2393.699999988079,2732.199999988079]","5","0","4","","","","","","","",""
"pit-trial","84","634922","0.0-2.0-17.0-3.0","battery-v0.2","","""event"",""trial"",""time""
""fullscreenenter"",""1"",""2502""
","
","
","""event"",""trial"",""time""
""fullscreenenter"",""1"",""2502""
","
","","","221.70000004768372","","","15","3983","928","&#9789;","elianto","#f73b6a7A"," "," ","1","-10","[96,367.2000000476837,584,815.7000000476837,1080.2000000476837,1329.5,1664.6000000238419,1944.6000000238419,2215.7000000476837,2423.5,2711.100000023842,3007.100000023842]","12","0","4","","","","","","","",""
"pit-trial","85","637972","0.0-2.0-17.0-4.0","battery-v0.2","","""event"",""trial"",""time""
""fullscreenenter"",""1"",""2502""
","
","
","""event"",""trial"",""time""
""fullscreenenter"",""1"",""2502""
","
","","","174.60000002384186","","","15","3983","928","&#9789;","elianto","#f73b6a7A"," "," ","1","0","[361.10000002384186,568.1000000238419,792.1999999880791,1031.9000000357628,1281.1000000238419,1544.6000000238419,1800.6000000238419,2042.699999988079,2287.300000011921,2544.300000011921]","10","0","4","","","","","","","",""
"pit-trial","86","640922","0.0-2.0-17.1-0.1","battery-v0.2","","""event"",""trial"",""time""
""fullscreenenter"",""1"",""2502""
","
","
","""event"",""trial"",""time""
""fullscreenenter"",""1"",""2502""
","
","","","77.19999998807907","","","15","3983","928","&#9789;","elianto","#f73b6a7A"," "," ","1","0","[930.5,1234.6000000238419,1586.6000000238419,1922.800000011921,2186.600000023842,2458.100000023842,2754.600000023842]","7","0","4","","","","","","","",""
"pit-trial","87","643894","0.0-2.0-17.1-1.1","battery-v0.2","","""event"",""trial"",""time""
""fullscreenenter"",""1"",""2502""
","
","
","""event"",""trial"",""time""
""fullscreenenter"",""1"",""2502""
","
","","","110.40000003576279","","","15","3983","928","&#9789;","elianto","#f73b6a7A"," "," ","1","0","[21.600000023841858,965.4000000357628,1374.6000000238419,1689,1945.2000000476837,2175.2000000476837,2405.7000000476837,2640.900000035763,2945.400000035763]","9","0","4","","","","","","","",""
"pit-trial","88","646786","0.0-2.0-17.1-2.1","battery-v0.2","","""event"",""trial"",""time""
""fullscreenenter"",""1"",""2502""
","
","
","""event"",""trial"",""time""
""fullscreenenter"",""1"",""2502""
","
","","","38.89999997615814","","","15","3983","928","&#9789;","elianto","#f73b6a7A"," "," ","1","0","[170.5,417.80000001192093,657.8999999761581,889.8999999761581,1106.199999988079,1345.800000011921,1633.800000011921,1801.8999999761581,2042.3999999761581,2281.899999976158,2546,2769.699999988079]","12","0","4","","","","","","","",""
"pit-trial","89","649877","0.0-2.0-17.1-3.1","battery-v0.2","","""event"",""trial"",""time""
""fullscreenenter"",""1"",""2502""
","
","
","""event"",""trial"",""time""
""fullscreenenter"",""1"",""2502""
","
","","","230.29999995231628","","","15","3983","928","&#9789;","elianto","#f73b6a7A"," "," ","1","-10","[143.30000001192093,367,598.8000000119209,839.0999999642372,1088.0999999642372,1319.199999988079,1558.800000011921,1798.800000011921,2039,2310.699999988079,2535,2791,3048.399999976158]","13","0","4","","","","","","","",""
"pit-trial","90","652917","0.0-2.0-17.1-4.1","battery-v0.2","","""event"",""trial"",""time""
""fullscreenenter"",""1"",""2502""
","
","
","""event"",""trial"",""time""
""fullscreenenter"",""1"",""2502""
","
","","","183.89999997615814","","","15","3983","928","&#9789;","elianto","#f73b6a7A"," "," ","1","0","[165.10000002384186,388.60000002384186,604.1000000238419,820.3000000119209,1036.199999988079,1251.8999999761581,1519.8999999761581,1742.1000000238419,1964.5,2190.100000023842,2484.100000023842,2764.600000023842]","12","0","4","","","","","","","",""
"pit-trial","91","655925","0.0-2.0-17.2-0.2","battery-v0.2","","""event"",""trial"",""time""
""fullscreenenter"",""1"",""2502""
","
","
","""event"",""trial"",""time""
""fullscreenenter"",""1"",""2502""
","
","","","149.5999999642372","","","15","3983","928","&#9789;","elianto","#f73b6a7A"," "," ","1","0","[75,291.69999998807907,523.2999999523163,748.1999999880791,1004,1267.3999999761581,1492.3999999761581,1747.199999988079,2044.5999999642372,2316.2999999523163,2579.2999999523163,2828.2999999523163]","12","0","4","","","","","","","",""
"pit-trial","92","658823","0.0-2.0-17.2-1.2","battery-v0.2","","""event"",""trial"",""time""
""fullscreenenter"",""1"",""2502""
","
","
","""event"",""trial"",""time""
""fullscreenenter"",""1"",""2502""
","
","","","31.19999998807907","","","15","3983","928","&#9789;","elianto","#f73b6a7A"," "," ","1","0","[212.9000000357628,391.80000001192093,629.3000000119209,885.3000000119209,1172.5,1461.699999988079,1756.5,2020.9000000357628,2269.199999988079,2518.400000035763,2797.300000011921]","11","0","4","","","","","","","",""
"pit-trial","93","661886","0.0-2.0-17.2-2.2","battery-v0.2","","""event"",""trial"",""time""
""fullscreenenter"",""1"",""2502""
","
","
","""event"",""trial"",""time""
""fullscreenenter"",""1"",""2502""
","
","","","206.70000004768372","","","15","3983","928","&#9789;","elianto","#f73b6a7A"," "," ","1","0","[208.69999998807907,785,1058.300000011921,1337.8999999761581,1761.0999999642372,2297.699999988079,2617.399999976158,2913.399999976158]","8","0","4","","","","","","","",""
"pit-trial","94","664789","0.0-2.0-17.2-3.2","battery-v0.2","","""event"",""trial"",""time""
""fullscreenenter"",""1"",""2502""
","
","
","""event"",""trial"",""time""
""fullscreenenter"",""1"",""2502""
","
","","","45.59999996423721","","","15","3983","928","&#9789;","elianto","#f73b6a7A"," "," ","1","-10","[97.19999998807907,338.39999997615814,634.0999999642372,898.0999999642372,1170.3999999761581,1529.3999999761581,1776.8999999761581,2065.399999976158,2346.2999999523163,2593,2850.399999976158]","11","0","4","","","","","","","",""
"pit-trial","95","667789","0.0-2.0-17.2-4.2","battery-v0.2","","""event"",""trial"",""time""
""fullscreenenter"",""1"",""2502""
","
","
","""event"",""trial"",""time""
""fullscreenenter"",""1"",""2502""
","
","","","141.10000002384186","","","15","3983","928","&#9789;","elianto","#f73b6a7A"," "," ","1","0","[203.70000004768372,499.4000000357628,741.5,994.3000000119209,1284.7000000476837,1547.5,1835.800000011921,2076.300000011921,2331.5,2571.600000023842,2818.600000023842]","11","0","4","","","","","","","",""
"pit-trial","96","670734","0.0-2.0-17.3-0.3","battery-v0.2","","""event"",""trial"",""time""
""fullscreenenter"",""1"",""2502""
","
","
","""event"",""trial"",""time""
""fullscreenenter"",""1"",""2502""
","
","","","87.19999998807907","","","15","3983","928","&#9789;","elianto","#f73b6a7A"," "," ","1","0","[99.69999998807907,403.69999998807907,660.4000000357628,941.1999999880791,1213,1508,1764.800000011921,2069,2356.800000011921,2636.699999988079,2932.800000011921]","11","0","4","","","","","","","",""
"pit-trial","97","673805","0.0-2.0-17.3-1.3","battery-v0.2","","""event"",""trial"",""time""
""fullscreenenter"",""1"",""2502""
","
","
","""event"",""trial"",""time""
""fullscreenenter"",""1"",""2502""
","
","","","211.89999997615814","","","15","3983","928","&#9789;","elianto","#f73b6a7A"," "," ","1","0","[258.10000002384186,545.6999999880791,810.1000000238419,1065.199999988079,1354.5,1633.300000011921,1913.5,2193.300000011921,2449.600000023842,2681.400000035763,2905.300000011921]","11","0","4","","","","","","","",""
"pit-trial","98","676893","0.0-2.0-17.3-2.3","battery-v0.2","","""event"",""trial"",""time""
""fullscreenenter"",""1"",""2502""
","
","
","""event"",""trial"",""time""
""fullscreenenter"",""1"",""2502""
","
","","","229.89999997615814","","","15","3983","928","&#9789;","elianto","#f73b6a7A"," "," ","1","0","[67.60000002384186,316.2000000476837,572.8000000119209,836.3000000119209,1085,1379.5,1611.6000000238419,1924,2149.600000023842,2404,2948.900000035763]","11","0","4","","","","","","","",""
"pit-trial","99","680029","0.0-2.0-17.3-3.3","battery-v0.2","","""event"",""trial"",""time""
""fullscreenenter"",""1"",""2502""
","
","
","""event"",""trial"",""time""
""fullscreenenter"",""1"",""2502""
","
","","","280.2999999523163","","","15","3983","928","&#9789;","elianto","#f73b6a7A"," "," ","1","-10","[114.89999997615814,482.39999997615814,812,1131.7999999523163,1627.699999988079,2003.7999999523163,2379.899999976158,2700,3075.899999976158]","9","0","4","","","","","","","",""
"pit-trial","100","683021","0.0-2.0-17.3-4.3","battery-v0.2","","""event"",""trial"",""time""
""fullscreenenter"",""1"",""2502""
","
","
","""event"",""trial"",""time""
""fullscreenenter"",""1"",""2502""
","
","","","136.10000002384186","","","15","3983","928","&#9789;","elianto","#f73b6a7A"," "," ","1","0","[291.10000002384186,642.6999999880791,987.1000000238419,1314.699999988079,1683.6000000238419,2075.900000035763,2363.699999988079,2707.699999988079,2979.900000035763]","9","0","4","","","","","","","",""
"call-function","101","683023","0.0-2.0-18.0","battery-v0.2","","""event"",""trial"",""time""
""fullscreenenter"",""1"",""2502""
","
","
","""event"",""trial"",""time""
""fullscreenenter"",""1"",""2502""
","
","","","","","","","","","","","","","","","","","","","","","","","","","","",""
"pit-instructions","102","750699","0.0-2.0-19.0","battery-v0.2","","""event"",""trial"",""time""
""fullscreenenter"",""1"",""2502""
","
","
","""event"",""trial"",""time""
""fullscreenenter"",""1"",""2502""
","
","","[{""page_index"":0,""viewing_time"":8313.5},{""page_index"":1,""viewing_time"":5896.5},{""page_index"":2,""viewing_time"":14432},{""page_index"":3,""viewing_time"":6992},{""page_index"":4,""viewing_time"":6167.5},{""page_index"":5,""viewing_time"":8544.5},{""page_index"":6,""viewing_time"":8032.699999988079},{""page_index"":7,""viewing_time"":5807.5},{""page_index"":8,""viewing_time"":3487.800000011921}]","67674.59999996424","","","","","","","","","","","","","","","","","","","","","","","",""
"pit-comprehension","103","758075","0.0-2.0-20.0-0.0","battery-v0.2","","""event"",""trial"",""time""
""fullscreenenter"",""1"",""2502""
","
","
","""event"",""trial"",""time""
""fullscreenenter"",""1"",""2502""
","
","","","7373","[""SPACE""]","0","15","3983","928","","","","","","","","","","","","","","","","","","",""
"pit-instructions","104","761187","0.0-2.0-20.0-1.0","battery-v0.2","","""event"",""trial"",""time""
""fullscreenenter"",""1"",""2502""
","
","
","""event"",""trial"",""time""
""fullscreenenter"",""1"",""2502""
","
","","[{""page_index"":0,""viewing_time"":3073.800000011921}]","3074","","","","","","","","","","","","","","","","","","","","","","","",""
"pit-comprehension","105","766699","0.0-2.0-21.0-0.0","battery-v0.2","","""event"",""trial"",""time""
""fullscreenenter"",""1"",""2502""
","
","
","""event"",""trial"",""time""
""fullscreenenter"",""1"",""2502""
","
","","","5510.700000047684","[""10""]","0","15","3983","928","","","","","","","","","","","","","","","","","","",""
"pit-instructions","106","768243","0.0-2.0-21.0-1.0","battery-v0.2","","""event"",""trial"",""time""
""fullscreenenter"",""1"",""2502""
","
","
","""event"",""trial"",""time""
""fullscreenenter"",""1"",""2502""
","
","","[{""page_index"":0,""viewing_time"":1511.9000000357628}]","1512.2000000476837","","","","","","","","","","","","","","","","","","","","","","","",""
"pit-comprehension","107","775915","0.0-2.0-22.0-0.0","battery-v0.2","","""event"",""trial"",""time""
""fullscreenenter"",""1"",""2502""
","
","
","""event"",""trial"",""time""
""fullscreenenter"",""1"",""2502""
","
","","","7670.899999976158","[""0""]","0","15","3983","928","","","","","","","","","","","","","","","","","","",""
"pit-instructions","108","777754","0.0-2.0-22.0-1.0","battery-v0.2","","""event"",""trial"",""time""
""fullscreenenter"",""1"",""2502""
","
","
","""event"",""trial"",""time""
""fullscreenenter"",""1"",""2502""
","
","","[{""page_index"":0,""viewing_time"":1808.3999999761581}]","1808.5999999642372","","","","","","","","","","","","","","","","","","","","","","","",""
"pit-comprehension","109","787195","0.0-2.0-23.0-0.0","battery-v0.2","","""event"",""trial"",""time""
""fullscreenenter"",""1"",""2502""
","
","
","""event"",""trial"",""time""
""fullscreenenter"",""1"",""2502""
","
","","","9438.600000023842","[""True""]","0","15","3983","928","","","","","","","","","","","","","","","","","","",""
"pit-instructions","110","790155","0.0-2.0-23.0-1.0","battery-v0.2","","""event"",""trial"",""time""
""fullscreenenter"",""1"",""2502""
","
","
","""event"",""trial"",""time""
""fullscreenenter"",""1"",""2502""
","
","","[{""page_index"":0,""viewing_time"":2927.800000011921}]","2928","","","","","","","","","","","","","","","","","","","","","","","",""
"pit-comprehension","111","797379","0.0-2.0-24.0-0.0","battery-v0.2","","""event"",""trial"",""time""
""fullscreenenter"",""1"",""2502""
","
","
","""event"",""trial"",""time""
""fullscreenenter"",""1"",""2502""
","
","","","7221.600000023842","[""True""]","0","15","3983","928","","","","","","","","","","","","","","","","","","",""
"pit-instructions","112","800370","0.0-2.0-24.0-1.0","battery-v0.2","","""event"",""trial"",""time""
""fullscreenenter"",""1"",""2502""
","
","
","""event"",""trial"",""time""
""fullscreenenter"",""1"",""2502""
","
","","[{""page_index"":0,""viewing_time"":2959}]","2959.099999964237","","","","","","","","","","","","","","","","","","","","","","","",""
"pit-comprehension","113","806907","0.0-2.0-25.0-0.0","battery-v0.2","","""event"",""trial"",""time""
""fullscreenenter"",""1"",""2502""
","
","
","""event"",""trial"",""time""
""fullscreenenter"",""1"",""2502""
","
","","","6534.5","[""True""]","0","15","3983","928","","","","","","","","","","","","","","","","","","",""
"pit-instructions","114","816234","0.0-2.0-25.0-1.0","battery-v0.2","","""event"",""trial"",""time""
""fullscreenenter"",""1"",""2502""
","
","
","""event"",""trial"",""time""
""fullscreenenter"",""1"",""2502""
","
","","[{""page_index"":0,""viewing_time"":9293.300000011921}]","9293.5","","","","","","","","","","","","","","","","","","","","","","","",""
"pit-comprehension","115","822939","0.0-2.0-26.0-0.0","battery-v0.2","","""event"",""trial"",""time""
""fullscreenenter"",""1"",""2502""
","
","
","""event"",""trial"",""time""
""fullscreenenter"",""1"",""2502""
","
","","","6702.699999988079","[""False""]","0","15","3983","928","","","","","","","","","","","","","","","","","","",""
"pit-instructions","116","824947","0.0-2.0-26.0-1.0","battery-v0.2","","""event"",""trial"",""time""
""fullscreenenter"",""1"",""2502""
","
","
","""event"",""trial"",""time""
""fullscreenenter"",""1"",""2502""
","
","","[{""page_index"":0,""viewing_time"":1970.4000000357628}]","1970.6000000238419","","","","","","","","","","","","","","","","","","","","","","","",""
"pit-instructions","117","842539","0.0-3.0","battery-v0.2","","""event"",""trial"",""time""
""fullscreenenter"",""1"",""2502""
","
","
","""event"",""trial"",""time""
""fullscreenenter"",""1"",""2502""
","
","","[{""page_index"":0,""viewing_time"":4342.899999976158},{""page_index"":1,""viewing_time"":5927.600000023842},{""page_index"":2,""viewing_time"":7320.099999964237}]","17590.899999976158","","","","","","","","","","","","","","","","","","","","","","","",""
"pit-trial","118","845850","0.0-4.0","battery-v0.2","","""event"",""trial"",""time""
""fullscreenenter"",""1"",""2502""
","
","
","""event"",""trial"",""time""
""fullscreenenter"",""1"",""2502""
","
","","","438.69999998807907","","","15","3983","928","&#9730;","elianto","#3366ff99"," "," ","1","+10","[1294.699999988079]","1","1","","","3983","1","1","1","win","go","0"
"pit-trial","119","849359","0.0-5.0","battery-v0.2","","""event"",""trial"",""time""
""fullscreenenter"",""1"",""2502""
","
","
","""event"",""trial"",""time""
""fullscreenenter"",""1"",""2502""
","
","","","638.1999999880791","","","15","3983","928","&#9728;","elianto","#f73b6a7A","-1"," ","0","-10","[1495.800000011921]","1","1","","","3983","2","0","4","lose","no-go","0"
"pit-trial","120","853089","0.0-6.0","battery-v0.2","","""event"",""trial"",""time""
""fullscreenenter"",""1"",""2502""
","
","
","""event"",""trial"",""time""
""fullscreenenter"",""1"",""2502""
","
","","","870.0999999642372","","","15","3983","928","&#9752;","elianto","#f73b6a7A"," "," ","1","0","[1723.8999999761581]","1","1","","","3983","3","3","3","lose","go","0"
"pit-trial","121","856679","0.0-7.0","battery-v0.2","","""event"",""trial"",""time""
""fullscreenenter"",""1"",""2502""
","
","
","""event"",""trial"",""time""
""fullscreenenter"",""1"",""2502""
","
","","","710.6000000238419","","","15","3983","928","&#9733;","elianto","#3366ff99","-1"," ","0","0","[1562.5]","1","1","","","3983","4","2","2","win","no-go","0"
"pit-trial","122","860029","0.0-8.0","battery-v0.2","","""event"",""trial"",""time""
""fullscreenenter"",""1"",""2502""
","
","
","""event"",""trial"",""time""
""fullscreenenter"",""1"",""2502""
","
","","","486.60000002384186","","","15","3983","928","&#9730;","elianto","#3366ff99"," "," ","1","+10","[1338.5]","1","1","","","3983","5","1","1","win","go","0"
"pit-trial","123","864899","0.0-9.0","battery-v0.2","","""event"",""trial"",""time""
""fullscreenenter"",""1"",""2502""
","
","
","""event"",""trial"",""time""
""fullscreenenter"",""1"",""2502""
","
","","","-1","","","15","3983","928","&#9733;","elianto","#3366ff99","-1","-1","1","+10","[]","0","1","","","3983","6","2","2","win","no-go","0"
"pit-trial","124","868459","0.0-10.0","battery-v0.2","","""event"",""trial"",""time""
""fullscreenenter"",""1"",""2502""
","
","
","""event"",""trial"",""time""
""fullscreenenter"",""1"",""2502""
","
","","","687","","","15","3983","928","&#9752;","elianto","#f73b6a7A"," "," ","1","0","[1542.800000011921]","1","1","","","3983","7","3","3","lose","go","0"
"pit-trial","125","873334","0.0-11.0","battery-v0.2","","""event"",""trial"",""time""
""fullscreenenter"",""1"",""2502""
","
","
","""event"",""trial"",""time""
""fullscreenenter"",""1"",""2502""
","
","","","-1","","","15","3983","928","&#9728;","elianto","#f73b6a7A","-1","-1","1","0","[]","0","1","","","3983","8","0","4","lose","no-go","0"
"pit-trial","126","877215","0.0-12.0","battery-v0.2","","""event"",""trial"",""time""
""fullscreenenter"",""1"",""2502""
","
","
","""event"",""trial"",""time""
""fullscreenenter"",""1"",""2502""
","
","","","1013.6999999880791","","","15","3983","928","&#9733;","elianto","#3366ff99","-1"," ","0","0","[1867.9000000357628]","1","1","","","3983","9","2","2","win","no-go","0"
"pit-trial","127","881814","0.0-13.0","battery-v0.2","","""event"",""trial"",""time""
""fullscreenenter"",""1"",""2502""
","
","
","""event"",""trial"",""time""
""fullscreenenter"",""1"",""2502""
","
","","","1743.3999999761581","","","15","3983","928","&#9752;","elianto","#f73b6a7A"," "," ","1","-10","[2594.7999999523163]","1","1","","","3983","10","3","3","lose","go","1"
"pit-trial","128","885493","0.0-14.0","battery-v0.2","","""event"",""trial"",""time""
""fullscreenenter"",""1"",""2502""
","
","
","""event"",""trial"",""time""
""fullscreenenter"",""1"",""2502""
","
","","","826","","","15","3983","928","&#9728;","elianto","#f73b6a7A","-1"," ","0","-10","[1676.199999988079]","1","1","","","3983","11","0","4","lose","no-go","0"
"pit-trial","129","888855","0.0-15.0","battery-v0.2","","""event"",""trial"",""time""
""fullscreenenter"",""1"",""2502""
","
","
","""event"",""trial"",""time""
""fullscreenenter"",""1"",""2502""
","
","","","505","","","15","3983","928","&#9730;","elianto","#3366ff99"," "," ","1","+10","[1358.4000000357628]","1","1","","","3983","12","1","1","win","go","0"
"pit-trial","130","892263","0.0-16.0","battery-v0.2","","""event"",""trial"",""time""
""fullscreenenter"",""1"",""2502""
","
","
","""event"",""trial"",""time""
""fullscreenenter"",""1"",""2502""
","
","","","550.9000000357628","","","15","3983","928","&#9730;","elianto","#3366ff99"," "," ","1","0","[1403.800000011921]","1","1","","","3983","13","1","1","win","go","1"
"pit-trial","131","895934","0.0-17.0","battery-v0.2","","""event"",""trial"",""time""
""fullscreenenter"",""1"",""2502""
","
","
","""event"",""trial"",""time""
""fullscreenenter"",""1"",""2502""
","
","","","813.0999999642372","","","15","3983","928","&#9752;","elianto","#f73b6a7A"," "," ","1","-10","[1664.699999988079]","1","1","","","3983","14","3","3","lose","go","1"
"pit-trial","132","900798","0.0-18.0","battery-v0.2","","""event"",""trial"",""time""
""fullscreenenter"",""1"",""2502""
","
","
","""event"",""trial"",""time""
""fullscreenenter"",""1"",""2502""
","
","","","-1","","","15","3983","928","&#9728;","elianto","#f73b6a7A","-1","-1","1","0","[]","0","1","","","3983","15","0","4","lose","no-go","0"
"pit-trial","133","905334","0.0-19.0","battery-v0.2","","""event"",""trial"",""time""
""fullscreenenter"",""1"",""2502""
","
","
","""event"",""trial"",""time""
""fullscreenenter"",""1"",""2502""
","
","","","1679","","","15","3983","928","&#9733;","elianto","#3366ff99","-1"," ","0","0","[2532.400000035763]","1","1","","","3983","16","2","2","win","no-go","0"
"pit-trial","134","908806","0.0-20.0","battery-v0.2","","""event"",""trial"",""time""
""fullscreenenter"",""1"",""2502""
","
","
","""event"",""trial"",""time""
""fullscreenenter"",""1"",""2502""
","
","","","615","","","15","3983","928","&#9752;","elianto","#f73b6a7A"," "," ","1","-10","[1468]","1","1","","","3983","17","3","3","lose","go","1"
"pit-trial","135","913670","0.0-21.0","battery-v0.2","","""event"",""trial"",""time""
""fullscreenenter"",""1"",""2502""
","
","
","""event"",""trial"",""time""
""fullscreenenter"",""1"",""2502""
","
","","","-1","","","15","3983","928","&#9733;","elianto","#3366ff99","-1","-1","1","0","[3403.5]","1","1","","","3983","18","2","2","win","no-go","1"
"pit-trial","136","917023","0.0-22.0","battery-v0.2","","""event"",""trial"",""time""
""fullscreenenter"",""1"",""2502""
","
","
","""event"",""trial"",""time""
""fullscreenenter"",""1"",""2502""
","
","","","495.30000001192093","","","15","3983","928","&#9730;","elianto","#3366ff99"," "," ","1","+10","[1348]","1","1","","","3983","19","1","1","win","go","0"
"pit-trial","137","920686","0.0-23.0","battery-v0.2","","""event"",""trial"",""time""
""fullscreenenter"",""1"",""2502""
","
","
","""event"",""trial"",""time""
""fullscreenenter"",""1"",""2502""
","
","","","805.8000000119209","","","15","3983","928","&#9728;","elianto","#f73b6a7A","-1"," ","0","-10","[1658.300000011921]","1","1","","","3983","20","0","4","lose","no-go","0"
"pit-instructions","138","933346","0.0-24.0","battery-v0.2","","""event"",""trial"",""time""
""fullscreenenter"",""1"",""2502""
","
","
","""event"",""trial"",""time""
""fullscreenenter"",""1"",""2502""
","
","","[{""page_index"":0,""viewing_time"":5681.800000011921},{""page_index"":1,""viewing_time"":6976.100000023842}]","12658.100000023842","","","","","","","","","","","","","","","","","","","","","","","",""
"pit-trial","139","937226","0.0-25.0","battery-v0.2","","""event"",""trial"",""time""
""fullscreenenter"",""1"",""2502""
","
","
","""event"",""trial"",""time""
""fullscreenenter"",""1"",""2502""
","
","","","1008.9000000357628","","","15","3983","928","r","elianto","#3366ff99","-1"," ","0","0","[1863.6000000238419]","1","2","","","3983","21","1","2","win","no-go","0"
"pit-trial","140","940876","0.0-26.0","battery-v0.2","","""event"",""trial"",""time""
""fullscreenenter"",""1"",""2502""
","
","
","""event"",""trial"",""time""
""fullscreenenter"",""1"",""2502""
","
","","","787.8000000119209","","","15","3983","928","h","elianto","#f73b6a7A","-1"," ","0","-10","[1640]","1","2","","","3983","22","3","4","lose","no-go","0"
"pit-trial","141","945745","0.0-27.0","battery-v0.2","","""event"",""trial"",""time""
""fullscreenenter"",""1"",""2502""
","
","
","""event"",""trial"",""time""
""fullscreenenter"",""1"",""2502""
","
","","","-1","","","15","3983","928","m","elianto","#f73b6a7A"," ","-1","0","0","[]","0","2","","","3983","23","0","3","lose","go","1"
"pit-trial","142","949915","0.0-28.0","battery-v0.2","","""event"",""trial"",""time""
""fullscreenenter"",""1"",""2502""
","
","
","""event"",""trial"",""time""
""fullscreenenter"",""1"",""2502""
","
","","","1309.3999999761581","","","15","3983","928","y","elianto","#f73b6a7A"," "," ","1","0","[2159.599999964237]","1","2","","","3983","24","2","3","lose","go","0"
"pit-trial","143","953726","0.0-29.0","battery-v0.2","","""event"",""trial"",""time""
""fullscreenenter"",""1"",""2502""
","
","
","""event"",""trial"",""time""
""fullscreenenter"",""1"",""2502""
","
","","","933","","","15","3983","928","r","elianto","#3366ff99","-1"," ","0","0","[1789.1000000238419]","1","2","","","3983","25","1","2","win","no-go","0"
"pit-trial","144","957095","0.0-30.0","battery-v0.2","","""event"",""trial"",""time""
""fullscreenenter"",""1"",""2502""
","
","
","""event"",""trial"",""time""
""fullscreenenter"",""1"",""2502""
","
","","","501.60000002384186","","","15","3983","928","m","elianto","#f73b6a7A"," "," ","1","0","[1354.300000011921]","1","2","","","3983","26","0","3","lose","go","0"
"pit-trial","145","960526","0.0-31.0","battery-v0.2","","""event"",""trial"",""time""
""fullscreenenter"",""1"",""2502""
","
","
","""event"",""trial"",""time""
""fullscreenenter"",""1"",""2502""
","
","","","559.6999999880791","","","15","3983","928","h","elianto","#f73b6a7A","-1"," ","0","0","[1410.5]","1","2","","","3983","27","3","4","lose","no-go","1"
"pit-trial","146","964309","0.0-32.0","battery-v0.2","","""event"",""trial"",""time""
""fullscreenenter"",""1"",""2502""
","
","
","""event"",""trial"",""time""
""fullscreenenter"",""1"",""2502""
","
","","","926.8000000119209","","","15","3983","928","y","elianto","#f73b6a7A"," "," ","1","0","[1778.7000000476837]","1","2","","","3983","28","2","3","lose","go","0"
"pit-trial","147","968271","0.0-33.0","battery-v0.2","","""event"",""trial"",""time""
""fullscreenenter"",""1"",""2502""
","
","
","""event"",""trial"",""time""
""fullscreenenter"",""1"",""2502""
","
","","","1103.5","","","15","3983","928","m","elianto","#f73b6a7A"," "," ","1","-10","[1956.8999999761581]","1","2","","","3983","29","0","3","lose","go","1"
"pit-trial","148","971813","0.0-34.0","battery-v0.2","","""event"",""trial"",""time""
""fullscreenenter"",""1"",""2502""
","
","
","""event"",""trial"",""time""
""fullscreenenter"",""1"",""2502""
","
","","","686.8999999761581","","","15","3983","928","h","elianto","#f73b6a7A","-1"," ","0","-10","[1537.800000011921]","1","2","","","3983","30","3","4","lose","no-go","0"
"pit-trial","149","975317","0.0-35.0","battery-v0.2","","""event"",""trial"",""time""
""fullscreenenter"",""1"",""2502""
","
","
","""event"",""trial"",""time""
""fullscreenenter"",""1"",""2502""
","
","","","649.6000000238419","","","15","3983","928","y","elianto","#f73b6a7A"," "," ","1","0","[1501.800000011921]","1","2","","","3983","31","2","3","lose","go","0"
"pit-trial","150","980181","0.0-36.0","battery-v0.2","","""event"",""trial"",""time""
""fullscreenenter"",""1"",""2502""
","
","
","""event"",""trial"",""time""
""fullscreenenter"",""1"",""2502""
","
","","","-1","","","15","3983","928","r","elianto","#3366ff99","-1","-1","1","0","[]","0","2","","","3983","32","1","2","win","no-go","1"
"pit-trial","151","983885","0.0-37.0","battery-v0.2","","""event"",""trial"",""time""
""fullscreenenter"",""1"",""2502""
","
","
","""event"",""trial"",""time""
""fullscreenenter"",""1"",""2502""
","
","","","845.8999999761581","","","15","3983","928","y","elianto","#f73b6a7A"," "," ","1","0","[1699.300000011921]","1","2","","","3983","33","2","3","lose","go","0"
"pit-trial","152","987932","0.0-38.0","battery-v0.2","","""event"",""trial"",""time""
""fullscreenenter"",""1"",""2502""
","
","
","""event"",""trial"",""time""
""fullscreenenter"",""1"",""2502""
","
","","","1173.5","","","15","3983","928","h","elianto","#f73b6a7A","-1"," ","0","-10","[82.09999996423721,2027.199999988079]","2","2","","","3983","34","3","4","lose","no-go","0"
"pit-trial","153","991238","0.0-39.0","battery-v0.2","","""event"",""trial"",""time""
""fullscreenenter"",""1"",""2502""
","
","
","""event"",""trial"",""time""
""fullscreenenter"",""1"",""2502""
","
","","","447","","","15","3983","928","m","elianto","#f73b6a7A"," "," ","1","0","[1300.6000000238419]","1","2","","","3983","35","0","3","lose","go","0"
"pit-trial","154","995126","0.0-40.0","battery-v0.2","","""event"",""trial"",""time""
""fullscreenenter"",""1"",""2502""
","
","
","""event"",""trial"",""time""
""fullscreenenter"",""1"",""2502""
","
","","","1030.699999988079","","","15","3983","928","r","elianto","#3366ff99","-1"," ","0","0","[1883.5]","1","2","","","3983","36","1","2","win","no-go","0"
"pit-trial","155","998646","0.0-41.0","battery-v0.2","","""event"",""trial"",""time""
""fullscreenenter"",""1"",""2502""
","
","
","""event"",""trial"",""time""
""fullscreenenter"",""1"",""2502""
","
","","","663.6000000238419","","","15","3983","928","m","elianto","#f73b6a7A"," "," ","1","0","[1515.800000011921]","1","2","","","3983","37","0","3","lose","go","0"
"pit-trial","156","1002262","0.0-42.0","battery-v0.2","","""event"",""trial"",""time""
""fullscreenenter"",""1"",""2502""
","
","
","""event"",""trial"",""time""
""fullscreenenter"",""1"",""2502""
","
","","","760.8000000119209","","","15","3983","928","h","elianto","#f73b6a7A","-1"," ","0","-10","[1611]","1","2","","","3983","38","3","4","lose","no-go","0"
"pit-trial","157","1005829","0.0-43.0","battery-v0.2","","""event"",""trial"",""time""
""fullscreenenter"",""1"",""2502""
","
","
","""event"",""trial"",""time""
""fullscreenenter"",""1"",""2502""
","
","","","711.1999999880791","","","15","3983","928","r","elianto","#3366ff99","-1"," ","0","0","[1561.800000011921]","1","2","","","3983","39","1","2","win","no-go","0"
"pit-trial","158","1009389","0.0-44.0","battery-v0.2","","""event"",""trial"",""time""
""fullscreenenter"",""1"",""2502""
","
","
","""event"",""trial"",""time""
""fullscreenenter"",""1"",""2502""
","
","","","700.6000000238419","","","15","3983","928","y","elianto","#f73b6a7A"," "," ","1","0","[1550.8999999761581]","1","2","","","3983","40","2","3","lose","go","0"
"pit-trial","159","1012774","0.0-45.0","battery-v0.2","","""event"",""trial"",""time""
""fullscreenenter"",""1"",""2502""
","
","
","""event"",""trial"",""time""
""fullscreenenter"",""1"",""2502""
","
","","","524.8000000119209","","","15","3983","928","r","elianto","#3366ff99","-1"," ","0","0","[1379.4000000357628]","1","2","","","3983","41","1","2","win","no-go","0"
"pit-trial","160","1016277","0.0-46.0","battery-v0.2","","""event"",""trial"",""time""
""fullscreenenter"",""1"",""2502""
","
","
","""event"",""trial"",""time""
""fullscreenenter"",""1"",""2502""
","
","","","645.5","","","15","3983","928","h","elianto","#f73b6a7A","-1"," ","0","0","[1498.6000000238419]","1","2","","","3983","42","3","4","lose","no-go","1"
"pit-trial","161","1019597","0.0-47.0","battery-v0.2","","""event"",""trial"",""time""
""fullscreenenter"",""1"",""2502""
","
","
","""event"",""trial"",""time""
""fullscreenenter"",""1"",""2502""
","
","","","465.9000000357628","","","15","3983","928","m","elianto","#f73b6a7A"," "," ","1","0","[1316.199999988079]","1","2","","","3983","43","0","3","lose","go","0"
"pit-trial","162","1022941","0.0-48.0","battery-v0.2","","""event"",""trial"",""time""
""fullscreenenter"",""1"",""2502""
","
","
","""event"",""trial"",""time""
""fullscreenenter"",""1"",""2502""
","
","","","486.60000002384186","","","15","3983","928","y","elianto","#f73b6a7A"," "," ","1","0","[1340.2999999523163]","1","2","","","3983","44","2","3","lose","go","0"
"pit-trial","163","1026430","0.0-49.0","battery-v0.2","","""event"",""trial"",""time""
""fullscreenenter"",""1"",""2502""
","
","
","""event"",""trial"",""time""
""fullscreenenter"",""1"",""2502""
","
","","","630.5999999642372","","","15","3983","928","m","elianto","#f73b6a7A"," "," ","1","-10","[1483.5999999642372]","1","2","","","3983","45","0","3","lose","go","1"
"pit-trial","164","1029781","0.0-50.0","battery-v0.2","","""event"",""trial"",""time""
""fullscreenenter"",""1"",""2502""
","
","
","""event"",""trial"",""time""
""fullscreenenter"",""1"",""2502""
","
","","","496.89999997615814","","","15","3983","928","y","elianto","#f73b6a7A"," "," ","1","0","[1347.3999999761581]","1","2","","","3983","46","2","3","lose","go","0"
"pit-trial","165","1034645","0.0-51.0","battery-v0.2","","""event"",""trial"",""time""
""fullscreenenter"",""1"",""2502""
","
","
","""event"",""trial"",""time""
""fullscreenenter"",""1"",""2502""
","
","","","-1","","","15","3983","928","h","elianto","#f73b6a7A","-1","-1","1","0","[]","0","2","","","3983","47","3","4","lose","no-go","0"
"pit-trial","166","1038077","0.0-52.0","battery-v0.2","","""event"",""trial"",""time""
""fullscreenenter"",""1"",""2502""
","
","
","""event"",""trial"",""time""
""fullscreenenter"",""1"",""2502""
","
","","","575.1000000238419","","","15","3983","928","r","elianto","#3366ff99","-1"," ","0","0","[1426.9000000357628]","1","2","","","3983","48","1","2","win","no-go","0"
"pit-trial","167","1041617","0.0-53.0","battery-v0.2","","""event"",""trial"",""time""
""fullscreenenter"",""1"",""2502""
","
","
","""event"",""trial"",""time""
""fullscreenenter"",""1"",""2502""
","
","","","679.7000000476837","","","15","3983","928","r","elianto","#3366ff99","-1"," ","0","0","[1530.4000000357628]","1","2","","","3983","49","1","2","win","no-go","0"
"pit-trial","168","1044933","0.0-54.0","battery-v0.2","","""event"",""trial"",""time""
""fullscreenenter"",""1"",""2502""
","
","
","""event"",""trial"",""time""
""fullscreenenter"",""1"",""2502""
","
","","","452.80000001192093","","","15","3983","928","m","elianto","#f73b6a7A"," "," ","1","0","[1311.5999999642372]","1","2","","","3983","50","0","3","lose","go","0"
"pit-trial","169","1048261","0.0-55.0","battery-v0.2","","""event"",""trial"",""time""
""fullscreenenter"",""1"",""2502""
","
","
","""event"",""trial"",""time""
""fullscreenenter"",""1"",""2502""
","
","","","468.5999999642372","","","15","3983","928","y","elianto","#f73b6a7A"," "," ","1","0","[1322.5]","1","2","","","3983","51","2","3","lose","go","0"
"pit-trial","170","1051629","0.0-56.0","battery-v0.2","","""event"",""trial"",""time""
""fullscreenenter"",""1"",""2502""
","
","
","""event"",""trial"",""time""
""fullscreenenter"",""1"",""2502""
","
","","","511.60000002384186","","","15","3983","928","h","elianto","#f73b6a7A","-1"," ","0","-10","[1363.9000000357628]","1","2","","","3983","52","3","4","lose","no-go","0"
"pit-trial","171","1054950","0.0-57.0","battery-v0.2","","""event"",""trial"",""time""
""fullscreenenter"",""1"",""2502""
","
","
","""event"",""trial"",""time""
""fullscreenenter"",""1"",""2502""
","
","","","465.60000002384186","","","15","3983","928","y","elianto","#f73b6a7A"," "," ","1","-10","[1315.6000000238419]","1","2","","","3983","53","2","3","lose","go","1"
"pit-trial","172","1058366","0.0-58.0","battery-v0.2","","""event"",""trial"",""time""
""fullscreenenter"",""1"",""2502""
","
","
","""event"",""trial"",""time""
""fullscreenenter"",""1"",""2502""
","
","","","556.7000000476837","","","15","3983","928","h","elianto","#f73b6a7A","-1"," ","0","-10","[1409.2000000476837]","1","2","","","3983","54","3","4","lose","no-go","0"
"pit-trial","173","1061734","0.0-59.0","battery-v0.2","","""event"",""trial"",""time""
""fullscreenenter"",""1"",""2502""
","
","
","""event"",""trial"",""time""
""fullscreenenter"",""1"",""2502""
","
","","","510.19999998807907","","","15","3983","928","m","elianto","#f73b6a7A"," "," ","1","0","[1362.800000011921]","1","2","","","3983","55","0","3","lose","go","0"
"pit-trial","174","1065111","0.0-60.0","battery-v0.2","","""event"",""trial"",""time""
""fullscreenenter"",""1"",""2502""
","
","
","""event"",""trial"",""time""
""fullscreenenter"",""1"",""2502""
","
","","","517.7999999523163","","","15","3983","928","r","elianto","#3366ff99","-1"," ","0","0","[1370.9000000357628]","1","2","","","3983","56","1","2","win","no-go","0"
"pit-trial","175","1068398","0.0-61.0","battery-v0.2","","""event"",""trial"",""time""
""fullscreenenter"",""1"",""2502""
","
","
","""event"",""trial"",""time""
""fullscreenenter"",""1"",""2502""
","
","","","428.2999999523163","","","15","3983","928","m","elianto","#f73b6a7A"," "," ","1","-10","[1280.5999999642372]","1","2","","","3983","57","0","3","lose","go","1"
"pit-trial","176","1071981","0.0-62.0","battery-v0.2","","""event"",""trial"",""time""
""fullscreenenter"",""1"",""2502""
","
","
","""event"",""trial"",""time""
""fullscreenenter"",""1"",""2502""
","
","","","730.0999999642372","","","15","3983","928","z","elianto","#3366ff99"," "," ","1","+10","[1580.300000011921]","1","2","","","3983","58","4","1","win","go","0"
"pit-trial","177","1076846","0.0-63.0","battery-v0.2","","""event"",""trial"",""time""
""fullscreenenter"",""1"",""2502""
","
","
","""event"",""trial"",""time""
""fullscreenenter"",""1"",""2502""
","
","","","-1","","","15","3983","928","h","elianto","#f73b6a7A","-1","-1","1","0","[]","0","2","","","3983","59","3","4","lose","no-go","0"
"pit-trial","178","1081093","0.0-64.0","battery-v0.2","","""event"",""trial"",""time""
""fullscreenenter"",""1"",""2502""
","
","
","""event"",""trial"",""time""
""fullscreenenter"",""1"",""2502""
","
","","","1392","","","15","3983","928","y","elianto","#f73b6a7A"," "," ","1","-10","[2243.600000023842]","1","2","","","3983","60","2","3","lose","go","1"
"pit-trial","179","1084597","0.0-65.0","battery-v0.2","","""event"",""trial"",""time""
""fullscreenenter"",""1"",""2502""
","
","
","""event"",""trial"",""time""
""fullscreenenter"",""1"",""2502""
","
","","","648.6999999880791","","","15","3983","928","z","elianto","#3366ff99"," "," ","1","+10","[1501.8999999761581]","1","2","","","3983","61","4","1","win","go","0"
"pit-trial","180","1089463","0.0-66.0","battery-v0.2","","""event"",""trial"",""time""
""fullscreenenter"",""1"",""2502""
","
","
","""event"",""trial"",""time""
""fullscreenenter"",""1"",""2502""
","
","","","-1","","","15","3983","928","h","elianto","#f73b6a7A","-1","-1","1","0","[]","0","2","","","3983","62","3","4","lose","no-go","0"
"pit-trial","181","1094080","0.0-67.0","battery-v0.2","","""event"",""trial"",""time""
""fullscreenenter"",""1"",""2502""
","
","
","""event"",""trial"",""time""
""fullscreenenter"",""1"",""2502""
","
","","","1751.300000011921","","","15","3983","928","y","elianto","#f73b6a7A"," "," ","1","-10","[2601.699999988079]","1","2","","","3983","63","2","3","lose","go","1"
"pit-trial","182","1097812","0.0-68.0","battery-v0.2","","""event"",""trial"",""time""
""fullscreenenter"",""1"",""2502""
","
","
","""event"",""trial"",""time""
""fullscreenenter"",""1"",""2502""
","
","","","862.3999999761581","","","15","3983","928","r","elianto","#3366ff99","-1"," ","0","0","[1712.800000011921]","1","2","","","3983","64","1","2","win","no-go","0"
"pit-trial","183","1102677","0.0-69.0","battery-v0.2","","""event"",""trial"",""time""
""fullscreenenter"",""1"",""2502""
","
","
","""event"",""trial"",""time""
""fullscreenenter"",""1"",""2502""
","
","","","-1","","","15","3983","928","r","elianto","#3366ff99","-1","-1","1","+10","[]","0","2","","","3983","65","1","2","win","no-go","0"
"pit-trial","184","1107541","0.0-70.0","battery-v0.2","","""event"",""trial"",""time""
""fullscreenenter"",""1"",""2502""
","
","
","""event"",""trial"",""time""
""fullscreenenter"",""1"",""2502""
","
","","","-1","","","15","3983","928","h","elianto","#f73b6a7A","-1","-1","1","0","[]","0","2","","","3983","66","3","4","lose","no-go","0"
"pit-trial","185","1110886","0.0-71.0","battery-v0.2","","""event"",""trial"",""time""
""fullscreenenter"",""1"",""2502""
","
","
","""event"",""trial"",""time""
""fullscreenenter"",""1"",""2502""
","
","","","486.5","","","15","3983","928","z","elianto","#3366ff99"," "," ","1","+10","[1340.8999999761581]","1","2","","","3983","67","4","1","win","go","0"
"pit-trial","186","1115750","0.0-72.0","battery-v0.2","","""event"",""trial"",""time""
""fullscreenenter"",""1"",""2502""
","
","
","""event"",""trial"",""time""
""fullscreenenter"",""1"",""2502""
","
","","","-1","","","15","3983","928","c","elianto","#3366ff99","-1","-1","1","0","[]","0","2","","","3983","68","5","2","win","no-go","1"
"pit-trial","187","1119190","0.0-73.0","battery-v0.2","","""event"",""trial"",""time""
""fullscreenenter"",""1"",""2502""
","
","
","""event"",""trial"",""time""
""fullscreenenter"",""1"",""2502""
","
","","","580.3999999761581","","","15","3983","928","z","elianto","#3366ff99"," "," ","1","+10","[1433.800000011921]","1","2","","","3983","69","4","1","win","go","0"
"pit-trial","188","1122694","0.0-74.0","battery-v0.2","","""event"",""trial"",""time""
""fullscreenenter"",""1"",""2502""
","
","
","""event"",""trial"",""time""
""fullscreenenter"",""1"",""2502""
","
","","","647","","","15","3983","928","y","elianto","#f73b6a7A"," "," ","1","-10","[1499.5999999642372]","1","2","","","3983","70","2","3","lose","go","1"
"pit-trial","189","1126094","0.0-75.0","battery-v0.2","","""event"",""trial"",""time""
""fullscreenenter"",""1"",""2502""
","
","
","""event"",""trial"",""time""
""fullscreenenter"",""1"",""2502""
","
","","","543.3000000119209","","","15","3983","928","c","elianto","#3366ff99","-1"," ","0","0","[1394.699999988079]","1","2","","","3983","71","5","2","win","no-go","0"
"pit-trial","190","1129471","0.0-76.0","battery-v0.2","","""event"",""trial"",""time""
""fullscreenenter"",""1"",""2502""
","
","
","""event"",""trial"",""time""
""fullscreenenter"",""1"",""2502""
","
","","","518.3999999761581","","","15","3983","928","r","elianto","#3366ff99","-1"," ","0","0","[1369.300000011921]","1","2","","","3983","72","1","2","win","no-go","0"
"pit-trial","191","1132776","0.0-77.0","battery-v0.2","","""event"",""trial"",""time""
""fullscreenenter"",""1"",""2502""
","
","
","""event"",""trial"",""time""
""fullscreenenter"",""1"",""2502""
","
","","","447.19999998807907","","","15","3983","928","r","elianto","#3366ff99","-1"," ","0","0","[1298.8999999761581]","1","2","","","3983","73","1","2","win","no-go","0"
"pit-trial","192","1137638","0.0-78.0","battery-v0.2","","""event"",""trial"",""time""
""fullscreenenter"",""1"",""2502""
","
","
","""event"",""trial"",""time""
""fullscreenenter"",""1"",""2502""
","
","","","-1","","","15","3983","928","h","elianto","#f73b6a7A","-1","-1","1","0","[]","0","2","","","3983","74","3","4","lose","no-go","0"
"pit-trial","193","1140878","0.0-79.0","battery-v0.2","","""event"",""trial"",""time""
""fullscreenenter"",""1"",""2502""
","
","
","""event"",""trial"",""time""
""fullscreenenter"",""1"",""2502""
","
","","","379.19999998807907","","","15","3983","928","c","elianto","#3366ff99","-1"," ","0","0","[1235.0999999642372]","1","2","","","3983","75","5","2","win","no-go","0"
"pit-trial","194","1144254","0.0-80.0","battery-v0.2","","""event"",""trial"",""time""
""fullscreenenter"",""1"",""2502""
","
","
","""event"",""trial"",""time""
""fullscreenenter"",""1"",""2502""
","
","","","521","","","15","3983","928","z","elianto","#3366ff99"," "," ","1","+10","[1371.699999988079]","1","2","","","3983","76","4","1","win","go","0"
"pit-trial","195","1149118","0.0-81.0","battery-v0.2","","""event"",""trial"",""time""
""fullscreenenter"",""1"",""2502""
","
","
","""event"",""trial"",""time""
""fullscreenenter"",""1"",""2502""
","
","","","-1","","","15","3983","928","h","elianto","#f73b6a7A","-1","-1","1","0","[]","0","2","","","3983","77","3","4","lose","no-go","0"
"pit-trial","196","1152470","0.0-82.0","battery-v0.2","","""event"",""trial"",""time""
""fullscreenenter"",""1"",""2502""
","
","
","""event"",""trial"",""time""
""fullscreenenter"",""1"",""2502""
","
","","","493.9000000357628","","","15","3983","928","z","elianto","#3366ff99"," "," ","1","0","[1347.5]","1","2","","","3983","78","4","1","win","go","1"
"pit-trial","197","1155945","0.0-83.0","battery-v0.2","","""event"",""trial"",""time""
""fullscreenenter"",""1"",""2502""
","
","
","""event"",""trial"",""time""
""fullscreenenter"",""1"",""2502""
","
","","","607.1000000238419","","","15","3983","928","c","elianto","#3366ff99","-1"," ","0","0","[1461.300000011921]","1","2","","","3983","79","5","2","win","no-go","0"
"pit-trial","198","1159246","0.0-84.0","battery-v0.2","","""event"",""trial"",""time""
""fullscreenenter"",""1"",""2502""
","
","
","""event"",""trial"",""time""
""fullscreenenter"",""1"",""2502""
","
","","","443.19999998807907","","","15","3983","928","z","elianto","#3366ff99"," "," ","1","+10","[1296.199999988079]","1","2","","","3983","80","4","1","win","go","0"
"pit-trial","199","1162510","0.0-85.0","battery-v0.2","","""event"",""trial"",""time""
""fullscreenenter"",""1"",""2502""
","
","
","""event"",""trial"",""time""
""fullscreenenter"",""1"",""2502""
","
","","","407.39999997615814","","","15","3983","928","z","elianto","#3366ff99"," "," ","1","+10","[1258]","1","2","","","3983","81","4","1","win","go","0"
"pit-trial","200","1165742","0.0-86.0","battery-v0.2","","""event"",""trial"",""time""
""fullscreenenter"",""1"",""2502""
","
","
","""event"",""trial"",""time""
""fullscreenenter"",""1"",""2502""
","
","","","375.5","","","15","3983","928","t","elianto","#f73b6a7A","-1"," ","0","0","[1227.300000011921]","1","2","","","3983","82","7","4","lose","no-go","1"
"pit-trial","201","1169237","0.0-87.0","battery-v0.2","","""event"",""trial"",""time""
""fullscreenenter"",""1"",""2502""
","
","
","""event"",""trial"",""time""
""fullscreenenter"",""1"",""2502""
","
","","","638.6000000238419","","","15","3983","928","c","elianto","#3366ff99","-1"," ","0","+10","[1492.2000000476837]","1","2","","","3983","83","5","2","win","no-go","1"
"pit-trial","202","1174101","0.0-88.0","battery-v0.2","","""event"",""trial"",""time""
""fullscreenenter"",""1"",""2502""
","
","
","""event"",""trial"",""time""
""fullscreenenter"",""1"",""2502""
","
","","","-1","","","15","3983","928","h","elianto","#f73b6a7A","-1","-1","1","0","[]","0","2","","","3983","84","3","4","lose","no-go","0"
"pit-trial","203","1177446","0.0-89.0","battery-v0.2","","""event"",""trial"",""time""
""fullscreenenter"",""1"",""2502""
","
","
","""event"",""trial"",""time""
""fullscreenenter"",""1"",""2502""
","
","","","485.69999998807907","","","15","3983","928","c","elianto","#3366ff99","-1"," ","0","0","[1340.699999988079]","1","2","","","3983","85","5","2","win","no-go","0"
"pit-trial","204","1180686","0.0-90.0","battery-v0.2","","""event"",""trial"",""time""
""fullscreenenter"",""1"",""2502""
","
","
","""event"",""trial"",""time""
""fullscreenenter"",""1"",""2502""
","
","","","384.80000001192093","","","15","3983","928","z","elianto","#3366ff99"," "," ","1","0","[1235.699999988079,2729.5]","2","2","","","3983","86","4","1","win","go","1"
"pit-trial","205","1185550","0.0-91.0","battery-v0.2","","""event"",""trial"",""time""
""fullscreenenter"",""1"",""2502""
","
","
","""event"",""trial"",""time""
""fullscreenenter"",""1"",""2502""
","
","","","-1","","","15","3983","928","t","elianto","#f73b6a7A","-1","-1","1","0","[]","0","2","","","3983","87","7","4","lose","no-go","0"
"pit-trial","206","1190418","0.0-92.0","battery-v0.2","","""event"",""trial"",""time""
""fullscreenenter"",""1"",""2502""
","
","
","""event"",""trial"",""time""
""fullscreenenter"",""1"",""2502""
","
","","","-1","","","15","3983","928","b","elianto","#f73b6a7A"," ","-1","0","0","[]","0","2","","","3983","88","6","3","lose","go","1"
"pit-trial","207","1195286","0.0-93.0","battery-v0.2","","""event"",""trial"",""time""
""fullscreenenter"",""1"",""2502""
","
","
","""event"",""trial"",""time""
""fullscreenenter"",""1"",""2502""
","
","","","-1","","","15","3983","928","t","elianto","#f73b6a7A","-1","-1","1","-10","[]","0","2","","","3983","89","7","4","lose","no-go","1"
"pit-trial","208","1198758","0.0-94.0","battery-v0.2","","""event"",""trial"",""time""
""fullscreenenter"",""1"",""2502""
","
","
","""event"",""trial"",""time""
""fullscreenenter"",""1"",""2502""
","
","","","614.3000000119209","","","15","3983","928","z","elianto","#3366ff99"," "," ","1","+10","[1467.3999999761581]","1","2","","","3983","90","4","1","win","go","0"
"pit-trial","209","1202046","0.0-95.0","battery-v0.2","","""event"",""trial"",""time""
""fullscreenenter"",""1"",""2502""
","
","
","""event"",""trial"",""time""
""fullscreenenter"",""1"",""2502""
","
","","","428.89999997615814","","","15","3983","928","c","elianto","#3366ff99","-1"," ","0","0","[1284.699999988079]","1","2","","","3983","91","5","2","win","no-go","0"
"pit-trial","210","1206910","0.0-96.0","battery-v0.2","","""event"",""trial"",""time""
""fullscreenenter"",""1"",""2502""
","
","
","""event"",""trial"",""time""
""fullscreenenter"",""1"",""2502""
","
","","","-1","","","15","3983","928","b","elianto","#f73b6a7A"," ","-1","0","-10","[]","0","2","","","3983","92","6","3","lose","go","0"
"pit-trial","211","1210230","0.0-97.0","battery-v0.2","","""event"",""trial"",""time""
""fullscreenenter"",""1"",""2502""
","
","
","""event"",""trial"",""time""
""fullscreenenter"",""1"",""2502""
","
","","","464.2000000476837","","","15","3983","928","f","elianto","#3366ff99"," "," ","1","0","[1317.1000000238419]","1","2","","","3983","93","8","1","win","go","1"
"pit-trial","212","1215095","0.0-98.0","battery-v0.2","","""event"",""trial"",""time""
""fullscreenenter"",""1"",""2502""
","
","
","""event"",""trial"",""time""
""fullscreenenter"",""1"",""2502""
","
","","","-1","","","15","3983","928","t","elianto","#f73b6a7A","-1","-1","1","0","[]","0","2","","","3983","94","7","4","lose","no-go","0"
"pit-trial","213","1218381","0.0-99.0","battery-v0.2","","""event"",""trial"",""time""
""fullscreenenter"",""1"",""2502""
","
","
","""event"",""trial"",""time""
""fullscreenenter"",""1"",""2502""
","
","","","432.10000002384186","","","15","3983","928","c","elianto","#3366ff99","-1"," ","0","+10","[1282.7000000476837]","1","2","","","3983","95","5","2","win","no-go","1"
"pit-trial","214","1223245","0.0-100.0","battery-v0.2","","""event"",""trial"",""time""
""fullscreenenter"",""1"",""2502""
","
","
","""event"",""trial"",""time""
""fullscreenenter"",""1"",""2502""
","
","","","-1","","","15","3983","928","b","elianto","#f73b6a7A"," ","-1","0","-10","[]","0","2","","","3983","96","6","3","lose","go","0"
"pit-trial","215","1227094","0.0-101.0","battery-v0.2","","""event"",""trial"",""time""
""fullscreenenter"",""1"",""2502""
","
","
","""event"",""trial"",""time""
""fullscreenenter"",""1"",""2502""
","
","","","992.8000000119209","","","15","3983","928","b","elianto","#f73b6a7A"," "," ","1","0","[1844.199999988079]","1","2","","","3983","97","6","3","lose","go","0"
"pit-trial","216","1230478","0.0-102.0","battery-v0.2","","""event"",""trial"",""time""
""fullscreenenter"",""1"",""2502""
","
","
","""event"",""trial"",""time""
""fullscreenenter"",""1"",""2502""
","
","","","522.0999999642372","","","15","3983","928","f","elianto","#3366ff99"," "," ","1","+10","[1373.8999999761581]","1","2","","","3983","98","8","1","win","go","0"
"pit-trial","217","1233782","0.0-103.0","battery-v0.2","","""event"",""trial"",""time""
""fullscreenenter"",""1"",""2502""
","
","
","""event"",""trial"",""time""
""fullscreenenter"",""1"",""2502""
","
","","","448.60000002384186","","","15","3983","928","c","elianto","#3366ff99","-1"," ","0","+10","[1299.1000000238419]","1","2","","","3983","99","5","2","win","no-go","1"
"pit-trial","218","1238646","0.0-104.0","battery-v0.2","","""event"",""trial"",""time""
""fullscreenenter"",""1"",""2502""
","
","
","""event"",""trial"",""time""
""fullscreenenter"",""1"",""2502""
","
","","","-1","","","15","3983","928","t","elianto","#f73b6a7A","-1","-1","1","0","[]","0","2","","","3983","100","7","4","lose","no-go","0"
"pit-trial","219","1241941","0.0-105.0","battery-v0.2","","""event"",""trial"",""time""
""fullscreenenter"",""1"",""2502""
","
","
","""event"",""trial"",""time""
""fullscreenenter"",""1"",""2502""
","
","","","440.89999997615814","","","15","3983","928","f","elianto","#3366ff99"," "," ","1","0","[1291.300000011921]","1","2","","","3983","101","8","1","win","go","1"
"pit-trial","220","1245270","0.0-106.0","battery-v0.2","","""event"",""trial"",""time""
""fullscreenenter"",""1"",""2502""
","
","
","""event"",""trial"",""time""
""fullscreenenter"",""1"",""2502""
","
","","","470.60000002384186","","","15","3983","928","n","elianto","#3366ff99"," "," ","1","+10","[1324.3999999761581]","1","2","","","3983","102","9","1","win","go","0"
"pit-trial","221","1250135","0.0-107.0","battery-v0.2","","""event"",""trial"",""time""
""fullscreenenter"",""1"",""2502""
","
","
","""event"",""trial"",""time""
""fullscreenenter"",""1"",""2502""
","
","","","-1","","","15","3983","928","t","elianto","#f73b6a7A","-1","-1","1","0","[]","0","2","","","3983","103","7","4","lose","no-go","0"
"pit-trial","222","1253422","0.0-108.0","battery-v0.2","","""event"",""trial"",""time""
""fullscreenenter"",""1"",""2502""
","
","
","""event"",""trial"",""time""
""fullscreenenter"",""1"",""2502""
","
","","","430.4000000357628","","","15","3983","928","c","elianto","#3366ff99","-1"," ","0","0","[1283.800000011921]","1","2","","","3983","104","5","2","win","no-go","0"
"pit-trial","223","1256734","0.0-109.0","battery-v0.2","","""event"",""trial"",""time""
""fullscreenenter"",""1"",""2502""
","
","
","""event"",""trial"",""time""
""fullscreenenter"",""1"",""2502""
","
","","","448","","","15","3983","928","f","elianto","#3366ff99"," "," ","1","+10","[1301.800000011921]","1","2","","","3983","105","8","1","win","go","0"
"pit-trial","224","1261606","0.0-110.0","battery-v0.2","","""event"",""trial"",""time""
""fullscreenenter"",""1"",""2502""
","
","
","""event"",""trial"",""time""
""fullscreenenter"",""1"",""2502""
","
","","","-1","","","15","3983","928","b","elianto","#f73b6a7A"," ","-1","0","-10","[212]","1","2","","","3983","106","6","3","lose","go","0"
"pit-trial","225","1265022","0.0-111.0","battery-v0.2","","""event"",""trial"",""time""
""fullscreenenter"",""1"",""2502""
","
","
","""event"",""trial"",""time""
""fullscreenenter"",""1"",""2502""
","
","","","555.2000000476837","","","15","3983","928","n","elianto","#3366ff99"," "," ","1","+10","[1406.9000000357628]","1","2","","","3983","107","9","1","win","go","0"
"pit-trial","226","1268814","0.0-112.0","battery-v0.2","","""event"",""trial"",""time""
""fullscreenenter"",""1"",""2502""
","
","
","""event"",""trial"",""time""
""fullscreenenter"",""1"",""2502""
","
","","","934.1000000238419","","","15","3983","928","z","elianto","#3366ff99"," "," ","1","+10","[1786.9000000357628]","1","2","","","3983","108","4","1","win","go","0"
"pit-trial","227","1272118","0.0-113.0","battery-v0.2","","""event"",""trial"",""time""
""fullscreenenter"",""1"",""2502""
","
","
","""event"",""trial"",""time""
""fullscreenenter"",""1"",""2502""
","
","","","447.69999998807907","","","15","3983","928","n","elianto","#3366ff99"," "," ","1","0","[1298.699999988079,1797,2340.100000023842]","3","2","","","3983","109","9","1","win","go","1"
"pit-trial","228","1275430","0.0-114.0","battery-v0.2","","""event"",""trial"",""time""
""fullscreenenter"",""1"",""2502""
","
","
","""event"",""trial"",""time""
""fullscreenenter"",""1"",""2502""
","
","","","451.2000000476837","","","15","3983","928","f","elianto","#3366ff99"," "," ","1","+10","[1305.6000000238419]","1","2","","","3983","110","8","1","win","go","0"
"pit-trial","229","1278710","0.0-115.0","battery-v0.2","","""event"",""trial"",""time""
""fullscreenenter"",""1"",""2502""
","
","
","""event"",""trial"",""time""
""fullscreenenter"",""1"",""2502""
","
","","","425","","","15","3983","928","c","elianto","#3366ff99","-1"," ","0","0","[1275.0999999642372]","1","2","","","3983","111","5","2","win","no-go","0"
"pit-trial","230","1283573","0.0-116.0","battery-v0.2","","""event"",""trial"",""time""
""fullscreenenter"",""1"",""2502""
","
","
","""event"",""trial"",""time""
""fullscreenenter"",""1"",""2502""
","
","","","-1","","","15","3983","928","b","elianto","#f73b6a7A"," ","-1","0","-10","[]","0","2","","","3983","112","6","3","lose","go","0"
"pit-trial","231","1288438","0.0-117.0","battery-v0.2","","""event"",""trial"",""time""
""fullscreenenter"",""1"",""2502""
","
","
","""event"",""trial"",""time""
""fullscreenenter"",""1"",""2502""
","
","","","-1","","","15","3983","928","b","elianto","#f73b6a7A"," ","-1","0","-10","[4581.5]","1","2","","","3983","113","6","3","lose","go","0"
"pit-trial","232","1291702","0.0-118.0","battery-v0.2","","""event"",""trial"",""time""
""fullscreenenter"",""1"",""2502""
","
","
","""event"",""trial"",""time""
""fullscreenenter"",""1"",""2502""
","
","","","406.60000002384186","","","15","3983","928","c","elianto","#3366ff99","-1"," ","0","0","[1259.6000000238419]","1","2","","","3983","114","5","2","win","no-go","0"
"pit-trial","233","1294878","0.0-119.0","battery-v0.2","","""event"",""trial"",""time""
""fullscreenenter"",""1"",""2502""
","
","
","""event"",""trial"",""time""
""fullscreenenter"",""1"",""2502""
","
","","","316.80000001192093","","","15","3983","928","f","elianto","#3366ff99"," "," ","1","+10","[1170.8999999761581]","1","2","","","3983","115","8","1","win","go","0"
"pit-trial","234","1298160","0.0-120.0","battery-v0.2","","""event"",""trial"",""time""
""fullscreenenter"",""1"",""2502""
","
","
","""event"",""trial"",""time""
""fullscreenenter"",""1"",""2502""
","
","","","423.10000002384186","","","15","3983","928","n","elianto","#3366ff99"," "," ","1","0","[1273.800000011921]","1","2","","","3983","116","9","1","win","go","1"
"pit-trial","235","1301415","0.0-121.0","battery-v0.2","","""event"",""trial"",""time""
""fullscreenenter"",""1"",""2502""
","
","
","""event"",""trial"",""time""
""fullscreenenter"",""1"",""2502""
","
","","","398.5","","","15","3983","928","b","elianto","#f73b6a7A"," "," ","1","0","[1250.1000000238419]","1","2","","","3983","117","6","3","lose","go","0"
"pit-trial","236","1304663","0.0-122.0","battery-v0.2","","""event"",""trial"",""time""
""fullscreenenter"",""1"",""2502""
","
","
","""event"",""trial"",""time""
""fullscreenenter"",""1"",""2502""
","
","","","392.60000002384186","","","15","3983","928","c","elianto","#3366ff99","-1"," ","0","0","[1243.199999988079]","1","2","","","3983","118","5","2","win","no-go","0"
"pit-trial","237","1307973","0.0-123.0","battery-v0.2","","""event"",""trial"",""time""
""fullscreenenter"",""1"",""2502""
","
","
","""event"",""trial"",""time""
""fullscreenenter"",""1"",""2502""
","
","","","452.5999999642372","","","15","3983","928","n","elianto","#3366ff99"," "," ","1","+10","[1304.8999999761581]","1","2","","","3983","119","9","1","win","go","0"
"pit-trial","238","1311246","0.0-124.0","battery-v0.2","","""event"",""trial"",""time""
""fullscreenenter"",""1"",""2502""
","
","
","""event"",""trial"",""time""
""fullscreenenter"",""1"",""2502""
","
","","","413.89999997615814","","","15","3983","928","f","elianto","#3366ff99"," "," ","1","+10","[1268.199999988079]","1","2","","","3983","120","8","1","win","go","0"
"pit-trial","239","1314485","0.0-125.0","battery-v0.2","","""event"",""trial"",""time""
""fullscreenenter"",""1"",""2502""
","
","
","""event"",""trial"",""time""
""fullscreenenter"",""1"",""2502""
","
","","","384.89999997615814","","","15","3983","928","f","elianto","#3366ff99"," "," ","1","+10","[1235.199999988079]","1","2","","","3983","121","8","1","win","go","0"
"pit-trial","240","1318181","0.0-126.0","battery-v0.2","","""event"",""trial"",""time""
""fullscreenenter"",""1"",""2502""
","
","
","""event"",""trial"",""time""
""fullscreenenter"",""1"",""2502""
","
","","","836.3000000119209","","","15","3983","928","t","elianto","#f73b6a7A","-1"," ","0","-10","[1691.5]","1","2","","","3983","122","7","4","lose","no-go","0"
"pit-trial","241","1321654","0.0-127.0","battery-v0.2","","""event"",""trial"",""time""
""fullscreenenter"",""1"",""2502""
","
","
","""event"",""trial"",""time""
""fullscreenenter"",""1"",""2502""
","
","","","613.1000000238419","","","15","3983","928","b","elianto","#f73b6a7A"," "," ","1","0","[1467.699999988079]","1","2","","","3983","123","6","3","lose","go","0"
"pit-trial","242","1324949","0.0-128.0","battery-v0.2","","""event"",""trial"",""time""
""fullscreenenter"",""1"",""2502""
","
","
","""event"",""trial"",""time""
""fullscreenenter"",""1"",""2502""
","
","","","438.2000000476837","","","15","3983","928","n","elianto","#3366ff99"," "," ","1","+10","[1291.9000000357628]","1","2","","","3983","124","9","1","win","go","0"
"pit-trial","243","1328463","0.0-129.0","battery-v0.2","","""event"",""trial"",""time""
""fullscreenenter"",""1"",""2502""
","
","
","""event"",""trial"",""time""
""fullscreenenter"",""1"",""2502""
","
","","","653.8999999761581","","","15","3983","928","b","elianto","#f73b6a7A"," "," ","1","0","[1508.8999999761581]","1","2","","","3983","125","6","3","lose","go","0"
"pit-trial","244","1333325","0.0-130.0","battery-v0.2","","""event"",""trial"",""time""
""fullscreenenter"",""1"",""2502""
","
","
","""event"",""trial"",""time""
""fullscreenenter"",""1"",""2502""
","
","","","-1","","","15","3983","928","t","elianto","#f73b6a7A","-1","-1","1","-10","[]","0","2","","","3983","126","7","4","lose","no-go","1"
"pit-trial","245","1336646","0.0-131.0","battery-v0.2","","""event"",""trial"",""time""
""fullscreenenter"",""1"",""2502""
","
","
","""event"",""trial"",""time""
""fullscreenenter"",""1"",""2502""
","
","","","462.7000000476837","","","15","3983","928","n","elianto","#3366ff99"," "," ","1","+10","[1315.6000000238419]","1","2","","","3983","127","9","1","win","go","0"
"pit-trial","246","1339949","0.0-132.0","battery-v0.2","","""event"",""trial"",""time""
""fullscreenenter"",""1"",""2502""
","
","
","""event"",""trial"",""time""
""fullscreenenter"",""1"",""2502""
","
","","","448.30000001192093","","","15","3983","928","f","elianto","#3366ff99"," "," ","1","0","[1298.3999999761581]","1","2","","","3983","128","8","1","win","go","1"
"pit-trial","247","1344292","0.0-133.0","battery-v0.2","","""event"",""trial"",""time""
""fullscreenenter"",""1"",""2502""
","
","
","""event"",""trial"",""time""
""fullscreenenter"",""1"",""2502""
","
","","","1477.800000011921","","","15","3983","928","b","elianto","#f73b6a7A"," "," ","1","0","[2331.300000011921]","1","2","","","3983","129","6","3","lose","go","0"
"pit-trial","248","1347623","0.0-134.0","battery-v0.2","","""event"",""trial"",""time""
""fullscreenenter"",""1"",""2502""
","
","
","""event"",""trial"",""time""
""fullscreenenter"",""1"",""2502""
","
","","","470.60000002384186","","","15","3983","928","n","elianto","#3366ff99"," "," ","1","+10","[1323.3999999761581]","1","2","","","3983","130","9","1","win","go","0"
"pit-trial","249","1350926","0.0-135.0","battery-v0.2","","""event"",""trial"",""time""
""fullscreenenter"",""1"",""2502""
","
","
","""event"",""trial"",""time""
""fullscreenenter"",""1"",""2502""
","
","","","445.5","","","15","3983","928","f","elianto","#3366ff99"," "," ","1","+10","[1297.1000000238419]","1","2","","","3983","131","8","1","win","go","0"
"pit-trial","250","1355749","0.0-136.0","battery-v0.2","","""event"",""trial"",""time""
""fullscreenenter"",""1"",""2502""
","
","
","""event"",""trial"",""time""
""fullscreenenter"",""1"",""2502""
","
","","","1966.699999988079","","","15","3983","928","t","elianto","#f73b6a7A","-1"," ","0","-10","[2818.199999988079]","1","2","","","3983","132","7","4","lose","no-go","0"
"pit-trial","251","1359022","0.0-137.0","battery-v0.2","","""event"",""trial"",""time""
""fullscreenenter"",""1"",""2502""
","
","
","""event"",""trial"",""time""
""fullscreenenter"",""1"",""2502""
","
","","","413.7999999523163","","","15","3983","928","f","elianto","#3366ff99"," "," ","1","+10","[1267.199999988079]","1","2","","","3983","133","8","1","win","go","0"
"pit-trial","252","1362358","0.0-138.0","battery-v0.2","","""event"",""trial"",""time""
""fullscreenenter"",""1"",""2502""
","
","
","""event"",""trial"",""time""
""fullscreenenter"",""1"",""2502""
","
","","","478.2999999523163","","","15","3983","928","n","elianto","#3366ff99"," "," ","1","+10","[1331.2999999523163]","1","2","","","3983","134","9","1","win","go","0"
"pit-trial","253","1365542","0.0-139.0","battery-v0.2","","""event"",""trial"",""time""
""fullscreenenter"",""1"",""2502""
","
","
","""event"",""trial"",""time""
""fullscreenenter"",""1"",""2502""
","
","","","325.60000002384186","","","15","3983","928","b","elianto","#f73b6a7A"," "," ","1","0","[1179.1000000238419]","1","2","","","3983","135","6","3","lose","go","0"
"pit-trial","254","1370406","0.0-140.0","battery-v0.2","","""event"",""trial"",""time""
""fullscreenenter"",""1"",""2502""
","
","
","""event"",""trial"",""time""
""fullscreenenter"",""1"",""2502""
","
","","","-1","","","15","3983","928","t","elianto","#f73b6a7A","-1","-1","1","0","[]","0","2","","","3983","136","7","4","lose","no-go","0"
"pit-trial","255","1374070","0.0-141.0","battery-v0.2","","""event"",""trial"",""time""
""fullscreenenter"",""1"",""2502""
","
","
","""event"",""trial"",""time""
""fullscreenenter"",""1"",""2502""
","
","","","806.6000000238419","","","15","3983","928","t","elianto","#f73b6a7A","-1"," ","0","-10","[1659.4000000357628]","1","2","","","3983","137","7","4","lose","no-go","0"
"pit-trial","256","1377414","0.0-142.0","battery-v0.2","","""event"",""trial"",""time""
""fullscreenenter"",""1"",""2502""
","
","
","""event"",""trial"",""time""
""fullscreenenter"",""1"",""2502""
","
","","","485.5999999642372","","","15","3983","928","n","elianto","#3366ff99"," "," ","1","+10","[1338.8999999761581]","1","2","","","3983","138","9","1","win","go","0"
"pit-trial","257","1380486","0.0-143.0","battery-v0.2","","""event"",""trial"",""time""
""fullscreenenter"",""1"",""2502""
","
","
","""event"",""trial"",""time""
""fullscreenenter"",""1"",""2502""
","
","","","216.89999997615814","","","15","3983","928","f","elianto","#3366ff99"," "," ","1","0","[1067.4000000357628]","1","2","","","3983","139","8","1","win","go","1"
"pit-trial","258","1385014","0.0-144.0","battery-v0.2","","""event"",""trial"",""time""
""fullscreenenter"",""1"",""2502""
","
","
","""event"",""trial"",""time""
""fullscreenenter"",""1"",""2502""
","
