"trial_type","trial_index","time_elapsed","internal_node_id","task_version","subject_id","interactions","blur_events","focus_events","fullscreenenter_events","fullscreenexit_events","success","view_history","rt","responses","num_errors","age","subject","participantId","rune","rune_set","hex","correct","choice","accuracy","outcome","keys","total_keys","block","practice","value","sub","trial","stimulus","robot","valence","action","sham"
"pavlovia","0","7","0.0-0.0","battery-v0.2","","""event"",""trial"",""time""
""fullscreenenter"",""1"",""2458""
","
","
","""event"",""trial"",""time""
""fullscreenenter"",""1"",""2458""
","
","","","","","","","","","","","","","","","","","","","","","","","","","","",""
"fullscreen","1","3431","0.0-1.0","battery-v0.2","","""event"",""trial"",""time""
""fullscreenenter"",""1"",""2458""
""blur"",""2"",""8193""
""focus"",""2"",""9667""
","""event"",""trial"",""time""
""blur"",""2"",""8193""
","""event"",""trial"",""time""
""focus"",""2"",""9667""
","""event"",""trial"",""time""
""fullscreenenter"",""1"",""2458""
","
","true","","","","","","","","","","","","","","","","","","","","","","","","","",""
"pit-instructions","2","10500","0.0-2.0-0.0","battery-v0.2","","""event"",""trial"",""time""
""fullscreenenter"",""1"",""2458""
""blur"",""2"",""8193""
""focus"",""2"",""9667""
""blur"",""3"",""14053""
""focus"",""3"",""16357""
","""event"",""trial"",""time""
""blur"",""2"",""8193""
""blur"",""3"",""14053""
","""event"",""trial"",""time""
""focus"",""2"",""9667""
""focus"",""3"",""16357""
","""event"",""trial"",""time""
""fullscreenenter"",""1"",""2458""
","
","","[{""page_index"":0,""viewing_time"":7065.5999999940395}]","7066","","","","","","","","","","","","","","","","","","","","","","","",""
"pit-comprehension","3","17736","0.0-2.0-1.0-0.0","battery-v0.2","","""event"",""trial"",""time""
""fullscreenenter"",""1"",""2458""
""blur"",""2"",""8193""
""focus"",""2"",""9667""
""blur"",""3"",""14053""
""focus"",""3"",""16357""
","""event"",""trial"",""time""
""blur"",""2"",""8193""
""blur"",""3"",""14053""
","""event"",""trial"",""time""
""focus"",""2"",""9667""
""focus"",""3"",""16357""
","""event"",""trial"",""time""
""fullscreenenter"",""1"",""2458""
","
","","","7232.5999999940395","[""shark""]","0","25","13492","5892","","","","","","","","","","","","","","","","","","",""
"pit-instructions","4","20416","0.0-2.0-1.0-1.0","battery-v0.2","","""event"",""trial"",""time""
""fullscreenenter"",""1"",""2458""
""blur"",""2"",""8193""
""focus"",""2"",""9667""
""blur"",""3"",""14053""
""focus"",""3"",""16357""
","""event"",""trial"",""time""
""blur"",""2"",""8193""
""blur"",""3"",""14053""
","""event"",""trial"",""time""
""focus"",""2"",""9667""
""focus"",""3"",""16357""
","""event"",""trial"",""time""
""fullscreenenter"",""1"",""2458""
","
","","[{""page_index"":0,""viewing_time"":2673.5}]","2673.9000000059605","","","","","","","","","","","","","","","","","","","","","","","",""
"pit-comprehension","5","22972","0.0-2.0-2.0-0.0","battery-v0.2","","""event"",""trial"",""time""
""fullscreenenter"",""1"",""2458""
""blur"",""2"",""8193""
""focus"",""2"",""9667""
""blur"",""3"",""14053""
""focus"",""3"",""16357""
","""event"",""trial"",""time""
""blur"",""2"",""8193""
""blur"",""3"",""14053""
","""event"",""trial"",""time""
""focus"",""2"",""9667""
""focus"",""3"",""16357""
","""event"",""trial"",""time""
""fullscreenenter"",""1"",""2458""
","
","","","2552.0999999940395","[""tiger""]","0","25","13492","5892","","","","","","","","","","","","","","","","","","",""
"pit-instructions","6","25718","0.0-2.0-2.0-1.0","battery-v0.2","","""event"",""trial"",""time""
""fullscreenenter"",""1"",""2458""
""blur"",""2"",""8193""
""focus"",""2"",""9667""
""blur"",""3"",""14053""
""focus"",""3"",""16357""
","""event"",""trial"",""time""
""blur"",""2"",""8193""
""blur"",""3"",""14053""
","""event"",""trial"",""time""
""focus"",""2"",""9667""
""focus"",""3"",""16357""
","""event"",""trial"",""time""
""fullscreenenter"",""1"",""2458""
","
","","[{""page_index"":0,""viewing_time"":2742.9000000059605}]","2743.199999988079","","","","","","","","","","","","","","","","","","","","","","","",""
"pit-instructions","7","157519","0.0-2.0-3.0","battery-v0.2","","""event"",""trial"",""time""
""fullscreenenter"",""1"",""2458""
""blur"",""2"",""8193""
""focus"",""2"",""9667""
""blur"",""3"",""14053""
""focus"",""3"",""16357""
","""event"",""trial"",""time""
""blur"",""2"",""8193""
""blur"",""3"",""14053""
","""event"",""trial"",""time""
""focus"",""2"",""9667""
""focus"",""3"",""16357""
","""event"",""trial"",""time""
""fullscreenenter"",""1"",""2458""
","
","","[{""page_index"":0,""viewing_time"":8864.09999999404},{""page_index"":1,""viewing_time"":5870.0999999940395},{""page_index"":2,""viewing_time"":6943.600000023842},{""page_index"":3,""viewing_time"":6086.0999999940395},{""page_index"":4,""viewing_time"":5246.799999982119},{""page_index"":5,""viewing_time"":6105.200000017881},{""page_index"":6,""viewing_time"":8717.199999988079},{""page_index"":7,""viewing_time"":6296.9000000059605},{""page_index"":8,""viewing_time"":6878},{""page_index"":9,""viewing_time"":42017.30000001192},{""page_index"":10,""viewing_time"":7603.5999999940395},{""page_index"":11,""viewing_time"":6914.699999988079},{""page_index"":12,""viewing_time"":8211.5},{""page_index"":13,""viewing_time"":6042.200000017881}]","131797.80000001192","","","","","","","","","","","","","","","","","","","","","","","",""
"pit-trial","8","160991","0.0-2.0-4.0-0.0","battery-v0.2","","""event"",""trial"",""time""
""fullscreenenter"",""1"",""2458""
""blur"",""2"",""8193""
""focus"",""2"",""9667""
""blur"",""3"",""14053""
""focus"",""3"",""16357""
","""event"",""trial"",""time""
""blur"",""2"",""8193""
""blur"",""3"",""14053""
","""event"",""trial"",""time""
""focus"",""2"",""9667""
""focus"",""3"",""16357""
","""event"",""trial"",""time""
""fullscreenenter"",""1"",""2458""
","
","","","610.5","","","25","13492","5892","&#9784;","elianto","#FFFFF080"," "," ","1","&#10004","[1461.2000000178814]","1","0","0","","","","","","","",""
"pit-trial","9","164292","0.0-2.0-4.1-0.1","battery-v0.2","","""event"",""trial"",""time""
""fullscreenenter"",""1"",""2458""
""blur"",""2"",""8193""
""focus"",""2"",""9667""
""blur"",""3"",""14053""
""focus"",""3"",""16357""
","""event"",""trial"",""time""
""blur"",""2"",""8193""
""blur"",""3"",""14053""
","""event"",""trial"",""time""
""focus"",""2"",""9667""
""focus"",""3"",""16357""
","""event"",""trial"",""time""
""fullscreenenter"",""1"",""2458""
","
","","","424.69999998807907","","","25","13492","5892","&#9784;","elianto","#FFFFF080"," "," ","1","&#10004","[1283.5999999940395]","1","0","0","","","","","","","",""
"pit-trial","10","167602","0.0-2.0-4.2-0.2","battery-v0.2","","""event"",""trial"",""time""
""fullscreenenter"",""1"",""2458""
""blur"",""2"",""8193""
""focus"",""2"",""9667""
""blur"",""3"",""14053""
""focus"",""3"",""16357""
","""event"",""trial"",""time""
""blur"",""2"",""8193""
""blur"",""3"",""14053""
","""event"",""trial"",""time""
""focus"",""2"",""9667""
""focus"",""3"",""16357""
","""event"",""trial"",""time""
""fullscreenenter"",""1"",""2458""
","
","","","444.40000000596046","","","25","13492","5892","&#9784;","elianto","#FFFFF080"," "," ","1","&#10004","[1302.699999988079]","1","0","0","","","","","","","",""
"pit-trial","11","170842","0.0-2.0-4.3-0.3","battery-v0.2","","""event"",""trial"",""time""
""fullscreenenter"",""1"",""2458""
""blur"",""2"",""8193""
""focus"",""2"",""9667""
""blur"",""3"",""14053""
""focus"",""3"",""16357""
","""event"",""trial"",""time""
""blur"",""2"",""8193""
""blur"",""3"",""14053""
","""event"",""trial"",""time""
""focus"",""2"",""9667""
""focus"",""3"",""16357""
","""event"",""trial"",""time""
""fullscreenenter"",""1"",""2458""
","
","","","382.7000000178814","","","25","13492","5892","&#9784;","elianto","#FFFFF080"," "," ","1","&#10004","[1233.5]","1","0","0","","","","","","","",""
"pit-trial","12","174116","0.0-2.0-4.4-0.4","battery-v0.2","","""event"",""trial"",""time""
""fullscreenenter"",""1"",""2458""
""blur"",""2"",""8193""
""focus"",""2"",""9667""
""blur"",""3"",""14053""
""focus"",""3"",""16357""
","""event"",""trial"",""time""
""blur"",""2"",""8193""
""blur"",""3"",""14053""
","""event"",""trial"",""time""
""focus"",""2"",""9667""
""focus"",""3"",""16357""
","""event"",""trial"",""time""
""fullscreenenter"",""1"",""2458""
","
","","","408.30000001192093","","","25","13492","5892","&#9784;","elianto","#FFFFF080"," "," ","1","&#10004","[1264.800000011921]","1","0","0","","","","","","","",""
"pit-instructions","13","219342","0.0-2.0-5.0","battery-v0.2","","""event"",""trial"",""time""
""fullscreenenter"",""1"",""2458""
""blur"",""2"",""8193""
""focus"",""2"",""9667""
""blur"",""3"",""14053""
""focus"",""3"",""16357""
","""event"",""trial"",""time""
""blur"",""2"",""8193""
""blur"",""3"",""14053""
","""event"",""trial"",""time""
""focus"",""2"",""9667""
""focus"",""3"",""16357""
","""event"",""trial"",""time""
""fullscreenenter"",""1"",""2458""
","
","","[{""page_index"":0,""viewing_time"":5694.5999999940395},{""page_index"":1,""viewing_time"":24725.69999998808},{""page_index"":2,""viewing_time"":8628},{""page_index"":3,""viewing_time"":6175.5}]","45224.09999999404","","","","","","","","","","","","","","","","","","","","","","","",""
"pit-trial","14","224212","0.0-2.0-6.0-0.0","battery-v0.2","","""event"",""trial"",""time""
""fullscreenenter"",""1"",""2458""
""blur"",""2"",""8193""
""focus"",""2"",""9667""
""blur"",""3"",""14053""
""focus"",""3"",""16357""
","""event"",""trial"",""time""
""blur"",""2"",""8193""
""blur"",""3"",""14053""
","""event"",""trial"",""time""
""focus"",""2"",""9667""
""focus"",""3"",""16357""
","""event"",""trial"",""time""
""fullscreenenter"",""1"",""2458""
","
","","","-1","","","25","13492","5892","&#9854;","elianto","#FFFFF080","-1","-1","1","&#10004","[]","0","0","1","","","","","","","",""
"pit-trial","15","229082","0.0-2.0-6.1-0.1","battery-v0.2","","""event"",""trial"",""time""
""fullscreenenter"",""1"",""2458""
""blur"",""2"",""8193""
""focus"",""2"",""9667""
""blur"",""3"",""14053""
""focus"",""3"",""16357""
","""event"",""trial"",""time""
""blur"",""2"",""8193""
""blur"",""3"",""14053""
","""event"",""trial"",""time""
""focus"",""2"",""9667""
""focus"",""3"",""16357""
","""event"",""trial"",""time""
""fullscreenenter"",""1"",""2458""
","
","","","-1","","","25","13492","5892","&#9854;","elianto","#FFFFF080","-1","-1","1","&#10004","[]","0","0","1","","","","","","","",""
"pit-trial","16","233952","0.0-2.0-6.2-0.2","battery-v0.2","","""event"",""trial"",""time""
""fullscreenenter"",""1"",""2458""
""blur"",""2"",""8193""
""focus"",""2"",""9667""
""blur"",""3"",""14053""
""focus"",""3"",""16357""
","""event"",""trial"",""time""
""blur"",""2"",""8193""
""blur"",""3"",""14053""
","""event"",""trial"",""time""
""focus"",""2"",""9667""
""focus"",""3"",""16357""
","""event"",""trial"",""time""
""fullscreenenter"",""1"",""2458""
","
","","","-1","","","25","13492","5892","&#9854;","elianto","#FFFFF080","-1","-1","1","&#10004","[]","0","0","1","","","","","","","",""
"pit-trial","17","238827","0.0-2.0-6.3-0.3","battery-v0.2","","""event"",""trial"",""time""
""fullscreenenter"",""1"",""2458""
""blur"",""2"",""8193""
""focus"",""2"",""9667""
""blur"",""3"",""14053""
""focus"",""3"",""16357""
","""event"",""trial"",""time""
""blur"",""2"",""8193""
""blur"",""3"",""14053""
","""event"",""trial"",""time""
""focus"",""2"",""9667""
""focus"",""3"",""16357""
","""event"",""trial"",""time""
""fullscreenenter"",""1"",""2458""
","
","","","-1","","","25","13492","5892","&#9854;","elianto","#FFFFF080","-1","-1","1","&#10004","[]","0","0","1","","","","","","","",""
"pit-trial","18","243701","0.0-2.0-6.4-0.4","battery-v0.2","","""event"",""trial"",""time""
""fullscreenenter"",""1"",""2458""
""blur"",""2"",""8193""
""focus"",""2"",""9667""
""blur"",""3"",""14053""
""focus"",""3"",""16357""
","""event"",""trial"",""time""
""blur"",""2"",""8193""
""blur"",""3"",""14053""
","""event"",""trial"",""time""
""focus"",""2"",""9667""
""focus"",""3"",""16357""
","""event"",""trial"",""time""
""fullscreenenter"",""1"",""2458""
","
","","","-1","","","25","13492","5892","&#9854;","elianto","#FFFFF080","-1","-1","1","&#10004","[]","0","0","1","","","","","","","",""
"pit-instructions","19","398798","0.0-2.0-7.0","battery-v0.2","","""event"",""trial"",""time""
""fullscreenenter"",""1"",""2458""
""blur"",""2"",""8193""
""focus"",""2"",""9667""
""blur"",""3"",""14053""
""focus"",""3"",""16357""
","""event"",""trial"",""time""
""blur"",""2"",""8193""
""blur"",""3"",""14053""
","""event"",""trial"",""time""
""focus"",""2"",""9667""
""focus"",""3"",""16357""
","""event"",""trial"",""time""
""fullscreenenter"",""1"",""2458""
","
","","[{""page_index"":0,""viewing_time"":6001},{""page_index"":1,""viewing_time"":7410.699999988079},{""page_index"":2,""viewing_time"":9215.699999988079},{""page_index"":3,""viewing_time"":9579.300000011921},{""page_index"":4,""viewing_time"":6687.300000011921},{""page_index"":5,""viewing_time"":7728.5},{""page_index"":6,""viewing_time"":5122.0999999940395},{""page_index"":7,""viewing_time"":8132.4000000059605},{""page_index"":8,""viewing_time"":6517.5},{""page_index"":9,""viewing_time"":6089.399999976158},{""page_index"":10,""viewing_time"":6469},{""page_index"":11,""viewing_time"":5142.600000023842},{""page_index"":12,""viewing_time"":7489.399999976158},{""page_index"":13,""viewing_time"":19211.5},{""page_index"":14,""viewing_time"":14926.90000000596},{""page_index"":15,""viewing_time"":9683.90000000596},{""page_index"":16,""viewing_time"":11849.199999988079},{""page_index"":17,""viewing_time"":7838.100000023842}]","155094.79999998212","","","","","","","","","","","","","","","","","","","","","","","",""
"pit-trial","20","402492","0.0-2.0-8.0-0.0","battery-v0.2","","""event"",""trial"",""time""
""fullscreenenter"",""1"",""2458""
""blur"",""2"",""8193""
""focus"",""2"",""9667""
""blur"",""3"",""14053""
""focus"",""3"",""16357""
","""event"",""trial"",""time""
""blur"",""2"",""8193""
""blur"",""3"",""14053""
","""event"",""trial"",""time""
""focus"",""2"",""9667""
""focus"",""3"",""16357""
","""event"",""trial"",""time""
""fullscreenenter"",""1"",""2458""
","
","","","834","","","25","13492","5892","&#9776;","elianto","#3366ff99"," "," ","1","+10","[1686.5]","1","0","1","","","","","","","",""
"pit-trial","21","406012","0.0-2.0-8.0-1.0","battery-v0.2","","""event"",""trial"",""time""
""fullscreenenter"",""1"",""2458""
""blur"",""2"",""8193""
""focus"",""2"",""9667""
""blur"",""3"",""14053""
""focus"",""3"",""16357""
","""event"",""trial"",""time""
""blur"",""2"",""8193""
""blur"",""3"",""14053""
","""event"",""trial"",""time""
""focus"",""2"",""9667""
""focus"",""3"",""16357""
","""event"",""trial"",""time""
""fullscreenenter"",""1"",""2458""
","
","","","649.0999999940395","","","25","13492","5892","&#9776;","elianto","#3366ff99"," "," ","1","+10","[1510.5999999940395]","1","0","1","","","","","","","",""
"pit-trial","22","409462","0.0-2.0-8.0-2.0","battery-v0.2","","""event"",""trial"",""time""
""fullscreenenter"",""1"",""2458""
""blur"",""2"",""8193""
""focus"",""2"",""9667""
""blur"",""3"",""14053""
""focus"",""3"",""16357""
","""event"",""trial"",""time""
""blur"",""2"",""8193""
""blur"",""3"",""14053""
","""event"",""trial"",""time""
""focus"",""2"",""9667""
""focus"",""3"",""16357""
","""event"",""trial"",""time""
""fullscreenenter"",""1"",""2458""
","
","","","580.7999999821186","","","25","13492","5892","&#9776;","elianto","#3366ff99"," "," ","1","+10","[1437.9000000059605]","1","0","1","","","","","","","",""
"pit-trial","23","412942","0.0-2.0-8.0-3.0","battery-v0.2","","""event"",""trial"",""time""
""fullscreenenter"",""1"",""2458""
""blur"",""2"",""8193""
""focus"",""2"",""9667""
""blur"",""3"",""14053""
""focus"",""3"",""16357""
","""event"",""trial"",""time""
""blur"",""2"",""8193""
""blur"",""3"",""14053""
","""event"",""trial"",""time""
""focus"",""2"",""9667""
""focus"",""3"",""16357""
","""event"",""trial"",""time""
""fullscreenenter"",""1"",""2458""
","
","","","619","","","25","13492","5892","&#9776;","elianto","#3366ff99"," "," ","1","0","[1475.2999999821186]","1","0","1","","","","","","","",""
"pit-trial","24","416461","0.0-2.0-8.0-4.0","battery-v0.2","","""event"",""trial"",""time""
""fullscreenenter"",""1"",""2458""
""blur"",""2"",""8193""
""focus"",""2"",""9667""
""blur"",""3"",""14053""
""focus"",""3"",""16357""
","""event"",""trial"",""time""
""blur"",""2"",""8193""
""blur"",""3"",""14053""
","""event"",""trial"",""time""
""focus"",""2"",""9667""
""focus"",""3"",""16357""
","""event"",""trial"",""time""
""fullscreenenter"",""1"",""2458""
","
","","","652.3999999761581","","","25","13492","5892","&#9776;","elianto","#3366ff99"," "," ","1","+10","[1510.2999999821186]","1","0","1","","","","","","","",""
"pit-trial","25","419742","0.0-2.0-8.1-0.1","battery-v0.2","","""event"",""trial"",""time""
""fullscreenenter"",""1"",""2458""
""blur"",""2"",""8193""
""focus"",""2"",""9667""
""blur"",""3"",""14053""
""focus"",""3"",""16357""
","""event"",""trial"",""time""
""blur"",""2"",""8193""
""blur"",""3"",""14053""
","""event"",""trial"",""time""
""focus"",""2"",""9667""
""focus"",""3"",""16357""
","""event"",""trial"",""time""
""fullscreenenter"",""1"",""2458""
","
","","","423","","","25","13492","5892","&#9776;","elianto","#3366ff99"," "," ","1","+10","[1276.300000011921]","1","0","1","","","","","","","",""
"pit-trial","26","423042","0.0-2.0-8.1-1.1","battery-v0.2","","""event"",""trial"",""time""
""fullscreenenter"",""1"",""2458""
""blur"",""2"",""8193""
""focus"",""2"",""9667""
""blur"",""3"",""14053""
""focus"",""3"",""16357""
","""event"",""trial"",""time""
""blur"",""2"",""8193""
""blur"",""3"",""14053""
","""event"",""trial"",""time""
""focus"",""2"",""9667""
""focus"",""3"",""16357""
","""event"",""trial"",""time""
""fullscreenenter"",""1"",""2458""
","
","","","437.80000001192093","","","25","13492","5892","&#9776;","elianto","#3366ff99"," "," ","1","+10","[1293.300000011921]","1","0","1","","","","","","","",""
"pit-trial","27","426612","0.0-2.0-8.1-2.1","battery-v0.2","","""event"",""trial"",""time""
""fullscreenenter"",""1"",""2458""
""blur"",""2"",""8193""
""focus"",""2"",""9667""
""blur"",""3"",""14053""
""focus"",""3"",""16357""
","""event"",""trial"",""time""
""blur"",""2"",""8193""
""blur"",""3"",""14053""
","""event"",""trial"",""time""
""focus"",""2"",""9667""
""focus"",""3"",""16357""
","""event"",""trial"",""time""
""fullscreenenter"",""1"",""2458""
","
","","","705.5","","","25","13492","5892","&#9776;","elianto","#3366ff99"," "," ","1","+10","[1560]","1","0","1","","","","","","","",""
"pit-trial","28","430312","0.0-2.0-8.1-3.1","battery-v0.2","","""event"",""trial"",""time""
""fullscreenenter"",""1"",""2458""
""blur"",""2"",""8193""
""focus"",""2"",""9667""
""blur"",""3"",""14053""
""focus"",""3"",""16357""
","""event"",""trial"",""time""
""blur"",""2"",""8193""
""blur"",""3"",""14053""
","""event"",""trial"",""time""
""focus"",""2"",""9667""
""focus"",""3"",""16357""
","""event"",""trial"",""time""
""fullscreenenter"",""1"",""2458""
","
","","","843.4000000059605","","","25","13492","5892","&#9776;","elianto","#3366ff99"," "," ","1","0","[1694.7000000178814]","1","0","1","","","","","","","",""
"pit-trial","29","433698","0.0-2.0-8.1-4.1","battery-v0.2","","""event"",""trial"",""time""
""fullscreenenter"",""1"",""2458""
""blur"",""2"",""8193""
""focus"",""2"",""9667""
""blur"",""3"",""14053""
""focus"",""3"",""16357""
","""event"",""trial"",""time""
""blur"",""2"",""8193""
""blur"",""3"",""14053""
","""event"",""trial"",""time""
""focus"",""2"",""9667""
""focus"",""3"",""16357""
","""event"",""trial"",""time""
""fullscreenenter"",""1"",""2458""
","
","","","529.7999999821186","","","25","13492","5892","&#9776;","elianto","#3366ff99"," "," ","1","+10","[1380]","1","0","1","","","","","","","",""
"pit-trial","30","436978","0.0-2.0-8.2-0.2","battery-v0.2","","""event"",""trial"",""time""
""fullscreenenter"",""1"",""2458""
""blur"",""2"",""8193""
""focus"",""2"",""9667""
""blur"",""3"",""14053""
""focus"",""3"",""16357""
","""event"",""trial"",""time""
""blur"",""2"",""8193""
""blur"",""3"",""14053""
","""event"",""trial"",""time""
""focus"",""2"",""9667""
""focus"",""3"",""16357""
","""event"",""trial"",""time""
""fullscreenenter"",""1"",""2458""
","
","","","418.2000000178814","","","25","13492","5892","&#9776;","elianto","#3366ff99"," "," ","1","+10","[1272.300000011921]","1","0","1","","","","","","","",""
"pit-trial","31","440485","0.0-2.0-8.2-1.2","battery-v0.2","","""event"",""trial"",""time""
""fullscreenenter"",""1"",""2458""
""blur"",""2"",""8193""
""focus"",""2"",""9667""
""blur"",""3"",""14053""
""focus"",""3"",""16357""
","""event"",""trial"",""time""
""blur"",""2"",""8193""
""blur"",""3"",""14053""
","""event"",""trial"",""time""
""focus"",""2"",""9667""
""focus"",""3"",""16357""
","""event"",""trial"",""time""
""fullscreenenter"",""1"",""2458""
","
","","","646.4000000059605","","","25","13492","5892","&#9776;","elianto","#3366ff99"," "," ","1","+10","[1496.5]","1","0","1","","","","","","","",""
"pit-trial","32","443989","0.0-2.0-8.2-2.2","battery-v0.2","","""event"",""trial"",""time""
""fullscreenenter"",""1"",""2458""
""blur"",""2"",""8193""
""focus"",""2"",""9667""
""blur"",""3"",""14053""
""focus"",""3"",""16357""
","""event"",""trial"",""time""
""blur"",""2"",""8193""
""blur"",""3"",""14053""
","""event"",""trial"",""time""
""focus"",""2"",""9667""
""focus"",""3"",""16357""
","""event"",""trial"",""time""
""fullscreenenter"",""1"",""2458""
","
","","","641.0999999940395","","","25","13492","5892","&#9776;","elianto","#3366ff99"," "," ","1","+10","[1496.9000000059605]","1","0","1","","","","","","","",""
"pit-trial","33","447345","0.0-2.0-8.2-3.2","battery-v0.2","","""event"",""trial"",""time""
""fullscreenenter"",""1"",""2458""
""blur"",""2"",""8193""
""focus"",""2"",""9667""
""blur"",""3"",""14053""
""focus"",""3"",""16357""
","""event"",""trial"",""time""
""blur"",""2"",""8193""
""blur"",""3"",""14053""
","""event"",""trial"",""time""
""focus"",""2"",""9667""
""focus"",""3"",""16357""
","""event"",""trial"",""time""
""fullscreenenter"",""1"",""2458""
","
","","","499.5","","","25","13492","5892","&#9776;","elianto","#3366ff99"," "," ","1","0","[1349.7999999821186]","1","0","1","","","","","","","",""
"pit-trial","34","450584","0.0-2.0-8.2-4.2","battery-v0.2","","""event"",""trial"",""time""
""fullscreenenter"",""1"",""2458""
""blur"",""2"",""8193""
""focus"",""2"",""9667""
""blur"",""3"",""14053""
""focus"",""3"",""16357""
","""event"",""trial"",""time""
""blur"",""2"",""8193""
""blur"",""3"",""14053""
","""event"",""trial"",""time""
""focus"",""2"",""9667""
""focus"",""3"",""16357""
","""event"",""trial"",""time""
""fullscreenenter"",""1"",""2458""
","
","","","378","","","25","13492","5892","&#9776;","elianto","#3366ff99"," "," ","1","+10","[1233.9000000059605]","1","0","1","","","","","","","",""
"call-function","35","450586","0.0-2.0-9.0","battery-v0.2","","""event"",""trial"",""time""
""fullscreenenter"",""1"",""2458""
""blur"",""2"",""8193""
""focus"",""2"",""9667""
""blur"",""3"",""14053""
""focus"",""3"",""16357""
","""event"",""trial"",""time""
""blur"",""2"",""8193""
""blur"",""3"",""14053""
","""event"",""trial"",""time""
""focus"",""2"",""9667""
""focus"",""3"",""16357""
","""event"",""trial"",""time""
""fullscreenenter"",""1"",""2458""
","
","","","","","","","","","","","","","","","","","","","","","","","","","","",""
"pit-instructions","36","490197","0.0-2.0-10.0","battery-v0.2","","""event"",""trial"",""time""
""fullscreenenter"",""1"",""2458""
""blur"",""2"",""8193""
""focus"",""2"",""9667""
""blur"",""3"",""14053""
""focus"",""3"",""16357""
","""event"",""trial"",""time""
""blur"",""2"",""8193""
""blur"",""3"",""14053""
","""event"",""trial"",""time""
""focus"",""2"",""9667""
""focus"",""3"",""16357""
","""event"",""trial"",""time""
""fullscreenenter"",""1"",""2458""
","
","","[{""page_index"":0,""viewing_time"":6582.899999976158},{""page_index"":1,""viewing_time"":7035.700000017881},{""page_index"":2,""viewing_time"":9286.09999999404},{""page_index"":3,""viewing_time"":8597.800000011921},{""page_index"":4,""viewing_time"":8107.199999988079}]","39610.09999999404","","","","","","","","","","","","","","","","","","","","","","","",""
"pit-trial","37","493460","0.0-2.0-11.0-0.0","battery-v0.2","","""event"",""trial"",""time""
""fullscreenenter"",""1"",""2458""
""blur"",""2"",""8193""
""focus"",""2"",""9667""
""blur"",""3"",""14053""
""focus"",""3"",""16357""
","""event"",""trial"",""time""
""blur"",""2"",""8193""
""blur"",""3"",""14053""
","""event"",""trial"",""time""
""focus"",""2"",""9667""
""focus"",""3"",""16357""
","""event"",""trial"",""time""
""fullscreenenter"",""1"",""2458""
","
","","","396.69999998807907","","","25","13492","5892","&#9761;","elianto","#3366ff99","-1"," ","0","0","[1254.7000000178814]","1","0","2","","","","","","","",""
"pit-trial","38","498320","0.0-2.0-11.0-1.0","battery-v0.2","","""event"",""trial"",""time""
""fullscreenenter"",""1"",""2458""
""blur"",""2"",""8193""
""focus"",""2"",""9667""
""blur"",""3"",""14053""
""focus"",""3"",""16357""
","""event"",""trial"",""time""
""blur"",""2"",""8193""
""blur"",""3"",""14053""
","""event"",""trial"",""time""
""focus"",""2"",""9667""
""focus"",""3"",""16357""
","""event"",""trial"",""time""
""fullscreenenter"",""1"",""2458""
","
","","","-1","","","25","13492","5892","&#9761;","elianto","#3366ff99","-1","-1","1","+10","[]","0","0","2","","","","","","","",""
"pit-trial","39","503190","0.0-2.0-11.0-2.0","battery-v0.2","","""event"",""trial"",""time""
""fullscreenenter"",""1"",""2458""
""blur"",""2"",""8193""
""focus"",""2"",""9667""
""blur"",""3"",""14053""
""focus"",""3"",""16357""
","""event"",""trial"",""time""
""blur"",""2"",""8193""
""blur"",""3"",""14053""
","""event"",""trial"",""time""
""focus"",""2"",""9667""
""focus"",""3"",""16357""
","""event"",""trial"",""time""
""fullscreenenter"",""1"",""2458""
","
","","","-1","","","25","13492","5892","&#9761;","elianto","#3366ff99","-1","-1","1","+10","[]","0","0","2","","","","","","","",""
"pit-trial","40","508061","0.0-2.0-11.0-3.0","battery-v0.2","","""event"",""trial"",""time""
""fullscreenenter"",""1"",""2458""
""blur"",""2"",""8193""
""focus"",""2"",""9667""
""blur"",""3"",""14053""
""focus"",""3"",""16357""
","""event"",""trial"",""time""
""blur"",""2"",""8193""
""blur"",""3"",""14053""
","""event"",""trial"",""time""
""focus"",""2"",""9667""
""focus"",""3"",""16357""
","""event"",""trial"",""time""
""fullscreenenter"",""1"",""2458""
","
","","","-1","","","25","13492","5892","&#9761;","elianto","#3366ff99","-1","-1","1","0","[]","0","0","2","","","","","","","",""
"pit-trial","41","512931","0.0-2.0-11.0-4.0","battery-v0.2","","""event"",""trial"",""time""
""fullscreenenter"",""1"",""2458""
""blur"",""2"",""8193""
""focus"",""2"",""9667""
""blur"",""3"",""14053""
""focus"",""3"",""16357""
","""event"",""trial"",""time""
""blur"",""2"",""8193""
""blur"",""3"",""14053""
","""event"",""trial"",""time""
""focus"",""2"",""9667""
""focus"",""3"",""16357""
","""event"",""trial"",""time""
""fullscreenenter"",""1"",""2458""
","
","","","-1","","","25","13492","5892","&#9761;","elianto","#3366ff99","-1","-1","1","+10","[]","0","0","2","","","","","","","",""
"pit-trial","42","517799","0.0-2.0-11.1-0.1","battery-v0.2","","""event"",""trial"",""time""
""fullscreenenter"",""1"",""2458""
""blur"",""2"",""8193""
""focus"",""2"",""9667""
""blur"",""3"",""14053""
""focus"",""3"",""16357""
","""event"",""trial"",""time""
""blur"",""2"",""8193""
""blur"",""3"",""14053""
","""event"",""trial"",""time""
""focus"",""2"",""9667""
""focus"",""3"",""16357""
","""event"",""trial"",""time""
""fullscreenenter"",""1"",""2458""
","
","","","-1","","","25","13492","5892","&#9761;","elianto","#3366ff99","-1","-1","1","+10","[]","0","0","2","","","","","","","",""
"pit-trial","43","522665","0.0-2.0-11.1-1.1","battery-v0.2","","""event"",""trial"",""time""
""fullscreenenter"",""1"",""2458""
""blur"",""2"",""8193""
""focus"",""2"",""9667""
""blur"",""3"",""14053""
""focus"",""3"",""16357""
","""event"",""trial"",""time""
""blur"",""2"",""8193""
""blur"",""3"",""14053""
","""event"",""trial"",""time""
""focus"",""2"",""9667""
""focus"",""3"",""16357""
","""event"",""trial"",""time""
""fullscreenenter"",""1"",""2458""
","
","","","-1","","","25","13492","5892","&#9761;","elianto","#3366ff99","-1","-1","1","+10","[]","0","0","2","","","","","","","",""
"pit-trial","44","527523","0.0-2.0-11.1-2.1","battery-v0.2","","""event"",""trial"",""time""
""fullscreenenter"",""1"",""2458""
""blur"",""2"",""8193""
""focus"",""2"",""9667""
""blur"",""3"",""14053""
""focus"",""3"",""16357""
","""event"",""trial"",""time""
""blur"",""2"",""8193""
""blur"",""3"",""14053""
","""event"",""trial"",""time""
""focus"",""2"",""9667""
""focus"",""3"",""16357""
","""event"",""trial"",""time""
""fullscreenenter"",""1"",""2458""
","
","","","-1","","","25","13492","5892","&#9761;","elianto","#3366ff99","-1","-1","1","+10","[]","0","0","2","","","","","","","",""
"pit-trial","45","532380","0.0-2.0-11.1-3.1","battery-v0.2","","""event"",""trial"",""time""
""fullscreenenter"",""1"",""2458""
""blur"",""2"",""8193""
""focus"",""2"",""9667""
""blur"",""3"",""14053""
""focus"",""3"",""16357""
","""event"",""trial"",""time""
""blur"",""2"",""8193""
""blur"",""3"",""14053""
","""event"",""trial"",""time""
""focus"",""2"",""9667""
""focus"",""3"",""16357""
","""event"",""trial"",""time""
""fullscreenenter"",""1"",""2458""
","
","","","-1","","","25","13492","5892","&#9761;","elianto","#3366ff99","-1","-1","1","0","[]","0","0","2","","","","","","","",""
"pit-trial","46","537239","0.0-2.0-11.1-4.1","battery-v0.2","","""event"",""trial"",""time""
""fullscreenenter"",""1"",""2458""
""blur"",""2"",""8193""
""focus"",""2"",""9667""
""blur"",""3"",""14053""
""focus"",""3"",""16357""
","""event"",""trial"",""time""
""blur"",""2"",""8193""
""blur"",""3"",""14053""
","""event"",""trial"",""time""
""focus"",""2"",""9667""
""focus"",""3"",""16357""
","""event"",""trial"",""time""
""fullscreenenter"",""1"",""2458""
","
","","","-1","","","25","13492","5892","&#9761;","elianto","#3366ff99","-1","-1","1","+10","[]","0","0","2","","","","","","","",""
"pit-trial","47","542105","0.0-2.0-11.2-0.2","battery-v0.2","","""event"",""trial"",""time""
""fullscreenenter"",""1"",""2458""
""blur"",""2"",""8193""
""focus"",""2"",""9667""
""blur"",""3"",""14053""
""focus"",""3"",""16357""
","""event"",""trial"",""time""
""blur"",""2"",""8193""
""blur"",""3"",""14053""
","""event"",""trial"",""time""
""focus"",""2"",""9667""
""focus"",""3"",""16357""
","""event"",""trial"",""time""
""fullscreenenter"",""1"",""2458""
","
","","","-1","","","25","13492","5892","&#9761;","elianto","#3366ff99","-1","-1","1","+10","[]","0","0","2","","","","","","","",""
"pit-trial","48","546968","0.0-2.0-11.2-1.2","battery-v0.2","","""event"",""trial"",""time""
""fullscreenenter"",""1"",""2458""
""blur"",""2"",""8193""
""focus"",""2"",""9667""
""blur"",""3"",""14053""
""focus"",""3"",""16357""
","""event"",""trial"",""time""
""blur"",""2"",""8193""
""blur"",""3"",""14053""
","""event"",""trial"",""time""
""focus"",""2"",""9667""
""focus"",""3"",""16357""
","""event"",""trial"",""time""
""fullscreenenter"",""1"",""2458""
","
","","","-1","","","25","13492","5892","&#9761;","elianto","#3366ff99","-1","-1","1","+10","[]","0","0","2","","","","","","","",""
"pit-trial","49","551829","0.0-2.0-11.2-2.2","battery-v0.2","","""event"",""trial"",""time""
""fullscreenenter"",""1"",""2458""
""blur"",""2"",""8193""
""focus"",""2"",""9667""
""blur"",""3"",""14053""
""focus"",""3"",""16357""
","""event"",""trial"",""time""
""blur"",""2"",""8193""
""blur"",""3"",""14053""
","""event"",""trial"",""time""
""focus"",""2"",""9667""
""focus"",""3"",""16357""
","""event"",""trial"",""time""
""fullscreenenter"",""1"",""2458""
","
","","","-1","","","25","13492","5892","&#9761;","elianto","#3366ff99","-1","-1","1","+10","[]","0","0","2","","","","","","","",""
"pit-trial","50","556701","0.0-2.0-11.2-3.2","battery-v0.2","","""event"",""trial"",""time""
""fullscreenenter"",""1"",""2458""
""blur"",""2"",""8193""
""focus"",""2"",""9667""
""blur"",""3"",""14053""
""focus"",""3"",""16357""
","""event"",""trial"",""time""
""blur"",""2"",""8193""
""blur"",""3"",""14053""
","""event"",""trial"",""time""
""focus"",""2"",""9667""
""focus"",""3"",""16357""
","""event"",""trial"",""time""
""fullscreenenter"",""1"",""2458""
","
","","","-1","","","25","13492","5892","&#9761;","elianto","#3366ff99","-1","-1","1","0","[]","0","0","2","","","","","","","",""
"pit-trial","51","561561","0.0-2.0-11.2-4.2","battery-v0.2","","""event"",""trial"",""time""
""fullscreenenter"",""1"",""2458""
""blur"",""2"",""8193""
""focus"",""2"",""9667""
""blur"",""3"",""14053""
""focus"",""3"",""16357""
","""event"",""trial"",""time""
""blur"",""2"",""8193""
""blur"",""3"",""14053""
","""event"",""trial"",""time""
""focus"",""2"",""9667""
""focus"",""3"",""16357""
","""event"",""trial"",""time""
""fullscreenenter"",""1"",""2458""
","
","","","-1","","","25","13492","5892","&#9761;","elianto","#3366ff99","-1","-1","1","+10","[]","0","0","2","","","","","","","",""
"pit-trial","52","566421","0.0-2.0-11.3-0.3","battery-v0.2","","""event"",""trial"",""time""
""fullscreenenter"",""1"",""2458""
""blur"",""2"",""8193""
""focus"",""2"",""9667""
""blur"",""3"",""14053""
""focus"",""3"",""16357""
","""event"",""trial"",""time""
""blur"",""2"",""8193""
""blur"",""3"",""14053""
","""event"",""trial"",""time""
""focus"",""2"",""9667""
""focus"",""3"",""16357""
","""event"",""trial"",""time""
""fullscreenenter"",""1"",""2458""
","
","","","-1","","","25","13492","5892","&#9761;","elianto","#3366ff99","-1","-1","1","+10","[]","0","0","2","","","","","","","",""
"pit-trial","53","571276","0.0-2.0-11.3-1.3","battery-v0.2","","""event"",""trial"",""time""
""fullscreenenter"",""1"",""2458""
""blur"",""2"",""8193""
""focus"",""2"",""9667""
""blur"",""3"",""14053""
""focus"",""3"",""16357""
","""event"",""trial"",""time""
""blur"",""2"",""8193""
""blur"",""3"",""14053""
","""event"",""trial"",""time""
""focus"",""2"",""9667""
""focus"",""3"",""16357""
","""event"",""trial"",""time""
""fullscreenenter"",""1"",""2458""
","
","","","-1","","","25","13492","5892","&#9761;","elianto","#3366ff99","-1","-1","1","+10","[]","0","0","2","","","","","","","",""
"pit-trial","54","576139","0.0-2.0-11.3-2.3","battery-v0.2","","""event"",""trial"",""time""
""fullscreenenter"",""1"",""2458""
""blur"",""2"",""8193""
""focus"",""2"",""9667""
""blur"",""3"",""14053""
""focus"",""3"",""16357""
","""event"",""trial"",""time""
""blur"",""2"",""8193""
""blur"",""3"",""14053""
","""event"",""trial"",""time""
""focus"",""2"",""9667""
""focus"",""3"",""16357""
","""event"",""trial"",""time""
""fullscreenenter"",""1"",""2458""
","
","","","-1","","","25","13492","5892","&#9761;","elianto","#3366ff99","-1","-1","1","+10","[]","0","0","2","","","","","","","",""
"pit-trial","55","581001","0.0-2.0-11.3-3.3","battery-v0.2","","""event"",""trial"",""time""
""fullscreenenter"",""1"",""2458""
""blur"",""2"",""8193""
""focus"",""2"",""9667""
""blur"",""3"",""14053""
""focus"",""3"",""16357""
","""event"",""trial"",""time""
""blur"",""2"",""8193""
""blur"",""3"",""14053""
","""event"",""trial"",""time""
""focus"",""2"",""9667""
""focus"",""3"",""16357""
","""event"",""trial"",""time""
""fullscreenenter"",""1"",""2458""
","
","","","-1","","","25","13492","5892","&#9761;","elianto","#3366ff99","-1","-1","1","0","[]","0","0","2","","","","","","","",""
"pit-trial","56","585868","0.0-2.0-11.3-4.3","battery-v0.2","","""event"",""trial"",""time""
""fullscreenenter"",""1"",""2458""
""blur"",""2"",""8193""
""focus"",""2"",""9667""
""blur"",""3"",""14053""
""focus"",""3"",""16357""
","""event"",""trial"",""time""
""blur"",""2"",""8193""
""blur"",""3"",""14053""
","""event"",""trial"",""time""
""focus"",""2"",""9667""
""focus"",""3"",""16357""
","""event"",""trial"",""time""
""fullscreenenter"",""1"",""2458""
","
","","","-1","","","25","13492","5892","&#9761;","elianto","#3366ff99","-1","-1","1","+10","[]","0","0","2","","","","","","","",""
"call-function","57","585870","0.0-2.0-12.0","battery-v0.2","","""event"",""trial"",""time""
""fullscreenenter"",""1"",""2458""
""blur"",""2"",""8193""
""focus"",""2"",""9667""
""blur"",""3"",""14053""
""focus"",""3"",""16357""
","""event"",""trial"",""time""
""blur"",""2"",""8193""
""blur"",""3"",""14053""
","""event"",""trial"",""time""
""focus"",""2"",""9667""
""focus"",""3"",""16357""
","""event"",""trial"",""time""
""fullscreenenter"",""1"",""2458""
","
","","","","","","","","","","","","","","","","","","","","","","","","","","",""
"pit-instructions","58","617746","0.0-2.0-13.0","battery-v0.2","","""event"",""trial"",""time""
""fullscreenenter"",""1"",""2458""
""blur"",""2"",""8193""
""focus"",""2"",""9667""
""blur"",""3"",""14053""
""focus"",""3"",""16357""
","""event"",""trial"",""time""
""blur"",""2"",""8193""
""blur"",""3"",""14053""
","""event"",""trial"",""time""
""focus"",""2"",""9667""
""focus"",""3"",""16357""
","""event"",""trial"",""time""
""fullscreenenter"",""1"",""2458""
","
","","[{""page_index"":0,""viewing_time"":5506.0999999940395},{""page_index"":1,""viewing_time"":7381.5999999940395},{""page_index"":2,""viewing_time"":3884.800000011921},{""page_index"":3,""viewing_time"":10046.59999999404},{""page_index"":4,""viewing_time"":5056.0999999940395}]","31875.5","","","","","","","","","","","","","","","","","","","","","","","",""
"pit-trial","59","621193","0.0-2.0-14.0-0.0","battery-v0.2","","""event"",""trial"",""time""
""fullscreenenter"",""1"",""2458""
""blur"",""2"",""8193""
""focus"",""2"",""9667""
""blur"",""3"",""14053""
""focus"",""3"",""16357""
","""event"",""trial"",""time""
""blur"",""2"",""8193""
""blur"",""3"",""14053""
","""event"",""trial"",""time""
""focus"",""2"",""9667""
""focus"",""3"",""16357""
","""event"",""trial"",""time""
""fullscreenenter"",""1"",""2458""
","
","","","581.7999999821186","","","25","13492","5892","&#9826;","elianto","#f73b6a7A","-1"," ","0","-10","[1433.7999999821186]","1","0","3","","","","","","","",""
"pit-trial","60","626062","0.0-2.0-14.0-1.0","battery-v0.2","","""event"",""trial"",""time""
""fullscreenenter"",""1"",""2458""
""blur"",""2"",""8193""
""focus"",""2"",""9667""
""blur"",""3"",""14053""
""focus"",""3"",""16357""
","""event"",""trial"",""time""
""blur"",""2"",""8193""
""blur"",""3"",""14053""
","""event"",""trial"",""time""
""focus"",""2"",""9667""
""focus"",""3"",""16357""
","""event"",""trial"",""time""
""fullscreenenter"",""1"",""2458""
","
","","","-1","","","25","13492","5892","&#9826;","elianto","#f73b6a7A","-1","-1","1","0","[]","0","0","3","","","","","","","",""
"pit-trial","61","630932","0.0-2.0-14.0-2.0","battery-v0.2","","""event"",""trial"",""time""
""fullscreenenter"",""1"",""2458""
""blur"",""2"",""8193""
""focus"",""2"",""9667""
""blur"",""3"",""14053""
""focus"",""3"",""16357""
","""event"",""trial"",""time""
""blur"",""2"",""8193""
""blur"",""3"",""14053""
","""event"",""trial"",""time""
""focus"",""2"",""9667""
""focus"",""3"",""16357""
","""event"",""trial"",""time""
""fullscreenenter"",""1"",""2458""
","
","","","-1","","","25","13492","5892","&#9826;","elianto","#f73b6a7A","-1","-1","1","0","[]","0","0","3","","","","","","","",""
"pit-trial","62","635813","0.0-2.0-14.0-3.0","battery-v0.2","","""event"",""trial"",""time""
""fullscreenenter"",""1"",""2458""
""blur"",""2"",""8193""
""focus"",""2"",""9667""
""blur"",""3"",""14053""
""focus"",""3"",""16357""
","""event"",""trial"",""time""
""blur"",""2"",""8193""
""blur"",""3"",""14053""
","""event"",""trial"",""time""
""focus"",""2"",""9667""
""focus"",""3"",""16357""
","""event"",""trial"",""time""
""fullscreenenter"",""1"",""2458""
","
","","","-1","","","25","13492","5892","&#9826;","elianto","#f73b6a7A","-1","-1","1","-10","[]","0","0","3","","","","","","","",""
"pit-trial","63","640683","0.0-2.0-14.0-4.0","battery-v0.2","","""event"",""trial"",""time""
""fullscreenenter"",""1"",""2458""
""blur"",""2"",""8193""
""focus"",""2"",""9667""
""blur"",""3"",""14053""
""focus"",""3"",""16357""
","""event"",""trial"",""time""
""blur"",""2"",""8193""
""blur"",""3"",""14053""
","""event"",""trial"",""time""
""focus"",""2"",""9667""
""focus"",""3"",""16357""
","""event"",""trial"",""time""
""fullscreenenter"",""1"",""2458""
","
","","","-1","","","25","13492","5892","&#9826;","elianto","#f73b6a7A","-1","-1","1","0","[]","0","0","3","","","","","","","",""
"pit-trial","64","645553","0.0-2.0-14.1-0.1","battery-v0.2","","""event"",""trial"",""time""
""fullscreenenter"",""1"",""2458""
""blur"",""2"",""8193""
""focus"",""2"",""9667""
""blur"",""3"",""14053""
""focus"",""3"",""16357""
","""event"",""trial"",""time""
""blur"",""2"",""8193""
""blur"",""3"",""14053""
","""event"",""trial"",""time""
""focus"",""2"",""9667""
""focus"",""3"",""16357""
","""event"",""trial"",""time""
""fullscreenenter"",""1"",""2458""
","
","","","-1","","","25","13492","5892","&#9826;","elianto","#f73b6a7A","-1","-1","1","0","[]","0","0","3","","","","","","","",""
"pit-trial","65","650409","0.0-2.0-14.1-1.1","battery-v0.2","","""event"",""trial"",""time""
""fullscreenenter"",""1"",""2458""
""blur"",""2"",""8193""
""focus"",""2"",""9667""
""blur"",""3"",""14053""
""focus"",""3"",""16357""
","""event"",""trial"",""time""
""blur"",""2"",""8193""
""blur"",""3"",""14053""
","""event"",""trial"",""time""
""focus"",""2"",""9667""
""focus"",""3"",""16357""
","""event"",""trial"",""time""
""fullscreenenter"",""1"",""2458""
","
","","","-1","","","25","13492","5892","&#9826;","elianto","#f73b6a7A","-1","-1","1","0","[]","0","0","3","","","","","","","",""
"pit-trial","66","655279","0.0-2.0-14.1-2.1","battery-v0.2","","""event"",""trial"",""time""
""fullscreenenter"",""1"",""2458""
""blur"",""2"",""8193""
""focus"",""2"",""9667""
""blur"",""3"",""14053""
""focus"",""3"",""16357""
","""event"",""trial"",""time""
""blur"",""2"",""8193""
""blur"",""3"",""14053""
","""event"",""trial"",""time""
""focus"",""2"",""9667""
""focus"",""3"",""16357""
","""event"",""trial"",""time""
""fullscreenenter"",""1"",""2458""
","
","","","-1","","","25","13492","5892","&#9826;","elianto","#f73b6a7A","-1","-1","1","0","[]","0","0","3","","","","","","","",""
"pit-trial","67","660148","0.0-2.0-14.1-3.1","battery-v0.2","","""event"",""trial"",""time""
""fullscreenenter"",""1"",""2458""
""blur"",""2"",""8193""
""focus"",""2"",""9667""
""blur"",""3"",""14053""
""focus"",""3"",""16357""
","""event"",""trial"",""time""
""blur"",""2"",""8193""
""blur"",""3"",""14053""
","""event"",""trial"",""time""
""focus"",""2"",""9667""
""focus"",""3"",""16357""
","""event"",""trial"",""time""
""fullscreenenter"",""1"",""2458""
","
","","","-1","","","25","13492","5892","&#9826;","elianto","#f73b6a7A","-1","-1","1","-10","[]","0","0","3","","","","","","","",""
"pit-trial","68","665010","0.0-2.0-14.1-4.1","battery-v0.2","","""event"",""trial"",""time""
""fullscreenenter"",""1"",""2458""
""blur"",""2"",""8193""
""focus"",""2"",""9667""
""blur"",""3"",""14053""
""focus"",""3"",""16357""
","""event"",""trial"",""time""
""blur"",""2"",""8193""
""blur"",""3"",""14053""
","""event"",""trial"",""time""
""focus"",""2"",""9667""
""focus"",""3"",""16357""
","""event"",""trial"",""time""
""fullscreenenter"",""1"",""2458""
","
","","","-1","","","25","13492","5892","&#9826;","elianto","#f73b6a7A","-1","-1","1","0","[]","0","0","3","","","","","","","",""
"pit-trial","69","669867","0.0-2.0-14.2-0.2","battery-v0.2","","""event"",""trial"",""time""
""fullscreenenter"",""1"",""2458""
""blur"",""2"",""8193""
""focus"",""2"",""9667""
""blur"",""3"",""14053""
""focus"",""3"",""16357""
","""event"",""trial"",""time""
""blur"",""2"",""8193""
""blur"",""3"",""14053""
","""event"",""trial"",""time""
""focus"",""2"",""9667""
""focus"",""3"",""16357""
","""event"",""trial"",""time""
""fullscreenenter"",""1"",""2458""
","
","","","-1","","","25","13492","5892","&#9826;","elianto","#f73b6a7A","-1","-1","1","0","[]","0","0","3","","","","","","","",""
"pit-trial","70","674742","0.0-2.0-14.2-1.2","battery-v0.2","","""event"",""trial"",""time""
""fullscreenenter"",""1"",""2458""
""blur"",""2"",""8193""
""focus"",""2"",""9667""
""blur"",""3"",""14053""
""focus"",""3"",""16357""
","""event"",""trial"",""time""
""blur"",""2"",""8193""
""blur"",""3"",""14053""
","""event"",""trial"",""time""
""focus"",""2"",""9667""
""focus"",""3"",""16357""
","""event"",""trial"",""time""
""fullscreenenter"",""1"",""2458""
","
","","","-1","","","25","13492","5892","&#9826;","elianto","#f73b6a7A","-1","-1","1","0","[]","0","0","3","","","","","","","",""
"pit-trial","71","679602","0.0-2.0-14.2-2.2","battery-v0.2","","""event"",""trial"",""time""
""fullscreenenter"",""1"",""2458""
""blur"",""2"",""8193""
""focus"",""2"",""9667""
""blur"",""3"",""14053""
""focus"",""3"",""16357""
","""event"",""trial"",""time""
""blur"",""2"",""8193""
""blur"",""3"",""14053""
","""event"",""trial"",""time""
""focus"",""2"",""9667""
""focus"",""3"",""16357""
","""event"",""trial"",""time""
""fullscreenenter"",""1"",""2458""
","
","","","-1","","","25","13492","5892","&#9826;","elianto","#f73b6a7A","-1","-1","1","0","[]","0","0","3","","","","","","","",""
"pit-trial","72","684465","0.0-2.0-14.2-3.2","battery-v0.2","","""event"",""trial"",""time""
""fullscreenenter"",""1"",""2458""
""blur"",""2"",""8193""
""focus"",""2"",""9667""
""blur"",""3"",""14053""
""focus"",""3"",""16357""
","""event"",""trial"",""time""
""blur"",""2"",""8193""
""blur"",""3"",""14053""
","""event"",""trial"",""time""
""focus"",""2"",""9667""
""focus"",""3"",""16357""
","""event"",""trial"",""time""
""fullscreenenter"",""1"",""2458""
","
","","","-1","","","25","13492","5892","&#9826;","elianto","#f73b6a7A","-1","-1","1","-10","[]","0","0","3","","","","","","","",""
"pit-trial","73","689328","0.0-2.0-14.2-4.2","battery-v0.2","","""event"",""trial"",""time""
""fullscreenenter"",""1"",""2458""
""blur"",""2"",""8193""
""focus"",""2"",""9667""
""blur"",""3"",""14053""
""focus"",""3"",""16357""
","""event"",""trial"",""time""
""blur"",""2"",""8193""
""blur"",""3"",""14053""
","""event"",""trial"",""time""
""focus"",""2"",""9667""
""focus"",""3"",""16357""
","""event"",""trial"",""time""
""fullscreenenter"",""1"",""2458""
","
","","","-1","","","25","13492","5892","&#9826;","elianto","#f73b6a7A","-1","-1","1","0","[]","0","0","3","","","","","","","",""
"pit-trial","74","694192","0.0-2.0-14.3-0.3","battery-v0.2","","""event"",""trial"",""time""
""fullscreenenter"",""1"",""2458""
""blur"",""2"",""8193""
""focus"",""2"",""9667""
""blur"",""3"",""14053""
""focus"",""3"",""16357""
","""event"",""trial"",""time""
""blur"",""2"",""8193""
""blur"",""3"",""14053""
","""event"",""trial"",""time""
""focus"",""2"",""9667""
""focus"",""3"",""16357""
","""event"",""trial"",""time""
""fullscreenenter"",""1"",""2458""
","
","","","-1","","","25","13492","5892","&#9826;","elianto","#f73b6a7A","-1","-1","1","0","[]","0","0","3","","","","","","","",""
"pit-trial","75","699056","0.0-2.0-14.3-1.3","battery-v0.2","","""event"",""trial"",""time""
""fullscreenenter"",""1"",""2458""
""blur"",""2"",""8193""
""focus"",""2"",""9667""
""blur"",""3"",""14053""
""focus"",""3"",""16357""
","""event"",""trial"",""time""
""blur"",""2"",""8193""
""blur"",""3"",""14053""
","""event"",""trial"",""time""
""focus"",""2"",""9667""
""focus"",""3"",""16357""
","""event"",""trial"",""time""
""fullscreenenter"",""1"",""2458""
","
","","","-1","","","25","13492","5892","&#9826;","elianto","#f73b6a7A","-1","-1","1","0","[]","0","0","3","","","","","","","",""
"pit-trial","76","703915","0.0-2.0-14.3-2.3","battery-v0.2","","""event"",""trial"",""time""
""fullscreenenter"",""1"",""2458""
""blur"",""2"",""8193""
""focus"",""2"",""9667""
""blur"",""3"",""14053""
""focus"",""3"",""16357""
","""event"",""trial"",""time""
""blur"",""2"",""8193""
""blur"",""3"",""14053""
","""event"",""trial"",""time""
""focus"",""2"",""9667""
""focus"",""3"",""16357""
","""event"",""trial"",""time""
""fullscreenenter"",""1"",""2458""
","
","","","-1","","","25","13492","5892","&#9826;","elianto","#f73b6a7A","-1","-1","1","0","[]","0","0","3","","","","","","","",""
"pit-trial","77","708775","0.0-2.0-14.3-3.3","battery-v0.2","","""event"",""trial"",""time""
""fullscreenenter"",""1"",""2458""
""blur"",""2"",""8193""
""focus"",""2"",""9667""
""blur"",""3"",""14053""
""focus"",""3"",""16357""
","""event"",""trial"",""time""
""blur"",""2"",""8193""
""blur"",""3"",""14053""
","""event"",""trial"",""time""
""focus"",""2"",""9667""
""focus"",""3"",""16357""
","""event"",""trial"",""time""
""fullscreenenter"",""1"",""2458""
","
","","","-1","","","25","13492","5892","&#9826;","elianto","#f73b6a7A","-1","-1","1","-10","[]","0","0","3","","","","","","","",""
"pit-trial","78","713637","0.0-2.0-14.3-4.3","battery-v0.2","","""event"",""trial"",""time""
""fullscreenenter"",""1"",""2458""
""blur"",""2"",""8193""
""focus"",""2"",""9667""
""blur"",""3"",""14053""
""focus"",""3"",""16357""
","""event"",""trial"",""time""
""blur"",""2"",""8193""
""blur"",""3"",""14053""
","""event"",""trial"",""time""
""focus"",""2"",""9667""
""focus"",""3"",""16357""
","""event"",""trial"",""time""
""fullscreenenter"",""1"",""2458""
","
","","","-1","","","25","13492","5892","&#9826;","elianto","#f73b6a7A","-1","-1","1","0","[]","0","0","3","","","","","","","",""
"call-function","79","713639","0.0-2.0-15.0","battery-v0.2","","""event"",""trial"",""time""
""fullscreenenter"",""1"",""2458""
""blur"",""2"",""8193""
""focus"",""2"",""9667""
""blur"",""3"",""14053""
""focus"",""3"",""16357""
","""event"",""trial"",""time""
""blur"",""2"",""8193""
""blur"",""3"",""14053""
","""event"",""trial"",""time""
""focus"",""2"",""9667""
""focus"",""3"",""16357""
","""event"",""trial"",""time""
""fullscreenenter"",""1"",""2458""
","
","","","","","","","","","","","","","","","","","","","","","","","","","","",""
"pit-instructions","80","745550","0.0-2.0-16.0","battery-v0.2","","""event"",""trial"",""time""
""fullscreenenter"",""1"",""2458""
""blur"",""2"",""8193""
""focus"",""2"",""9667""
""blur"",""3"",""14053""
""focus"",""3"",""16357""
","""event"",""trial"",""time""
""blur"",""2"",""8193""
""blur"",""3"",""14053""
","""event"",""trial"",""time""
""focus"",""2"",""9667""
""focus"",""3"",""16357""
","""event"",""trial"",""time""
""fullscreenenter"",""1"",""2458""
","
","","[{""page_index"":0,""viewing_time"":7424.4000000059605},{""page_index"":1,""viewing_time"":13886.09999999404},{""page_index"":2,""viewing_time"":4956.299999982119},{""page_index"":3,""viewing_time"":5643.600000023842}]","31910.90000000596","","","","","","","","","","","","","","","","","","","","","","","",""
"pit-trial","81","748874","0.0-2.0-17.0-0.0","battery-v0.2","","""event"",""trial"",""time""
""fullscreenenter"",""1"",""2458""
""blur"",""2"",""8193""
""focus"",""2"",""9667""
""blur"",""3"",""14053""
""focus"",""3"",""16357""
","""event"",""trial"",""time""
""blur"",""2"",""8193""
""blur"",""3"",""14053""
","""event"",""trial"",""time""
""focus"",""2"",""9667""
""focus"",""3"",""16357""
","""event"",""trial"",""time""
""fullscreenenter"",""1"",""2458""
","
","","","464.59999999403954","","","25","13492","5892","&#9789;","elianto","#f73b6a7A"," "," ","1","0","[1317]","1","0","4","","","","","","","",""
"pit-trial","82","753743","0.0-2.0-17.0-1.0","battery-v0.2","","""event"",""trial"",""time""
""fullscreenenter"",""1"",""2458""
""blur"",""2"",""8193""
""focus"",""2"",""9667""
""blur"",""3"",""14053""
""focus"",""3"",""16357""
","""event"",""trial"",""time""
""blur"",""2"",""8193""
""blur"",""3"",""14053""
","""event"",""trial"",""time""
""focus"",""2"",""9667""
""focus"",""3"",""16357""
","""event"",""trial"",""time""
""fullscreenenter"",""1"",""2458""
","
","","","-1","","","25","13492","5892","&#9789;","elianto","#f73b6a7A"," ","-1","0","-10","[]","0","0","4","","","","","","","",""
"pit-trial","83","757043","0.0-2.0-17.0-2.0","battery-v0.2","","""event"",""trial"",""time""
""fullscreenenter"",""1"",""2458""
""blur"",""2"",""8193""
""focus"",""2"",""9667""
""blur"",""3"",""14053""
""focus"",""3"",""16357""
","""event"",""trial"",""time""
""blur"",""2"",""8193""
""blur"",""3"",""14053""
","""event"",""trial"",""time""
""focus"",""2"",""9667""
""focus"",""3"",""16357""
","""event"",""trial"",""time""
""fullscreenenter"",""1"",""2458""
","
","","","432.2999999821186","","","25","13492","5892","&#9789;","elianto","#f73b6a7A"," "," ","1","0","[1290.0999999940395]","1","0","4","","","","","","","",""
"pit-trial","84","760373","0.0-2.0-17.0-3.0","battery-v0.2","","""event"",""trial"",""time""
""fullscreenenter"",""1"",""2458""
""blur"",""2"",""8193""
""focus"",""2"",""9667""
""blur"",""3"",""14053""
""focus"",""3"",""16357""
","""event"",""trial"",""time""
""blur"",""2"",""8193""
""blur"",""3"",""14053""
","""event"",""trial"",""time""
""focus"",""2"",""9667""
""focus"",""3"",""16357""
","""event"",""trial"",""time""
""fullscreenenter"",""1"",""2458""
","
","","","469.90000000596046","","","25","13492","5892","&#9789;","elianto","#f73b6a7A"," "," ","1","-10","[1326.9000000059605]","1","0","4","","","","","","","",""
"pit-trial","85","763693","0.0-2.0-17.0-4.0","battery-v0.2","","""event"",""trial"",""time""
""fullscreenenter"",""1"",""2458""
""blur"",""2"",""8193""
""focus"",""2"",""9667""
""blur"",""3"",""14053""
""focus"",""3"",""16357""
","""event"",""trial"",""time""
""blur"",""2"",""8193""
""blur"",""3"",""14053""
","""event"",""trial"",""time""
""focus"",""2"",""9667""
""focus"",""3"",""16357""
","""event"",""trial"",""time""
""fullscreenenter"",""1"",""2458""
","
","","","458.59999999403954","","","25","13492","5892","&#9789;","elianto","#f73b6a7A"," "," ","1","0","[1316.5]","1","0","4","","","","","","","",""
"pit-trial","86","767943","0.0-2.0-17.1-0.1","battery-v0.2","","""event"",""trial"",""time""
""fullscreenenter"",""1"",""2458""
""blur"",""2"",""8193""
""focus"",""2"",""9667""
""blur"",""3"",""14053""
""focus"",""3"",""16357""
","""event"",""trial"",""time""
""blur"",""2"",""8193""
""blur"",""3"",""14053""
","""event"",""trial"",""time""
""focus"",""2"",""9667""
""focus"",""3"",""16357""
","""event"",""trial"",""time""
""fullscreenenter"",""1"",""2458""
","
","","","1390.9000000059605","","","25","13492","5892","&#9789;","elianto","#f73b6a7A"," "," ","1","0","[2245.300000011921]","1","0","4","","","","","","","",""
"pit-trial","87","772764","0.0-2.0-17.1-1.1","battery-v0.2","","""event"",""trial"",""time""
""fullscreenenter"",""1"",""2458""
""blur"",""2"",""8193""
""focus"",""2"",""9667""
""blur"",""3"",""14053""
""focus"",""3"",""16357""
","""event"",""trial"",""time""
""blur"",""2"",""8193""
""blur"",""3"",""14053""
","""event"",""trial"",""time""
""focus"",""2"",""9667""
""focus"",""3"",""16357""
","""event"",""trial"",""time""
""fullscreenenter"",""1"",""2458""
","
","","","1958.4000000059605","","","25","13492","5892","&#9789;","elianto","#f73b6a7A"," "," ","1","0","[2812.4000000059605]","1","0","4","","","","","","","",""
"pit-trial","88","776025","0.0-2.0-17.1-2.1","battery-v0.2","","""event"",""trial"",""time""
""fullscreenenter"",""1"",""2458""
""blur"",""2"",""8193""
""focus"",""2"",""9667""
""blur"",""3"",""14053""
""focus"",""3"",""16357""
","""event"",""trial"",""time""
""blur"",""2"",""8193""
""blur"",""3"",""14053""
","""event"",""trial"",""time""
""focus"",""2"",""9667""
""focus"",""3"",""16357""
","""event"",""trial"",""time""
""fullscreenenter"",""1"",""2458""
","
","","","397.09999999403954","","","25","13492","5892","&#9789;","elianto","#f73b6a7A"," "," ","1","0","[1254.699999988079]","1","0","4","","","","","","","",""
"pit-trial","89","779313","0.0-2.0-17.1-3.1","battery-v0.2","","""event"",""trial"",""time""
""fullscreenenter"",""1"",""2458""
""blur"",""2"",""8193""
""focus"",""2"",""9667""
""blur"",""3"",""14053""
""focus"",""3"",""16357""
","""event"",""trial"",""time""
""blur"",""2"",""8193""
""blur"",""3"",""14053""
","""event"",""trial"",""time""
""focus"",""2"",""9667""
""focus"",""3"",""16357""
","""event"",""trial"",""time""
""fullscreenenter"",""1"",""2458""
","
","","","428.60000002384186","","","25","13492","5892","&#9789;","elianto","#f73b6a7A"," "," ","1","-10","[1281]","1","0","4","","","","","","","",""
"pit-trial","90","782627","0.0-2.0-17.1-4.1","battery-v0.2","","""event"",""trial"",""time""
""fullscreenenter"",""1"",""2458""
""blur"",""2"",""8193""
""focus"",""2"",""9667""
""blur"",""3"",""14053""
""focus"",""3"",""16357""
","""event"",""trial"",""time""
""blur"",""2"",""8193""
""blur"",""3"",""14053""
","""event"",""trial"",""time""
""focus"",""2"",""9667""
""focus"",""3"",""16357""
","""event"",""trial"",""time""
""fullscreenenter"",""1"",""2458""
","
","","","451.19999998807907","","","25","13492","5892","&#9789;","elianto","#f73b6a7A"," "," ","1","0","[1306.0999999940395]","1","0","4","","","","","","","",""
"pit-trial","91","785861","0.0-2.0-17.2-0.2","battery-v0.2","","""event"",""trial"",""time""
""fullscreenenter"",""1"",""2458""
""blur"",""2"",""8193""
""focus"",""2"",""9667""
""blur"",""3"",""14053""
""focus"",""3"",""16357""
","""event"",""trial"",""time""
""blur"",""2"",""8193""
""blur"",""3"",""14053""
","""event"",""trial"",""time""
""focus"",""2"",""9667""
""focus"",""3"",""16357""
","""event"",""trial"",""time""
""fullscreenenter"",""1"",""2458""
","
","","","374.09999999403954","","","25","13492","5892","&#9789;","elianto","#f73b6a7A"," "," ","1","0","[1230.0999999940395]","1","0","4","","","","","","","",""
"pit-trial","92","789128","0.0-2.0-17.2-1.2","battery-v0.2","","""event"",""trial"",""time""
""fullscreenenter"",""1"",""2458""
""blur"",""2"",""8193""
""focus"",""2"",""9667""
""blur"",""3"",""14053""
""focus"",""3"",""16357""
","""event"",""trial"",""time""
""blur"",""2"",""8193""
""blur"",""3"",""14053""
","""event"",""trial"",""time""
""focus"",""2"",""9667""
""focus"",""3"",""16357""
","""event"",""trial"",""time""
""fullscreenenter"",""1"",""2458""
","
","","","405.89999997615814","","","25","13492","5892","&#9789;","elianto","#f73b6a7A"," "," ","1","0","[1260.2999999821186]","1","0","4","","","","","","","",""
"pit-trial","93","792334","0.0-2.0-17.2-2.2","battery-v0.2","","""event"",""trial"",""time""
""fullscreenenter"",""1"",""2458""
""blur"",""2"",""8193""
""focus"",""2"",""9667""
""blur"",""3"",""14053""
""focus"",""3"",""16357""
","""event"",""trial"",""time""
""blur"",""2"",""8193""
""blur"",""3"",""14053""
","""event"",""trial"",""time""
""focus"",""2"",""9667""
""focus"",""3"",""16357""
","""event"",""trial"",""time""
""fullscreenenter"",""1"",""2458""
","
","","","343.30000001192093","","","25","13492","5892","&#9789;","elianto","#f73b6a7A"," "," ","1","0","[1195.5]","1","0","4","","","","","","","",""
"pit-trial","94","795428","0.0-2.0-17.2-3.2","battery-v0.2","","""event"",""trial"",""time""
""fullscreenenter"",""1"",""2458""
""blur"",""2"",""8193""
""focus"",""2"",""9667""
""blur"",""3"",""14053""
""focus"",""3"",""16357""
","""event"",""trial"",""time""
""blur"",""2"",""8193""
""blur"",""3"",""14053""
","""event"",""trial"",""time""
""focus"",""2"",""9667""
""focus"",""3"",""16357""
","""event"",""trial"",""time""
""fullscreenenter"",""1"",""2458""
","
","","","231.2000000178814","","","25","13492","5892","&#9789;","elianto","#f73b6a7A"," "," ","1","-10","[1086.199999988079]","1","0","4","","","","","","","",""
"pit-trial","95","798718","0.0-2.0-17.2-4.2","battery-v0.2","","""event"",""trial"",""time""
""fullscreenenter"",""1"",""2458""
""blur"",""2"",""8193""
""focus"",""2"",""9667""
""blur"",""3"",""14053""
""focus"",""3"",""16357""
""blur"",""96"",""798800""
""focus"",""96"",""800843""
","""event"",""trial"",""time""
""blur"",""2"",""8193""
""blur"",""3"",""14053""
""blur"",""96"",""798800""
","""event"",""trial"",""time""
""focus"",""2"",""9667""
""focus"",""3"",""16357""
""focus"",""96"",""800843""
","""event"",""trial"",""time""
""fullscreenenter"",""1"",""2458""
","
","","","422.2000000178814","","","25","13492","5892","&#9789;","elianto","#f73b6a7A"," "," ","1","0","[1278.6000000238419]","1","0","4","","","","","","","",""
"pit-trial","96","803575","0.0-2.0-17.3-0.3","battery-v0.2","","""event"",""trial"",""time""
""fullscreenenter"",""1"",""2458""
""blur"",""2"",""8193""
""focus"",""2"",""9667""
""blur"",""3"",""14053""
""focus"",""3"",""16357""
""blur"",""96"",""798800""
""focus"",""96"",""800843""
""blur"",""97"",""804215""
""focus"",""97"",""804345""
""blur"",""97"",""807685""
""focus"",""97"",""807838""
","""event"",""trial"",""time""
""blur"",""2"",""8193""
""blur"",""3"",""14053""
""blur"",""96"",""798800""
""blur"",""97"",""804215""
""blur"",""97"",""807685""
","""event"",""trial"",""time""
""focus"",""2"",""9667""
""focus"",""3"",""16357""
""focus"",""96"",""800843""
""focus"",""97"",""804345""
""focus"",""97"",""807838""
","""event"",""trial"",""time""
""fullscreenenter"",""1"",""2458""
","
","","","-1","","","25","13492","5892","&#9789;","elianto","#f73b6a7A"," ","-1","0","-10","[]","0","0","4","","","","","","","",""
"pit-trial","97","808237","0.0-2.0-17.3-1.3","battery-v0.2","","""event"",""trial"",""time""
""fullscreenenter"",""1"",""2458""
""blur"",""2"",""8193""
""focus"",""2"",""9667""
""blur"",""3"",""14053""
""focus"",""3"",""16357""
""blur"",""96"",""798800""
""focus"",""96"",""800843""
""blur"",""97"",""804215""
""focus"",""97"",""804345""
""blur"",""97"",""807685""
""focus"",""97"",""807838""
""blur"",""98"",""810816""
""focus"",""98"",""810914""
","""event"",""trial"",""time""
""blur"",""2"",""8193""
""blur"",""3"",""14053""
""blur"",""96"",""798800""
""blur"",""97"",""804215""
""blur"",""97"",""807685""
""blur"",""98"",""810816""
","""event"",""trial"",""time""
""focus"",""2"",""9667""
""focus"",""3"",""16357""
""focus"",""96"",""800843""
""focus"",""97"",""804345""
""focus"",""97"",""807838""
""focus"",""98"",""810914""
","""event"",""trial"",""time""
""fullscreenenter"",""1"",""2458""
","
","","","1805.199999988079","","","25","13492","5892","&#9789;","elianto","#f73b6a7A"," "," ","1","0","[2660.899999976158]","1","0","4","","","","","","","",""
"pit-trial","98","811821","0.0-2.0-17.3-2.3","battery-v0.2","","""event"",""trial"",""time""
""fullscreenenter"",""1"",""2458""
""blur"",""2"",""8193""
""focus"",""2"",""9667""
""blur"",""3"",""14053""
""focus"",""3"",""16357""
""blur"",""96"",""798800""
""focus"",""96"",""800843""
""blur"",""97"",""804215""
""focus"",""97"",""804345""
""blur"",""97"",""807685""
""focus"",""97"",""807838""
""blur"",""98"",""810816""
""focus"",""98"",""810914""
","""event"",""trial"",""time""
""blur"",""2"",""8193""
""blur"",""3"",""14053""
""blur"",""96"",""798800""
""blur"",""97"",""804215""
""blur"",""97"",""807685""
""blur"",""98"",""810816""
","""event"",""trial"",""time""
""focus"",""2"",""9667""
""focus"",""3"",""16357""
""focus"",""96"",""800843""
""focus"",""97"",""804345""
""focus"",""97"",""807838""
""focus"",""98"",""810914""
","""event"",""trial"",""time""
""fullscreenenter"",""1"",""2458""
","
","","","725.7999999821186","","","25","13492","5892","&#9789;","elianto","#f73b6a7A"," "," ","1","0","[1581.5999999940395]","1","0","4","","","","","","","",""
"pit-trial","99","815073","0.0-2.0-17.3-3.3","battery-v0.2","","""event"",""trial"",""time""
""fullscreenenter"",""1"",""2458""
""blur"",""2"",""8193""
""focus"",""2"",""9667""
""blur"",""3"",""14053""
""focus"",""3"",""16357""
""blur"",""96"",""798800""
""focus"",""96"",""800843""
""blur"",""97"",""804215""
""focus"",""97"",""804345""
""blur"",""97"",""807685""
""focus"",""97"",""807838""
""blur"",""98"",""810816""
""focus"",""98"",""810914""
","""event"",""trial"",""time""
""blur"",""2"",""8193""
""blur"",""3"",""14053""
""blur"",""96"",""798800""
""blur"",""97"",""804215""
""blur"",""97"",""807685""
""blur"",""98"",""810816""
","""event"",""trial"",""time""
""focus"",""2"",""9667""
""focus"",""3"",""16357""
""focus"",""96"",""800843""
""focus"",""97"",""804345""
""focus"",""97"",""807838""
""focus"",""98"",""810914""
","""event"",""trial"",""time""
""fullscreenenter"",""1"",""2458""
","
","","","385.40000000596046","","","25","13492","5892","&#9789;","elianto","#f73b6a7A"," "," ","1","-10","[1238.300000011921]","1","0","4","","","","","","","",""
"pit-trial","100","818350","0.0-2.0-17.3-4.3","battery-v0.2","","""event"",""trial"",""time""
""fullscreenenter"",""1"",""2458""
""blur"",""2"",""8193""
""focus"",""2"",""9667""
""blur"",""3"",""14053""
""focus"",""3"",""16357""
""blur"",""96"",""798800""
""focus"",""96"",""800843""
""blur"",""97"",""804215""
""focus"",""97"",""804345""
""blur"",""97"",""807685""
""focus"",""97"",""807838""
""blur"",""98"",""810816""
""focus"",""98"",""810914""
","""event"",""trial"",""time""
""blur"",""2"",""8193""
""blur"",""3"",""14053""
""blur"",""96"",""798800""
""blur"",""97"",""804215""
""blur"",""97"",""807685""
""blur"",""98"",""810816""
","""event"",""trial"",""time""
""focus"",""2"",""9667""
""focus"",""3"",""16357""
""focus"",""96"",""800843""
""focus"",""97"",""804345""
""focus"",""97"",""807838""
""focus"",""98"",""810914""
","""event"",""trial"",""time""
""fullscreenenter"",""1"",""2458""
","
","","","424.30000001192093","","","25","13492","5892","&#9789;","elianto","#f73b6a7A"," "," ","1","0","[1274.6000000238419]","1","0","4","","","","","","","",""
"call-function","101","818351","0.0-2.0-18.0","battery-v0.2","","""event"",""trial"",""time""
""fullscreenenter"",""1"",""2458""
""blur"",""2"",""8193""
""focus"",""2"",""9667""
""blur"",""3"",""14053""
""focus"",""3"",""16357""
""blur"",""96"",""798800""
""focus"",""96"",""800843""
""blur"",""97"",""804215""
""focus"",""97"",""804345""
""blur"",""97"",""807685""
""focus"",""97"",""807838""
""blur"",""98"",""810816""
""focus"",""98"",""810914""
","""event"",""trial"",""time""
""blur"",""2"",""8193""
""blur"",""3"",""14053""
""blur"",""96"",""798800""
""blur"",""97"",""804215""
""blur"",""97"",""807685""
""blur"",""98"",""810816""
","""event"",""trial"",""time""
""focus"",""2"",""9667""
""focus"",""3"",""16357""
""focus"",""96"",""800843""
""focus"",""97"",""804345""
""focus"",""97"",""807838""
""focus"",""98"",""810914""
","""event"",""trial"",""time""
""fullscreenenter"",""1"",""2458""
","
","","","","","","","","","","","","","","","","","","","","","","","","","","",""
"pit-instructions","102","886957","0.0-2.0-19.0","battery-v0.2","","""event"",""trial"",""time""
""fullscreenenter"",""1"",""2458""
""blur"",""2"",""8193""
""focus"",""2"",""9667""
""blur"",""3"",""14053""
""focus"",""3"",""16357""
""blur"",""96"",""798800""
""focus"",""96"",""800843""
""blur"",""97"",""804215""
""focus"",""97"",""804345""
""blur"",""97"",""807685""
""focus"",""97"",""807838""
""blur"",""98"",""810816""
""focus"",""98"",""810914""
","""event"",""trial"",""time""
""blur"",""2"",""8193""
""blur"",""3"",""14053""
""blur"",""96"",""798800""
""blur"",""97"",""804215""
""blur"",""97"",""807685""
""blur"",""98"",""810816""
","""event"",""trial"",""time""
""focus"",""2"",""9667""
""focus"",""3"",""16357""
""focus"",""96"",""800843""
""focus"",""97"",""804345""
""focus"",""97"",""807838""
""focus"",""98"",""810914""
","""event"",""trial"",""time""
""fullscreenenter"",""1"",""2458""
","
","","[{""page_index"":0,""viewing_time"":6603.9000000059605},{""page_index"":1,""viewing_time"":6975.799999982119},{""page_index"":2,""viewing_time"":11482.5},{""page_index"":3,""viewing_time"":4630.4000000059605},{""page_index"":4,""viewing_time"":10347.199999988079},{""page_index"":5,""viewing_time"":10278.600000023842},{""page_index"":6,""viewing_time"":6603.299999982119},{""page_index"":7,""viewing_time"":8101.200000017881},{""page_index"":8,""viewing_time"":3591}]","68614.19999998808","","","","","","","","","","","","","","","","","","","","","","","",""
"pit-comprehension","103","891321","0.0-2.0-20.0-0.0","battery-v0.2","","""event"",""trial"",""time""
""fullscreenenter"",""1"",""2458""
""blur"",""2"",""8193""
""focus"",""2"",""9667""
""blur"",""3"",""14053""
""focus"",""3"",""16357""
""blur"",""96"",""798800""
""focus"",""96"",""800843""
""blur"",""97"",""804215""
""focus"",""97"",""804345""
""blur"",""97"",""807685""
""focus"",""97"",""807838""
""blur"",""98"",""810816""
""focus"",""98"",""810914""
","""event"",""trial"",""time""
""blur"",""2"",""8193""
""blur"",""3"",""14053""
""blur"",""96"",""798800""
""blur"",""97"",""804215""
""blur"",""97"",""807685""
""blur"",""98"",""810816""
","""event"",""trial"",""time""
""focus"",""2"",""9667""
""focus"",""3"",""16357""
""focus"",""96"",""800843""
""focus"",""97"",""804345""
""focus"",""97"",""807838""
""focus"",""98"",""810914""
","""event"",""trial"",""time""
""fullscreenenter"",""1"",""2458""
","
","","","4361.199999988079","[""SPACE""]","0","25","13492","5892","","","","","","","","","","","","","","","","","","",""
"pit-instructions","104","894250","0.0-2.0-20.0-1.0","battery-v0.2","","""event"",""trial"",""time""
""fullscreenenter"",""1"",""2458""
""blur"",""2"",""8193""
""focus"",""2"",""9667""
""blur"",""3"",""14053""
""focus"",""3"",""16357""
""blur"",""96"",""798800""
""focus"",""96"",""800843""
""blur"",""97"",""804215""
""focus"",""97"",""804345""
""blur"",""97"",""807685""
""focus"",""97"",""807838""
""blur"",""98"",""810816""
""focus"",""98"",""810914""
","""event"",""trial"",""time""
""blur"",""2"",""8193""
""blur"",""3"",""14053""
""blur"",""96"",""798800""
""blur"",""97"",""804215""
""blur"",""97"",""807685""
""blur"",""98"",""810816""
","""event"",""trial"",""time""
""focus"",""2"",""9667""
""focus"",""3"",""16357""
""focus"",""96"",""800843""
""focus"",""97"",""804345""
""focus"",""97"",""807838""
""focus"",""98"",""810914""
","""event"",""trial"",""time""
""fullscreenenter"",""1"",""2458""
","
","","[{""page_index"":0,""viewing_time"":2903}]","2903.300000011921","","","","","","","","","","","","","","","","","","","","","","","",""
"pit-comprehension","105","900057","0.0-2.0-21.0-0.0","battery-v0.2","","""event"",""trial"",""time""
""fullscreenenter"",""1"",""2458""
""blur"",""2"",""8193""
""focus"",""2"",""9667""
""blur"",""3"",""14053""
""focus"",""3"",""16357""
""blur"",""96"",""798800""
""focus"",""96"",""800843""
""blur"",""97"",""804215""
""focus"",""97"",""804345""
""blur"",""97"",""807685""
""focus"",""97"",""807838""
""blur"",""98"",""810816""
""focus"",""98"",""810914""
","""event"",""trial"",""time""
""blur"",""2"",""8193""
""blur"",""3"",""14053""
""blur"",""96"",""798800""
""blur"",""97"",""804215""
""blur"",""97"",""807685""
""blur"",""98"",""810816""
","""event"",""trial"",""time""
""focus"",""2"",""9667""
""focus"",""3"",""16357""
""focus"",""96"",""800843""
""focus"",""97"",""804345""
""focus"",""97"",""807838""
""focus"",""98"",""810914""
","""event"",""trial"",""time""
""fullscreenenter"",""1"",""2458""
","
","","","5803.9000000059605","[""10""]","0","25","13492","5892","","","","","","","","","","","","","","","","","","",""
"pit-instructions","106","903970","0.0-2.0-21.0-1.0","battery-v0.2","","""event"",""trial"",""time""
""fullscreenenter"",""1"",""2458""
""blur"",""2"",""8193""
""focus"",""2"",""9667""
""blur"",""3"",""14053""
""focus"",""3"",""16357""
""blur"",""96"",""798800""
""focus"",""96"",""800843""
""blur"",""97"",""804215""
""focus"",""97"",""804345""
""blur"",""97"",""807685""
""focus"",""97"",""807838""
""blur"",""98"",""810816""
""focus"",""98"",""810914""
","""event"",""trial"",""time""
""blur"",""2"",""8193""
""blur"",""3"",""14053""
""blur"",""96"",""798800""
""blur"",""97"",""804215""
""blur"",""97"",""807685""
""blur"",""98"",""810816""
","""event"",""trial"",""time""
""focus"",""2"",""9667""
""focus"",""3"",""16357""
""focus"",""96"",""800843""
""focus"",""97"",""804345""
""focus"",""97"",""807838""
""focus"",""98"",""810914""
","""event"",""trial"",""time""
""fullscreenenter"",""1"",""2458""
","
","","[{""page_index"":0,""viewing_time"":3885.300000011921}]","3885.5999999940395","","","","","","","","","","","","","","","","","","","","","","","",""
"pit-comprehension","107","910359","0.0-2.0-22.0-0.0","battery-v0.2","","""event"",""trial"",""time""
""fullscreenenter"",""1"",""2458""
""blur"",""2"",""8193""
""focus"",""2"",""9667""
""blur"",""3"",""14053""
""focus"",""3"",""16357""
""blur"",""96"",""798800""
""focus"",""96"",""800843""
""blur"",""97"",""804215""
""focus"",""97"",""804345""
""blur"",""97"",""807685""
""focus"",""97"",""807838""
""blur"",""98"",""810816""
""focus"",""98"",""810914""
","""event"",""trial"",""time""
""blur"",""2"",""8193""
""blur"",""3"",""14053""
""blur"",""96"",""798800""
""blur"",""97"",""804215""
""blur"",""97"",""807685""
""blur"",""98"",""810816""
","""event"",""trial"",""time""
""focus"",""2"",""9667""
""focus"",""3"",""16357""
""focus"",""96"",""800843""
""focus"",""97"",""804345""
""focus"",""97"",""807838""
""focus"",""98"",""810914""
","""event"",""trial"",""time""
""fullscreenenter"",""1"",""2458""
","
","","","6386.5999999940395","[""0""]","0","25","13492","5892","","","","","","","","","","","","","","","","","","",""
"pit-instructions","108","911958","0.0-2.0-22.0-1.0","battery-v0.2","","""event"",""trial"",""time""
""fullscreenenter"",""1"",""2458""
""blur"",""2"",""8193""
""focus"",""2"",""9667""
""blur"",""3"",""14053""
""focus"",""3"",""16357""
""blur"",""96"",""798800""
""focus"",""96"",""800843""
""blur"",""97"",""804215""
""focus"",""97"",""804345""
""blur"",""97"",""807685""
""focus"",""97"",""807838""
""blur"",""98"",""810816""
""focus"",""98"",""810914""
","""event"",""trial"",""time""
""blur"",""2"",""8193""
""blur"",""3"",""14053""
""blur"",""96"",""798800""
""blur"",""97"",""804215""
""blur"",""97"",""807685""
""blur"",""98"",""810816""
","""event"",""trial"",""time""
""focus"",""2"",""9667""
""focus"",""3"",""16357""
""focus"",""96"",""800843""
""focus"",""97"",""804345""
""focus"",""97"",""807838""
""focus"",""98"",""810914""
","""event"",""trial"",""time""
""fullscreenenter"",""1"",""2458""
","
","","[{""page_index"":0,""viewing_time"":1574.800000011921}]","1575.0999999940395","","","","","","","","","","","","","","","","","","","","","","","",""
"pit-comprehension","109","920477","0.0-2.0-23.0-0.0","battery-v0.2","","""event"",""trial"",""time""
""fullscreenenter"",""1"",""2458""
""blur"",""2"",""8193""
""focus"",""2"",""9667""
""blur"",""3"",""14053""
""focus"",""3"",""16357""
""blur"",""96"",""798800""
""focus"",""96"",""800843""
""blur"",""97"",""804215""
""focus"",""97"",""804345""
""blur"",""97"",""807685""
""focus"",""97"",""807838""
""blur"",""98"",""810816""
""focus"",""98"",""810914""
","""event"",""trial"",""time""
""blur"",""2"",""8193""
""blur"",""3"",""14053""
""blur"",""96"",""798800""
""blur"",""97"",""804215""
""blur"",""97"",""807685""
""blur"",""98"",""810816""
","""event"",""trial"",""time""
""focus"",""2"",""9667""
""focus"",""3"",""16357""
""focus"",""96"",""800843""
""focus"",""97"",""804345""
""focus"",""97"",""807838""
""focus"",""98"",""810914""
","""event"",""trial"",""time""
""fullscreenenter"",""1"",""2458""
","
","","","8516.600000023842","[""True""]","0","25","13492","5892","","","","","","","","","","","","","","","","","","",""
"pit-instructions","110","921992","0.0-2.0-23.0-1.0","battery-v0.2","","""event"",""trial"",""time""
""fullscreenenter"",""1"",""2458""
""blur"",""2"",""8193""
""focus"",""2"",""9667""
""blur"",""3"",""14053""
""focus"",""3"",""16357""
""blur"",""96"",""798800""
""focus"",""96"",""800843""
""blur"",""97"",""804215""
""focus"",""97"",""804345""
""blur"",""97"",""807685""
""focus"",""97"",""807838""
""blur"",""98"",""810816""
""focus"",""98"",""810914""
","""event"",""trial"",""time""
""blur"",""2"",""8193""
""blur"",""3"",""14053""
""blur"",""96"",""798800""
""blur"",""97"",""804215""
""blur"",""97"",""807685""
""blur"",""98"",""810816""
","""event"",""trial"",""time""
""focus"",""2"",""9667""
""focus"",""3"",""16357""
""focus"",""96"",""800843""
""focus"",""97"",""804345""
""focus"",""97"",""807838""
""focus"",""98"",""810914""
","""event"",""trial"",""time""
""fullscreenenter"",""1"",""2458""
","
","","[{""page_index"":0,""viewing_time"":1482.5999999940395}]","1482.800000011921","","","","","","","","","","","","","","","","","","","","","","","",""
"pit-comprehension","111","929476","0.0-2.0-24.0-0.0","battery-v0.2","","""event"",""trial"",""time""
""fullscreenenter"",""1"",""2458""
""blur"",""2"",""8193""
""focus"",""2"",""9667""
""blur"",""3"",""14053""
""focus"",""3"",""16357""
""blur"",""96"",""798800""
""focus"",""96"",""800843""
""blur"",""97"",""804215""
""focus"",""97"",""804345""
""blur"",""97"",""807685""
""focus"",""97"",""807838""
""blur"",""98"",""810816""
""focus"",""98"",""810914""
","""event"",""trial"",""time""
""blur"",""2"",""8193""
""blur"",""3"",""14053""
""blur"",""96"",""798800""
""blur"",""97"",""804215""
""blur"",""97"",""807685""
""blur"",""98"",""810816""
","""event"",""trial"",""time""
""focus"",""2"",""9667""
""focus"",""3"",""16357""
""focus"",""96"",""800843""
""focus"",""97"",""804345""
""focus"",""97"",""807838""
""focus"",""98"",""810914""
","""event"",""trial"",""time""
""fullscreenenter"",""1"",""2458""
","
","","","7482.200000017881","[""True""]","0","25","13492","5892","","","","","","","","","","","","","","","","","","",""
"pit-instructions","112","931826","0.0-2.0-24.0-1.0","battery-v0.2","","""event"",""trial"",""time""
""fullscreenenter"",""1"",""2458""
""blur"",""2"",""8193""
""focus"",""2"",""9667""
""blur"",""3"",""14053""
""focus"",""3"",""16357""
""blur"",""96"",""798800""
""focus"",""96"",""800843""
""blur"",""97"",""804215""
""focus"",""97"",""804345""
""blur"",""97"",""807685""
""focus"",""97"",""807838""
""blur"",""98"",""810816""
""focus"",""98"",""810914""
","""event"",""trial"",""time""
""blur"",""2"",""8193""
""blur"",""3"",""14053""
""blur"",""96"",""798800""
""blur"",""97"",""804215""
""blur"",""97"",""807685""
""blur"",""98"",""810816""
","""event"",""trial"",""time""
""focus"",""2"",""9667""
""focus"",""3"",""16357""
""focus"",""96"",""800843""
""focus"",""97"",""804345""
""focus"",""97"",""807838""
""focus"",""98"",""810914""
","""event"",""trial"",""time""
""fullscreenenter"",""1"",""2458""
","
","","[{""page_index"":0,""viewing_time"":2321.800000011921}]","2322.100000023842","","","","","","","","","","","","","","","","","","","","","","","",""
"pit-comprehension","113","938684","0.0-2.0-25.0-0.0","battery-v0.2","","""event"",""trial"",""time""
""fullscreenenter"",""1"",""2458""
""blur"",""2"",""8193""
""focus"",""2"",""9667""
""blur"",""3"",""14053""
""focus"",""3"",""16357""
""blur"",""96"",""798800""
""focus"",""96"",""800843""
""blur"",""97"",""804215""
""focus"",""97"",""804345""
""blur"",""97"",""807685""
""focus"",""97"",""807838""
""blur"",""98"",""810816""
""focus"",""98"",""810914""
","""event"",""trial"",""time""
""blur"",""2"",""8193""
""blur"",""3"",""14053""
""blur"",""96"",""798800""
""blur"",""97"",""804215""
""blur"",""97"",""807685""
""blur"",""98"",""810816""
","""event"",""trial"",""time""
""focus"",""2"",""9667""
""focus"",""3"",""16357""
""focus"",""96"",""800843""
""focus"",""97"",""804345""
""focus"",""97"",""807838""
""focus"",""98"",""810914""
","""event"",""trial"",""time""
""fullscreenenter"",""1"",""2458""
","
","","","6848","[""True""]","0","25","13492","5892","","","","","","","","","","","","","","","","","","",""
"pit-instructions","114","940230","0.0-2.0-25.0-1.0","battery-v0.2","","""event"",""trial"",""time""
""fullscreenenter"",""1"",""2458""
""blur"",""2"",""8193""
""focus"",""2"",""9667""
""blur"",""3"",""14053""
""focus"",""3"",""16357""
""blur"",""96"",""798800""
""focus"",""96"",""800843""
""blur"",""97"",""804215""
""focus"",""97"",""804345""
""blur"",""97"",""807685""
""focus"",""97"",""807838""
""blur"",""98"",""810816""
""focus"",""98"",""810914""
","""event"",""trial"",""time""
""blur"",""2"",""8193""
""blur"",""3"",""14053""
""blur"",""96"",""798800""
""blur"",""97"",""804215""
""blur"",""97"",""807685""
""blur"",""98"",""810816""
","""event"",""trial"",""time""
""focus"",""2"",""9667""
""focus"",""3"",""16357""
""focus"",""96"",""800843""
""focus"",""97"",""804345""
""focus"",""97"",""807838""
""focus"",""98"",""810914""
","""event"",""trial"",""time""
""fullscreenenter"",""1"",""2458""
","
","","[{""page_index"":0,""viewing_time"":1515.8999999761581}]","1516.199999988079","","","","","","","","","","","","","","","","","","","","","","","",""
"pit-comprehension","115","945398","0.0-2.0-26.0-0.0","battery-v0.2","","""event"",""trial"",""time""
""fullscreenenter"",""1"",""2458""
""blur"",""2"",""8193""
""focus"",""2"",""9667""
""blur"",""3"",""14053""
""focus"",""3"",""16357""
""blur"",""96"",""798800""
""focus"",""96"",""800843""
""blur"",""97"",""804215""
""focus"",""97"",""804345""
""blur"",""97"",""807685""
""focus"",""97"",""807838""
""blur"",""98"",""810816""
""focus"",""98"",""810914""
","""event"",""trial"",""time""
""blur"",""2"",""8193""
""blur"",""3"",""14053""
""blur"",""96"",""798800""
""blur"",""97"",""804215""
""blur"",""97"",""807685""
""blur"",""98"",""810816""
","""event"",""trial"",""time""
""focus"",""2"",""9667""
""focus"",""3"",""16357""
""focus"",""96"",""800843""
""focus"",""97"",""804345""
""focus"",""97"",""807838""
""focus"",""98"",""810914""
","""event"",""trial"",""time""
""fullscreenenter"",""1"",""2458""
","
","","","5165.4000000059605","[""False""]","0","25","13492","5892","","","","","","","","","","","","","","","","","","",""
"pit-instructions","116","948509","0.0-2.0-26.0-1.0","battery-v0.2","","""event"",""trial"",""time""
""fullscreenenter"",""1"",""2458""
""blur"",""2"",""8193""
""focus"",""2"",""9667""
""blur"",""3"",""14053""
""focus"",""3"",""16357""
""blur"",""96"",""798800""
""focus"",""96"",""800843""
""blur"",""97"",""804215""
""focus"",""97"",""804345""
""blur"",""97"",""807685""
""focus"",""97"",""807838""
""blur"",""98"",""810816""
""focus"",""98"",""810914""
","""event"",""trial"",""time""
""blur"",""2"",""8193""
""blur"",""3"",""14053""
""blur"",""96"",""798800""
""blur"",""97"",""804215""
""blur"",""97"",""807685""
""blur"",""98"",""810816""
","""event"",""trial"",""time""
""focus"",""2"",""9667""
""focus"",""3"",""16357""
""focus"",""96"",""800843""
""focus"",""97"",""804345""
""focus"",""97"",""807838""
""focus"",""98"",""810914""
","""event"",""trial"",""time""
""fullscreenenter"",""1"",""2458""
","
","","[{""page_index"":0,""viewing_time"":3085.5999999940395}]","3085.9000000059605","","","","","","","","","","","","","","","","","","","","","","","",""
"pit-instructions","117","966586","0.0-3.0","battery-v0.2","","""event"",""trial"",""time""
""fullscreenenter"",""1"",""2458""
""blur"",""2"",""8193""
""focus"",""2"",""9667""
""blur"",""3"",""14053""
""focus"",""3"",""16357""
""blur"",""96"",""798800""
""focus"",""96"",""800843""
""blur"",""97"",""804215""
""focus"",""97"",""804345""
""blur"",""97"",""807685""
""focus"",""97"",""807838""
""blur"",""98"",""810816""
""focus"",""98"",""810914""
","""event"",""trial"",""time""
""blur"",""2"",""8193""
""blur"",""3"",""14053""
""blur"",""96"",""798800""
""blur"",""97"",""804215""
""blur"",""97"",""807685""
""blur"",""98"",""810816""
","""event"",""trial"",""time""
""focus"",""2"",""9667""
""focus"",""3"",""16357""
""focus"",""96"",""800843""
""focus"",""97"",""804345""
""focus"",""97"",""807838""
""focus"",""98"",""810914""
","""event"",""trial"",""time""
""fullscreenenter"",""1"",""2458""
","
","","[{""page_index"":0,""viewing_time"":4223},{""page_index"":1,""viewing_time"":5840.5999999940395},{""page_index"":2,""viewing_time"":8012.4000000059605}]","18076.29999998212","","","","","","","","","","","","","","","","","","","","","","","",""
"pit-trial","118","969969","0.0-4.0","battery-v0.2","","""event"",""trial"",""time""
""fullscreenenter"",""1"",""2458""
""blur"",""2"",""8193""
""focus"",""2"",""9667""
""blur"",""3"",""14053""
""focus"",""3"",""16357""
""blur"",""96"",""798800""
""focus"",""96"",""800843""
""blur"",""97"",""804215""
""focus"",""97"",""804345""
""blur"",""97"",""807685""
""focus"",""97"",""807838""
""blur"",""98"",""810816""
""focus"",""98"",""810914""
","""event"",""trial"",""time""
""blur"",""2"",""8193""
""blur"",""3"",""14053""
""blur"",""96"",""798800""
""blur"",""97"",""804215""
""blur"",""97"",""807685""
""blur"",""98"",""810816""
","""event"",""trial"",""time""
""focus"",""2"",""9667""
""focus"",""3"",""16357""
""focus"",""96"",""800843""
""focus"",""97"",""804345""
""focus"",""97"",""807838""
""focus"",""98"",""810914""
","""event"",""trial"",""time""
""fullscreenenter"",""1"",""2458""
","
","","","516.3999999761581","","","25","13492","5892","&#9730;","elianto","#3366ff99"," "," ","1","+10","[1373.5]","1","1","","","13492","1","1","1","win","go","0"
"pit-trial","119","973731","0.0-5.0","battery-v0.2","","""event"",""trial"",""time""
""fullscreenenter"",""1"",""2458""
""blur"",""2"",""8193""
""focus"",""2"",""9667""
""blur"",""3"",""14053""
""focus"",""3"",""16357""
""blur"",""96"",""798800""
""focus"",""96"",""800843""
""blur"",""97"",""804215""
""focus"",""97"",""804345""
""blur"",""97"",""807685""
""focus"",""97"",""807838""
""blur"",""98"",""810816""
""focus"",""98"",""810914""
","""event"",""trial"",""time""
""blur"",""2"",""8193""
""blur"",""3"",""14053""
""blur"",""96"",""798800""
""blur"",""97"",""804215""
""blur"",""97"",""807685""
""blur"",""98"",""810816""
","""event"",""trial"",""time""
""focus"",""2"",""9667""
""focus"",""3"",""16357""
""focus"",""96"",""800843""
""focus"",""97"",""804345""
""focus"",""97"",""807838""
""focus"",""98"",""810914""
","""event"",""trial"",""time""
""fullscreenenter"",""1"",""2458""
","
","","","902.3000000119209","","","25","13492","5892","&#9752;","elianto","#f73b6a7A"," "," ","1","0","[1753.4000000059605]","1","1","","","13492","2","3","3","lose","go","0"
"pit-trial","120","977350","0.0-6.0","battery-v0.2","","""event"",""trial"",""time""
""fullscreenenter"",""1"",""2458""
""blur"",""2"",""8193""
""focus"",""2"",""9667""
""blur"",""3"",""14053""
""focus"",""3"",""16357""
""blur"",""96"",""798800""
""focus"",""96"",""800843""
""blur"",""97"",""804215""
""focus"",""97"",""804345""
""blur"",""97"",""807685""
""focus"",""97"",""807838""
""blur"",""98"",""810816""
""focus"",""98"",""810914""
","""event"",""trial"",""time""
""blur"",""2"",""8193""
""blur"",""3"",""14053""
""blur"",""96"",""798800""
""blur"",""97"",""804215""
""blur"",""97"",""807685""
""blur"",""98"",""810816""
","""event"",""trial"",""time""
""focus"",""2"",""9667""
""focus"",""3"",""16357""
""focus"",""96"",""800843""
""focus"",""97"",""804345""
""focus"",""97"",""807838""
""focus"",""98"",""810914""
","""event"",""trial"",""time""
""fullscreenenter"",""1"",""2458""
","
","","","750.5","","","25","13492","5892","&#9733;","elianto","#3366ff99","-1"," ","0","0","[1607.7000000178814]","1","1","","","13492","3","2","2","win","no-go","0"
"pit-trial","121","981220","0.0-7.0","battery-v0.2","","""event"",""trial"",""time""
""fullscreenenter"",""1"",""2458""
""blur"",""2"",""8193""
""focus"",""2"",""9667""
""blur"",""3"",""14053""
""focus"",""3"",""16357""
""blur"",""96"",""798800""
""focus"",""96"",""800843""
""blur"",""97"",""804215""
""focus"",""97"",""804345""
""blur"",""97"",""807685""
""focus"",""97"",""807838""
""blur"",""98"",""810816""
""focus"",""98"",""810914""
","""event"",""trial"",""time""
""blur"",""2"",""8193""
""blur"",""3"",""14053""
""blur"",""96"",""798800""
""blur"",""97"",""804215""
""blur"",""97"",""807685""
""blur"",""98"",""810816""
","""event"",""trial"",""time""
""focus"",""2"",""9667""
""focus"",""3"",""16357""
""focus"",""96"",""800843""
""focus"",""97"",""804345""
""focus"",""97"",""807838""
""focus"",""98"",""810914""
","""event"",""trial"",""time""
""fullscreenenter"",""1"",""2458""
","
","","","1004.3000000119209","","","25","13492","5892","&#9728;","elianto","#f73b6a7A","-1"," ","0","-10","[1862.800000011921]","1","1","","","13492","4","0","4","lose","no-go","0"
"pit-trial","122","984770","0.0-8.0","battery-v0.2","","""event"",""trial"",""time""
""fullscreenenter"",""1"",""2458""
""blur"",""2"",""8193""
""focus"",""2"",""9667""
""blur"",""3"",""14053""
""focus"",""3"",""16357""
""blur"",""96"",""798800""
""focus"",""96"",""800843""
""blur"",""97"",""804215""
""focus"",""97"",""804345""
""blur"",""97"",""807685""
""focus"",""97"",""807838""
""blur"",""98"",""810816""
""focus"",""98"",""810914""
","""event"",""trial"",""time""
""blur"",""2"",""8193""
""blur"",""3"",""14053""
""blur"",""96"",""798800""
""blur"",""97"",""804215""
""blur"",""97"",""807685""
""blur"",""98"",""810816""
","""event"",""trial"",""time""
""focus"",""2"",""9667""
""focus"",""3"",""16357""
""focus"",""96"",""800843""
""focus"",""97"",""804345""
""focus"",""97"",""807838""
""focus"",""98"",""810914""
","""event"",""trial"",""time""
""fullscreenenter"",""1"",""2458""
","
","","","689","","","25","13492","5892","&#9752;","elianto","#f73b6a7A"," "," ","1","0","[1543.0999999940395]","1","1","","","13492","5","3","3","lose","go","0"
"pit-trial","123","989650","0.0-9.0","battery-v0.2","","""event"",""trial"",""time""
""fullscreenenter"",""1"",""2458""
""blur"",""2"",""8193""
""focus"",""2"",""9667""
""blur"",""3"",""14053""
""focus"",""3"",""16357""
""blur"",""96"",""798800""
""focus"",""96"",""800843""
""blur"",""97"",""804215""
""focus"",""97"",""804345""
""blur"",""97"",""807685""
""focus"",""97"",""807838""
""blur"",""98"",""810816""
""focus"",""98"",""810914""
","""event"",""trial"",""time""
""blur"",""2"",""8193""
""blur"",""3"",""14053""
""blur"",""96"",""798800""
""blur"",""97"",""804215""
""blur"",""97"",""807685""
""blur"",""98"",""810816""
","""event"",""trial"",""time""
""focus"",""2"",""9667""
""focus"",""3"",""16357""
""focus"",""96"",""800843""
""focus"",""97"",""804345""
""focus"",""97"",""807838""
""focus"",""98"",""810914""
","""event"",""trial"",""time""
""fullscreenenter"",""1"",""2458""
","
","","","-1","","","25","13492","5892","&#9733;","elianto","#3366ff99","-1","-1","1","0","[]","0","1","","","13492","6","2","2","win","no-go","1"
"pit-trial","124","994520","0.0-10.0","battery-v0.2","","""event"",""trial"",""time""
""fullscreenenter"",""1"",""2458""
""blur"",""2"",""8193""
""focus"",""2"",""9667""
""blur"",""3"",""14053""
""focus"",""3"",""16357""
""blur"",""96"",""798800""
""focus"",""96"",""800843""
""blur"",""97"",""804215""
""focus"",""97"",""804345""
""blur"",""97"",""807685""
""focus"",""97"",""807838""
""blur"",""98"",""810816""
""focus"",""98"",""810914""
","""event"",""trial"",""time""
""blur"",""2"",""8193""
""blur"",""3"",""14053""
""blur"",""96"",""798800""
""blur"",""97"",""804215""
""blur"",""97"",""807685""
""blur"",""98"",""810816""
","""event"",""trial"",""time""
""focus"",""2"",""9667""
""focus"",""3"",""16357""
""focus"",""96"",""800843""
""focus"",""97"",""804345""
""focus"",""97"",""807838""
""focus"",""98"",""810914""
","""event"",""trial"",""time""
""fullscreenenter"",""1"",""2458""
","
","","","-1","","","25","13492","5892","&#9728;","elianto","#f73b6a7A","-1","-1","1","0","[]","0","1","","","13492","7","0","4","lose","no-go","0"
"pit-trial","125","997912","0.0-11.0","battery-v0.2","","""event"",""trial"",""time""
""fullscreenenter"",""1"",""2458""
""blur"",""2"",""8193""
""focus"",""2"",""9667""
""blur"",""3"",""14053""
""focus"",""3"",""16357""
""blur"",""96"",""798800""
""focus"",""96"",""800843""
""blur"",""97"",""804215""
""focus"",""97"",""804345""
""blur"",""97"",""807685""
""focus"",""97"",""807838""
""blur"",""98"",""810816""
""focus"",""98"",""810914""
","""event"",""trial"",""time""
""blur"",""2"",""8193""
""blur"",""3"",""14053""
""blur"",""96"",""798800""
""blur"",""97"",""804215""
""blur"",""97"",""807685""
""blur"",""98"",""810816""
","""event"",""trial"",""time""
""focus"",""2"",""9667""
""focus"",""3"",""16357""
""focus"",""96"",""800843""
""focus"",""97"",""804345""
""focus"",""97"",""807838""
""focus"",""98"",""810914""
","""event"",""trial"",""time""
""fullscreenenter"",""1"",""2458""
","
","","","535.3000000119209","","","25","13492","5892","&#9730;","elianto","#3366ff99"," "," ","1","0","[1386]","1","1","","","13492","8","1","1","win","go","1"
"pit-trial","126","1002783","0.0-12.0","battery-v0.2","","""event"",""trial"",""time""
""fullscreenenter"",""1"",""2458""
""blur"",""2"",""8193""
""focus"",""2"",""9667""
""blur"",""3"",""14053""
""focus"",""3"",""16357""
""blur"",""96"",""798800""
""focus"",""96"",""800843""
""blur"",""97"",""804215""
""focus"",""97"",""804345""
""blur"",""97"",""807685""
""focus"",""97"",""807838""
""blur"",""98"",""810816""
""focus"",""98"",""810914""
","""event"",""trial"",""time""
""blur"",""2"",""8193""
""blur"",""3"",""14053""
""blur"",""96"",""798800""
""blur"",""97"",""804215""
""blur"",""97"",""807685""
""blur"",""98"",""810816""
","""event"",""trial"",""time""
""focus"",""2"",""9667""
""focus"",""3"",""16357""
""focus"",""96"",""800843""
""focus"",""97"",""804345""
""focus"",""97"",""807838""
""focus"",""98"",""810914""
","""event"",""trial"",""time""
""fullscreenenter"",""1"",""2458""
","
","","","-1","","","25","13492","5892","&#9728;","elianto","#f73b6a7A","-1","-1","1","0","[]","0","1","","","13492","9","0","4","lose","no-go","0"
"pit-trial","127","1007641","0.0-13.0","battery-v0.2","","""event"",""trial"",""time""
""fullscreenenter"",""1"",""2458""
""blur"",""2"",""8193""
""focus"",""2"",""9667""
""blur"",""3"",""14053""
""focus"",""3"",""16357""
""blur"",""96"",""798800""
""focus"",""96"",""800843""
""blur"",""97"",""804215""
""focus"",""97"",""804345""
""blur"",""97"",""807685""
""focus"",""97"",""807838""
""blur"",""98"",""810816""
""focus"",""98"",""810914""
","""event"",""trial"",""time""
""blur"",""2"",""8193""
""blur"",""3"",""14053""
""blur"",""96"",""798800""
""blur"",""97"",""804215""
""blur"",""97"",""807685""
""blur"",""98"",""810816""
","""event"",""trial"",""time""
""focus"",""2"",""9667""
""focus"",""3"",""16357""
""focus"",""96"",""800843""
""focus"",""97"",""804345""
""focus"",""97"",""807838""
""focus"",""98"",""810914""
","""event"",""trial"",""time""
""fullscreenenter"",""1"",""2458""
","
","","","-1","","","25","13492","5892","&#9733;","elianto","#3366ff99","-1","-1","1","0","[]","0","1","","","13492","10","2","2","win","no-go","1"
"pit-trial","128","1011357","0.0-14.0","battery-v0.2","","""event"",""trial"",""time""
""fullscreenenter"",""1"",""2458""
""blur"",""2"",""8193""
""focus"",""2"",""9667""
""blur"",""3"",""14053""
""focus"",""3"",""16357""
""blur"",""96"",""798800""
""focus"",""96"",""800843""
""blur"",""97"",""804215""
""focus"",""97"",""804345""
""blur"",""97"",""807685""
""focus"",""97"",""807838""
""blur"",""98"",""810816""
""focus"",""98"",""810914""
","""event"",""trial"",""time""
""blur"",""2"",""8193""
""blur"",""3"",""14053""
""blur"",""96"",""798800""
""blur"",""97"",""804215""
""blur"",""97"",""807685""
""blur"",""98"",""810816""
","""event"",""trial"",""time""
""focus"",""2"",""9667""
""focus"",""3"",""16357""
""focus"",""96"",""800843""
""focus"",""97"",""804345""
""focus"",""97"",""807838""
""focus"",""98"",""810914""
","""event"",""trial"",""time""
""fullscreenenter"",""1"",""2458""
","
","","","855.4000000059605","","","25","13492","5892","&#9730;","elianto","#3366ff99"," "," ","1","+10","[1713]","1","1","","","13492","11","1","1","win","go","0"
"pit-trial","129","1014874","0.0-15.0","battery-v0.2","","""event"",""trial"",""time""
""fullscreenenter"",""1"",""2458""
""blur"",""2"",""8193""
""focus"",""2"",""9667""
""blur"",""3"",""14053""
""focus"",""3"",""16357""
""blur"",""96"",""798800""
""focus"",""96"",""800843""
""blur"",""97"",""804215""
""focus"",""97"",""804345""
""blur"",""97"",""807685""
""focus"",""97"",""807838""
""blur"",""98"",""810816""
""focus"",""98"",""810914""
","""event"",""trial"",""time""
""blur"",""2"",""8193""
""blur"",""3"",""14053""
""blur"",""96"",""798800""
""blur"",""97"",""804215""
""blur"",""97"",""807685""
""blur"",""98"",""810816""
","""event"",""trial"",""time""
""focus"",""2"",""9667""
""focus"",""3"",""16357""
""focus"",""96"",""800843""
""focus"",""97"",""804345""
""focus"",""97"",""807838""
""focus"",""98"",""810914""
","""event"",""trial"",""time""
""fullscreenenter"",""1"",""2458""
","
","","","652.5","","","25","13492","5892","&#9752;","elianto","#f73b6a7A"," "," ","1","0","[1508.5999999940395]","1","1","","","13492","12","3","3","lose","go","0"
"pit-trial","130","1018361","0.0-16.0","battery-v0.2","","""event"",""trial"",""time""
""fullscreenenter"",""1"",""2458""
""blur"",""2"",""8193""
""focus"",""2"",""9667""
""blur"",""3"",""14053""
""focus"",""3"",""16357""
""blur"",""96"",""798800""
""focus"",""96"",""800843""
""blur"",""97"",""804215""
""focus"",""97"",""804345""
""blur"",""97"",""807685""
""focus"",""97"",""807838""
""blur"",""98"",""810816""
""focus"",""98"",""810914""
","""event"",""trial"",""time""
""blur"",""2"",""8193""
""blur"",""3"",""14053""
""blur"",""96"",""798800""
""blur"",""97"",""804215""
""blur"",""97"",""807685""
""blur"",""98"",""810816""
","""event"",""trial"",""time""
""focus"",""2"",""9667""
""focus"",""3"",""16357""
""focus"",""96"",""800843""
""focus"",""97"",""804345""
""focus"",""97"",""807838""
