"trial_type","trial_index","time_elapsed","internal_node_id","task_version","subject_id","interactions","blur_events","focus_events","fullscreenenter_events","fullscreenexit_events","success","view_history","rt","responses","num_errors","age","subject","participantId","rune","rune_set","hex","correct","choice","accuracy","outcome","keys","total_keys","block","practice","value","sub","trial","stimulus","robot","valence","action","sham"
"pavlovia","0","9","0.0-0.0","battery-v0.2","","""event"",""trial"",""time""
""blur"",""1"",""3583""
""focus"",""1"",""3586""
""blur"",""1"",""3588""
""fullscreenenter"",""1"",""3623""
""focus"",""1"",""3889""
","""event"",""trial"",""time""
""blur"",""1"",""3583""
""blur"",""1"",""3588""
","""event"",""trial"",""time""
""focus"",""1"",""3586""
""focus"",""1"",""3889""
","""event"",""trial"",""time""
""fullscreenenter"",""1"",""3623""
","
","","","","","","","","","","","","","","","","","","","","","","","","","","",""
"fullscreen","1","4518","0.0-1.0","battery-v0.2","","""event"",""trial"",""time""
""blur"",""1"",""3583""
""focus"",""1"",""3586""
""blur"",""1"",""3588""
""fullscreenenter"",""1"",""3623""
""focus"",""1"",""3889""
","""event"",""trial"",""time""
""blur"",""1"",""3583""
""blur"",""1"",""3588""
","""event"",""trial"",""time""
""focus"",""1"",""3586""
""focus"",""1"",""3889""
","""event"",""trial"",""time""
""fullscreenenter"",""1"",""3623""
","
","true","","","","","","","","","","","","","","","","","","","","","","","","","",""
"pit-instructions","2","10312","0.0-2.0-0.0","battery-v0.2","","""event"",""trial"",""time""
""blur"",""1"",""3583""
""focus"",""1"",""3586""
""blur"",""1"",""3588""
""fullscreenenter"",""1"",""3623""
""focus"",""1"",""3889""
","""event"",""trial"",""time""
""blur"",""1"",""3583""
""blur"",""1"",""3588""
","""event"",""trial"",""time""
""focus"",""1"",""3586""
""focus"",""1"",""3889""
","""event"",""trial"",""time""
""fullscreenenter"",""1"",""3623""
","
","","[{""page_index"":0,""viewing_time"":5785}]","5785","","","","","","","","","","","","","","","","","","","","","","","",""
"pit-comprehension","3","13284","0.0-2.0-1.0-0.0","battery-v0.2","","""event"",""trial"",""time""
""blur"",""1"",""3583""
""focus"",""1"",""3586""
""blur"",""1"",""3588""
""fullscreenenter"",""1"",""3623""
""focus"",""1"",""3889""
","""event"",""trial"",""time""
""blur"",""1"",""3583""
""blur"",""1"",""3588""
","""event"",""trial"",""time""
""focus"",""1"",""3586""
""focus"",""1"",""3889""
","""event"",""trial"",""time""
""fullscreenenter"",""1"",""3623""
","
","","","2842","[""shark""]","0","21","12470","5476","","","","","","","","","","","","","","","","","","",""
"pit-instructions","4","16227","0.0-2.0-1.0-1.0","battery-v0.2","","""event"",""trial"",""time""
""blur"",""1"",""3583""
""focus"",""1"",""3586""
""blur"",""1"",""3588""
""fullscreenenter"",""1"",""3623""
""focus"",""1"",""3889""
","""event"",""trial"",""time""
""blur"",""1"",""3583""
""blur"",""1"",""3588""
","""event"",""trial"",""time""
""focus"",""1"",""3586""
""focus"",""1"",""3889""
","""event"",""trial"",""time""
""fullscreenenter"",""1"",""3623""
","
","","[{""page_index"":0,""viewing_time"":2939}]","2940.0000000000036","","","","","","","","","","","","","","","","","","","","","","","",""
"pit-comprehension","5","18266","0.0-2.0-2.0-0.0","battery-v0.2","","""event"",""trial"",""time""
""blur"",""1"",""3583""
""focus"",""1"",""3586""
""blur"",""1"",""3588""
""fullscreenenter"",""1"",""3623""
""focus"",""1"",""3889""
","""event"",""trial"",""time""
""blur"",""1"",""3583""
""blur"",""1"",""3588""
","""event"",""trial"",""time""
""focus"",""1"",""3586""
""focus"",""1"",""3889""
","""event"",""trial"",""time""
""fullscreenenter"",""1"",""3623""
","
","","","2033","[""tiger""]","0","21","12470","5476","","","","","","","","","","","","","","","","","","",""
"pit-instructions","6","19177","0.0-2.0-2.0-1.0","battery-v0.2","","""event"",""trial"",""time""
""blur"",""1"",""3583""
""focus"",""1"",""3586""
""blur"",""1"",""3588""
""fullscreenenter"",""1"",""3623""
""focus"",""1"",""3889""
","""event"",""trial"",""time""
""blur"",""1"",""3583""
""blur"",""1"",""3588""
","""event"",""trial"",""time""
""focus"",""1"",""3586""
""focus"",""1"",""3889""
","""event"",""trial"",""time""
""fullscreenenter"",""1"",""3623""
","
","","[{""page_index"":0,""viewing_time"":905}]","905","","","","","","","","","","","","","","","","","","","","","","","",""
"pit-instructions","7","121333","0.0-2.0-3.0","battery-v0.2","","""event"",""trial"",""time""
""blur"",""1"",""3583""
""focus"",""1"",""3586""
""blur"",""1"",""3588""
""fullscreenenter"",""1"",""3623""
""focus"",""1"",""3889""
","""event"",""trial"",""time""
""blur"",""1"",""3583""
""blur"",""1"",""3588""
","""event"",""trial"",""time""
""focus"",""1"",""3586""
""focus"",""1"",""3889""
","""event"",""trial"",""time""
""fullscreenenter"",""1"",""3623""
","
","","[{""page_index"":0,""viewing_time"":10207},{""page_index"":1,""viewing_time"":9866},{""page_index"":2,""viewing_time"":7116},{""page_index"":3,""viewing_time"":5250},{""page_index"":4,""viewing_time"":5750},{""page_index"":5,""viewing_time"":5949.000000000007},{""page_index"":6,""viewing_time"":7565.999999999993},{""page_index"":7,""viewing_time"":8334},{""page_index"":8,""viewing_time"":6549},{""page_index"":9,""viewing_time"":8299},{""page_index"":10,""viewing_time"":7017.000000000015},{""page_index"":11,""viewing_time"":7997.999999999985},{""page_index"":12,""viewing_time"":6650},{""page_index"":13,""viewing_time"":5600}]","102152","","","","","","","","","","","","","","","","","","","","","","","",""
"pit-trial","8","124594","0.0-2.0-4.0-0.0","battery-v0.2","","""event"",""trial"",""time""
""blur"",""1"",""3583""
""focus"",""1"",""3586""
""blur"",""1"",""3588""
""fullscreenenter"",""1"",""3623""
""focus"",""1"",""3889""
","""event"",""trial"",""time""
""blur"",""1"",""3583""
""blur"",""1"",""3588""
","""event"",""trial"",""time""
""focus"",""1"",""3586""
""focus"",""1"",""3889""
","""event"",""trial"",""time""
""fullscreenenter"",""1"",""3623""
","
","","","403.99999999998545","","","21","12470","5476","&#9784;","elianto","#FFFFF080"," "," ","1","&#10004","[1254.9999999999854]","1","0","0","","","","","","","",""
"pit-trial","9","127935","0.0-2.0-4.1-0.1","battery-v0.2","","""event"",""trial"",""time""
""blur"",""1"",""3583""
""focus"",""1"",""3586""
""blur"",""1"",""3588""
""fullscreenenter"",""1"",""3623""
""focus"",""1"",""3889""
","""event"",""trial"",""time""
""blur"",""1"",""3583""
""blur"",""1"",""3588""
","""event"",""trial"",""time""
""focus"",""1"",""3586""
""focus"",""1"",""3889""
","""event"",""trial"",""time""
""fullscreenenter"",""1"",""3623""
","
","","","481","","","21","12470","5476","&#9784;","elianto","#FFFFF080"," "," ","1","&#10004","[1332]","1","0","0","","","","","","","",""
"pit-trial","10","131326","0.0-2.0-4.2-0.2","battery-v0.2","","""event"",""trial"",""time""
""blur"",""1"",""3583""
""focus"",""1"",""3586""
""blur"",""1"",""3588""
""fullscreenenter"",""1"",""3623""
""focus"",""1"",""3889""
","""event"",""trial"",""time""
""blur"",""1"",""3583""
""blur"",""1"",""3588""
","""event"",""trial"",""time""
""focus"",""1"",""3586""
""focus"",""1"",""3889""
","""event"",""trial"",""time""
""fullscreenenter"",""1"",""3623""
","
","","","530.9999999999709","","","21","12470","5476","&#9784;","elianto","#FFFFF080"," "," ","1","&#10004","[1381.999999999971]","1","0","0","","","","","","","",""
"pit-trial","11","134701","0.0-2.0-4.3-0.3","battery-v0.2","","""event"",""trial"",""time""
""blur"",""1"",""3583""
""focus"",""1"",""3586""
""blur"",""1"",""3588""
""fullscreenenter"",""1"",""3623""
""focus"",""1"",""3889""
","""event"",""trial"",""time""
""blur"",""1"",""3583""
""blur"",""1"",""3588""
","""event"",""trial"",""time""
""focus"",""1"",""3586""
""focus"",""1"",""3889""
","""event"",""trial"",""time""
""fullscreenenter"",""1"",""3623""
","
","","","519","","","21","12470","5476","&#9784;","elianto","#FFFFF080"," "," ","1","&#10004","[1369]","1","0","0","","","","","","","",""
"pit-trial","12","138119","0.0-2.0-4.4-0.4","battery-v0.2","","""event"",""trial"",""time""
""blur"",""1"",""3583""
""focus"",""1"",""3586""
""blur"",""1"",""3588""
""fullscreenenter"",""1"",""3623""
""focus"",""1"",""3889""
","""event"",""trial"",""time""
""blur"",""1"",""3583""
""blur"",""1"",""3588""
","""event"",""trial"",""time""
""focus"",""1"",""3586""
""focus"",""1"",""3889""
","""event"",""trial"",""time""
""fullscreenenter"",""1"",""3623""
","
","","","560","","","21","12470","5476","&#9784;","elianto","#FFFFF080"," "," ","1","&#10004","[1410]","1","0","0","","","","","","","",""
"pit-instructions","13","160263","0.0-2.0-5.0","battery-v0.2","","""event"",""trial"",""time""
""blur"",""1"",""3583""
""focus"",""1"",""3586""
""blur"",""1"",""3588""
""fullscreenenter"",""1"",""3623""
""focus"",""1"",""3889""
","""event"",""trial"",""time""
""blur"",""1"",""3583""
""blur"",""1"",""3588""
","""event"",""trial"",""time""
""focus"",""1"",""3586""
""focus"",""1"",""3889""
","""event"",""trial"",""time""
""fullscreenenter"",""1"",""3623""
","
","","[{""page_index"":0,""viewing_time"":5105},{""page_index"":1,""viewing_time"":6383},{""page_index"":2,""viewing_time"":5266},{""page_index"":3,""viewing_time"":5383}]","22137","","","","","","","","","","","","","","","","","","","","","","","",""
"pit-trial","14","165119","0.0-2.0-6.0-0.0","battery-v0.2","","""event"",""trial"",""time""
""blur"",""1"",""3583""
""focus"",""1"",""3586""
""blur"",""1"",""3588""
""fullscreenenter"",""1"",""3623""
""focus"",""1"",""3889""
","""event"",""trial"",""time""
""blur"",""1"",""3583""
""blur"",""1"",""3588""
","""event"",""trial"",""time""
""focus"",""1"",""3586""
""focus"",""1"",""3889""
","""event"",""trial"",""time""
""fullscreenenter"",""1"",""3623""
","
","","","-1","","","21","12470","5476","&#9854;","elianto","#FFFFF080","-1","-1","1","&#10004","[]","0","0","1","","","","","","","",""
"pit-trial","15","169978","0.0-2.0-6.1-0.1","battery-v0.2","","""event"",""trial"",""time""
""blur"",""1"",""3583""
""focus"",""1"",""3586""
""blur"",""1"",""3588""
""fullscreenenter"",""1"",""3623""
""focus"",""1"",""3889""
","""event"",""trial"",""time""
""blur"",""1"",""3583""
""blur"",""1"",""3588""
","""event"",""trial"",""time""
""focus"",""1"",""3586""
""focus"",""1"",""3889""
","""event"",""trial"",""time""
""fullscreenenter"",""1"",""3623""
","
","","","-1","","","21","12470","5476","&#9854;","elianto","#FFFFF080","-1","-1","1","&#10004","[]","0","0","1","","","","","","","",""
"pit-trial","16","174836","0.0-2.0-6.2-0.2","battery-v0.2","","""event"",""trial"",""time""
""blur"",""1"",""3583""
""focus"",""1"",""3586""
""blur"",""1"",""3588""
""fullscreenenter"",""1"",""3623""
""focus"",""1"",""3889""
","""event"",""trial"",""time""
""blur"",""1"",""3583""
""blur"",""1"",""3588""
","""event"",""trial"",""time""
""focus"",""1"",""3586""
""focus"",""1"",""3889""
","""event"",""trial"",""time""
""fullscreenenter"",""1"",""3623""
","
","","","-1","","","21","12470","5476","&#9854;","elianto","#FFFFF080","-1","-1","1","&#10004","[]","0","0","1","","","","","","","",""
"pit-trial","17","179692","0.0-2.0-6.3-0.3","battery-v0.2","","""event"",""trial"",""time""
""blur"",""1"",""3583""
""focus"",""1"",""3586""
""blur"",""1"",""3588""
""fullscreenenter"",""1"",""3623""
""focus"",""1"",""3889""
","""event"",""trial"",""time""
""blur"",""1"",""3583""
""blur"",""1"",""3588""
","""event"",""trial"",""time""
""focus"",""1"",""3586""
""focus"",""1"",""3889""
","""event"",""trial"",""time""
""fullscreenenter"",""1"",""3623""
","
","","","-1","","","21","12470","5476","&#9854;","elianto","#FFFFF080","-1","-1","1","&#10004","[]","0","0","1","","","","","","","",""
"pit-trial","18","184550","0.0-2.0-6.4-0.4","battery-v0.2","","""event"",""trial"",""time""
""blur"",""1"",""3583""
""focus"",""1"",""3586""
""blur"",""1"",""3588""
""fullscreenenter"",""1"",""3623""
""focus"",""1"",""3889""
","""event"",""trial"",""time""
""blur"",""1"",""3583""
""blur"",""1"",""3588""
","""event"",""trial"",""time""
""focus"",""1"",""3586""
""focus"",""1"",""3889""
","""event"",""trial"",""time""
""fullscreenenter"",""1"",""3623""
","
","","","-1","","","21","12470","5476","&#9854;","elianto","#FFFFF080","-1","-1","1","&#10004","[]","0","0","1","","","","","","","",""
"pit-instructions","19","326681","0.0-2.0-7.0","battery-v0.2","","""event"",""trial"",""time""
""blur"",""1"",""3583""
""focus"",""1"",""3586""
""blur"",""1"",""3588""
""fullscreenenter"",""1"",""3623""
""focus"",""1"",""3889""
","""event"",""trial"",""time""
""blur"",""1"",""3583""
""blur"",""1"",""3588""
","""event"",""trial"",""time""
""focus"",""1"",""3586""
""focus"",""1"",""3889""
","""event"",""trial"",""time""
""fullscreenenter"",""1"",""3623""
","
","","[{""page_index"":0,""viewing_time"":9221},{""page_index"":1,""viewing_time"":8315},{""page_index"":2,""viewing_time"":10417},{""page_index"":3,""viewing_time"":9116},{""page_index"":4,""viewing_time"":7816},{""page_index"":5,""viewing_time"":5833},{""page_index"":6,""viewing_time"":9116},{""page_index"":7,""viewing_time"":9666},{""page_index"":8,""viewing_time"":7200},{""page_index"":9,""viewing_time"":6982},{""page_index"":10,""viewing_time"":6633},{""page_index"":11,""viewing_time"":5616},{""page_index"":12,""viewing_time"":7987},{""page_index"":13,""viewing_time"":7379},{""page_index"":14,""viewing_time"":9633},{""page_index"":15,""viewing_time"":7000},{""page_index"":16,""viewing_time"":6732},{""page_index"":17,""viewing_time"":7466}]","142129","","","","","","","","","","","","","","","","","","","","","","","",""
"pit-trial","20","330073","0.0-2.0-8.0-0.0","battery-v0.2","","""event"",""trial"",""time""
""blur"",""1"",""3583""
""focus"",""1"",""3586""
""blur"",""1"",""3588""
""fullscreenenter"",""1"",""3623""
""focus"",""1"",""3889""
","""event"",""trial"",""time""
""blur"",""1"",""3583""
""blur"",""1"",""3588""
","""event"",""trial"",""time""
""focus"",""1"",""3586""
""focus"",""1"",""3889""
","""event"",""trial"",""time""
""fullscreenenter"",""1"",""3623""
","
","","","535","","","21","12470","5476","&#9776;","elianto","#3366ff99"," "," ","1","+10","[1386]","1","0","1","","","","","","","",""
"pit-trial","21","333433","0.0-2.0-8.0-1.0","battery-v0.2","","""event"",""trial"",""time""
""blur"",""1"",""3583""
""focus"",""1"",""3586""
""blur"",""1"",""3588""
""fullscreenenter"",""1"",""3623""
""focus"",""1"",""3889""
","""event"",""trial"",""time""
""blur"",""1"",""3583""
""blur"",""1"",""3588""
","""event"",""trial"",""time""
""focus"",""1"",""3586""
""focus"",""1"",""3889""
","""event"",""trial"",""time""
""fullscreenenter"",""1"",""3623""
","
","","","501.9999999999418","","","21","12470","5476","&#9776;","elianto","#3366ff99"," "," ","1","+10","[1354]","1","0","1","","","","","","","",""
"pit-trial","22","336951","0.0-2.0-8.0-2.0","battery-v0.2","","""event"",""trial"",""time""
""blur"",""1"",""3583""
""focus"",""1"",""3586""
""blur"",""1"",""3588""
""fullscreenenter"",""1"",""3623""
""focus"",""1"",""3889""
","""event"",""trial"",""time""
""blur"",""1"",""3583""
""blur"",""1"",""3588""
","""event"",""trial"",""time""
""focus"",""1"",""3586""
""focus"",""1"",""3889""
","""event"",""trial"",""time""
""fullscreenenter"",""1"",""3623""
","
","","","660","","","21","12470","5476","&#9776;","elianto","#3366ff99"," "," ","1","+10","[1511]","1","0","1","","","","","","","",""
"pit-trial","23","340308","0.0-2.0-8.0-3.0","battery-v0.2","","""event"",""trial"",""time""
""blur"",""1"",""3583""
""focus"",""1"",""3586""
""blur"",""1"",""3588""
""fullscreenenter"",""1"",""3623""
""focus"",""1"",""3889""
","""event"",""trial"",""time""
""blur"",""1"",""3583""
""blur"",""1"",""3588""
","""event"",""trial"",""time""
""focus"",""1"",""3586""
""focus"",""1"",""3889""
","""event"",""trial"",""time""
""fullscreenenter"",""1"",""3623""
","
","","","501","","","21","12470","5476","&#9776;","elianto","#3366ff99"," "," ","1","0","[1352]","1","0","1","","","","","","","",""
"pit-trial","24","343714","0.0-2.0-8.0-4.0","battery-v0.2","","""event"",""trial"",""time""
""blur"",""1"",""3583""
""focus"",""1"",""3586""
""blur"",""1"",""3588""
""fullscreenenter"",""1"",""3623""
""focus"",""1"",""3889""
","""event"",""trial"",""time""
""blur"",""1"",""3583""
""blur"",""1"",""3588""
","""event"",""trial"",""time""
""focus"",""1"",""3586""
""focus"",""1"",""3889""
","""event"",""trial"",""time""
""fullscreenenter"",""1"",""3623""
","
","","","550.9999999999418","","","21","12470","5476","&#9776;","elianto","#3366ff99"," "," ","1","+10","[1401]","1","0","1","","","","","","","",""
"pit-trial","25","347051","0.0-2.0-8.1-0.1","battery-v0.2","","""event"",""trial"",""time""
""blur"",""1"",""3583""
""focus"",""1"",""3586""
""blur"",""1"",""3588""
""fullscreenenter"",""1"",""3623""
""focus"",""1"",""3889""
","""event"",""trial"",""time""
""blur"",""1"",""3583""
""blur"",""1"",""3588""
","""event"",""trial"",""time""
""focus"",""1"",""3586""
""focus"",""1"",""3889""
","""event"",""trial"",""time""
""fullscreenenter"",""1"",""3623""
","
","","","478","","","21","12470","5476","&#9776;","elianto","#3366ff99"," "," ","1","+10","[1329]","1","0","1","","","","","","","",""
"pit-trial","26","350389","0.0-2.0-8.1-1.1","battery-v0.2","","""event"",""trial"",""time""
""blur"",""1"",""3583""
""focus"",""1"",""3586""
""blur"",""1"",""3588""
""fullscreenenter"",""1"",""3623""
""focus"",""1"",""3889""
","""event"",""trial"",""time""
""blur"",""1"",""3583""
""blur"",""1"",""3588""
","""event"",""trial"",""time""
""focus"",""1"",""3586""
""focus"",""1"",""3889""
","""event"",""trial"",""time""
""fullscreenenter"",""1"",""3623""
","
","","","482.0000000000582","","","21","12470","5476","&#9776;","elianto","#3366ff99"," "," ","1","+10","[1334]","1","0","1","","","","","","","",""
"pit-trial","27","353748","0.0-2.0-8.1-2.1","battery-v0.2","","""event"",""trial"",""time""
""blur"",""1"",""3583""
""focus"",""1"",""3586""
""blur"",""1"",""3588""
""fullscreenenter"",""1"",""3623""
""focus"",""1"",""3889""
","""event"",""trial"",""time""
""blur"",""1"",""3583""
""blur"",""1"",""3588""
","""event"",""trial"",""time""
""focus"",""1"",""3586""
""focus"",""1"",""3889""
","""event"",""trial"",""time""
""fullscreenenter"",""1"",""3623""
","
","","","504","","","21","12470","5476","&#9776;","elianto","#3366ff99"," "," ","1","+10","[1355]","1","0","1","","","","","","","",""
"pit-trial","28","357101","0.0-2.0-8.1-3.1","battery-v0.2","","""event"",""trial"",""time""
""blur"",""1"",""3583""
""focus"",""1"",""3586""
""blur"",""1"",""3588""
""fullscreenenter"",""1"",""3623""
""focus"",""1"",""3889""
","""event"",""trial"",""time""
""blur"",""1"",""3583""
""blur"",""1"",""3588""
","""event"",""trial"",""time""
""focus"",""1"",""3586""
""focus"",""1"",""3889""
","""event"",""trial"",""time""
""fullscreenenter"",""1"",""3623""
","
","","","495","","","21","12470","5476","&#9776;","elianto","#3366ff99"," "," ","1","0","[1346]","1","0","1","","","","","","","",""
"pit-trial","29","360371","0.0-2.0-8.1-4.1","battery-v0.2","","""event"",""trial"",""time""
""blur"",""1"",""3583""
""focus"",""1"",""3586""
""blur"",""1"",""3588""
""fullscreenenter"",""1"",""3623""
""focus"",""1"",""3889""
","""event"",""trial"",""time""
""blur"",""1"",""3583""
""blur"",""1"",""3588""
","""event"",""trial"",""time""
""focus"",""1"",""3586""
""focus"",""1"",""3889""
","""event"",""trial"",""time""
""fullscreenenter"",""1"",""3623""
","
","","","413","","","21","12470","5476","&#9776;","elianto","#3366ff99"," "," ","1","+10","[1264]","1","0","1","","","","","","","",""
"pit-trial","30","363648","0.0-2.0-8.2-0.2","battery-v0.2","","""event"",""trial"",""time""
""blur"",""1"",""3583""
""focus"",""1"",""3586""
""blur"",""1"",""3588""
""fullscreenenter"",""1"",""3623""
""focus"",""1"",""3889""
","""event"",""trial"",""time""
""blur"",""1"",""3583""
""blur"",""1"",""3588""
","""event"",""trial"",""time""
""focus"",""1"",""3586""
""focus"",""1"",""3889""
","""event"",""trial"",""time""
""fullscreenenter"",""1"",""3623""
","
","","","420","","","21","12470","5476","&#9776;","elianto","#3366ff99"," "," ","1","+10","[1269.9999999999418]","1","0","1","","","","","","","",""
"pit-trial","31","366998","0.0-2.0-8.2-1.2","battery-v0.2","","""event"",""trial"",""time""
""blur"",""1"",""3583""
""focus"",""1"",""3586""
""blur"",""1"",""3588""
""fullscreenenter"",""1"",""3623""
""focus"",""1"",""3889""
","""event"",""trial"",""time""
""blur"",""1"",""3583""
""blur"",""1"",""3588""
","""event"",""trial"",""time""
""focus"",""1"",""3586""
""focus"",""1"",""3889""
","""event"",""trial"",""time""
""fullscreenenter"",""1"",""3623""
","
","","","493","","","21","12470","5476","&#9776;","elianto","#3366ff99"," "," ","1","+10","[1343]","1","0","1","","","","","","","",""
"pit-trial","32","370338","0.0-2.0-8.2-2.2","battery-v0.2","","""event"",""trial"",""time""
""blur"",""1"",""3583""
""focus"",""1"",""3586""
""blur"",""1"",""3588""
""fullscreenenter"",""1"",""3623""
""focus"",""1"",""3889""
","""event"",""trial"",""time""
""blur"",""1"",""3583""
""blur"",""1"",""3588""
","""event"",""trial"",""time""
""focus"",""1"",""3586""
""focus"",""1"",""3889""
","""event"",""trial"",""time""
""fullscreenenter"",""1"",""3623""
","
","","","484","","","21","12470","5476","&#9776;","elianto","#3366ff99"," "," ","1","+10","[1335]","1","0","1","","","","","","","",""
"pit-trial","33","373614","0.0-2.0-8.2-3.2","battery-v0.2","","""event"",""trial"",""time""
""blur"",""1"",""3583""
""focus"",""1"",""3586""
""blur"",""1"",""3588""
""fullscreenenter"",""1"",""3623""
""focus"",""1"",""3889""
","""event"",""trial"",""time""
""blur"",""1"",""3583""
""blur"",""1"",""3588""
","""event"",""trial"",""time""
""focus"",""1"",""3586""
""focus"",""1"",""3889""
","""event"",""trial"",""time""
""fullscreenenter"",""1"",""3623""
","
","","","419","","","21","12470","5476","&#9776;","elianto","#3366ff99"," "," ","1","0","[1269]","1","0","1","","","","","","","",""
"pit-trial","34","376950","0.0-2.0-8.2-4.2","battery-v0.2","","""event"",""trial"",""time""
""blur"",""1"",""3583""
""focus"",""1"",""3586""
""blur"",""1"",""3588""
""fullscreenenter"",""1"",""3623""
""focus"",""1"",""3889""
","""event"",""trial"",""time""
""blur"",""1"",""3583""
""blur"",""1"",""3588""
","""event"",""trial"",""time""
""focus"",""1"",""3586""
""focus"",""1"",""3889""
","""event"",""trial"",""time""
""fullscreenenter"",""1"",""3623""
","
","","","478","","","21","12470","5476","&#9776;","elianto","#3366ff99"," "," ","1","+10","[1329]","1","0","1","","","","","","","",""
"call-function","35","376954","0.0-2.0-9.0","battery-v0.2","","""event"",""trial"",""time""
""blur"",""1"",""3583""
""focus"",""1"",""3586""
""blur"",""1"",""3588""
""fullscreenenter"",""1"",""3623""
""focus"",""1"",""3889""
","""event"",""trial"",""time""
""blur"",""1"",""3583""
""blur"",""1"",""3588""
","""event"",""trial"",""time""
""focus"",""1"",""3586""
""focus"",""1"",""3889""
","""event"",""trial"",""time""
""fullscreenenter"",""1"",""3623""
","
","","","","","","","","","","","","","","","","","","","","","","","","","","",""
"pit-instructions","36","420156","0.0-2.0-10.0","battery-v0.2","","""event"",""trial"",""time""
""blur"",""1"",""3583""
""focus"",""1"",""3586""
""blur"",""1"",""3588""
""fullscreenenter"",""1"",""3623""
""focus"",""1"",""3889""
","""event"",""trial"",""time""
""blur"",""1"",""3583""
""blur"",""1"",""3588""
","""event"",""trial"",""time""
""focus"",""1"",""3586""
""focus"",""1"",""3889""
","""event"",""trial"",""time""
""fullscreenenter"",""1"",""3623""
","
","","[{""page_index"":0,""viewing_time"":8055},{""page_index"":1,""viewing_time"":7449},{""page_index"":2,""viewing_time"":9433},{""page_index"":3,""viewing_time"":10751.000000000058},{""page_index"":4,""viewing_time"":7513.999999999942}]","43203","","","","","","","","","","","","","","","","","","","","","","","",""
"pit-trial","37","425015","0.0-2.0-11.0-0.0","battery-v0.2","","""event"",""trial"",""time""
""blur"",""1"",""3583""
""focus"",""1"",""3586""
""blur"",""1"",""3588""
""fullscreenenter"",""1"",""3623""
""focus"",""1"",""3889""
","""event"",""trial"",""time""
""blur"",""1"",""3583""
""blur"",""1"",""3588""
","""event"",""trial"",""time""
""focus"",""1"",""3586""
""focus"",""1"",""3889""
","""event"",""trial"",""time""
""fullscreenenter"",""1"",""3623""
","
","","","-1","","","21","12470","5476","&#9761;","elianto","#3366ff99","-1","-1","1","+10","[]","0","0","2","","","","","","","",""
"pit-trial","38","429873","0.0-2.0-11.0-1.0","battery-v0.2","","""event"",""trial"",""time""
""blur"",""1"",""3583""
""focus"",""1"",""3586""
""blur"",""1"",""3588""
""fullscreenenter"",""1"",""3623""
""focus"",""1"",""3889""
","""event"",""trial"",""time""
""blur"",""1"",""3583""
""blur"",""1"",""3588""
","""event"",""trial"",""time""
""focus"",""1"",""3586""
""focus"",""1"",""3889""
","""event"",""trial"",""time""
""fullscreenenter"",""1"",""3623""
","
","","","-1","","","21","12470","5476","&#9761;","elianto","#3366ff99","-1","-1","1","+10","[]","0","0","2","","","","","","","",""
"pit-trial","39","434732","0.0-2.0-11.0-2.0","battery-v0.2","","""event"",""trial"",""time""
""blur"",""1"",""3583""
""focus"",""1"",""3586""
""blur"",""1"",""3588""
""fullscreenenter"",""1"",""3623""
""focus"",""1"",""3889""
","""event"",""trial"",""time""
""blur"",""1"",""3583""
""blur"",""1"",""3588""
","""event"",""trial"",""time""
""focus"",""1"",""3586""
""focus"",""1"",""3889""
","""event"",""trial"",""time""
""fullscreenenter"",""1"",""3623""
","
","","","-1","","","21","12470","5476","&#9761;","elianto","#3366ff99","-1","-1","1","+10","[]","0","0","2","","","","","","","",""
"pit-trial","40","439589","0.0-2.0-11.0-3.0","battery-v0.2","","""event"",""trial"",""time""
""blur"",""1"",""3583""
""focus"",""1"",""3586""
""blur"",""1"",""3588""
""fullscreenenter"",""1"",""3623""
""focus"",""1"",""3889""
","""event"",""trial"",""time""
""blur"",""1"",""3583""
""blur"",""1"",""3588""
","""event"",""trial"",""time""
""focus"",""1"",""3586""
""focus"",""1"",""3889""
","""event"",""trial"",""time""
""fullscreenenter"",""1"",""3623""
","
","","","-1","","","21","12470","5476","&#9761;","elianto","#3366ff99","-1","-1","1","0","[]","0","0","2","","","","","","","",""
"pit-trial","41","444446","0.0-2.0-11.0-4.0","battery-v0.2","","""event"",""trial"",""time""
""blur"",""1"",""3583""
""focus"",""1"",""3586""
""blur"",""1"",""3588""
""fullscreenenter"",""1"",""3623""
""focus"",""1"",""3889""
","""event"",""trial"",""time""
""blur"",""1"",""3583""
""blur"",""1"",""3588""
","""event"",""trial"",""time""
""focus"",""1"",""3586""
""focus"",""1"",""3889""
","""event"",""trial"",""time""
""fullscreenenter"",""1"",""3623""
","
","","","-1","","","21","12470","5476","&#9761;","elianto","#3366ff99","-1","-1","1","+10","[]","0","0","2","","","","","","","",""
"pit-trial","42","449304","0.0-2.0-11.1-0.1","battery-v0.2","","""event"",""trial"",""time""
""blur"",""1"",""3583""
""focus"",""1"",""3586""
""blur"",""1"",""3588""
""fullscreenenter"",""1"",""3623""
""focus"",""1"",""3889""
","""event"",""trial"",""time""
""blur"",""1"",""3583""
""blur"",""1"",""3588""
","""event"",""trial"",""time""
""focus"",""1"",""3586""
""focus"",""1"",""3889""
","""event"",""trial"",""time""
""fullscreenenter"",""1"",""3623""
","
","","","-1","","","21","12470","5476","&#9761;","elianto","#3366ff99","-1","-1","1","+10","[]","0","0","2","","","","","","","",""
"pit-trial","43","454161","0.0-2.0-11.1-1.1","battery-v0.2","","""event"",""trial"",""time""
""blur"",""1"",""3583""
""focus"",""1"",""3586""
""blur"",""1"",""3588""
""fullscreenenter"",""1"",""3623""
""focus"",""1"",""3889""
","""event"",""trial"",""time""
""blur"",""1"",""3583""
""blur"",""1"",""3588""
","""event"",""trial"",""time""
""focus"",""1"",""3586""
""focus"",""1"",""3889""
","""event"",""trial"",""time""
""fullscreenenter"",""1"",""3623""
","
","","","-1","","","21","12470","5476","&#9761;","elianto","#3366ff99","-1","-1","1","+10","[]","0","0","2","","","","","","","",""
"pit-trial","44","459020","0.0-2.0-11.1-2.1","battery-v0.2","","""event"",""trial"",""time""
""blur"",""1"",""3583""
""focus"",""1"",""3586""
""blur"",""1"",""3588""
""fullscreenenter"",""1"",""3623""
""focus"",""1"",""3889""
","""event"",""trial"",""time""
""blur"",""1"",""3583""
""blur"",""1"",""3588""
","""event"",""trial"",""time""
""focus"",""1"",""3586""
""focus"",""1"",""3889""
","""event"",""trial"",""time""
""fullscreenenter"",""1"",""3623""
","
","","","-1","","","21","12470","5476","&#9761;","elianto","#3366ff99","-1","-1","1","+10","[]","0","0","2","","","","","","","",""
"pit-trial","45","463878","0.0-2.0-11.1-3.1","battery-v0.2","","""event"",""trial"",""time""
""blur"",""1"",""3583""
""focus"",""1"",""3586""
""blur"",""1"",""3588""
""fullscreenenter"",""1"",""3623""
""focus"",""1"",""3889""
","""event"",""trial"",""time""
""blur"",""1"",""3583""
""blur"",""1"",""3588""
","""event"",""trial"",""time""
""focus"",""1"",""3586""
""focus"",""1"",""3889""
","""event"",""trial"",""time""
""fullscreenenter"",""1"",""3623""
","
","","","-1","","","21","12470","5476","&#9761;","elianto","#3366ff99","-1","-1","1","0","[]","0","0","2","","","","","","","",""
"pit-trial","46","468735","0.0-2.0-11.1-4.1","battery-v0.2","","""event"",""trial"",""time""
""blur"",""1"",""3583""
""focus"",""1"",""3586""
""blur"",""1"",""3588""
""fullscreenenter"",""1"",""3623""
""focus"",""1"",""3889""
","""event"",""trial"",""time""
""blur"",""1"",""3583""
""blur"",""1"",""3588""
","""event"",""trial"",""time""
""focus"",""1"",""3586""
""focus"",""1"",""3889""
","""event"",""trial"",""time""
""fullscreenenter"",""1"",""3623""
","
","","","-1","","","21","12470","5476","&#9761;","elianto","#3366ff99","-1","-1","1","+10","[]","0","0","2","","","","","","","",""
"pit-trial","47","473594","0.0-2.0-11.2-0.2","battery-v0.2","","""event"",""trial"",""time""
""blur"",""1"",""3583""
""focus"",""1"",""3586""
""blur"",""1"",""3588""
""fullscreenenter"",""1"",""3623""
""focus"",""1"",""3889""
","""event"",""trial"",""time""
""blur"",""1"",""3583""
""blur"",""1"",""3588""
","""event"",""trial"",""time""
""focus"",""1"",""3586""
""focus"",""1"",""3889""
","""event"",""trial"",""time""
""fullscreenenter"",""1"",""3623""
","
","","","-1","","","21","12470","5476","&#9761;","elianto","#3366ff99","-1","-1","1","+10","[]","0","0","2","","","","","","","",""
"pit-trial","48","478453","0.0-2.0-11.2-1.2","battery-v0.2","","""event"",""trial"",""time""
""blur"",""1"",""3583""
""focus"",""1"",""3586""
""blur"",""1"",""3588""
""fullscreenenter"",""1"",""3623""
""focus"",""1"",""3889""
","""event"",""trial"",""time""
""blur"",""1"",""3583""
""blur"",""1"",""3588""
","""event"",""trial"",""time""
""focus"",""1"",""3586""
""focus"",""1"",""3889""
","""event"",""trial"",""time""
""fullscreenenter"",""1"",""3623""
","
","","","-1","","","21","12470","5476","&#9761;","elianto","#3366ff99","-1","-1","1","+10","[]","0","0","2","","","","","","","",""
"pit-trial","49","483310","0.0-2.0-11.2-2.2","battery-v0.2","","""event"",""trial"",""time""
""blur"",""1"",""3583""
""focus"",""1"",""3586""
""blur"",""1"",""3588""
""fullscreenenter"",""1"",""3623""
""focus"",""1"",""3889""
","""event"",""trial"",""time""
""blur"",""1"",""3583""
""blur"",""1"",""3588""
","""event"",""trial"",""time""
""focus"",""1"",""3586""
""focus"",""1"",""3889""
","""event"",""trial"",""time""
""fullscreenenter"",""1"",""3623""
","
","","","-1","","","21","12470","5476","&#9761;","elianto","#3366ff99","-1","-1","1","+10","[]","0","0","2","","","","","","","",""
"pit-trial","50","488166","0.0-2.0-11.2-3.2","battery-v0.2","","""event"",""trial"",""time""
""blur"",""1"",""3583""
""focus"",""1"",""3586""
""blur"",""1"",""3588""
""fullscreenenter"",""1"",""3623""
""focus"",""1"",""3889""
","""event"",""trial"",""time""
""blur"",""1"",""3583""
""blur"",""1"",""3588""
","""event"",""trial"",""time""
""focus"",""1"",""3586""
""focus"",""1"",""3889""
","""event"",""trial"",""time""
""fullscreenenter"",""1"",""3623""
","
","","","-1","","","21","12470","5476","&#9761;","elianto","#3366ff99","-1","-1","1","0","[]","0","0","2","","","","","","","",""
"pit-trial","51","493023","0.0-2.0-11.2-4.2","battery-v0.2","","""event"",""trial"",""time""
""blur"",""1"",""3583""
""focus"",""1"",""3586""
""blur"",""1"",""3588""
""fullscreenenter"",""1"",""3623""
""focus"",""1"",""3889""
","""event"",""trial"",""time""
""blur"",""1"",""3583""
""blur"",""1"",""3588""
","""event"",""trial"",""time""
""focus"",""1"",""3586""
""focus"",""1"",""3889""
","""event"",""trial"",""time""
""fullscreenenter"",""1"",""3623""
","
","","","-1","","","21","12470","5476","&#9761;","elianto","#3366ff99","-1","-1","1","+10","[]","0","0","2","","","","","","","",""
"pit-trial","52","497882","0.0-2.0-11.3-0.3","battery-v0.2","","""event"",""trial"",""time""
""blur"",""1"",""3583""
""focus"",""1"",""3586""
""blur"",""1"",""3588""
""fullscreenenter"",""1"",""3623""
""focus"",""1"",""3889""
","""event"",""trial"",""time""
""blur"",""1"",""3583""
""blur"",""1"",""3588""
","""event"",""trial"",""time""
""focus"",""1"",""3586""
""focus"",""1"",""3889""
","""event"",""trial"",""time""
""fullscreenenter"",""1"",""3623""
","
","","","-1","","","21","12470","5476","&#9761;","elianto","#3366ff99","-1","-1","1","+10","[]","0","0","2","","","","","","","",""
"pit-trial","53","502740","0.0-2.0-11.3-1.3","battery-v0.2","","""event"",""trial"",""time""
""blur"",""1"",""3583""
""focus"",""1"",""3586""
""blur"",""1"",""3588""
""fullscreenenter"",""1"",""3623""
""focus"",""1"",""3889""
","""event"",""trial"",""time""
""blur"",""1"",""3583""
""blur"",""1"",""3588""
","""event"",""trial"",""time""
""focus"",""1"",""3586""
""focus"",""1"",""3889""
","""event"",""trial"",""time""
""fullscreenenter"",""1"",""3623""
","
","","","-1","","","21","12470","5476","&#9761;","elianto","#3366ff99","-1","-1","1","+10","[]","0","0","2","","","","","","","",""
"pit-trial","54","507597","0.0-2.0-11.3-2.3","battery-v0.2","","""event"",""trial"",""time""
""blur"",""1"",""3583""
""focus"",""1"",""3586""
""blur"",""1"",""3588""
""fullscreenenter"",""1"",""3623""
""focus"",""1"",""3889""
","""event"",""trial"",""time""
""blur"",""1"",""3583""
""blur"",""1"",""3588""
","""event"",""trial"",""time""
""focus"",""1"",""3586""
""focus"",""1"",""3889""
","""event"",""trial"",""time""
""fullscreenenter"",""1"",""3623""
","
","","","-1","","","21","12470","5476","&#9761;","elianto","#3366ff99","-1","-1","1","+10","[]","0","0","2","","","","","","","",""
"pit-trial","55","512453","0.0-2.0-11.3-3.3","battery-v0.2","","""event"",""trial"",""time""
""blur"",""1"",""3583""
""focus"",""1"",""3586""
""blur"",""1"",""3588""
""fullscreenenter"",""1"",""3623""
""focus"",""1"",""3889""
","""event"",""trial"",""time""
""blur"",""1"",""3583""
""blur"",""1"",""3588""
","""event"",""trial"",""time""
""focus"",""1"",""3586""
""focus"",""1"",""3889""
","""event"",""trial"",""time""
""fullscreenenter"",""1"",""3623""
","
","","","-1","","","21","12470","5476","&#9761;","elianto","#3366ff99","-1","-1","1","0","[]","0","0","2","","","","","","","",""
"pit-trial","56","517310","0.0-2.0-11.3-4.3","battery-v0.2","","""event"",""trial"",""time""
""blur"",""1"",""3583""
""focus"",""1"",""3586""
""blur"",""1"",""3588""
""fullscreenenter"",""1"",""3623""
""focus"",""1"",""3889""
","""event"",""trial"",""time""
""blur"",""1"",""3583""
""blur"",""1"",""3588""
","""event"",""trial"",""time""
""focus"",""1"",""3586""
""focus"",""1"",""3889""
","""event"",""trial"",""time""
""fullscreenenter"",""1"",""3623""
","
","","","-1","","","21","12470","5476","&#9761;","elianto","#3366ff99","-1","-1","1","+10","[]","0","0","2","","","","","","","",""
"call-function","57","517317","0.0-2.0-12.0","battery-v0.2","","""event"",""trial"",""time""
""blur"",""1"",""3583""
""focus"",""1"",""3586""
""blur"",""1"",""3588""
""fullscreenenter"",""1"",""3623""
""focus"",""1"",""3889""
","""event"",""trial"",""time""
""blur"",""1"",""3583""
""blur"",""1"",""3588""
","""event"",""trial"",""time""
""focus"",""1"",""3586""
""focus"",""1"",""3889""
","""event"",""trial"",""time""
""fullscreenenter"",""1"",""3623""
","
","","","","","","","","","","","","","","","","","","","","","","","","","","",""
"pit-instructions","58","555456","0.0-2.0-13.0","battery-v0.2","","""event"",""trial"",""time""
""blur"",""1"",""3583""
""focus"",""1"",""3586""
""blur"",""1"",""3588""
""fullscreenenter"",""1"",""3623""
""focus"",""1"",""3889""
","""event"",""trial"",""time""
""blur"",""1"",""3583""
""blur"",""1"",""3588""
","""event"",""trial"",""time""
""focus"",""1"",""3586""
""focus"",""1"",""3889""
","""event"",""trial"",""time""
""fullscreenenter"",""1"",""3623""
","
","","[{""page_index"":0,""viewing_time"":4862.000000000058},{""page_index"":1,""viewing_time"":8331.999999999942},{""page_index"":2,""viewing_time"":5333},{""page_index"":3,""viewing_time"":14149},{""page_index"":4,""viewing_time"":5450}]","38126","","","","","","","","","","","","","","","","","","","","","","","",""
"pit-trial","59","558758","0.0-2.0-14.0-0.0","battery-v0.2","","""event"",""trial"",""time""
""blur"",""1"",""3583""
""focus"",""1"",""3586""
""blur"",""1"",""3588""
""fullscreenenter"",""1"",""3623""
""focus"",""1"",""3889""
","""event"",""trial"",""time""
""blur"",""1"",""3583""
""blur"",""1"",""3588""
","""event"",""trial"",""time""
""focus"",""1"",""3586""
""focus"",""1"",""3889""
","""event"",""trial"",""time""
""fullscreenenter"",""1"",""3623""
","
","","","442.9999999998836","","","21","12470","5476","&#9826;","elianto","#f73b6a7A","-1"," ","0","-10","[1293.9999999998836]","1","0","3","","","","","","","",""
"pit-trial","60","563619","0.0-2.0-14.0-1.0","battery-v0.2","","""event"",""trial"",""time""
""blur"",""1"",""3583""
""focus"",""1"",""3586""
""blur"",""1"",""3588""
""fullscreenenter"",""1"",""3623""
""focus"",""1"",""3889""
","""event"",""trial"",""time""
""blur"",""1"",""3583""
""blur"",""1"",""3588""
","""event"",""trial"",""time""
""focus"",""1"",""3586""
""focus"",""1"",""3889""
","""event"",""trial"",""time""
""fullscreenenter"",""1"",""3623""
","
","","","-1","","","21","12470","5476","&#9826;","elianto","#f73b6a7A","-1","-1","1","0","[]","0","0","3","","","","","","","",""
"pit-trial","61","568478","0.0-2.0-14.0-2.0","battery-v0.2","","""event"",""trial"",""time""
""blur"",""1"",""3583""
""focus"",""1"",""3586""
""blur"",""1"",""3588""
""fullscreenenter"",""1"",""3623""
""focus"",""1"",""3889""
","""event"",""trial"",""time""
""blur"",""1"",""3583""
""blur"",""1"",""3588""
","""event"",""trial"",""time""
""focus"",""1"",""3586""
""focus"",""1"",""3889""
","""event"",""trial"",""time""
""fullscreenenter"",""1"",""3623""
","
","","","-1","","","21","12470","5476","&#9826;","elianto","#f73b6a7A","-1","-1","1","0","[]","0","0","3","","","","","","","",""
"pit-trial","62","573335","0.0-2.0-14.0-3.0","battery-v0.2","","""event"",""trial"",""time""
""blur"",""1"",""3583""
""focus"",""1"",""3586""
""blur"",""1"",""3588""
""fullscreenenter"",""1"",""3623""
""focus"",""1"",""3889""
","""event"",""trial"",""time""
""blur"",""1"",""3583""
""blur"",""1"",""3588""
","""event"",""trial"",""time""
""focus"",""1"",""3586""
""focus"",""1"",""3889""
","""event"",""trial"",""time""
""fullscreenenter"",""1"",""3623""
","
","","","-1","","","21","12470","5476","&#9826;","elianto","#f73b6a7A","-1","-1","1","-10","[]","0","0","3","","","","","","","",""
"pit-trial","63","578193","0.0-2.0-14.0-4.0","battery-v0.2","","""event"",""trial"",""time""
""blur"",""1"",""3583""
""focus"",""1"",""3586""
""blur"",""1"",""3588""
""fullscreenenter"",""1"",""3623""
""focus"",""1"",""3889""
","""event"",""trial"",""time""
""blur"",""1"",""3583""
""blur"",""1"",""3588""
","""event"",""trial"",""time""
""focus"",""1"",""3586""
""focus"",""1"",""3889""
","""event"",""trial"",""time""
""fullscreenenter"",""1"",""3623""
","
","","","-1","","","21","12470","5476","&#9826;","elianto","#f73b6a7A","-1","-1","1","0","[]","0","0","3","","","","","","","",""
"pit-trial","64","583054","0.0-2.0-14.1-0.1","battery-v0.2","","""event"",""trial"",""time""
""blur"",""1"",""3583""
""focus"",""1"",""3586""
""blur"",""1"",""3588""
""fullscreenenter"",""1"",""3623""
""focus"",""1"",""3889""
","""event"",""trial"",""time""
""blur"",""1"",""3583""
""blur"",""1"",""3588""
","""event"",""trial"",""time""
""focus"",""1"",""3586""
""focus"",""1"",""3889""
","""event"",""trial"",""time""
""fullscreenenter"",""1"",""3623""
","
","","","-1","","","21","12470","5476","&#9826;","elianto","#f73b6a7A","-1","-1","1","0","[]","0","0","3","","","","","","","",""
"pit-trial","65","587912","0.0-2.0-14.1-1.1","battery-v0.2","","""event"",""trial"",""time""
""blur"",""1"",""3583""
""focus"",""1"",""3586""
""blur"",""1"",""3588""
""fullscreenenter"",""1"",""3623""
""focus"",""1"",""3889""
","""event"",""trial"",""time""
""blur"",""1"",""3583""
""blur"",""1"",""3588""
","""event"",""trial"",""time""
""focus"",""1"",""3586""
""focus"",""1"",""3889""
","""event"",""trial"",""time""
""fullscreenenter"",""1"",""3623""
","
","","","-1","","","21","12470","5476","&#9826;","elianto","#f73b6a7A","-1","-1","1","0","[]","0","0","3","","","","","","","",""
"pit-trial","66","592773","0.0-2.0-14.1-2.1","battery-v0.2","","""event"",""trial"",""time""
""blur"",""1"",""3583""
""focus"",""1"",""3586""
""blur"",""1"",""3588""
""fullscreenenter"",""1"",""3623""
""focus"",""1"",""3889""
","""event"",""trial"",""time""
""blur"",""1"",""3583""
""blur"",""1"",""3588""
","""event"",""trial"",""time""
""focus"",""1"",""3586""
""focus"",""1"",""3889""
","""event"",""trial"",""time""
""fullscreenenter"",""1"",""3623""
","
","","","-1","","","21","12470","5476","&#9826;","elianto","#f73b6a7A","-1","-1","1","0","[]","0","0","3","","","","","","","",""
"pit-trial","67","597631","0.0-2.0-14.1-3.1","battery-v0.2","","""event"",""trial"",""time""
""blur"",""1"",""3583""
""focus"",""1"",""3586""
""blur"",""1"",""3588""
""fullscreenenter"",""1"",""3623""
""focus"",""1"",""3889""
","""event"",""trial"",""time""
""blur"",""1"",""3583""
""blur"",""1"",""3588""
","""event"",""trial"",""time""
""focus"",""1"",""3586""
""focus"",""1"",""3889""
","""event"",""trial"",""time""
""fullscreenenter"",""1"",""3623""
","
","","","-1","","","21","12470","5476","&#9826;","elianto","#f73b6a7A","-1","-1","1","-10","[]","0","0","3","","","","","","","",""
"pit-trial","68","602488","0.0-2.0-14.1-4.1","battery-v0.2","","""event"",""trial"",""time""
""blur"",""1"",""3583""
""focus"",""1"",""3586""
""blur"",""1"",""3588""
""fullscreenenter"",""1"",""3623""
""focus"",""1"",""3889""
","""event"",""trial"",""time""
""blur"",""1"",""3583""
""blur"",""1"",""3588""
","""event"",""trial"",""time""
""focus"",""1"",""3586""
""focus"",""1"",""3889""
","""event"",""trial"",""time""
""fullscreenenter"",""1"",""3623""
","
","","","-1","","","21","12470","5476","&#9826;","elianto","#f73b6a7A","-1","-1","1","0","[]","0","0","3","","","","","","","",""
"pit-trial","69","607345","0.0-2.0-14.2-0.2","battery-v0.2","","""event"",""trial"",""time""
""blur"",""1"",""3583""
""focus"",""1"",""3586""
""blur"",""1"",""3588""
""fullscreenenter"",""1"",""3623""
""focus"",""1"",""3889""
","""event"",""trial"",""time""
""blur"",""1"",""3583""
""blur"",""1"",""3588""
","""event"",""trial"",""time""
""focus"",""1"",""3586""
""focus"",""1"",""3889""
","""event"",""trial"",""time""
""fullscreenenter"",""1"",""3623""
","
","","","-1","","","21","12470","5476","&#9826;","elianto","#f73b6a7A","-1","-1","1","0","[]","0","0","3","","","","","","","",""
"pit-trial","70","612203","0.0-2.0-14.2-1.2","battery-v0.2","","""event"",""trial"",""time""
""blur"",""1"",""3583""
""focus"",""1"",""3586""
""blur"",""1"",""3588""
""fullscreenenter"",""1"",""3623""
""focus"",""1"",""3889""
","""event"",""trial"",""time""
""blur"",""1"",""3583""
""blur"",""1"",""3588""
","""event"",""trial"",""time""
""focus"",""1"",""3586""
""focus"",""1"",""3889""
","""event"",""trial"",""time""
""fullscreenenter"",""1"",""3623""
","
","","","-1","","","21","12470","5476","&#9826;","elianto","#f73b6a7A","-1","-1","1","0","[]","0","0","3","","","","","","","",""
"pit-trial","71","617059","0.0-2.0-14.2-2.2","battery-v0.2","","""event"",""trial"",""time""
""blur"",""1"",""3583""
""focus"",""1"",""3586""
""blur"",""1"",""3588""
""fullscreenenter"",""1"",""3623""
""focus"",""1"",""3889""
","""event"",""trial"",""time""
""blur"",""1"",""3583""
""blur"",""1"",""3588""
","""event"",""trial"",""time""
""focus"",""1"",""3586""
""focus"",""1"",""3889""
","""event"",""trial"",""time""
""fullscreenenter"",""1"",""3623""
","
","","","-1","","","21","12470","5476","&#9826;","elianto","#f73b6a7A","-1","-1","1","0","[]","0","0","3","","","","","","","",""
"pit-trial","72","621916","0.0-2.0-14.2-3.2","battery-v0.2","","""event"",""trial"",""time""
""blur"",""1"",""3583""
""focus"",""1"",""3586""
""blur"",""1"",""3588""
""fullscreenenter"",""1"",""3623""
""focus"",""1"",""3889""
","""event"",""trial"",""time""
""blur"",""1"",""3583""
""blur"",""1"",""3588""
","""event"",""trial"",""time""
""focus"",""1"",""3586""
""focus"",""1"",""3889""
","""event"",""trial"",""time""
""fullscreenenter"",""1"",""3623""
","
","","","-1","","","21","12470","5476","&#9826;","elianto","#f73b6a7A","-1","-1","1","-10","[]","0","0","3","","","","","","","",""
"pit-trial","73","626774","0.0-2.0-14.2-4.2","battery-v0.2","","""event"",""trial"",""time""
""blur"",""1"",""3583""
""focus"",""1"",""3586""
""blur"",""1"",""3588""
""fullscreenenter"",""1"",""3623""
""focus"",""1"",""3889""
","""event"",""trial"",""time""
""blur"",""1"",""3583""
""blur"",""1"",""3588""
","""event"",""trial"",""time""
""focus"",""1"",""3586""
""focus"",""1"",""3889""
","""event"",""trial"",""time""
""fullscreenenter"",""1"",""3623""
","
","","","-1","","","21","12470","5476","&#9826;","elianto","#f73b6a7A","-1","-1","1","0","[]","0","0","3","","","","","","","",""
"pit-trial","74","631630","0.0-2.0-14.3-0.3","battery-v0.2","","""event"",""trial"",""time""
""blur"",""1"",""3583""
""focus"",""1"",""3586""
""blur"",""1"",""3588""
""fullscreenenter"",""1"",""3623""
""focus"",""1"",""3889""
","""event"",""trial"",""time""
""blur"",""1"",""3583""
""blur"",""1"",""3588""
","""event"",""trial"",""time""
""focus"",""1"",""3586""
""focus"",""1"",""3889""
","""event"",""trial"",""time""
""fullscreenenter"",""1"",""3623""
","
","","","-1","","","21","12470","5476","&#9826;","elianto","#f73b6a7A","-1","-1","1","0","[]","0","0","3","","","","","","","",""
"pit-trial","75","636488","0.0-2.0-14.3-1.3","battery-v0.2","","""event"",""trial"",""time""
""blur"",""1"",""3583""
""focus"",""1"",""3586""
""blur"",""1"",""3588""
""fullscreenenter"",""1"",""3623""
""focus"",""1"",""3889""
","""event"",""trial"",""time""
""blur"",""1"",""3583""
""blur"",""1"",""3588""
","""event"",""trial"",""time""
""focus"",""1"",""3586""
""focus"",""1"",""3889""
","""event"",""trial"",""time""
""fullscreenenter"",""1"",""3623""
","
","","","-1","","","21","12470","5476","&#9826;","elianto","#f73b6a7A","-1","-1","1","0","[]","0","0","3","","","","","","","",""
"pit-trial","76","641344","0.0-2.0-14.3-2.3","battery-v0.2","","""event"",""trial"",""time""
""blur"",""1"",""3583""
""focus"",""1"",""3586""
""blur"",""1"",""3588""
""fullscreenenter"",""1"",""3623""
""focus"",""1"",""3889""
","""event"",""trial"",""time""
""blur"",""1"",""3583""
""blur"",""1"",""3588""
","""event"",""trial"",""time""
""focus"",""1"",""3586""
""focus"",""1"",""3889""
","""event"",""trial"",""time""
""fullscreenenter"",""1"",""3623""
","
","","","-1","","","21","12470","5476","&#9826;","elianto","#f73b6a7A","-1","-1","1","0","[]","0","0","3","","","","","","","",""
"pit-trial","77","646202","0.0-2.0-14.3-3.3","battery-v0.2","","""event"",""trial"",""time""
""blur"",""1"",""3583""
""focus"",""1"",""3586""
""blur"",""1"",""3588""
""fullscreenenter"",""1"",""3623""
""focus"",""1"",""3889""
","""event"",""trial"",""time""
""blur"",""1"",""3583""
""blur"",""1"",""3588""
","""event"",""trial"",""time""
""focus"",""1"",""3586""
""focus"",""1"",""3889""
","""event"",""trial"",""time""
""fullscreenenter"",""1"",""3623""
","
","","","-1","","","21","12470","5476","&#9826;","elianto","#f73b6a7A","-1","-1","1","-10","[]","0","0","3","","","","","","","",""
"pit-trial","78","651060","0.0-2.0-14.3-4.3","battery-v0.2","","""event"",""trial"",""time""
""blur"",""1"",""3583""
""focus"",""1"",""3586""
""blur"",""1"",""3588""
""fullscreenenter"",""1"",""3623""
""focus"",""1"",""3889""
","""event"",""trial"",""time""
""blur"",""1"",""3583""
""blur"",""1"",""3588""
","""event"",""trial"",""time""
""focus"",""1"",""3586""
""focus"",""1"",""3889""
","""event"",""trial"",""time""
""fullscreenenter"",""1"",""3623""
","
","","","-1","","","21","12470","5476","&#9826;","elianto","#f73b6a7A","-1","-1","1","0","[]","0","0","3","","","","","","","",""
"call-function","79","651064","0.0-2.0-15.0","battery-v0.2","","""event"",""trial"",""time""
""blur"",""1"",""3583""
""focus"",""1"",""3586""
""blur"",""1"",""3588""
""fullscreenenter"",""1"",""3623""
""focus"",""1"",""3889""
","""event"",""trial"",""time""
""blur"",""1"",""3583""
""blur"",""1"",""3588""
","""event"",""trial"",""time""
""focus"",""1"",""3586""
""focus"",""1"",""3889""
","""event"",""trial"",""time""
""fullscreenenter"",""1"",""3623""
","
","","","","","","","","","","","","","","","","","","","","","","","","","","",""
"pit-instructions","80","686747","0.0-2.0-16.0","battery-v0.2","","""event"",""trial"",""time""
""blur"",""1"",""3583""
""focus"",""1"",""3586""
""blur"",""1"",""3588""
""fullscreenenter"",""1"",""3623""
""focus"",""1"",""3889""
","""event"",""trial"",""time""
""blur"",""1"",""3583""
""blur"",""1"",""3588""
","""event"",""trial"",""time""
""focus"",""1"",""3586""
""focus"",""1"",""3889""
","""event"",""trial"",""time""
""fullscreenenter"",""1"",""3623""
","
","","[{""page_index"":0,""viewing_time"":6402},{""page_index"":1,""viewing_time"":10747},{""page_index"":2,""viewing_time"":7535},{""page_index"":3,""viewing_time"":10998}]","35683","","","","","","","","","","","","","","","","","","","","","","","",""
"pit-trial","81","690134","0.0-2.0-17.0-0.0","battery-v0.2","","""event"",""trial"",""time""
""blur"",""1"",""3583""
""focus"",""1"",""3586""
""blur"",""1"",""3588""
""fullscreenenter"",""1"",""3623""
""focus"",""1"",""3889""
","""event"",""trial"",""time""
""blur"",""1"",""3583""
""blur"",""1"",""3588""
","""event"",""trial"",""time""
""focus"",""1"",""3586""
""focus"",""1"",""3889""
","""event"",""trial"",""time""
""fullscreenenter"",""1"",""3623""
","
","","","531","","","21","12470","5476","&#9789;","elianto","#f73b6a7A"," "," ","1","0","[1382]","1","0","4","","","","","","","",""
"pit-trial","82","693483","0.0-2.0-17.0-1.0","battery-v0.2","","""event"",""trial"",""time""
""blur"",""1"",""3583""
""focus"",""1"",""3586""
""blur"",""1"",""3588""
""fullscreenenter"",""1"",""3623""
""focus"",""1"",""3889""
","""event"",""trial"",""time""
""blur"",""1"",""3583""
""blur"",""1"",""3588""
","""event"",""trial"",""time""
""focus"",""1"",""3586""
""focus"",""1"",""3889""
","""event"",""trial"",""time""
""fullscreenenter"",""1"",""3623""
","
","","","490.9999999998836","","","21","12470","5476","&#9789;","elianto","#f73b6a7A"," "," ","1","0","[1341.9999999998836]","1","0","4","","","","","","","",""
"pit-trial","83","696762","0.0-2.0-17.0-2.0","battery-v0.2","","""event"",""trial"",""time""
""blur"",""1"",""3583""
""focus"",""1"",""3586""
""blur"",""1"",""3588""
""fullscreenenter"",""1"",""3623""
""focus"",""1"",""3889""
","""event"",""trial"",""time""
""blur"",""1"",""3583""
""blur"",""1"",""3588""
","""event"",""trial"",""time""
""focus"",""1"",""3586""
""focus"",""1"",""3889""
","""event"",""trial"",""time""
""fullscreenenter"",""1"",""3623""
","
","","","416.9999999998836","","","21","12470","5476","&#9789;","elianto","#f73b6a7A"," "," ","1","0","[1267.9999999998836]","1","0","4","","","","","","","",""
"pit-trial","84","700031","0.0-2.0-17.0-3.0","battery-v0.2","","""event"",""trial"",""time""
""blur"",""1"",""3583""
""focus"",""1"",""3586""
""blur"",""1"",""3588""
""fullscreenenter"",""1"",""3623""
""focus"",""1"",""3889""
","""event"",""trial"",""time""
""blur"",""1"",""3583""
""blur"",""1"",""3588""
","""event"",""trial"",""time""
""focus"",""1"",""3586""
""focus"",""1"",""3889""
","""event"",""trial"",""time""
""fullscreenenter"",""1"",""3623""
","
","","","412","","","21","12470","5476","&#9789;","elianto","#f73b6a7A"," "," ","1","-10","[1263]","1","0","4","","","","","","","",""
"pit-trial","85","703116","0.0-2.0-17.0-4.0","battery-v0.2","","""event"",""trial"",""time""
""blur"",""1"",""3583""
""focus"",""1"",""3586""
""blur"",""1"",""3588""
""fullscreenenter"",""1"",""3623""
""focus"",""1"",""3889""
","""event"",""trial"",""time""
""blur"",""1"",""3583""
""blur"",""1"",""3588""
","""event"",""trial"",""time""
""focus"",""1"",""3586""
""focus"",""1"",""3889""
","""event"",""trial"",""time""
""fullscreenenter"",""1"",""3623""
","
","","","227","","","21","12470","5476","&#9789;","elianto","#f73b6a7A"," "," ","1","0","[1078,1421]","2","0","4","","","","","","","",""
"pit-trial","86","706651","0.0-2.0-17.1-0.1","battery-v0.2","","""event"",""trial"",""time""
""blur"",""1"",""3583""
""focus"",""1"",""3586""
""blur"",""1"",""3588""
""fullscreenenter"",""1"",""3623""
""focus"",""1"",""3889""
","""event"",""trial"",""time""
""blur"",""1"",""3583""
""blur"",""1"",""3588""
","""event"",""trial"",""time""
""focus"",""1"",""3586""
""focus"",""1"",""3889""
","""event"",""trial"",""time""
""fullscreenenter"",""1"",""3623""
","
","","","676","","","21","12470","5476","&#9789;","elianto","#f73b6a7A"," "," ","1","0","[1527]","1","0","4","","","","","","","",""
"pit-trial","87","709932","0.0-2.0-17.1-1.1","battery-v0.2","","""event"",""trial"",""time""
""blur"",""1"",""3583""
""focus"",""1"",""3586""
""blur"",""1"",""3588""
""fullscreenenter"",""1"",""3623""
""focus"",""1"",""3889""
","""event"",""trial"",""time""
""blur"",""1"",""3583""
""blur"",""1"",""3588""
","""event"",""trial"",""time""
""focus"",""1"",""3586""
""focus"",""1"",""3889""
","""event"",""trial"",""time""
""fullscreenenter"",""1"",""3623""
","
","","","421","","","21","12470","5476","&#9789;","elianto","#f73b6a7A"," "," ","1","0","[1272]","1","0","4","","","","","","","",""
"pit-trial","88","712964","0.0-2.0-17.1-2.1","battery-v0.2","","""event"",""trial"",""time""
""blur"",""1"",""3583""
""focus"",""1"",""3586""
""blur"",""1"",""3588""
""fullscreenenter"",""1"",""3623""
""focus"",""1"",""3889""
","""event"",""trial"",""time""
""blur"",""1"",""3583""
""blur"",""1"",""3588""
","""event"",""trial"",""time""
""focus"",""1"",""3586""
""focus"",""1"",""3889""
","""event"",""trial"",""time""
""fullscreenenter"",""1"",""3623""
","
","","","174.99999999988358","","","21","12470","5476","&#9789;","elianto","#f73b6a7A"," "," ","1","0","[1025.9999999998836]","1","0","4","","","","","","","",""
"pit-trial","89","716283","0.0-2.0-17.1-3.1","battery-v0.2","","""event"",""trial"",""time""
""blur"",""1"",""3583""
""focus"",""1"",""3586""
""blur"",""1"",""3588""
""fullscreenenter"",""1"",""3623""
""focus"",""1"",""3889""
","""event"",""trial"",""time""
""blur"",""1"",""3583""
""blur"",""1"",""3588""
","""event"",""trial"",""time""
""focus"",""1"",""3586""
""focus"",""1"",""3889""
","""event"",""trial"",""time""
""fullscreenenter"",""1"",""3623""
","
","","","462","","","21","12470","5476","&#9789;","elianto","#f73b6a7A"," "," ","1","-10","[1313]","1","0","4","","","","","","","",""
"pit-trial","90","719520","0.0-2.0-17.1-4.1","battery-v0.2","","""event"",""trial"",""time""
""blur"",""1"",""3583""
""focus"",""1"",""3586""
""blur"",""1"",""3588""
""fullscreenenter"",""1"",""3623""
""focus"",""1"",""3889""
","""event"",""trial"",""time""
""blur"",""1"",""3583""
""blur"",""1"",""3588""
","""event"",""trial"",""time""
""focus"",""1"",""3586""
""focus"",""1"",""3889""
","""event"",""trial"",""time""
""fullscreenenter"",""1"",""3623""
","
","","","380","","","21","12470","5476","&#9789;","elianto","#f73b6a7A"," "," ","1","0","[1231]","1","0","4","","","","","","","",""
"pit-trial","91","722529","0.0-2.0-17.2-0.2","battery-v0.2","","""event"",""trial"",""time""
""blur"",""1"",""3583""
""focus"",""1"",""3586""
""blur"",""1"",""3588""
""fullscreenenter"",""1"",""3623""
""focus"",""1"",""3889""
","""event"",""trial"",""time""
""blur"",""1"",""3583""
""blur"",""1"",""3588""
","""event"",""trial"",""time""
""focus"",""1"",""3586""
""focus"",""1"",""3889""
","""event"",""trial"",""time""
""fullscreenenter"",""1"",""3623""
","
","","","152","","","21","12470","5476","&#9789;","elianto","#f73b6a7A"," "," ","1","0","[1002]","1","0","4","","","","","","","",""
"pit-trial","92","725818","0.0-2.0-17.2-1.2","battery-v0.2","","""event"",""trial"",""time""
""blur"",""1"",""3583""
""focus"",""1"",""3586""
""blur"",""1"",""3588""
""fullscreenenter"",""1"",""3623""
""focus"",""1"",""3889""
","""event"",""trial"",""time""
""blur"",""1"",""3583""
""blur"",""1"",""3588""
","""event"",""trial"",""time""
""focus"",""1"",""3586""
""focus"",""1"",""3889""
","""event"",""trial"",""time""
""fullscreenenter"",""1"",""3623""
","
","","","432.0000000001164","","","21","12470","5476","&#9789;","elianto","#f73b6a7A"," "," ","1","0","[1283.0000000001164]","1","0","4","","","","","","","",""
"pit-trial","93","729114","0.0-2.0-17.2-2.2","battery-v0.2","","""event"",""trial"",""time""
""blur"",""1"",""3583""
""focus"",""1"",""3586""
""blur"",""1"",""3588""
""fullscreenenter"",""1"",""3623""
""focus"",""1"",""3889""
","""event"",""trial"",""time""
""blur"",""1"",""3583""
""blur"",""1"",""3588""
","""event"",""trial"",""time""
""focus"",""1"",""3586""
""focus"",""1"",""3889""
","""event"",""trial"",""time""
""fullscreenenter"",""1"",""3623""
","
","","","437","","","21","12470","5476","&#9789;","elianto","#f73b6a7A"," "," ","1","0","[1287]","1","0","4","","","","","","","",""
"pit-trial","94","732335","0.0-2.0-17.2-3.2","battery-v0.2","","""event"",""trial"",""time""
""blur"",""1"",""3583""
""focus"",""1"",""3586""
""blur"",""1"",""3588""
""fullscreenenter"",""1"",""3623""
""focus"",""1"",""3889""
","""event"",""trial"",""time""
""blur"",""1"",""3583""
""blur"",""1"",""3588""
","""event"",""trial"",""time""
""focus"",""1"",""3586""
""focus"",""1"",""3889""
","""event"",""trial"",""time""
""fullscreenenter"",""1"",""3623""
","
","","","365","","","21","12470","5476","&#9789;","elianto","#f73b6a7A"," "," ","1","-10","[1216]","1","0","4","","","","","","","",""
"pit-trial","95","735614","0.0-2.0-17.2-4.2","battery-v0.2","","""event"",""trial"",""time""
""blur"",""1"",""3583""
""focus"",""1"",""3586""
""blur"",""1"",""3588""
""fullscreenenter"",""1"",""3623""
""focus"",""1"",""3889""
","""event"",""trial"",""time""
""blur"",""1"",""3583""
""blur"",""1"",""3588""
","""event"",""trial"",""time""
""focus"",""1"",""3586""
""focus"",""1"",""3889""
","""event"",""trial"",""time""
""fullscreenenter"",""1"",""3623""
","
","","","420.9999999998836","","","21","12470","5476","&#9789;","elianto","#f73b6a7A"," "," ","1","0","[1271]","1","0","4","","","","","","","",""
"pit-trial","96","738902","0.0-2.0-17.3-0.3","battery-v0.2","","""event"",""trial"",""time""
""blur"",""1"",""3583""
""focus"",""1"",""3586""
""blur"",""1"",""3588""
""fullscreenenter"",""1"",""3623""
""focus"",""1"",""3889""
","""event"",""trial"",""time""
""blur"",""1"",""3583""
""blur"",""1"",""3588""
","""event"",""trial"",""time""
""focus"",""1"",""3586""
""focus"",""1"",""3889""
","""event"",""trial"",""time""
""fullscreenenter"",""1"",""3623""
","
","","","429","","","21","12470","5476","&#9789;","elianto","#f73b6a7A"," "," ","1","0","[1280]","1","0","4","","","","","","","",""
"pit-trial","97","741995","0.0-2.0-17.3-1.3","battery-v0.2","","""event"",""trial"",""time""
""blur"",""1"",""3583""
""focus"",""1"",""3586""
""blur"",""1"",""3588""
""fullscreenenter"",""1"",""3623""
""focus"",""1"",""3889""
","""event"",""trial"",""time""
""blur"",""1"",""3583""
""blur"",""1"",""3588""
","""event"",""trial"",""time""
""focus"",""1"",""3586""
""focus"",""1"",""3889""
","""event"",""trial"",""time""
""fullscreenenter"",""1"",""3623""
","
","","","237","","","21","12470","5476","&#9789;","elianto","#f73b6a7A"," "," ","1","0","[1086.9999999998836]","1","0","4","","","","","","","",""
"pit-trial","98","745145","0.0-2.0-17.3-2.3","battery-v0.2","","""event"",""trial"",""time""
""blur"",""1"",""3583""
""focus"",""1"",""3586""
""blur"",""1"",""3588""
""fullscreenenter"",""1"",""3623""
""focus"",""1"",""3889""
","""event"",""trial"",""time""
""blur"",""1"",""3583""
""blur"",""1"",""3588""
","""event"",""trial"",""time""
""focus"",""1"",""3586""
""focus"",""1"",""3889""
","""event"",""trial"",""time""
""fullscreenenter"",""1"",""3623""
","
","","","291","","","21","12470","5476","&#9789;","elianto","#f73b6a7A"," "," ","1","0","[1142]","1","0","4","","","","","","","",""
"pit-trial","99","748177","0.0-2.0-17.3-3.3","battery-v0.2","","""event"",""trial"",""time""
""blur"",""1"",""3583""
""focus"",""1"",""3586""
""blur"",""1"",""3588""
""fullscreenenter"",""1"",""3623""
""focus"",""1"",""3889""
","""event"",""trial"",""time""
""blur"",""1"",""3583""
""blur"",""1"",""3588""
","""event"",""trial"",""time""
""focus"",""1"",""3586""
""focus"",""1"",""3889""
","""event"",""trial"",""time""
""fullscreenenter"",""1"",""3623""
","
","","","176","","","21","12470","5476","&#9789;","elianto","#f73b6a7A"," "," ","1","-10","[1027]","1","0","4","","","","","","","",""
"pit-trial","100","751160","0.0-2.0-17.3-4.3","battery-v0.2","","""event"",""trial"",""time""
""blur"",""1"",""3583""
""focus"",""1"",""3586""
""blur"",""1"",""3588""
""fullscreenenter"",""1"",""3623""
""focus"",""1"",""3889""
","""event"",""trial"",""time""
""blur"",""1"",""3583""
""blur"",""1"",""3588""
","""event"",""trial"",""time""
""focus"",""1"",""3586""
""focus"",""1"",""3889""
","""event"",""trial"",""time""
""fullscreenenter"",""1"",""3623""
","
","","","124","","","21","12470","5476","&#9789;","elianto","#f73b6a7A"," "," ","1","0","[975]","1","0","4","","","","","","","",""
"call-function","101","751164","0.0-2.0-18.0","battery-v0.2","","""event"",""trial"",""time""
""blur"",""1"",""3583""
""focus"",""1"",""3586""
""blur"",""1"",""3588""
""fullscreenenter"",""1"",""3623""
""focus"",""1"",""3889""
","""event"",""trial"",""time""
""blur"",""1"",""3583""
""blur"",""1"",""3588""
","""event"",""trial"",""time""
""focus"",""1"",""3586""
""focus"",""1"",""3889""
","""event"",""trial"",""time""
""fullscreenenter"",""1"",""3623""
","
","","","","","","","","","","","","","","","","","","","","","","","","","","",""
"pit-instructions","102","827385","0.0-2.0-19.0","battery-v0.2","","""event"",""trial"",""time""
""blur"",""1"",""3583""
""focus"",""1"",""3586""
""blur"",""1"",""3588""
""fullscreenenter"",""1"",""3623""
""focus"",""1"",""3889""
","""event"",""trial"",""time""
""blur"",""1"",""3583""
""blur"",""1"",""3588""
","""event"",""trial"",""time""
""focus"",""1"",""3586""
""focus"",""1"",""3889""
","""event"",""trial"",""time""
""fullscreenenter"",""1"",""3623""
","
","","[{""page_index"":0,""viewing_time"":6576},{""page_index"":1,""viewing_time"":6233},{""page_index"":2,""viewing_time"":14298},{""page_index"":3,""viewing_time"":9050},{""page_index"":4,""viewing_time"":9800},{""page_index"":5,""viewing_time"":8832.000000000116},{""page_index"":6,""viewing_time"":8715.999999999884},{""page_index"":7,""viewing_time"":7018},{""page_index"":8,""viewing_time"":5698}]","76222.00000000012","","","","","","","","","","","","","","","","","","","","","","","",""
"pit-comprehension","103","832508","0.0-2.0-20.0-0.0","battery-v0.2","","""event"",""trial"",""time""
""blur"",""1"",""3583""
""focus"",""1"",""3586""
""blur"",""1"",""3588""
""fullscreenenter"",""1"",""3623""
""focus"",""1"",""3889""
","""event"",""trial"",""time""
""blur"",""1"",""3583""
""blur"",""1"",""3588""
","""event"",""trial"",""time""
""focus"",""1"",""3586""
""focus"",""1"",""3889""
","""event"",""trial"",""time""
""fullscreenenter"",""1"",""3623""
","
","","","5116","[""SPACE""]","0","21","12470","5476","","","","","","","","","","","","","","","","","","",""
"pit-instructions","104","835484","0.0-2.0-20.0-1.0","battery-v0.2","","""event"",""trial"",""time""
""blur"",""1"",""3583""
""focus"",""1"",""3586""
""blur"",""1"",""3588""
""fullscreenenter"",""1"",""3623""
""focus"",""1"",""3889""
","""event"",""trial"",""time""
""blur"",""1"",""3583""
""blur"",""1"",""3588""
","""event"",""trial"",""time""
""focus"",""1"",""3586""
""focus"",""1"",""3889""
","""event"",""trial"",""time""
""fullscreenenter"",""1"",""3623""
","
","","[{""page_index"":0,""viewing_time"":2934}]","2934","","","","","","","","","","","","","","","","","","","","","","","",""
"pit-comprehension","105","841958","0.0-2.0-21.0-0.0","battery-v0.2","","""event"",""trial"",""time""
""blur"",""1"",""3583""
""focus"",""1"",""3586""
""blur"",""1"",""3588""
""fullscreenenter"",""1"",""3623""
""focus"",""1"",""3889""
","""event"",""trial"",""time""
""blur"",""1"",""3583""
""blur"",""1"",""3588""
","""event"",""trial"",""time""
""focus"",""1"",""3586""
""focus"",""1"",""3889""
","""event"",""trial"",""time""
""fullscreenenter"",""1"",""3623""
","
","","","6467.000000000116","[""10""]","0","21","12470","5476","","","","","","","","","","","","","","","","","","",""
"pit-instructions","106","843418","0.0-2.0-21.0-1.0","battery-v0.2","","""event"",""trial"",""time""
""blur"",""1"",""3583""
""focus"",""1"",""3586""
""blur"",""1"",""3588""
""fullscreenenter"",""1"",""3623""
""focus"",""1"",""3889""
","""event"",""trial"",""time""
""blur"",""1"",""3583""
""blur"",""1"",""3588""
","""event"",""trial"",""time""
""focus"",""1"",""3586""
""focus"",""1"",""3889""
","""event"",""trial"",""time""
""fullscreenenter"",""1"",""3623""
","
","","[{""page_index"":0,""viewing_time"":1417.9999999998836}]","1417.9999999998836","","","","","","","","","","","","","","","","","","","","","","","",""
"pit-comprehension","107","850607","0.0-2.0-22.0-0.0","battery-v0.2","","""event"",""trial"",""time""
""blur"",""1"",""3583""
""focus"",""1"",""3586""
""blur"",""1"",""3588""
""fullscreenenter"",""1"",""3623""
""focus"",""1"",""3889""
","""event"",""trial"",""time""
""blur"",""1"",""3583""
""blur"",""1"",""3588""
","""event"",""trial"",""time""
""focus"",""1"",""3586""
""focus"",""1"",""3889""
","""event"",""trial"",""time""
""fullscreenenter"",""1"",""3623""
","
","","","7182.000000000116","[""0""]","0","21","12470","5476","","","","","","","","","","","","","","","","","","",""
"pit-instructions","108","852066","0.0-2.0-22.0-1.0","battery-v0.2","","""event"",""trial"",""time""
""blur"",""1"",""3583""
""focus"",""1"",""3586""
""blur"",""1"",""3588""
""fullscreenenter"",""1"",""3623""
""focus"",""1"",""3889""
","""event"",""trial"",""time""
""blur"",""1"",""3583""
""blur"",""1"",""3588""
","""event"",""trial"",""time""
""focus"",""1"",""3586""
""focus"",""1"",""3889""
","""event"",""trial"",""time""
""fullscreenenter"",""1"",""3623""
","
","","[{""page_index"":0,""viewing_time"":1416}]","1417","","","","","","","","","","","","","","","","","","","","","","","",""
"pit-comprehension","109","865104","0.0-2.0-23.0-0.0","battery-v0.2","","""event"",""trial"",""time""
""blur"",""1"",""3583""
""focus"",""1"",""3586""
""blur"",""1"",""3588""
""fullscreenenter"",""1"",""3623""
""focus"",""1"",""3889""
","""event"",""trial"",""time""
""blur"",""1"",""3583""
""blur"",""1"",""3588""
","""event"",""trial"",""time""
""focus"",""1"",""3586""
""focus"",""1"",""3889""
","""event"",""trial"",""time""
""fullscreenenter"",""1"",""3623""
","
","","","13030","[""True""]","0","21","12470","5476","","","","","","","","","","","","","","","","","","",""
"pit-instructions","110","866765","0.0-2.0-23.0-1.0","battery-v0.2","","""event"",""trial"",""time""
""blur"",""1"",""3583""
""focus"",""1"",""3586""
""blur"",""1"",""3588""
""fullscreenenter"",""1"",""3623""
""focus"",""1"",""3889""
","""event"",""trial"",""time""
""blur"",""1"",""3583""
""blur"",""1"",""3588""
","""event"",""trial"",""time""
""focus"",""1"",""3586""
""focus"",""1"",""3889""
","""event"",""trial"",""time""
""fullscreenenter"",""1"",""3623""
","
","","[{""page_index"":0,""viewing_time"":1615.9999999998836}]","1615.9999999998836","","","","","","","","","","","","","","","","","","","","","","","",""
"pit-comprehension","111","874270","0.0-2.0-24.0-0.0","battery-v0.2","","""event"",""trial"",""time""
""blur"",""1"",""3583""
""focus"",""1"",""3586""
""blur"",""1"",""3588""
""fullscreenenter"",""1"",""3623""
""focus"",""1"",""3889""
","""event"",""trial"",""time""
""blur"",""1"",""3583""
""blur"",""1"",""3588""
","""event"",""trial"",""time""
""focus"",""1"",""3586""
""focus"",""1"",""3889""
","""event"",""trial"",""time""
""fullscreenenter"",""1"",""3623""
","
","","","7497","[""True""]","0","21","12470","5476","","","","","","","","","","","","","","","","","","",""
"pit-instructions","112","875731","0.0-2.0-24.0-1.0","battery-v0.2","","""event"",""trial"",""time""
""blur"",""1"",""3583""
""focus"",""1"",""3586""
""blur"",""1"",""3588""
""fullscreenenter"",""1"",""3623""
""focus"",""1"",""3889""
","""event"",""trial"",""time""
""blur"",""1"",""3583""
""blur"",""1"",""3588""
","""event"",""trial"",""time""
""focus"",""1"",""3586""
""focus"",""1"",""3889""
","""event"",""trial"",""time""
""fullscreenenter"",""1"",""3623""
","
","","[{""page_index"":0,""viewing_time"":1417}]","1417","","","","","","","","","","","","","","","","","","","","","","","",""
"pit-comprehension","113","882169","0.0-2.0-25.0-0.0","battery-v0.2","","""event"",""trial"",""time""
""blur"",""1"",""3583""
""focus"",""1"",""3586""
""blur"",""1"",""3588""
""fullscreenenter"",""1"",""3623""
""focus"",""1"",""3889""
","""event"",""trial"",""time""
""blur"",""1"",""3583""
""blur"",""1"",""3588""
","""event"",""trial"",""time""
""focus"",""1"",""3586""
""focus"",""1"",""3889""
","""event"",""trial"",""time""
""fullscreenenter"",""1"",""3623""
","
","","","6432","[""True""]","0","21","12470","5476","","","","","","","","","","","","","","","","","","",""
"pit-instructions","114","883748","0.0-2.0-25.0-1.0","battery-v0.2","","""event"",""trial"",""time""
""blur"",""1"",""3583""
""focus"",""1"",""3586""
""blur"",""1"",""3588""
""fullscreenenter"",""1"",""3623""
""focus"",""1"",""3889""
","""event"",""trial"",""time""
""blur"",""1"",""3583""
""blur"",""1"",""3588""
","""event"",""trial"",""time""
""focus"",""1"",""3586""
""focus"",""1"",""3889""
","""event"",""trial"",""time""
""fullscreenenter"",""1"",""3623""
","
","","[{""page_index"":0,""viewing_time"":1533}]","1534","","","","","","","","","","","","","","","","","","","","","","","",""
"pit-comprehension","115","888402","0.0-2.0-26.0-0.0","battery-v0.2","","""event"",""trial"",""time""
""blur"",""1"",""3583""
""focus"",""1"",""3586""
""blur"",""1"",""3588""
""fullscreenenter"",""1"",""3623""
""focus"",""1"",""3889""
","""event"",""trial"",""time""
""blur"",""1"",""3583""
""blur"",""1"",""3588""
","""event"",""trial"",""time""
""focus"",""1"",""3586""
""focus"",""1"",""3889""
","""event"",""trial"",""time""
""fullscreenenter"",""1"",""3623""
","
","","","4647.999999999884","[""False""]","0","21","12470","5476","","","","","","","","","","","","","","","","","","",""
"pit-instructions","116","891613","0.0-2.0-26.0-1.0","battery-v0.2","","""event"",""trial"",""time""
""blur"",""1"",""3583""
""focus"",""1"",""3586""
""blur"",""1"",""3588""
""fullscreenenter"",""1"",""3623""
""focus"",""1"",""3889""
","""event"",""trial"",""time""
""blur"",""1"",""3583""
""blur"",""1"",""3588""
","""event"",""trial"",""time""
""focus"",""1"",""3586""
""focus"",""1"",""3889""
","""event"",""trial"",""time""
""fullscreenenter"",""1"",""3623""
","
","","[{""page_index"":0,""viewing_time"":3166}]","3166","","","","","","","","","","","","","","","","","","","","","","","",""
"pit-instructions","117","908262","0.0-3.0","battery-v0.2","","""event"",""trial"",""time""
""blur"",""1"",""3583""
""focus"",""1"",""3586""
""blur"",""1"",""3588""
""fullscreenenter"",""1"",""3623""
""focus"",""1"",""3889""
","""event"",""trial"",""time""
""blur"",""1"",""3583""
""blur"",""1"",""3588""
","""event"",""trial"",""time""
""focus"",""1"",""3586""
""focus"",""1"",""3889""
","""event"",""trial"",""time""
""fullscreenenter"",""1"",""3623""
","
","","[{""page_index"":0,""viewing_time"":4127},{""page_index"":1,""viewing_time"":5016},{""page_index"":2,""viewing_time"":7500}]","16643","","","","","","","","","","","","","","","","","","","","","","","",""
"pit-trial","118","911608","0.0-4.0","battery-v0.2","","""event"",""trial"",""time""
""blur"",""1"",""3583""
""focus"",""1"",""3586""
""blur"",""1"",""3588""
""fullscreenenter"",""1"",""3623""
""focus"",""1"",""3889""
","""event"",""trial"",""time""
""blur"",""1"",""3583""
""blur"",""1"",""3588""
","""event"",""trial"",""time""
""focus"",""1"",""3586""
""focus"",""1"",""3889""
","""event"",""trial"",""time""
""fullscreenenter"",""1"",""3623""
","
","","","487","","","21","12470","5476","&#9733;","elianto","#3366ff99","-1"," ","0","+10","[1339]","1","1","","","12470","1","2","2","win","no-go","1"
"pit-trial","119","916465","0.0-5.0","battery-v0.2","","""event"",""trial"",""time""
""blur"",""1"",""3583""
""focus"",""1"",""3586""
""blur"",""1"",""3588""
""fullscreenenter"",""1"",""3623""
""focus"",""1"",""3889""
","""event"",""trial"",""time""
""blur"",""1"",""3583""
""blur"",""1"",""3588""
","""event"",""trial"",""time""
""focus"",""1"",""3586""
""focus"",""1"",""3889""
","""event"",""trial"",""time""
""fullscreenenter"",""1"",""3623""
","
","","","-1","","","21","12470","5476","&#9730;","elianto","#3366ff99"," ","-1","0","0","[]","0","1","","","12470","2","1","1","win","go","0"
"pit-trial","120","920199","0.0-6.0","battery-v0.2","","""event"",""trial"",""time""
""blur"",""1"",""3583""
""focus"",""1"",""3586""
""blur"",""1"",""3588""
""fullscreenenter"",""1"",""3623""
""focus"",""1"",""3889""
","""event"",""trial"",""time""
""blur"",""1"",""3583""
""blur"",""1"",""3588""
","""event"",""trial"",""time""
""focus"",""1"",""3586""
""focus"",""1"",""3889""
","""event"",""trial"",""time""
""fullscreenenter"",""1"",""3623""
","
","","","876.9999999998836","","","21","12470","5476","&#9752;","elianto","#f73b6a7A"," "," ","1","0","[1727.9999999998836]","1","1","","","12470","3","3","3","lose","go","0"
"pit-trial","121","925059","0.0-7.0","battery-v0.2","","""event"",""trial"",""time""
""blur"",""1"",""3583""
""focus"",""1"",""3586""
""blur"",""1"",""3588""
""fullscreenenter"",""1"",""3623""
""focus"",""1"",""3889""
","""event"",""trial"",""time""
""blur"",""1"",""3583""
""blur"",""1"",""3588""
","""event"",""trial"",""time""
""focus"",""1"",""3586""
""focus"",""1"",""3889""
","""event"",""trial"",""time""
""fullscreenenter"",""1"",""3623""
","
","","","-1","","","21","12470","5476","&#9728;","elianto","#f73b6a7A","-1","-1","1","0","[]","0","1","","","12470","4","0","4","lose","no-go","0"
"pit-trial","122","928918","0.0-8.0","battery-v0.2","","""event"",""trial"",""time""
""blur"",""1"",""3583""
""focus"",""1"",""3586""
""blur"",""1"",""3588""
""fullscreenenter"",""1"",""3623""
""focus"",""1"",""3889""
","""event"",""trial"",""time""
""blur"",""1"",""3583""
""blur"",""1"",""3588""
","""event"",""trial"",""time""
""focus"",""1"",""3586""
""focus"",""1"",""3889""
","""event"",""trial"",""time""
""fullscreenenter"",""1"",""3623""
","
","","","998","","","21","12470","5476","&#9752;","elianto","#f73b6a7A"," "," ","1","0","[1849]","1","1","","","12470","5","3","3","lose","go","0"
"pit-trial","123","932513","0.0-9.0","battery-v0.2","","""event"",""trial"",""time""
""blur"",""1"",""3583""
""focus"",""1"",""3586""
""blur"",""1"",""3588""
""fullscreenenter"",""1"",""3623""
""focus"",""1"",""3889""
","""event"",""trial"",""time""
""blur"",""1"",""3583""
""blur"",""1"",""3588""
","""event"",""trial"",""time""
""focus"",""1"",""3586""
""focus"",""1"",""3889""
","""event"",""trial"",""time""
""fullscreenenter"",""1"",""3623""
","
","","","732","","","21","12470","5476","&#9730;","elianto","#3366ff99"," "," ","1","+10","[1583]","1","1","","","12470","6","1","1","win","go","0"
"pit-trial","124","937372","0.0-10.0","battery-v0.2","","""event"",""trial"",""time""
""blur"",""1"",""3583""
""focus"",""1"",""3586""
""blur"",""1"",""3588""
""fullscreenenter"",""1"",""3623""
""focus"",""1"",""3889""
","""event"",""trial"",""time""
""blur"",""1"",""3583""
""blur"",""1"",""3588""
","""event"",""trial"",""time""
""focus"",""1"",""3586""
""focus"",""1"",""3889""
","""event"",""trial"",""time""
""fullscreenenter"",""1"",""3623""
","
","","","-1","","","21","12470","5476","&#9728;","elianto","#f73b6a7A","-1","-1","1","0","[]","0","1","","","12470","7","0","4","lose","no-go","0"
"pit-trial","125","940881","0.0-11.0","battery-v0.2","","""event"",""trial"",""time""
""blur"",""1"",""3583""
""focus"",""1"",""3586""
""blur"",""1"",""3588""
""fullscreenenter"",""1"",""3623""
""focus"",""1"",""3889""
","""event"",""trial"",""time""
""blur"",""1"",""3583""
""blur"",""1"",""3588""
","""event"",""trial"",""time""
""focus"",""1"",""3586""
""focus"",""1"",""3889""
","""event"",""trial"",""time""
""fullscreenenter"",""1"",""3623""
","
","","","649","","","21","12470","5476","&#9733;","elianto","#3366ff99","-1"," ","0","0","[1500]","1","1","","","12470","8","2","2","win","no-go","0"
"pit-trial","126","945740","0.0-12.0","battery-v0.2","","""event"",""trial"",""time""
""blur"",""1"",""3583""
""focus"",""1"",""3586""
""blur"",""1"",""3588""
""fullscreenenter"",""1"",""3623""
""focus"",""1"",""3889""
","""event"",""trial"",""time""
""blur"",""1"",""3583""
""blur"",""1"",""3588""
","""event"",""trial"",""time""
""focus"",""1"",""3586""
""focus"",""1"",""3889""
","""event"",""trial"",""time""
""fullscreenenter"",""1"",""3623""
","
","","","-1","","","21","12470","5476","&#9728;","elianto","#f73b6a7A","-1","-1","1","-10","[]","0","1","","","12470","9","0","4","lose","no-go","1"
"pit-trial","127","949327","0.0-13.0","battery-v0.2","","""event"",""trial"",""time""
""blur"",""1"",""3583""
""focus"",""1"",""3586""
""blur"",""1"",""3588""
""fullscreenenter"",""1"",""3623""
""focus"",""1"",""3889""
","""event"",""trial"",""time""
""blur"",""1"",""3583""
""blur"",""1"",""3588""
","""event"",""trial"",""time""
""focus"",""1"",""3586""
""focus"",""1"",""3889""
","""event"",""trial"",""time""
""fullscreenenter"",""1"",""3623""
","
","","","728.0000000001164","","","21","12470","5476","&#9733;","elianto","#3366ff99","-1"," ","0","0","[1579.0000000001164]","1","1","","","12470","10","2","2","win","no-go","0"
"pit-trial","128","952820","0.0-14.0","battery-v0.2","","""event"",""trial"",""time""
""blur"",""1"",""3583""
""focus"",""1"",""3586""
""blur"",""1"",""3588""
""fullscreenenter"",""1"",""3623""
""focus"",""1"",""3889""
","""event"",""trial"",""time""
""blur"",""1"",""3583""
""blur"",""1"",""3588""
","""event"",""trial"",""time""
""focus"",""1"",""3586""
""focus"",""1"",""3889""
","""event"",""trial"",""time""
""fullscreenenter"",""1"",""3623""
","
","","","635","","","21","12470","5476","&#9730;","elianto","#3366ff99"," "," ","1","0","[1486]","1","1","","","12470","11","1","1","win","go","1"
"pit-trial","129","956860","0.0-15.0","battery-v0.2","","""event"",""trial"",""time""
""blur"",""1"",""3583""
""focus"",""1"",""3586""
""blur"",""1"",""3588""
""fullscreenenter"",""1"",""3623""
""focus"",""1"",""3889""
","""event"",""trial"",""time""
""blur"",""1"",""3583""
""blur"",""1"",""3588""
","""event"",""trial"",""time""
""focus"",""1"",""3586""
""focus"",""1"",""3889""
","""event"",""trial"",""time""
""fullscreenenter"",""1"",""3623""
","
","","","1180","","","21","12470","5476","&#9752;","elianto","#f73b6a7A"," "," ","1","0","[2031]","1","1","","","12470","12","3","3","lose","go","0"
"pit-trial","130","960710","0.0-16.0","battery-v0.2","","""event"",""trial"",""time""
""blur"",""1"",""3583""
""focus"",""1"",""3586""
""blur"",""1"",""3588""
""fullscreenenter"",""1"",""3623""
""focus"",""1"",""3889""
","""event"",""trial"",""time""
""blur"",""1"",""3583""
""blur"",""1"",""3588""
","""event"",""trial"",""time""
""focus"",""1"",""3586""
""focus"",""1"",""3889""
","""event"",""trial"",""time""
""fullscreenenter"",""1"",""3623""
","
","","","990","","","21","12470","5476","&#9752;","elianto","#f73b6a7A"," "," ","1","0","[1841]","1","1","","","12470","13","3","3","lose","go","0"
"pit-trial","131","965570","0.0-17.0","battery-v0.2","","""event"",""trial"",""time""
""blur"",""1"",""3583""
""focus"",""1"",""3586""
""blur"",""1"",""3588""
""fullscreenenter"",""1"",""3623""
""focus"",""1"",""3889""
","""event"",""trial"",""time""
""blur"",""1"",""3583""
""blur"",""1"",""3588""
","""event"",""trial"",""time""
""focus"",""1"",""3586""
""focus"",""1"",""3889""
","""event"",""trial"",""time""
""fullscreenenter"",""1"",""3623""
","
","","","-1","","","21","12470","5476","&#9733;","elianto","#3366ff99","-1","-1","1","+10","[]","0","1","","","12470","14","2","2","win","no-go","0"
"pit-trial","132","970431","0.0-18.0","battery-v0.2","","""event"",""trial"",""time""
""blur"",""1"",""3583""
""focus"",""1"",""3586""
""blur"",""1"",""3588""
""fullscreenenter"",""1"",""3623""
""focus"",""1"",""3889""
","""event"",""trial"",""time""
""blur"",""1"",""3583""
""blur"",""1"",""3588""
","""event"",""trial"",""time""
""focus"",""1"",""3586""
""focus"",""1"",""3889""
","""event"",""trial"",""time""
""fullscreenenter"",""1"",""3623""
","
","","","-1","","","21","12470","5476","&#9728;","elianto","#f73b6a7A","-1","-1","1","0","[]","0","1","","","12470","15","0","4","lose","no-go","0"
"pit-trial","133","974292","0.0-19.0","battery-v0.2","","""event"",""trial"",""time""
""blur"",""1"",""3583""
""focus"",""1"",""3586""
""blur"",""1"",""3588""
""fullscreenenter"",""1"",""3623""
""focus"",""1"",""3889""
","""event"",""trial"",""time""
""blur"",""1"",""3583""
""blur"",""1"",""3588""
","""event"",""trial"",""time""
""focus"",""1"",""3586""
""focus"",""1"",""3889""
","""event"",""trial"",""time""
""fullscreenenter"",""1"",""3623""
","
","","","1001","","","21","12470","5476","&#9730;","elianto","#3366ff99"," "," ","1","+10","[1852]","1","1","","","12470","16","1","1","win","go","0"
"pit-trial","134","977926","0.0-20.0","battery-v0.2","","""event"",""trial"",""time""
""blur"",""1"",""3583""
""focus"",""1"",""3586""
""blur"",""1"",""3588""
""fullscreenenter"",""1"",""3623""
""focus"",""1"",""3889""
","""event"",""trial"",""time""
""blur"",""1"",""3583""
""blur"",""1"",""3588""
","""event"",""trial"",""time""
""focus"",""1"",""3586""
""focus"",""1"",""3889""
","""event"",""trial"",""time""
""fullscreenenter"",""1"",""3623""
","
","","","772.9999999998836","","","21","12470","5476","&#9730;","elianto","#3366ff99"," "," ","1","+10","[1623.9999999998836]","1","1","","","12470","17","1","1","win","go","0"
"pit-trial","135","982786","0.0-21.0","battery-v0.2","","""event"",""trial"",""time""
""blur"",""1"",""3583""
""focus"",""1"",""3586""
""blur"",""1"",""3588""
""fullscreenenter"",""1"",""3623""
""focus"",""1"",""3889""
","""event"",""trial"",""time""
""blur"",""1"",""3583""
""blur"",""1"",""3588""
","""event"",""trial"",""time""
""focus"",""1"",""3586""
""focus"",""1"",""3889""
","""event"",""trial"",""time""
""fullscreenenter"",""1"",""3623""
","
","","","-1","","","21","12470","5476","&#9733;","elianto","#3366ff99","-1","-1","1","+10","[]","0","1","","","12470","18","2","2","win","no-go","0"
"pit-trial","136","986691","0.0-22.0","battery-v0.2","","""event"",""trial"",""time""
""blur"",""1"",""3583""
""focus"",""1"",""3586""
""blur"",""1"",""3588""
""fullscreenenter"",""1"",""3623""
""focus"",""1"",""3889""
","""event"",""trial"",""time""
""blur"",""1"",""3583""
""blur"",""1"",""3588""
","""event"",""trial"",""time""
""focus"",""1"",""3586""
""focus"",""1"",""3889""
","""event"",""trial"",""time""
""fullscreenenter"",""1"",""3623""
","
","","","1046","","","21","12470","5476","&#9752;","elianto","#f73b6a7A"," "," ","1","0","[1897]","1","1","","","12470","19","3","3","lose","go","0"
"pit-trial","137","991551","0.0-23.0","battery-v0.2","","""event"",""trial"",""time""
""blur"",""1"",""3583""
""focus"",""1"",""3586""
""blur"",""1"",""3588""
""fullscreenenter"",""1"",""3623""
""focus"",""1"",""3889""
","""event"",""trial"",""time""
""blur"",""1"",""3583""
""blur"",""1"",""3588""
","""event"",""trial"",""time""
""focus"",""1"",""3586""
""focus"",""1"",""3889""
","""event"",""trial"",""time""
""fullscreenenter"",""1"",""3623""
","
","","","-1","","","21","12470","5476","&#9728;","elianto","#f73b6a7A","-1","-1","1","0","[]","0","1","","","12470","20","0","4","lose","no-go","0"
"pit-instructions","138","1018586","0.0-24.0","battery-v0.2","","""event"",""trial"",""time""
""blur"",""1"",""3583""
""focus"",""1"",""3586""
""blur"",""1"",""3588""
""fullscreenenter"",""1"",""3623""
""focus"",""1"",""3889""
","""event"",""trial"",""time""
""blur"",""1"",""3583""
""blur"",""1"",""3588""
","""event"",""trial"",""time""
""focus"",""1"",""3586""
""focus"",""1"",""3889""
","""event"",""trial"",""time""
""fullscreenenter"",""1"",""3623""
","
","","[{""page_index"":0,""viewing_time"":5580},{""page_index"":1,""viewing_time"":21448}]","27028","","","","","","","","","","","","","","","","","","","","","","","",""
"pit-trial","139","1022361","0.0-25.0","battery-v0.2","","""event"",""trial"",""time""
""blur"",""1"",""3583""
""focus"",""1"",""3586""
""blur"",""1"",""3588""
""fullscreenenter"",""1"",""3623""
""focus"",""1"",""3889""
","""event"",""trial"",""time""
""blur"",""1"",""3583""
""blur"",""1"",""3588""
","""event"",""trial"",""time""
""focus"",""1"",""3586""
""focus"",""1"",""3889""
","""event"",""trial"",""time""
""fullscreenenter"",""1"",""3623""
","
","","","915","","","21","12470","5476","h","elianto","#f73b6a7A","-1"," ","0","-10","[1765]","1","2","","","12470","21","3","4","lose","no-go","0"
"pit-trial","140","1025920","0.0-26.0","battery-v0.2","","""event"",""trial"",""time""
""blur"",""1"",""3583""
""focus"",""1"",""3586""
""blur"",""1"",""3588""
""fullscreenenter"",""1"",""3623""
""focus"",""1"",""3889""
","""event"",""trial"",""time""
""blur"",""1"",""3583""
""blur"",""1"",""3588""
","""event"",""trial"",""time""
""focus"",""1"",""3586""
""focus"",""1"",""3889""
","""event"",""trial"",""time""
""fullscreenenter"",""1"",""3623""
","
","","","695.9999999998836","","","21","12470","5476","r","elianto","#3366ff99","-1"," ","0","0","[1546.9999999998836]","1","2","","","12470","22","1","2","win","no-go","0"
"pit-trial","141","1029393","0.0-27.0","battery-v0.2","","""event"",""trial"",""time""
""blur"",""1"",""3583""
""focus"",""1"",""3586""
""blur"",""1"",""3588""
""fullscreenenter"",""1"",""3623""
""focus"",""1"",""3889""
","""event"",""trial"",""time""
""blur"",""1"",""3583""
""blur"",""1"",""3588""
","""event"",""trial"",""time""
""focus"",""1"",""3586""
""focus"",""1"",""3889""
","""event"",""trial"",""time""
""fullscreenenter"",""1"",""3623""
","
","","","613.9999999997672","","","21","12470","5476","y","elianto","#f73b6a7A"," "," ","1","0","[1464.9999999998836]","1","2","","","12470","23","2","3","lose","go","0"
"pit-trial","142","1033060","0.0-28.0","battery-v0.2","","""event"",""trial"",""time""
""blur"",""1"",""3583""
""focus"",""1"",""3586""
""blur"",""1"",""3588""
""fullscreenenter"",""1"",""3623""
""focus"",""1"",""3889""
","""event"",""trial"",""time""
""blur"",""1"",""3583""
""blur"",""1"",""3588""
","""event"",""trial"",""time""
""focus"",""1"",""3586""
""focus"",""1"",""3889""
","""event"",""trial"",""time""
""fullscreenenter"",""1"",""3623""
","
","","","807","","","21","12470","5476","m","elianto","#f73b6a7A"," "," ","1","0","[1656.0000000002328]","1","2","","","12470","24","0","3","lose","go","0"
"pit-trial","143","1037919","0.0-29.0","battery-v0.2","","""event"",""trial"",""time""
""blur"",""1"",""3583""
""focus"",""1"",""3586""
""blur"",""1"",""3588""
""fullscreenenter"",""1"",""3623""
""focus"",""1"",""3889""
","""event"",""trial"",""time""
""blur"",""1"",""3583""
""blur"",""1"",""3588""
","""event"",""trial"",""time""
""focus"",""1"",""3586""
""focus"",""1"",""3889""
","""event"",""trial"",""time""
""fullscreenenter"",""1"",""3623""
","
","","","-1","","","21","12470","5476","r","elianto","#3366ff99","-1","-1","1","0","[]","0","2","","","12470","25","1","2","win","no-go","1"
"pit-trial","144","1042778","0.0-30.0","battery-v0.2","","""event"",""trial"",""time""
""blur"",""1"",""3583""
""focus"",""1"",""3586""
""blur"",""1"",""3588""
""fullscreenenter"",""1"",""3623""
""focus"",""1"",""3889""
","""event"",""trial"",""time""
""blur"",""1"",""3583""
""blur"",""1"",""3588""
","""event"",""trial"",""time""
""focus"",""1"",""3586""
""focus"",""1"",""3889""
","""event"",""trial"",""time""
""fullscreenenter"",""1"",""3623""
","
","","","-1","","","21","12470","5476","m","elianto","#f73b6a7A"," ","-1","0","-10","[]","0","2","","","12470","26","0","3","lose","go","0"
"pit-trial","145","1047276","0.0-31.0","battery-v0.2","","""event"",""trial"",""time""
""blur"",""1"",""3583""
""focus"",""1"",""3586""
""blur"",""1"",""3588""
""fullscreenenter"",""1"",""3623""
""focus"",""1"",""3889""
","""event"",""trial"",""time""
""blur"",""1"",""3583""
""blur"",""1"",""3588""
","""event"",""trial"",""time""
""focus"",""1"",""3586""
""focus"",""1"",""3889""
","""event"",""trial"",""time""
""fullscreenenter"",""1"",""3623""
","
","","","1639.9999999998836","","","21","12470","5476","y","elianto","#f73b6a7A"," "," ","1","0","[2489]","1","2","","","12470","27","2","3","lose","go","0"
"pit-trial","146","1052136","0.0-32.0","battery-v0.2","","""event"",""trial"",""time""
""blur"",""1"",""3583""
""focus"",""1"",""3586""
""blur"",""1"",""3588""
""fullscreenenter"",""1"",""3623""
""focus"",""1"",""3889""
","""event"",""trial"",""time""
""blur"",""1"",""3583""
""blur"",""1"",""3588""
","""event"",""trial"",""time""
""focus"",""1"",""3586""
""focus"",""1"",""3889""
","""event"",""trial"",""time""
""fullscreenenter"",""1"",""3623""
","
","","","-1","","","21","12470","5476","h","elianto","#f73b6a7A","-1","-1","1","0","[]","0","2","","","12470","28","3","4","lose","no-go","0"
"pit-trial","147","1055618","0.0-33.0","battery-v0.2","","""event"",""trial"",""time""
""blur"",""1"",""3583""
""focus"",""1"",""3586""
""blur"",""1"",""3588""
""fullscreenenter"",""1"",""3623""
""focus"",""1"",""3889""
","""event"",""trial"",""time""
""blur"",""1"",""3583""
""blur"",""1"",""3588""
","""event"",""trial"",""time""
""focus"",""1"",""3586""
""focus"",""1"",""3889""
","""event"",""trial"",""time""
""fullscreenenter"",""1"",""3623""
","
","","","623","","","21","12470","5476","y","elianto","#f73b6a7A"," "," ","1","0","[1473]","1","2","","","12470","29","2","3","lose","go","0"
"pit-trial","148","1059569","0.0-34.0","battery-v0.2","","""event"",""trial"",""time""
""blur"",""1"",""3583""
""focus"",""1"",""3586""
""blur"",""1"",""3588""
""fullscreenenter"",""1"",""3623""
""focus"",""1"",""3889""
","""event"",""trial"",""time""
""blur"",""1"",""3583""
""blur"",""1"",""3588""
","""event"",""trial"",""time""
""focus"",""1"",""3586""
""focus"",""1"",""3889""
","""event"",""trial"",""time""
""fullscreenenter"",""1"",""3623""
","
","","","1091","","","21","12470","5476","r","elianto","#3366ff99","-1"," ","0","0","[1942]","1","2","","","12470","30","1","2","win","no-go","0"
"pit-trial","149","1064427","0.0-35.0","battery-v0.2","","""event"",""trial"",""time""
""blur"",""1"",""3583""
""focus"",""1"",""3586""
""blur"",""1"",""3588""
""fullscreenenter"",""1"",""3623""
""focus"",""1"",""3889""
","""event"",""trial"",""time""
""blur"",""1"",""3583""
""blur"",""1"",""3588""
","""event"",""trial"",""time""
""focus"",""1"",""3586""
""focus"",""1"",""3889""
","""event"",""trial"",""time""
""fullscreenenter"",""1"",""3623""
","
","","","-1","","","21","12470","5476","h","elianto","#f73b6a7A","-1","-1","1","-10","[]","0","2","","","12470","31","3","4","lose","no-go","1"
"pit-trial","150","1068110","0.0-36.0","battery-v0.2","","""event"",""trial"",""time""
""blur"",""1"",""3583""
""focus"",""1"",""3586""
""blur"",""1"",""3588""
""fullscreenenter"",""1"",""3623""
""focus"",""1"",""3889""
","""event"",""trial"",""time""
""blur"",""1"",""3583""
""blur"",""1"",""3588""
","""event"",""trial"",""time""
""focus"",""1"",""3586""
""focus"",""1"",""3889""
","""event"",""trial"",""time""
""fullscreenenter"",""1"",""3623""
","
","","","825","","","21","12470","5476","m","elianto","#f73b6a7A"," "," ","1","0","[1675]","1","2","","","12470","32","0","3","lose","go","0"
"pit-trial","151","1072034","0.0-37.0","battery-v0.2","","""event"",""trial"",""time""
""blur"",""1"",""3583""
""focus"",""1"",""3586""
""blur"",""1"",""3588""
""fullscreenenter"",""1"",""3623""
""focus"",""1"",""3889""
","""event"",""trial"",""time""
""blur"",""1"",""3583""
""blur"",""1"",""3588""
","""event"",""trial"",""time""
""focus"",""1"",""3586""
""focus"",""1"",""3889""
","""event"",""trial"",""time""
""fullscreenenter"",""1"",""3623""
","
","","","1066","","","21","12470","5476","r","elianto","#3366ff99","-1"," ","0","0","[1917]","1","2","","","12470","33","1","2","win","no-go","0"
"pit-trial","152","1076228","0.0-38.0","battery-v0.2","","""event"",""trial"",""time""
""blur"",""1"",""3583""
""focus"",""1"",""3586""
""blur"",""1"",""3588""
""fullscreenenter"",""1"",""3623""
""focus"",""1"",""3889""
","""event"",""trial"",""time""
""blur"",""1"",""3583""
""blur"",""1"",""3588""
","""event"",""trial"",""time""
""focus"",""1"",""3586""
""focus"",""1"",""3889""
","""event"",""trial"",""time""
""fullscreenenter"",""1"",""3623""
","
","","","1332","","","21","12470","5476","m","elianto","#f73b6a7A"," "," ","1","0","[2182]","1","2","","","12470","34","0","3","lose","go","0"
"pit-trial","153","1081087","0.0-39.0","battery-v0.2","","""event"",""trial"",""time""
""blur"",""1"",""3583""
""focus"",""1"",""3586""
""blur"",""1"",""3588""
""fullscreenenter"",""1"",""3623""
""focus"",""1"",""3889""
","""event"",""trial"",""time""
""blur"",""1"",""3583""
""blur"",""1"",""3588""
","""event"",""trial"",""time""
""focus"",""1"",""3586""
""focus"",""1"",""3889""
","""event"",""trial"",""time""
""fullscreenenter"",""1"",""3623""
","
","","","-1","","","21","12470","5476","h","elianto","#f73b6a7A","-1","-1","1","-10","[]","0","2","","","12470","35","3","4","lose","no-go","1"
"pit-trial","154","1085440","0.0-40.0","battery-v0.2","","""event"",""trial"",""time""
""blur"",""1"",""3583""
""focus"",""1"",""3586""
""blur"",""1"",""3588""
""fullscreenenter"",""1"",""3623""
""focus"",""1"",""3889""
","""event"",""trial"",""time""
""blur"",""1"",""3583""
""blur"",""1"",""3588""
","""event"",""trial"",""time""
""focus"",""1"",""3586""
""focus"",""1"",""3889""
","""event"",""trial"",""time""
""fullscreenenter"",""1"",""3623""
","
","","","1491","","","21","12470","5476","y","elianto","#f73b6a7A"," "," ","1","0","[2341]","1","2","","","12470","36","2","3","lose","go","0"
"pit-trial","155","1090300","0.0-41.0","battery-v0.2","","""event"",""trial"",""time""
""blur"",""1"",""3583""
""focus"",""1"",""3586""
""blur"",""1"",""3588""
""fullscreenenter"",""1"",""3623""
""focus"",""1"",""3889""
","""event"",""trial"",""time""
""blur"",""1"",""3583""
""blur"",""1"",""3588""
","""event"",""trial"",""time""
""focus"",""1"",""3586""
""focus"",""1"",""3889""
","""event"",""trial"",""time""
""fullscreenenter"",""1"",""3623""
","
","","","-1","","","21","12470","5476","r","elianto","#3366ff99","-1","-1","1","0","[]","0","2","","","12470","37","1","2","win","no-go","1"
"pit-trial","156","1094438","0.0-42.0","battery-v0.2","","""event"",""trial"",""time""
""blur"",""1"",""3583""
""focus"",""1"",""3586""
""blur"",""1"",""3588""
""fullscreenenter"",""1"",""3623""
""focus"",""1"",""3889""
","""event"",""trial"",""time""
""blur"",""1"",""3583""
""blur"",""1"",""3588""
","""event"",""trial"",""time""
""focus"",""1"",""3586""
""focus"",""1"",""3889""
","""event"",""trial"",""time""
""fullscreenenter"",""1"",""3623""
","
","","","1277","","","21","12470","5476","h","elianto","#f73b6a7A","-1"," ","0","-10","[2128]","1","2","","","12470","38","3","4","lose","no-go","0"
"pit-trial","157","1098031","0.0-43.0","battery-v0.2","","""event"",""trial"",""time""
""blur"",""1"",""3583""
""focus"",""1"",""3586""
""blur"",""1"",""3588""
""fullscreenenter"",""1"",""3623""
""focus"",""1"",""3889""
","""event"",""trial"",""time""
""blur"",""1"",""3583""
""blur"",""1"",""3588""
","""event"",""trial"",""time""
""focus"",""1"",""3586""
""focus"",""1"",""3889""
","""event"",""trial"",""time""
""fullscreenenter"",""1"",""3623""
","
","","","730","","","21","12470","5476","y","elianto","#f73b6a7A"," "," ","1","0","[1581]","1","2","","","12470","39","2","3","lose","go","0"
"pit-trial","158","1102432","0.0-44.0","battery-v0.2","","""event"",""trial"",""time""
""blur"",""1"",""3583""
""focus"",""1"",""3586""
""blur"",""1"",""3588""
""fullscreenenter"",""1"",""3623""
""focus"",""1"",""3889""
","""event"",""trial"",""time""
""blur"",""1"",""3583""
""blur"",""1"",""3588""
","""event"",""trial"",""time""
""focus"",""1"",""3586""
""focus"",""1"",""3889""
","""event"",""trial"",""time""
""fullscreenenter"",""1"",""3623""
","
","","","1542.0000000002328","","","21","12470","5476","m","elianto","#f73b6a7A"," "," ","1","0","[2393.000000000233]","1","2","","","12470","40","0","3","lose","go","0"
"pit-trial","159","1106130","0.0-45.0","battery-v0.2","","""event"",""trial"",""time""
