"trial_type","trial_index","time_elapsed","internal_node_id","task_version","subject_id","interactions","blur_events","focus_events","fullscreenenter_events","fullscreenexit_events","success","view_history","rt","responses","num_errors","age","subject","participantId","rune","rune_set","hex","correct","choice","accuracy","outcome","keys","total_keys","block","practice","value","sub","trial","stimulus","robot","valence","action","sham"
"pavlovia","0","8","0.0-0.0","battery-v0.2","","""event"",""trial"",""time""
""fullscreenenter"",""1"",""2003""
","
","
","""event"",""trial"",""time""
""fullscreenenter"",""1"",""2003""
","
","","","","","","","","","","","","","","","","","","","","","","","","","","",""
"fullscreen","1","3001","0.0-1.0","battery-v0.2","","""event"",""trial"",""time""
""fullscreenenter"",""1"",""2003""
","
","
","""event"",""trial"",""time""
""fullscreenenter"",""1"",""2003""
","
","true","","","","","","","","","","","","","","","","","","","","","","","","","",""
"pit-instructions","2","9460","0.0-2.0-0.0","battery-v0.2","","""event"",""trial"",""time""
""fullscreenenter"",""1"",""2003""
","
","
","""event"",""trial"",""time""
""fullscreenenter"",""1"",""2003""
","
","","[{""page_index"":0,""viewing_time"":6456.299999952316}]","6456.600000023842","","","","","","","","","","","","","","","","","","","","","","","",""
"pit-comprehension","3","13076","0.0-2.0-1.0-0.0","battery-v0.2","","""event"",""trial"",""time""
""fullscreenenter"",""1"",""2003""
""blur"",""4"",""18743""
""focus"",""4"",""18744""
""blur"",""4"",""19162""
""focus"",""4"",""19163""
","""event"",""trial"",""time""
""blur"",""4"",""18743""
""blur"",""4"",""19162""
","""event"",""trial"",""time""
""focus"",""4"",""18744""
""focus"",""4"",""19163""
","""event"",""trial"",""time""
""fullscreenenter"",""1"",""2003""
","
","","","3614.2999999523163","[""shark""]","0","22","10167","4790","","","","","","","","","","","","","","","","","","",""
"pit-instructions","4","21426","0.0-2.0-1.0-1.0","battery-v0.2","","""event"",""trial"",""time""
""fullscreenenter"",""1"",""2003""
""blur"",""4"",""18743""
""focus"",""4"",""18744""
""blur"",""4"",""19162""
""focus"",""4"",""19163""
","""event"",""trial"",""time""
""blur"",""4"",""18743""
""blur"",""4"",""19162""
","""event"",""trial"",""time""
""focus"",""4"",""18744""
""focus"",""4"",""19163""
","""event"",""trial"",""time""
""fullscreenenter"",""1"",""2003""
","
","","[{""page_index"":0,""viewing_time"":8342}]","8342.299999952316","","","","","","","","","","","","","","","","","","","","","","","",""
"pit-comprehension","5","23981","0.0-2.0-2.0-0.0","battery-v0.2","","""event"",""trial"",""time""
""fullscreenenter"",""1"",""2003""
""blur"",""4"",""18743""
""focus"",""4"",""18744""
""blur"",""4"",""19162""
""focus"",""4"",""19163""
","""event"",""trial"",""time""
""blur"",""4"",""18743""
""blur"",""4"",""19162""
","""event"",""trial"",""time""
""focus"",""4"",""18744""
""focus"",""4"",""19163""
","""event"",""trial"",""time""
""fullscreenenter"",""1"",""2003""
","
","","","2552.7000000476837","[""tiger""]","0","22","10167","4790","","","","","","","","","","","","","","","","","","",""
"pit-instructions","6","24992","0.0-2.0-2.0-1.0","battery-v0.2","","""event"",""trial"",""time""
""fullscreenenter"",""1"",""2003""
""blur"",""4"",""18743""
""focus"",""4"",""18744""
""blur"",""4"",""19162""
""focus"",""4"",""19163""
","""event"",""trial"",""time""
""blur"",""4"",""18743""
""blur"",""4"",""19162""
","""event"",""trial"",""time""
""focus"",""4"",""18744""
""focus"",""4"",""19163""
","""event"",""trial"",""time""
""fullscreenenter"",""1"",""2003""
","
","","[{""page_index"":0,""viewing_time"":1008.3999999761581}]","1008.6000000238419","","","","","","","","","","","","","","","","","","","","","","","",""
"pit-instructions","7","141715","0.0-2.0-3.0","battery-v0.2","","""event"",""trial"",""time""
""fullscreenenter"",""1"",""2003""
""blur"",""4"",""18743""
""focus"",""4"",""18744""
""blur"",""4"",""19162""
""focus"",""4"",""19163""
","""event"",""trial"",""time""
""blur"",""4"",""18743""
""blur"",""4"",""19162""
","""event"",""trial"",""time""
""focus"",""4"",""18744""
""focus"",""4"",""19163""
","""event"",""trial"",""time""
""fullscreenenter"",""1"",""2003""
","
","","[{""page_index"":0,""viewing_time"":11855},{""page_index"":1,""viewing_time"":8350.399999976158},{""page_index"":2,""viewing_time"":8036.800000071526},{""page_index"":3,""viewing_time"":6315.100000023842},{""page_index"":4,""viewing_time"":6319.799999952316},{""page_index"":5,""viewing_time"":7716},{""page_index"":6,""viewing_time"":9661.700000047684},{""page_index"":7,""viewing_time"":14161.699999928474},{""page_index"":8,""viewing_time"":10404.899999976158},{""page_index"":9,""viewing_time"":8670.900000095367},{""page_index"":10,""viewing_time"":8311.599999904633},{""page_index"":11,""viewing_time"":5309.400000095367},{""page_index"":12,""viewing_time"":6768.099999904633},{""page_index"":13,""viewing_time"":4840.400000095367}]","116722","","","","","","","","","","","","","","","","","","","","","","","",""
"pit-trial","8","145223","0.0-2.0-4.0-0.0","battery-v0.2","","""event"",""trial"",""time""
""fullscreenenter"",""1"",""2003""
""blur"",""4"",""18743""
""focus"",""4"",""18744""
""blur"",""4"",""19162""
""focus"",""4"",""19163""
","""event"",""trial"",""time""
""blur"",""4"",""18743""
""blur"",""4"",""19162""
","""event"",""trial"",""time""
""focus"",""4"",""18744""
""focus"",""4"",""19163""
","""event"",""trial"",""time""
""fullscreenenter"",""1"",""2003""
","
","","","639.7999999523163","","","22","10167","4790","&#9784;","elianto","#FFFFF080"," "," ","1","&#10004","[1490.7000000476837]","1","0","0","","","","","","","",""
"pit-trial","9","148563","0.0-2.0-4.1-0.1","battery-v0.2","","""event"",""trial"",""time""
""fullscreenenter"",""1"",""2003""
""blur"",""4"",""18743""
""focus"",""4"",""18744""
""blur"",""4"",""19162""
""focus"",""4"",""19163""
","""event"",""trial"",""time""
""blur"",""4"",""18743""
""blur"",""4"",""19162""
","""event"",""trial"",""time""
""focus"",""4"",""18744""
""focus"",""4"",""19163""
","""event"",""trial"",""time""
""fullscreenenter"",""1"",""2003""
","
","","","482.2000000476837","","","22","10167","4790","&#9784;","elianto","#FFFFF080"," "," ","1","&#10004","[1336]","1","0","0","","","","","","","",""
"pit-trial","10","151895","0.0-2.0-4.2-0.2","battery-v0.2","","""event"",""trial"",""time""
""fullscreenenter"",""1"",""2003""
""blur"",""4"",""18743""
""focus"",""4"",""18744""
""blur"",""4"",""19162""
""focus"",""4"",""19163""
","""event"",""trial"",""time""
""blur"",""4"",""18743""
""blur"",""4"",""19162""
","""event"",""trial"",""time""
""focus"",""4"",""18744""
""focus"",""4"",""19163""
","""event"",""trial"",""time""
""fullscreenenter"",""1"",""2003""
","
","","","475.90000009536743","","","22","10167","4790","&#9784;","elianto","#FFFFF080"," "," ","1","&#10004","[1326.7000000476837]","1","0","0","","","","","","","",""
"pit-trial","11","155254","0.0-2.0-4.3-0.3","battery-v0.2","","""event"",""trial"",""time""
""fullscreenenter"",""1"",""2003""
""blur"",""4"",""18743""
""focus"",""4"",""18744""
""blur"",""4"",""19162""
""focus"",""4"",""19163""
","""event"",""trial"",""time""
""blur"",""4"",""18743""
""blur"",""4"",""19162""
","""event"",""trial"",""time""
""focus"",""4"",""18744""
""focus"",""4"",""19163""
","""event"",""trial"",""time""
""fullscreenenter"",""1"",""2003""
","
","","","499.1999999284744","","","22","10167","4790","&#9784;","elianto","#FFFFF080"," "," ","1","&#10004","[1351.5999999046326]","1","0","0","","","","","","","",""
"pit-trial","12","158588","0.0-2.0-4.4-0.4","battery-v0.2","","""event"",""trial"",""time""
""fullscreenenter"",""1"",""2003""
""blur"",""4"",""18743""
""focus"",""4"",""18744""
""blur"",""4"",""19162""
""focus"",""4"",""19163""
","""event"",""trial"",""time""
""blur"",""4"",""18743""
""blur"",""4"",""19162""
","""event"",""trial"",""time""
""focus"",""4"",""18744""
""focus"",""4"",""19163""
","""event"",""trial"",""time""
""fullscreenenter"",""1"",""2003""
","
","","","464.10000002384186","","","22","10167","4790","&#9784;","elianto","#FFFFF080"," "," ","1","&#10004","[1323.3999999761581]","1","0","0","","","","","","","",""
"pit-instructions","13","183393","0.0-2.0-5.0","battery-v0.2","","""event"",""trial"",""time""
""fullscreenenter"",""1"",""2003""
""blur"",""4"",""18743""
""focus"",""4"",""18744""
""blur"",""4"",""19162""
""focus"",""4"",""19163""
","""event"",""trial"",""time""
""blur"",""4"",""18743""
""blur"",""4"",""19162""
","""event"",""trial"",""time""
""focus"",""4"",""18744""
""focus"",""4"",""19163""
","""event"",""trial"",""time""
""fullscreenenter"",""1"",""2003""
","
","","[{""page_index"":0,""viewing_time"":6914.899999976158},{""page_index"":1,""viewing_time"":6671.900000095367},{""page_index"":2,""viewing_time"":5711.599999904633},{""page_index"":3,""viewing_time"":5504.300000071526}]","24802.800000071526","","","","","","","","","","","","","","","","","","","","","","","",""
"pit-trial","14","188250","0.0-2.0-6.0-0.0","battery-v0.2","","""event"",""trial"",""time""
""fullscreenenter"",""1"",""2003""
""blur"",""4"",""18743""
""focus"",""4"",""18744""
""blur"",""4"",""19162""
""focus"",""4"",""19163""
","""event"",""trial"",""time""
""blur"",""4"",""18743""
""blur"",""4"",""19162""
","""event"",""trial"",""time""
""focus"",""4"",""18744""
""focus"",""4"",""19163""
","""event"",""trial"",""time""
""fullscreenenter"",""1"",""2003""
","
","","","-1","","","22","10167","4790","&#9854;","elianto","#FFFFF080","-1","-1","1","&#10004","[]","0","0","1","","","","","","","",""
"pit-trial","15","193122","0.0-2.0-6.1-0.1","battery-v0.2","","""event"",""trial"",""time""
""fullscreenenter"",""1"",""2003""
""blur"",""4"",""18743""
""focus"",""4"",""18744""
""blur"",""4"",""19162""
""focus"",""4"",""19163""
","""event"",""trial"",""time""
""blur"",""4"",""18743""
""blur"",""4"",""19162""
","""event"",""trial"",""time""
""focus"",""4"",""18744""
""focus"",""4"",""19163""
","""event"",""trial"",""time""
""fullscreenenter"",""1"",""2003""
","
","","","-1","","","22","10167","4790","&#9854;","elianto","#FFFFF080","-1","-1","1","&#10004","[]","0","0","1","","","","","","","",""
"pit-trial","16","197997","0.0-2.0-6.2-0.2","battery-v0.2","","""event"",""trial"",""time""
""fullscreenenter"",""1"",""2003""
""blur"",""4"",""18743""
""focus"",""4"",""18744""
""blur"",""4"",""19162""
""focus"",""4"",""19163""
","""event"",""trial"",""time""
""blur"",""4"",""18743""
""blur"",""4"",""19162""
","""event"",""trial"",""time""
""focus"",""4"",""18744""
""focus"",""4"",""19163""
","""event"",""trial"",""time""
""fullscreenenter"",""1"",""2003""
","
","","","-1","","","22","10167","4790","&#9854;","elianto","#FFFFF080","-1","-1","1","&#10004","[]","0","0","1","","","","","","","",""
"pit-trial","17","202864","0.0-2.0-6.3-0.3","battery-v0.2","","""event"",""trial"",""time""
""fullscreenenter"",""1"",""2003""
""blur"",""4"",""18743""
""focus"",""4"",""18744""
""blur"",""4"",""19162""
""focus"",""4"",""19163""
","""event"",""trial"",""time""
""blur"",""4"",""18743""
""blur"",""4"",""19162""
","""event"",""trial"",""time""
""focus"",""4"",""18744""
""focus"",""4"",""19163""
","""event"",""trial"",""time""
""fullscreenenter"",""1"",""2003""
","
","","","-1","","","22","10167","4790","&#9854;","elianto","#FFFFF080","-1","-1","1","&#10004","[]","0","0","1","","","","","","","",""
"pit-trial","18","207745","0.0-2.0-6.4-0.4","battery-v0.2","","""event"",""trial"",""time""
""fullscreenenter"",""1"",""2003""
""blur"",""4"",""18743""
""focus"",""4"",""18744""
""blur"",""4"",""19162""
""focus"",""4"",""19163""
","""event"",""trial"",""time""
""blur"",""4"",""18743""
""blur"",""4"",""19162""
","""event"",""trial"",""time""
""focus"",""4"",""18744""
""focus"",""4"",""19163""
","""event"",""trial"",""time""
""fullscreenenter"",""1"",""2003""
","
","","","-1","","","22","10167","4790","&#9854;","elianto","#FFFFF080","-1","-1","1","&#10004","[]","0","0","1","","","","","","","",""
"pit-instructions","19","337146","0.0-2.0-7.0","battery-v0.2","","""event"",""trial"",""time""
""fullscreenenter"",""1"",""2003""
""blur"",""4"",""18743""
""focus"",""4"",""18744""
""blur"",""4"",""19162""
""focus"",""4"",""19163""
","""event"",""trial"",""time""
""blur"",""4"",""18743""
""blur"",""4"",""19162""
","""event"",""trial"",""time""
""focus"",""4"",""18744""
""focus"",""4"",""19163""
","""event"",""trial"",""time""
""fullscreenenter"",""1"",""2003""
","
","","[{""page_index"":0,""viewing_time"":7269},{""page_index"":1,""viewing_time"":7492.199999928474},{""page_index"":2,""viewing_time"":7757.399999976158},{""page_index"":3,""viewing_time"":9735.300000071526},{""page_index"":4,""viewing_time"":7559.799999952316},{""page_index"":5,""viewing_time"":5633.600000023842},{""page_index"":6,""viewing_time"":5197},{""page_index"":7,""viewing_time"":8733.299999952316},{""page_index"":8,""viewing_time"":7744.400000095367},{""page_index"":9,""viewing_time"":6355.699999928474},{""page_index"":10,""viewing_time"":6481.5},{""page_index"":11,""viewing_time"":4524},{""page_index"":12,""viewing_time"":7042.5},{""page_index"":13,""viewing_time"":7576.399999976158},{""page_index"":14,""viewing_time"":7542.200000047684},{""page_index"":15,""viewing_time"":6958.5},{""page_index"":16,""viewing_time"":7792.899999976158},{""page_index"":17,""viewing_time"":8003.899999976158}]","129399.79999995232","","","","","","","","","","","","","","","","","","","","","","","",""
"pit-trial","20","340666","0.0-2.0-8.0-0.0","battery-v0.2","","""event"",""trial"",""time""
""fullscreenenter"",""1"",""2003""
""blur"",""4"",""18743""
""focus"",""4"",""18744""
""blur"",""4"",""19162""
""focus"",""4"",""19163""
","""event"",""trial"",""time""
""blur"",""4"",""18743""
""blur"",""4"",""19162""
","""event"",""trial"",""time""
""focus"",""4"",""18744""
""focus"",""4"",""19163""
","""event"",""trial"",""time""
""fullscreenenter"",""1"",""2003""
","
","","","661","","","22","10167","4790","&#9776;","elianto","#3366ff99"," "," ","1","+10","[1511.7000000476837]","1","0","1","","","","","","","",""
"pit-trial","21","344011","0.0-2.0-8.0-1.0","battery-v0.2","","""event"",""trial"",""time""
""fullscreenenter"",""1"",""2003""
""blur"",""4"",""18743""
""focus"",""4"",""18744""
""blur"",""4"",""19162""
""focus"",""4"",""19163""
","""event"",""trial"",""time""
""blur"",""4"",""18743""
""blur"",""4"",""19162""
","""event"",""trial"",""time""
""focus"",""4"",""18744""
""focus"",""4"",""19163""
","""event"",""trial"",""time""
""fullscreenenter"",""1"",""2003""
","
","","","479.7000000476837","","","22","10167","4790","&#9776;","elianto","#3366ff99"," "," ","1","+10","[1330.7999999523163]","1","0","1","","","","","","","",""
"pit-trial","22","347222","0.0-2.0-8.0-2.0","battery-v0.2","","""event"",""trial"",""time""
""fullscreenenter"",""1"",""2003""
""blur"",""4"",""18743""
""focus"",""4"",""18744""
""blur"",""4"",""19162""
""focus"",""4"",""19163""
","""event"",""trial"",""time""
""blur"",""4"",""18743""
""blur"",""4"",""19162""
","""event"",""trial"",""time""
""focus"",""4"",""18744""
""focus"",""4"",""19163""
","""event"",""trial"",""time""
""fullscreenenter"",""1"",""2003""
","
","","","356.7000000476837","","","22","10167","4790","&#9776;","elianto","#3366ff99"," "," ","1","+10","[1207.1000000238419]","1","0","1","","","","","","","",""
"pit-trial","23","350443","0.0-2.0-8.0-3.0","battery-v0.2","","""event"",""trial"",""time""
""fullscreenenter"",""1"",""2003""
""blur"",""4"",""18743""
""focus"",""4"",""18744""
""blur"",""4"",""19162""
""focus"",""4"",""19163""
","""event"",""trial"",""time""
""blur"",""4"",""18743""
""blur"",""4"",""19162""
","""event"",""trial"",""time""
""focus"",""4"",""18744""
""focus"",""4"",""19163""
","""event"",""trial"",""time""
""fullscreenenter"",""1"",""2003""
","
","","","364.1999999284744","","","22","10167","4790","&#9776;","elianto","#3366ff99"," "," ","1","0","[1214.3999999761581]","1","0","1","","","","","","","",""
"pit-trial","24","353651","0.0-2.0-8.0-4.0","battery-v0.2","","""event"",""trial"",""time""
""fullscreenenter"",""1"",""2003""
""blur"",""4"",""18743""
""focus"",""4"",""18744""
""blur"",""4"",""19162""
""focus"",""4"",""19163""
","""event"",""trial"",""time""
""blur"",""4"",""18743""
""blur"",""4"",""19162""
","""event"",""trial"",""time""
""focus"",""4"",""18744""
""focus"",""4"",""19163""
","""event"",""trial"",""time""
""fullscreenenter"",""1"",""2003""
","
","","","347.7999999523163","","","22","10167","4790","&#9776;","elianto","#3366ff99"," "," ","1","+10","[1199.7999999523163]","1","0","1","","","","","","","",""
"pit-trial","25","356923","0.0-2.0-8.1-0.1","battery-v0.2","","""event"",""trial"",""time""
""fullscreenenter"",""1"",""2003""
""blur"",""4"",""18743""
""focus"",""4"",""18744""
""blur"",""4"",""19162""
""focus"",""4"",""19163""
","""event"",""trial"",""time""
""blur"",""4"",""18743""
""blur"",""4"",""19162""
","""event"",""trial"",""time""
""focus"",""4"",""18744""
""focus"",""4"",""19163""
","""event"",""trial"",""time""
""fullscreenenter"",""1"",""2003""
","
","","","399.5","","","22","10167","4790","&#9776;","elianto","#3366ff99"," "," ","1","+10","[1259]","1","0","1","","","","","","","",""
"pit-trial","26","360146","0.0-2.0-8.1-1.1","battery-v0.2","","""event"",""trial"",""time""
""fullscreenenter"",""1"",""2003""
""blur"",""4"",""18743""
""focus"",""4"",""18744""
""blur"",""4"",""19162""
""focus"",""4"",""19163""
","""event"",""trial"",""time""
""blur"",""4"",""18743""
""blur"",""4"",""19162""
","""event"",""trial"",""time""
""focus"",""4"",""18744""
""focus"",""4"",""19163""
","""event"",""trial"",""time""
""fullscreenenter"",""1"",""2003""
","
","","","354.5","","","22","10167","4790","&#9776;","elianto","#3366ff99"," "," ","1","+10","[1209.5]","1","0","1","","","","","","","",""
"pit-trial","27","363216","0.0-2.0-8.1-2.1","battery-v0.2","","""event"",""trial"",""time""
""fullscreenenter"",""1"",""2003""
""blur"",""4"",""18743""
""focus"",""4"",""18744""
""blur"",""4"",""19162""
""focus"",""4"",""19163""
","""event"",""trial"",""time""
""blur"",""4"",""18743""
""blur"",""4"",""19162""
","""event"",""trial"",""time""
""focus"",""4"",""18744""
""focus"",""4"",""19163""
","""event"",""trial"",""time""
""fullscreenenter"",""1"",""2003""
","
","","","195.79999995231628","","","22","10167","4790","&#9776;","elianto","#3366ff99"," "," ","1","+10","[1055.2000000476837]","1","0","1","","","","","","","",""
"pit-trial","28","366392","0.0-2.0-8.1-3.1","battery-v0.2","","""event"",""trial"",""time""
""fullscreenenter"",""1"",""2003""
""blur"",""4"",""18743""
""focus"",""4"",""18744""
""blur"",""4"",""19162""
""focus"",""4"",""19163""
","""event"",""trial"",""time""
""blur"",""4"",""18743""
""blur"",""4"",""19162""
","""event"",""trial"",""time""
""focus"",""4"",""18744""
""focus"",""4"",""19163""
","""event"",""trial"",""time""
""fullscreenenter"",""1"",""2003""
","
","","","321.7999999523163","","","22","10167","4790","&#9776;","elianto","#3366ff99"," "," ","1","0","[1174.1000000238419]","1","0","1","","","","","","","",""
"pit-trial","29","369494","0.0-2.0-8.1-4.1","battery-v0.2","","""event"",""trial"",""time""
""fullscreenenter"",""1"",""2003""
""blur"",""4"",""18743""
""focus"",""4"",""18744""
""blur"",""4"",""19162""
""focus"",""4"",""19163""
","""event"",""trial"",""time""
""blur"",""4"",""18743""
""blur"",""4"",""19162""
","""event"",""trial"",""time""
""focus"",""4"",""18744""
""focus"",""4"",""19163""
","""event"",""trial"",""time""
""fullscreenenter"",""1"",""2003""
","
","","","249.39999997615814","","","22","10167","4790","&#9776;","elianto","#3366ff99"," "," ","1","+10","[1100]","1","0","1","","","","","","","",""
"pit-trial","30","372657","0.0-2.0-8.2-0.2","battery-v0.2","","""event"",""trial"",""time""
""fullscreenenter"",""1"",""2003""
""blur"",""4"",""18743""
""focus"",""4"",""18744""
""blur"",""4"",""19162""
""focus"",""4"",""19163""
","""event"",""trial"",""time""
""blur"",""4"",""18743""
""blur"",""4"",""19162""
","""event"",""trial"",""time""
""focus"",""4"",""18744""
""focus"",""4"",""19163""
","""event"",""trial"",""time""
""fullscreenenter"",""1"",""2003""
","
","","","310.90000009536743","","","22","10167","4790","&#9776;","elianto","#3366ff99"," "," ","1","+10","[1161.2000000476837]","1","0","1","","","","","","","",""
"pit-trial","31","375722","0.0-2.0-8.2-1.2","battery-v0.2","","""event"",""trial"",""time""
""fullscreenenter"",""1"",""2003""
""blur"",""4"",""18743""
""focus"",""4"",""18744""
""blur"",""4"",""19162""
""focus"",""4"",""19163""
","""event"",""trial"",""time""
""blur"",""4"",""18743""
""blur"",""4"",""19162""
","""event"",""trial"",""time""
""focus"",""4"",""18744""
""focus"",""4"",""19163""
","""event"",""trial"",""time""
""fullscreenenter"",""1"",""2003""
","
","","","211.79999995231628","","","22","10167","4790","&#9776;","elianto","#3366ff99"," "," ","1","+10","[1062.7000000476837]","1","0","1","","","","","","","",""
"pit-trial","32","378973","0.0-2.0-8.2-2.2","battery-v0.2","","""event"",""trial"",""time""
""fullscreenenter"",""1"",""2003""
""blur"",""4"",""18743""
""focus"",""4"",""18744""
""blur"",""4"",""19162""
""focus"",""4"",""19163""
","""event"",""trial"",""time""
""blur"",""4"",""18743""
""blur"",""4"",""19162""
","""event"",""trial"",""time""
""focus"",""4"",""18744""
""focus"",""4"",""19163""
","""event"",""trial"",""time""
""fullscreenenter"",""1"",""2003""
","
","","","398.39999997615814","","","22","10167","4790","&#9776;","elianto","#3366ff99"," "," ","1","+10","[1248.7999999523163]","1","0","1","","","","","","","",""
"pit-trial","33","382177","0.0-2.0-8.2-3.2","battery-v0.2","","""event"",""trial"",""time""
""fullscreenenter"",""1"",""2003""
""blur"",""4"",""18743""
""focus"",""4"",""18744""
""blur"",""4"",""19162""
""focus"",""4"",""19163""
","""event"",""trial"",""time""
""blur"",""4"",""18743""
""blur"",""4"",""19162""
","""event"",""trial"",""time""
""focus"",""4"",""18744""
""focus"",""4"",""19163""
","""event"",""trial"",""time""
""fullscreenenter"",""1"",""2003""
","
","","","351.60000002384186","","","22","10167","4790","&#9776;","elianto","#3366ff99"," "," ","1","0","[1202]","1","0","1","","","","","","","",""
"pit-trial","34","385397","0.0-2.0-8.2-4.2","battery-v0.2","","""event"",""trial"",""time""
""fullscreenenter"",""1"",""2003""
""blur"",""4"",""18743""
""focus"",""4"",""18744""
""blur"",""4"",""19162""
""focus"",""4"",""19163""
","""event"",""trial"",""time""
""blur"",""4"",""18743""
""blur"",""4"",""19162""
","""event"",""trial"",""time""
""focus"",""4"",""18744""
""focus"",""4"",""19163""
","""event"",""trial"",""time""
""fullscreenenter"",""1"",""2003""
","
","","","367.5","","","22","10167","4790","&#9776;","elianto","#3366ff99"," "," ","1","+10","[1217.5]","1","0","1","","","","","","","",""
"call-function","35","385398","0.0-2.0-9.0","battery-v0.2","","""event"",""trial"",""time""
""fullscreenenter"",""1"",""2003""
""blur"",""4"",""18743""
""focus"",""4"",""18744""
""blur"",""4"",""19162""
""focus"",""4"",""19163""
","""event"",""trial"",""time""
""blur"",""4"",""18743""
""blur"",""4"",""19162""
","""event"",""trial"",""time""
""focus"",""4"",""18744""
""focus"",""4"",""19163""
","""event"",""trial"",""time""
""fullscreenenter"",""1"",""2003""
","
","","","","","","","","","","","","","","","","","","","","","","","","","","",""
"pit-instructions","36","427791","0.0-2.0-10.0","battery-v0.2","","""event"",""trial"",""time""
""fullscreenenter"",""1"",""2003""
""blur"",""4"",""18743""
""focus"",""4"",""18744""
""blur"",""4"",""19162""
""focus"",""4"",""19163""
","""event"",""trial"",""time""
""blur"",""4"",""18743""
""blur"",""4"",""19162""
","""event"",""trial"",""time""
""focus"",""4"",""18744""
""focus"",""4"",""19163""
","""event"",""trial"",""time""
""fullscreenenter"",""1"",""2003""
","
","","[{""page_index"":0,""viewing_time"":6613.799999952316},{""page_index"":1,""viewing_time"":7259.5},{""page_index"":2,""viewing_time"":9812.200000047684},{""page_index"":3,""viewing_time"":10731.299999952316},{""page_index"":4,""viewing_time"":7975.299999952316}]","42392.299999952316","","","","","","","","","","","","","","","","","","","","","","","",""
"pit-trial","37","432658","0.0-2.0-11.0-0.0","battery-v0.2","","""event"",""trial"",""time""
""fullscreenenter"",""1"",""2003""
""blur"",""4"",""18743""
""focus"",""4"",""18744""
""blur"",""4"",""19162""
""focus"",""4"",""19163""
","""event"",""trial"",""time""
""blur"",""4"",""18743""
""blur"",""4"",""19162""
","""event"",""trial"",""time""
""focus"",""4"",""18744""
""focus"",""4"",""19163""
","""event"",""trial"",""time""
""fullscreenenter"",""1"",""2003""
","
","","","-1","","","22","10167","4790","&#9761;","elianto","#3366ff99","-1","-1","1","+10","[]","0","0","2","","","","","","","",""
"pit-trial","38","437535","0.0-2.0-11.0-1.0","battery-v0.2","","""event"",""trial"",""time""
""fullscreenenter"",""1"",""2003""
""blur"",""4"",""18743""
""focus"",""4"",""18744""
""blur"",""4"",""19162""
""focus"",""4"",""19163""
","""event"",""trial"",""time""
""blur"",""4"",""18743""
""blur"",""4"",""19162""
","""event"",""trial"",""time""
""focus"",""4"",""18744""
""focus"",""4"",""19163""
","""event"",""trial"",""time""
""fullscreenenter"",""1"",""2003""
","
","","","-1","","","22","10167","4790","&#9761;","elianto","#3366ff99","-1","-1","1","+10","[]","0","0","2","","","","","","","",""
"pit-trial","39","442407","0.0-2.0-11.0-2.0","battery-v0.2","","""event"",""trial"",""time""
""fullscreenenter"",""1"",""2003""
""blur"",""4"",""18743""
""focus"",""4"",""18744""
""blur"",""4"",""19162""
""focus"",""4"",""19163""
","""event"",""trial"",""time""
""blur"",""4"",""18743""
""blur"",""4"",""19162""
","""event"",""trial"",""time""
""focus"",""4"",""18744""
""focus"",""4"",""19163""
","""event"",""trial"",""time""
""fullscreenenter"",""1"",""2003""
","
","","","-1","","","22","10167","4790","&#9761;","elianto","#3366ff99","-1","-1","1","+10","[]","0","0","2","","","","","","","",""
"pit-trial","40","447274","0.0-2.0-11.0-3.0","battery-v0.2","","""event"",""trial"",""time""
""fullscreenenter"",""1"",""2003""
""blur"",""4"",""18743""
""focus"",""4"",""18744""
""blur"",""4"",""19162""
""focus"",""4"",""19163""
","""event"",""trial"",""time""
""blur"",""4"",""18743""
""blur"",""4"",""19162""
","""event"",""trial"",""time""
""focus"",""4"",""18744""
""focus"",""4"",""19163""
","""event"",""trial"",""time""
""fullscreenenter"",""1"",""2003""
","
","","","-1","","","22","10167","4790","&#9761;","elianto","#3366ff99","-1","-1","1","0","[]","0","0","2","","","","","","","",""
"pit-trial","41","452147","0.0-2.0-11.0-4.0","battery-v0.2","","""event"",""trial"",""time""
""fullscreenenter"",""1"",""2003""
""blur"",""4"",""18743""
""focus"",""4"",""18744""
""blur"",""4"",""19162""
""focus"",""4"",""19163""
","""event"",""trial"",""time""
""blur"",""4"",""18743""
""blur"",""4"",""19162""
","""event"",""trial"",""time""
""focus"",""4"",""18744""
""focus"",""4"",""19163""
","""event"",""trial"",""time""
""fullscreenenter"",""1"",""2003""
","
","","","-1","","","22","10167","4790","&#9761;","elianto","#3366ff99","-1","-1","1","+10","[]","0","0","2","","","","","","","",""
"pit-trial","42","457025","0.0-2.0-11.1-0.1","battery-v0.2","","""event"",""trial"",""time""
""fullscreenenter"",""1"",""2003""
""blur"",""4"",""18743""
""focus"",""4"",""18744""
""blur"",""4"",""19162""
""focus"",""4"",""19163""
","""event"",""trial"",""time""
""blur"",""4"",""18743""
""blur"",""4"",""19162""
","""event"",""trial"",""time""
""focus"",""4"",""18744""
""focus"",""4"",""19163""
","""event"",""trial"",""time""
""fullscreenenter"",""1"",""2003""
","
","","","-1","","","22","10167","4790","&#9761;","elianto","#3366ff99","-1","-1","1","+10","[]","0","0","2","","","","","","","",""
"pit-trial","43","461879","0.0-2.0-11.1-1.1","battery-v0.2","","""event"",""trial"",""time""
""fullscreenenter"",""1"",""2003""
""blur"",""4"",""18743""
""focus"",""4"",""18744""
""blur"",""4"",""19162""
""focus"",""4"",""19163""
","""event"",""trial"",""time""
""blur"",""4"",""18743""
""blur"",""4"",""19162""
","""event"",""trial"",""time""
""focus"",""4"",""18744""
""focus"",""4"",""19163""
","""event"",""trial"",""time""
""fullscreenenter"",""1"",""2003""
","
","","","-1","","","22","10167","4790","&#9761;","elianto","#3366ff99","-1","-1","1","+10","[]","0","0","2","","","","","","","",""
"pit-trial","44","466731","0.0-2.0-11.1-2.1","battery-v0.2","","""event"",""trial"",""time""
""fullscreenenter"",""1"",""2003""
""blur"",""4"",""18743""
""focus"",""4"",""18744""
""blur"",""4"",""19162""
""focus"",""4"",""19163""
","""event"",""trial"",""time""
""blur"",""4"",""18743""
""blur"",""4"",""19162""
","""event"",""trial"",""time""
""focus"",""4"",""18744""
""focus"",""4"",""19163""
","""event"",""trial"",""time""
""fullscreenenter"",""1"",""2003""
","
","","","-1","","","22","10167","4790","&#9761;","elianto","#3366ff99","-1","-1","1","+10","[]","0","0","2","","","","","","","",""
"pit-trial","45","471584","0.0-2.0-11.1-3.1","battery-v0.2","","""event"",""trial"",""time""
""fullscreenenter"",""1"",""2003""
""blur"",""4"",""18743""
""focus"",""4"",""18744""
""blur"",""4"",""19162""
""focus"",""4"",""19163""
","""event"",""trial"",""time""
""blur"",""4"",""18743""
""blur"",""4"",""19162""
","""event"",""trial"",""time""
""focus"",""4"",""18744""
""focus"",""4"",""19163""
","""event"",""trial"",""time""
""fullscreenenter"",""1"",""2003""
","
","","","-1","","","22","10167","4790","&#9761;","elianto","#3366ff99","-1","-1","1","0","[]","0","0","2","","","","","","","",""
"pit-trial","46","476436","0.0-2.0-11.1-4.1","battery-v0.2","","""event"",""trial"",""time""
""fullscreenenter"",""1"",""2003""
""blur"",""4"",""18743""
""focus"",""4"",""18744""
""blur"",""4"",""19162""
""focus"",""4"",""19163""
","""event"",""trial"",""time""
""blur"",""4"",""18743""
""blur"",""4"",""19162""
","""event"",""trial"",""time""
""focus"",""4"",""18744""
""focus"",""4"",""19163""
","""event"",""trial"",""time""
""fullscreenenter"",""1"",""2003""
","
","","","-1","","","22","10167","4790","&#9761;","elianto","#3366ff99","-1","-1","1","+10","[]","0","0","2","","","","","","","",""
"pit-trial","47","481288","0.0-2.0-11.2-0.2","battery-v0.2","","""event"",""trial"",""time""
""fullscreenenter"",""1"",""2003""
""blur"",""4"",""18743""
""focus"",""4"",""18744""
""blur"",""4"",""19162""
""focus"",""4"",""19163""
","""event"",""trial"",""time""
""blur"",""4"",""18743""
""blur"",""4"",""19162""
","""event"",""trial"",""time""
""focus"",""4"",""18744""
""focus"",""4"",""19163""
","""event"",""trial"",""time""
""fullscreenenter"",""1"",""2003""
","
","","","-1","","","22","10167","4790","&#9761;","elianto","#3366ff99","-1","-1","1","+10","[]","0","0","2","","","","","","","",""
"pit-trial","48","486147","0.0-2.0-11.2-1.2","battery-v0.2","","""event"",""trial"",""time""
""fullscreenenter"",""1"",""2003""
""blur"",""4"",""18743""
""focus"",""4"",""18744""
""blur"",""4"",""19162""
""focus"",""4"",""19163""
","""event"",""trial"",""time""
""blur"",""4"",""18743""
""blur"",""4"",""19162""
","""event"",""trial"",""time""
""focus"",""4"",""18744""
""focus"",""4"",""19163""
","""event"",""trial"",""time""
""fullscreenenter"",""1"",""2003""
","
","","","-1","","","22","10167","4790","&#9761;","elianto","#3366ff99","-1","-1","1","+10","[]","0","0","2","","","","","","","",""
"pit-trial","49","491000","0.0-2.0-11.2-2.2","battery-v0.2","","""event"",""trial"",""time""
""fullscreenenter"",""1"",""2003""
""blur"",""4"",""18743""
""focus"",""4"",""18744""
""blur"",""4"",""19162""
""focus"",""4"",""19163""
","""event"",""trial"",""time""
""blur"",""4"",""18743""
""blur"",""4"",""19162""
","""event"",""trial"",""time""
""focus"",""4"",""18744""
""focus"",""4"",""19163""
","""event"",""trial"",""time""
""fullscreenenter"",""1"",""2003""
","
","","","-1","","","22","10167","4790","&#9761;","elianto","#3366ff99","-1","-1","1","+10","[]","0","0","2","","","","","","","",""
"pit-trial","50","495853","0.0-2.0-11.2-3.2","battery-v0.2","","""event"",""trial"",""time""
""fullscreenenter"",""1"",""2003""
""blur"",""4"",""18743""
""focus"",""4"",""18744""
""blur"",""4"",""19162""
""focus"",""4"",""19163""
","""event"",""trial"",""time""
""blur"",""4"",""18743""
""blur"",""4"",""19162""
","""event"",""trial"",""time""
""focus"",""4"",""18744""
""focus"",""4"",""19163""
","""event"",""trial"",""time""
""fullscreenenter"",""1"",""2003""
","
","","","-1","","","22","10167","4790","&#9761;","elianto","#3366ff99","-1","-1","1","0","[]","0","0","2","","","","","","","",""
"pit-trial","51","500706","0.0-2.0-11.2-4.2","battery-v0.2","","""event"",""trial"",""time""
""fullscreenenter"",""1"",""2003""
""blur"",""4"",""18743""
""focus"",""4"",""18744""
""blur"",""4"",""19162""
""focus"",""4"",""19163""
","""event"",""trial"",""time""
""blur"",""4"",""18743""
""blur"",""4"",""19162""
","""event"",""trial"",""time""
""focus"",""4"",""18744""
""focus"",""4"",""19163""
","""event"",""trial"",""time""
""fullscreenenter"",""1"",""2003""
","
","","","-1","","","22","10167","4790","&#9761;","elianto","#3366ff99","-1","-1","1","+10","[]","0","0","2","","","","","","","",""
"pit-trial","52","505559","0.0-2.0-11.3-0.3","battery-v0.2","","""event"",""trial"",""time""
""fullscreenenter"",""1"",""2003""
""blur"",""4"",""18743""
""focus"",""4"",""18744""
""blur"",""4"",""19162""
""focus"",""4"",""19163""
","""event"",""trial"",""time""
""blur"",""4"",""18743""
""blur"",""4"",""19162""
","""event"",""trial"",""time""
""focus"",""4"",""18744""
""focus"",""4"",""19163""
","""event"",""trial"",""time""
""fullscreenenter"",""1"",""2003""
","
","","","-1","","","22","10167","4790","&#9761;","elianto","#3366ff99","-1","-1","1","+10","[]","0","0","2","","","","","","","",""
"pit-trial","53","510412","0.0-2.0-11.3-1.3","battery-v0.2","","""event"",""trial"",""time""
""fullscreenenter"",""1"",""2003""
""blur"",""4"",""18743""
""focus"",""4"",""18744""
""blur"",""4"",""19162""
""focus"",""4"",""19163""
","""event"",""trial"",""time""
""blur"",""4"",""18743""
""blur"",""4"",""19162""
","""event"",""trial"",""time""
""focus"",""4"",""18744""
""focus"",""4"",""19163""
","""event"",""trial"",""time""
""fullscreenenter"",""1"",""2003""
","
","","","-1","","","22","10167","4790","&#9761;","elianto","#3366ff99","-1","-1","1","+10","[]","0","0","2","","","","","","","",""
"pit-trial","54","515265","0.0-2.0-11.3-2.3","battery-v0.2","","""event"",""trial"",""time""
""fullscreenenter"",""1"",""2003""
""blur"",""4"",""18743""
""focus"",""4"",""18744""
""blur"",""4"",""19162""
""focus"",""4"",""19163""
","""event"",""trial"",""time""
""blur"",""4"",""18743""
""blur"",""4"",""19162""
","""event"",""trial"",""time""
""focus"",""4"",""18744""
""focus"",""4"",""19163""
","""event"",""trial"",""time""
""fullscreenenter"",""1"",""2003""
","
","","","-1","","","22","10167","4790","&#9761;","elianto","#3366ff99","-1","-1","1","+10","[]","0","0","2","","","","","","","",""
"pit-trial","55","520118","0.0-2.0-11.3-3.3","battery-v0.2","","""event"",""trial"",""time""
""fullscreenenter"",""1"",""2003""
""blur"",""4"",""18743""
""focus"",""4"",""18744""
""blur"",""4"",""19162""
""focus"",""4"",""19163""
","""event"",""trial"",""time""
""blur"",""4"",""18743""
""blur"",""4"",""19162""
","""event"",""trial"",""time""
""focus"",""4"",""18744""
""focus"",""4"",""19163""
","""event"",""trial"",""time""
""fullscreenenter"",""1"",""2003""
","
","","","-1","","","22","10167","4790","&#9761;","elianto","#3366ff99","-1","-1","1","0","[]","0","0","2","","","","","","","",""
"pit-trial","56","524971","0.0-2.0-11.3-4.3","battery-v0.2","","""event"",""trial"",""time""
""fullscreenenter"",""1"",""2003""
""blur"",""4"",""18743""
""focus"",""4"",""18744""
""blur"",""4"",""19162""
""focus"",""4"",""19163""
","""event"",""trial"",""time""
""blur"",""4"",""18743""
""blur"",""4"",""19162""
","""event"",""trial"",""time""
""focus"",""4"",""18744""
""focus"",""4"",""19163""
","""event"",""trial"",""time""
""fullscreenenter"",""1"",""2003""
","
","","","-1","","","22","10167","4790","&#9761;","elianto","#3366ff99","-1","-1","1","+10","[]","0","0","2","","","","","","","",""
"call-function","57","524972","0.0-2.0-12.0","battery-v0.2","","""event"",""trial"",""time""
""fullscreenenter"",""1"",""2003""
""blur"",""4"",""18743""
""focus"",""4"",""18744""
""blur"",""4"",""19162""
""focus"",""4"",""19163""
","""event"",""trial"",""time""
""blur"",""4"",""18743""
""blur"",""4"",""19162""
","""event"",""trial"",""time""
""focus"",""4"",""18744""
""focus"",""4"",""19163""
","""event"",""trial"",""time""
""fullscreenenter"",""1"",""2003""
","
","","","","","","","","","","","","","","","","","","","","","","","","","","",""
"pit-instructions","58","566266","0.0-2.0-13.0","battery-v0.2","","""event"",""trial"",""time""
""fullscreenenter"",""1"",""2003""
""blur"",""4"",""18743""
""focus"",""4"",""18744""
""blur"",""4"",""19162""
""focus"",""4"",""19163""
","""event"",""trial"",""time""
""blur"",""4"",""18743""
""blur"",""4"",""19162""
","""event"",""trial"",""time""
""focus"",""4"",""18744""
""focus"",""4"",""19163""
","""event"",""trial"",""time""
""fullscreenenter"",""1"",""2003""
","
","","[{""page_index"":0,""viewing_time"":9533},{""page_index"":1,""viewing_time"":9778.5},{""page_index"":2,""viewing_time"":3793.600000023842},{""page_index"":3,""viewing_time"":12284.399999976158},{""page_index"":4,""viewing_time"":5904.200000047684}]","41293.89999997616","","","","","","","","","","","","","","","","","","","","","","","",""
"pit-trial","59","569632","0.0-2.0-14.0-0.0","battery-v0.2","","""event"",""trial"",""time""
""fullscreenenter"",""1"",""2003""
""blur"",""4"",""18743""
""focus"",""4"",""18744""
""blur"",""4"",""19162""
""focus"",""4"",""19163""
","""event"",""trial"",""time""
""blur"",""4"",""18743""
""blur"",""4"",""19162""
","""event"",""trial"",""time""
""focus"",""4"",""18744""
""focus"",""4"",""19163""
","""event"",""trial"",""time""
""fullscreenenter"",""1"",""2003""
","
","","","498.39999997615814","","","22","10167","4790","&#9826;","elianto","#f73b6a7A","-1"," ","0","-10","[1356.1000000238419]","1","0","3","","","","","","","",""
"pit-trial","60","574497","0.0-2.0-14.0-1.0","battery-v0.2","","""event"",""trial"",""time""
""fullscreenenter"",""1"",""2003""
""blur"",""4"",""18743""
""focus"",""4"",""18744""
""blur"",""4"",""19162""
""focus"",""4"",""19163""
","""event"",""trial"",""time""
""blur"",""4"",""18743""
""blur"",""4"",""19162""
","""event"",""trial"",""time""
""focus"",""4"",""18744""
""focus"",""4"",""19163""
","""event"",""trial"",""time""
""fullscreenenter"",""1"",""2003""
","
","","","-1","","","22","10167","4790","&#9826;","elianto","#f73b6a7A","-1","-1","1","0","[]","0","0","3","","","","","","","",""
"pit-trial","61","579352","0.0-2.0-14.0-2.0","battery-v0.2","","""event"",""trial"",""time""
""fullscreenenter"",""1"",""2003""
""blur"",""4"",""18743""
""focus"",""4"",""18744""
""blur"",""4"",""19162""
""focus"",""4"",""19163""
","""event"",""trial"",""time""
""blur"",""4"",""18743""
""blur"",""4"",""19162""
","""event"",""trial"",""time""
""focus"",""4"",""18744""
""focus"",""4"",""19163""
","""event"",""trial"",""time""
""fullscreenenter"",""1"",""2003""
","
","","","-1","","","22","10167","4790","&#9826;","elianto","#f73b6a7A","-1","-1","1","0","[]","0","0","3","","","","","","","",""
"pit-trial","62","584219","0.0-2.0-14.0-3.0","battery-v0.2","","""event"",""trial"",""time""
""fullscreenenter"",""1"",""2003""
""blur"",""4"",""18743""
""focus"",""4"",""18744""
""blur"",""4"",""19162""
""focus"",""4"",""19163""
","""event"",""trial"",""time""
""blur"",""4"",""18743""
""blur"",""4"",""19162""
","""event"",""trial"",""time""
""focus"",""4"",""18744""
""focus"",""4"",""19163""
","""event"",""trial"",""time""
""fullscreenenter"",""1"",""2003""
","
","","","-1","","","22","10167","4790","&#9826;","elianto","#f73b6a7A","-1","-1","1","-10","[]","0","0","3","","","","","","","",""
"pit-trial","63","589091","0.0-2.0-14.0-4.0","battery-v0.2","","""event"",""trial"",""time""
""fullscreenenter"",""1"",""2003""
""blur"",""4"",""18743""
""focus"",""4"",""18744""
""blur"",""4"",""19162""
""focus"",""4"",""19163""
","""event"",""trial"",""time""
""blur"",""4"",""18743""
""blur"",""4"",""19162""
","""event"",""trial"",""time""
""focus"",""4"",""18744""
""focus"",""4"",""19163""
","""event"",""trial"",""time""
""fullscreenenter"",""1"",""2003""
","
","","","-1","","","22","10167","4790","&#9826;","elianto","#f73b6a7A","-1","-1","1","0","[]","0","0","3","","","","","","","",""
"pit-trial","64","593957","0.0-2.0-14.1-0.1","battery-v0.2","","""event"",""trial"",""time""
""fullscreenenter"",""1"",""2003""
""blur"",""4"",""18743""
""focus"",""4"",""18744""
""blur"",""4"",""19162""
""focus"",""4"",""19163""
","""event"",""trial"",""time""
""blur"",""4"",""18743""
""blur"",""4"",""19162""
","""event"",""trial"",""time""
""focus"",""4"",""18744""
""focus"",""4"",""19163""
","""event"",""trial"",""time""
""fullscreenenter"",""1"",""2003""
","
","","","-1","","","22","10167","4790","&#9826;","elianto","#f73b6a7A","-1","-1","1","0","[]","0","0","3","","","","","","","",""
"pit-trial","65","598809","0.0-2.0-14.1-1.1","battery-v0.2","","""event"",""trial"",""time""
""fullscreenenter"",""1"",""2003""
""blur"",""4"",""18743""
""focus"",""4"",""18744""
""blur"",""4"",""19162""
""focus"",""4"",""19163""
","""event"",""trial"",""time""
""blur"",""4"",""18743""
""blur"",""4"",""19162""
","""event"",""trial"",""time""
""focus"",""4"",""18744""
""focus"",""4"",""19163""
","""event"",""trial"",""time""
""fullscreenenter"",""1"",""2003""
","
","","","-1","","","22","10167","4790","&#9826;","elianto","#f73b6a7A","-1","-1","1","0","[]","0","0","3","","","","","","","",""
"pit-trial","66","603662","0.0-2.0-14.1-2.1","battery-v0.2","","""event"",""trial"",""time""
""fullscreenenter"",""1"",""2003""
""blur"",""4"",""18743""
""focus"",""4"",""18744""
""blur"",""4"",""19162""
""focus"",""4"",""19163""
","""event"",""trial"",""time""
""blur"",""4"",""18743""
""blur"",""4"",""19162""
","""event"",""trial"",""time""
""focus"",""4"",""18744""
""focus"",""4"",""19163""
","""event"",""trial"",""time""
""fullscreenenter"",""1"",""2003""
","
","","","-1","","","22","10167","4790","&#9826;","elianto","#f73b6a7A","-1","-1","1","0","[]","0","0","3","","","","","","","",""
"pit-trial","67","608514","0.0-2.0-14.1-3.1","battery-v0.2","","""event"",""trial"",""time""
""fullscreenenter"",""1"",""2003""
""blur"",""4"",""18743""
""focus"",""4"",""18744""
""blur"",""4"",""19162""
""focus"",""4"",""19163""
","""event"",""trial"",""time""
""blur"",""4"",""18743""
""blur"",""4"",""19162""
","""event"",""trial"",""time""
""focus"",""4"",""18744""
""focus"",""4"",""19163""
","""event"",""trial"",""time""
""fullscreenenter"",""1"",""2003""
","
","","","-1","","","22","10167","4790","&#9826;","elianto","#f73b6a7A","-1","-1","1","-10","[]","0","0","3","","","","","","","",""
"pit-trial","68","613367","0.0-2.0-14.1-4.1","battery-v0.2","","""event"",""trial"",""time""
""fullscreenenter"",""1"",""2003""
""blur"",""4"",""18743""
""focus"",""4"",""18744""
""blur"",""4"",""19162""
""focus"",""4"",""19163""
","""event"",""trial"",""time""
""blur"",""4"",""18743""
""blur"",""4"",""19162""
","""event"",""trial"",""time""
""focus"",""4"",""18744""
""focus"",""4"",""19163""
","""event"",""trial"",""time""
""fullscreenenter"",""1"",""2003""
","
","","","-1","","","22","10167","4790","&#9826;","elianto","#f73b6a7A","-1","-1","1","0","[]","0","0","3","","","","","","","",""
"pit-trial","69","618221","0.0-2.0-14.2-0.2","battery-v0.2","","""event"",""trial"",""time""
""fullscreenenter"",""1"",""2003""
""blur"",""4"",""18743""
""focus"",""4"",""18744""
""blur"",""4"",""19162""
""focus"",""4"",""19163""
","""event"",""trial"",""time""
""blur"",""4"",""18743""
""blur"",""4"",""19162""
","""event"",""trial"",""time""
""focus"",""4"",""18744""
""focus"",""4"",""19163""
","""event"",""trial"",""time""
""fullscreenenter"",""1"",""2003""
","
","","","-1","","","22","10167","4790","&#9826;","elianto","#f73b6a7A","-1","-1","1","0","[]","0","0","3","","","","","","","",""
"pit-trial","70","623077","0.0-2.0-14.2-1.2","battery-v0.2","","""event"",""trial"",""time""
""fullscreenenter"",""1"",""2003""
""blur"",""4"",""18743""
""focus"",""4"",""18744""
""blur"",""4"",""19162""
""focus"",""4"",""19163""
","""event"",""trial"",""time""
""blur"",""4"",""18743""
""blur"",""4"",""19162""
","""event"",""trial"",""time""
""focus"",""4"",""18744""
""focus"",""4"",""19163""
","""event"",""trial"",""time""
""fullscreenenter"",""1"",""2003""
","
","","","-1","","","22","10167","4790","&#9826;","elianto","#f73b6a7A","-1","-1","1","0","[]","0","0","3","","","","","","","",""
"pit-trial","71","627945","0.0-2.0-14.2-2.2","battery-v0.2","","""event"",""trial"",""time""
""fullscreenenter"",""1"",""2003""
""blur"",""4"",""18743""
""focus"",""4"",""18744""
""blur"",""4"",""19162""
""focus"",""4"",""19163""
","""event"",""trial"",""time""
""blur"",""4"",""18743""
""blur"",""4"",""19162""
","""event"",""trial"",""time""
""focus"",""4"",""18744""
""focus"",""4"",""19163""
","""event"",""trial"",""time""
""fullscreenenter"",""1"",""2003""
","
","","","-1","","","22","10167","4790","&#9826;","elianto","#f73b6a7A","-1","-1","1","0","[]","0","0","3","","","","","","","",""
"pit-trial","72","632798","0.0-2.0-14.2-3.2","battery-v0.2","","""event"",""trial"",""time""
""fullscreenenter"",""1"",""2003""
""blur"",""4"",""18743""
""focus"",""4"",""18744""
""blur"",""4"",""19162""
""focus"",""4"",""19163""
","""event"",""trial"",""time""
""blur"",""4"",""18743""
""blur"",""4"",""19162""
","""event"",""trial"",""time""
""focus"",""4"",""18744""
""focus"",""4"",""19163""
","""event"",""trial"",""time""
""fullscreenenter"",""1"",""2003""
","
","","","-1","","","22","10167","4790","&#9826;","elianto","#f73b6a7A","-1","-1","1","-10","[]","0","0","3","","","","","","","",""
"pit-trial","73","637651","0.0-2.0-14.2-4.2","battery-v0.2","","""event"",""trial"",""time""
""fullscreenenter"",""1"",""2003""
""blur"",""4"",""18743""
""focus"",""4"",""18744""
""blur"",""4"",""19162""
""focus"",""4"",""19163""
","""event"",""trial"",""time""
""blur"",""4"",""18743""
""blur"",""4"",""19162""
","""event"",""trial"",""time""
""focus"",""4"",""18744""
""focus"",""4"",""19163""
","""event"",""trial"",""time""
""fullscreenenter"",""1"",""2003""
","
","","","-1","","","22","10167","4790","&#9826;","elianto","#f73b6a7A","-1","-1","1","0","[]","0","0","3","","","","","","","",""
"pit-trial","74","642504","0.0-2.0-14.3-0.3","battery-v0.2","","""event"",""trial"",""time""
""fullscreenenter"",""1"",""2003""
""blur"",""4"",""18743""
""focus"",""4"",""18744""
""blur"",""4"",""19162""
""focus"",""4"",""19163""
","""event"",""trial"",""time""
""blur"",""4"",""18743""
""blur"",""4"",""19162""
","""event"",""trial"",""time""
""focus"",""4"",""18744""
""focus"",""4"",""19163""
","""event"",""trial"",""time""
""fullscreenenter"",""1"",""2003""
","
","","","-1","","","22","10167","4790","&#9826;","elianto","#f73b6a7A","-1","-1","1","0","[]","0","0","3","","","","","","","",""
"pit-trial","75","647359","0.0-2.0-14.3-1.3","battery-v0.2","","""event"",""trial"",""time""
""fullscreenenter"",""1"",""2003""
""blur"",""4"",""18743""
""focus"",""4"",""18744""
""blur"",""4"",""19162""
""focus"",""4"",""19163""
","""event"",""trial"",""time""
""blur"",""4"",""18743""
""blur"",""4"",""19162""
","""event"",""trial"",""time""
""focus"",""4"",""18744""
""focus"",""4"",""19163""
","""event"",""trial"",""time""
""fullscreenenter"",""1"",""2003""
","
","","","-1","","","22","10167","4790","&#9826;","elianto","#f73b6a7A","-1","-1","1","0","[]","0","0","3","","","","","","","",""
"pit-trial","76","652212","0.0-2.0-14.3-2.3","battery-v0.2","","""event"",""trial"",""time""
""fullscreenenter"",""1"",""2003""
""blur"",""4"",""18743""
""focus"",""4"",""18744""
""blur"",""4"",""19162""
""focus"",""4"",""19163""
","""event"",""trial"",""time""
""blur"",""4"",""18743""
""blur"",""4"",""19162""
","""event"",""trial"",""time""
""focus"",""4"",""18744""
""focus"",""4"",""19163""
","""event"",""trial"",""time""
""fullscreenenter"",""1"",""2003""
","
","","","-1","","","22","10167","4790","&#9826;","elianto","#f73b6a7A","-1","-1","1","0","[]","0","0","3","","","","","","","",""
"pit-trial","77","657065","0.0-2.0-14.3-3.3","battery-v0.2","","""event"",""trial"",""time""
""fullscreenenter"",""1"",""2003""
""blur"",""4"",""18743""
""focus"",""4"",""18744""
""blur"",""4"",""19162""
""focus"",""4"",""19163""
","""event"",""trial"",""time""
""blur"",""4"",""18743""
""blur"",""4"",""19162""
","""event"",""trial"",""time""
""focus"",""4"",""18744""
""focus"",""4"",""19163""
","""event"",""trial"",""time""
""fullscreenenter"",""1"",""2003""
","
","","","-1","","","22","10167","4790","&#9826;","elianto","#f73b6a7A","-1","-1","1","-10","[]","0","0","3","","","","","","","",""
"pit-trial","78","661918","0.0-2.0-14.3-4.3","battery-v0.2","","""event"",""trial"",""time""
""fullscreenenter"",""1"",""2003""
""blur"",""4"",""18743""
""focus"",""4"",""18744""
""blur"",""4"",""19162""
""focus"",""4"",""19163""
","""event"",""trial"",""time""
""blur"",""4"",""18743""
""blur"",""4"",""19162""
","""event"",""trial"",""time""
""focus"",""4"",""18744""
""focus"",""4"",""19163""
","""event"",""trial"",""time""
""fullscreenenter"",""1"",""2003""
","
","","","-1","","","22","10167","4790","&#9826;","elianto","#f73b6a7A","-1","-1","1","0","[]","0","0","3","","","","","","","",""
"call-function","79","661919","0.0-2.0-15.0","battery-v0.2","","""event"",""trial"",""time""
""fullscreenenter"",""1"",""2003""
""blur"",""4"",""18743""
""focus"",""4"",""18744""
""blur"",""4"",""19162""
""focus"",""4"",""19163""
","""event"",""trial"",""time""
""blur"",""4"",""18743""
""blur"",""4"",""19162""
","""event"",""trial"",""time""
""focus"",""4"",""18744""
""focus"",""4"",""19163""
","""event"",""trial"",""time""
""fullscreenenter"",""1"",""2003""
","
","","","","","","","","","","","","","","","","","","","","","","","","","","",""
"pit-instructions","80","691821","0.0-2.0-16.0","battery-v0.2","","""event"",""trial"",""time""
""fullscreenenter"",""1"",""2003""
""blur"",""4"",""18743""
""focus"",""4"",""18744""
""blur"",""4"",""19162""
""focus"",""4"",""19163""
","""event"",""trial"",""time""
""blur"",""4"",""18743""
""blur"",""4"",""19162""
","""event"",""trial"",""time""
""focus"",""4"",""18744""
""focus"",""4"",""19163""
","""event"",""trial"",""time""
""fullscreenenter"",""1"",""2003""
","
","","[{""page_index"":0,""viewing_time"":7179.700000047684},{""page_index"":1,""viewing_time"":9970.699999928474},{""page_index"":2,""viewing_time"":7508.400000095367},{""page_index"":3,""viewing_time"":5242.699999928474}]","29901.700000047684","","","","","","","","","","","","","","","","","","","","","","","",""
"pit-trial","81","695105","0.0-2.0-17.0-0.0","battery-v0.2","","""event"",""trial"",""time""
""fullscreenenter"",""1"",""2003""
""blur"",""4"",""18743""
""focus"",""4"",""18744""
""blur"",""4"",""19162""
""focus"",""4"",""19163""
","""event"",""trial"",""time""
""blur"",""4"",""18743""
""blur"",""4"",""19162""
","""event"",""trial"",""time""
""focus"",""4"",""18744""
""focus"",""4"",""19163""
","""event"",""trial"",""time""
""fullscreenenter"",""1"",""2003""
","
","","","425.8000000715256","","","22","10167","4790","&#9789;","elianto","#f73b6a7A"," "," ","1","0","[1276.8999999761581]","1","0","4","","","","","","","",""
"pit-trial","82","698382","0.0-2.0-17.0-1.0","battery-v0.2","","""event"",""trial"",""time""
""fullscreenenter"",""1"",""2003""
""blur"",""4"",""18743""
""focus"",""4"",""18744""
""blur"",""4"",""19162""
""focus"",""4"",""19163""
","""event"",""trial"",""time""
""blur"",""4"",""18743""
""blur"",""4"",""19162""
","""event"",""trial"",""time""
""focus"",""4"",""18744""
""focus"",""4"",""19163""
","""event"",""trial"",""time""
""fullscreenenter"",""1"",""2003""
","
","","","422.1999999284744","","","22","10167","4790","&#9789;","elianto","#f73b6a7A"," "," ","1","0","[1272.5999999046326]","1","0","4","","","","","","","",""
"pit-trial","83","701356","0.0-2.0-17.0-2.0","battery-v0.2","","""event"",""trial"",""time""
""fullscreenenter"",""1"",""2003""
""blur"",""4"",""18743""
""focus"",""4"",""18744""
""blur"",""4"",""19162""
""focus"",""4"",""19163""
","""event"",""trial"",""time""
""blur"",""4"",""18743""
""blur"",""4"",""19162""
","""event"",""trial"",""time""
""focus"",""4"",""18744""
""focus"",""4"",""19163""
","""event"",""trial"",""time""
""fullscreenenter"",""1"",""2003""
","
","","","108.09999990463257","","","22","10167","4790","&#9789;","elianto","#f73b6a7A"," "," ","1","0","[964.0999999046326]","1","0","4","","","","","","","",""
"pit-trial","84","705104","0.0-2.0-17.0-3.0","battery-v0.2","","""event"",""trial"",""time""
""fullscreenenter"",""1"",""2003""
""blur"",""4"",""18743""
""focus"",""4"",""18744""
""blur"",""4"",""19162""
""focus"",""4"",""19163""
","""event"",""trial"",""time""
""blur"",""4"",""18743""
""blur"",""4"",""19162""
","""event"",""trial"",""time""
""focus"",""4"",""18744""
""focus"",""4"",""19163""
","""event"",""trial"",""time""
""fullscreenenter"",""1"",""2003""
","
","","","873.1999999284744","","","22","10167","4790","&#9789;","elianto","#f73b6a7A"," "," ","1","-10","[1730.6999999284744]","1","0","4","","","","","","","",""
"pit-trial","85","708724","0.0-2.0-17.0-4.0","battery-v0.2","","""event"",""trial"",""time""
""fullscreenenter"",""1"",""2003""
""blur"",""4"",""18743""
""focus"",""4"",""18744""
""blur"",""4"",""19162""
""focus"",""4"",""19163""
","""event"",""trial"",""time""
""blur"",""4"",""18743""
""blur"",""4"",""19162""
","""event"",""trial"",""time""
""focus"",""4"",""18744""
""focus"",""4"",""19163""
","""event"",""trial"",""time""
""fullscreenenter"",""1"",""2003""
","
","","","761.8999999761581","","","22","10167","4790","&#9789;","elianto","#f73b6a7A"," "," ","1","0","[1613.5]","1","0","4","","","","","","","",""
"pit-trial","86","712210","0.0-2.0-17.1-0.1","battery-v0.2","","""event"",""trial"",""time""
""fullscreenenter"",""1"",""2003""
""blur"",""4"",""18743""
""focus"",""4"",""18744""
""blur"",""4"",""19162""
""focus"",""4"",""19163""
","""event"",""trial"",""time""
""blur"",""4"",""18743""
""blur"",""4"",""19162""
","""event"",""trial"",""time""
""focus"",""4"",""18744""
""focus"",""4"",""19163""
","""event"",""trial"",""time""
""fullscreenenter"",""1"",""2003""
","
","","","610.0999999046326","","","22","10167","4790","&#9789;","elianto","#f73b6a7A"," "," ","1","0","[1474]","1","0","4","","","","","","","",""
"pit-trial","87","715678","0.0-2.0-17.1-1.1","battery-v0.2","","""event"",""trial"",""time""
""fullscreenenter"",""1"",""2003""
""blur"",""4"",""18743""
""focus"",""4"",""18744""
""blur"",""4"",""19162""
""focus"",""4"",""19163""
","""event"",""trial"",""time""
""blur"",""4"",""18743""
""blur"",""4"",""19162""
","""event"",""trial"",""time""
""focus"",""4"",""18744""
""focus"",""4"",""19163""
","""event"",""trial"",""time""
""fullscreenenter"",""1"",""2003""
","
","","","601.2999999523163","","","22","10167","4790","&#9789;","elianto","#f73b6a7A"," "," ","1","0","[1462.3999999761581]","1","0","4","","","","","","","",""
"pit-trial","88","719020","0.0-2.0-17.1-2.1","battery-v0.2","","""event"",""trial"",""time""
""fullscreenenter"",""1"",""2003""
""blur"",""4"",""18743""
""focus"",""4"",""18744""
""blur"",""4"",""19162""
""focus"",""4"",""19163""
","""event"",""trial"",""time""
""blur"",""4"",""18743""
""blur"",""4"",""19162""
","""event"",""trial"",""time""
""focus"",""4"",""18744""
""focus"",""4"",""19163""
","""event"",""trial"",""time""
""fullscreenenter"",""1"",""2003""
","
","","","473.7999999523163","","","22","10167","4790","&#9789;","elianto","#f73b6a7A"," "," ","1","0","[1332.6999999284744]","1","0","4","","","","","","","",""
"pit-trial","89","722505","0.0-2.0-17.1-3.1","battery-v0.2","","""event"",""trial"",""time""
""fullscreenenter"",""1"",""2003""
""blur"",""4"",""18743""
""focus"",""4"",""18744""
""blur"",""4"",""19162""
""focus"",""4"",""19163""
","""event"",""trial"",""time""
""blur"",""4"",""18743""
""blur"",""4"",""19162""
","""event"",""trial"",""time""
""focus"",""4"",""18744""
""focus"",""4"",""19163""
","""event"",""trial"",""time""
""fullscreenenter"",""1"",""2003""
","
","","","631.8999999761581","","","22","10167","4790","&#9789;","elianto","#f73b6a7A"," "," ","1","-10","[1482.7000000476837]","1","0","4","","","","","","","",""
"pit-trial","90","726157","0.0-2.0-17.1-4.1","battery-v0.2","","""event"",""trial"",""time""
""fullscreenenter"",""1"",""2003""
""blur"",""4"",""18743""
""focus"",""4"",""18744""
""blur"",""4"",""19162""
""focus"",""4"",""19163""
","""event"",""trial"",""time""
""blur"",""4"",""18743""
""blur"",""4"",""19162""
","""event"",""trial"",""time""
""focus"",""4"",""18744""
""focus"",""4"",""19163""
","""event"",""trial"",""time""
""fullscreenenter"",""1"",""2003""
","
","","","799.3000000715256","","","22","10167","4790","&#9789;","elianto","#f73b6a7A"," "," ","1","0","[1649.8999999761581]","1","0","4","","","","","","","",""
"pit-trial","91","729840","0.0-2.0-17.2-0.2","battery-v0.2","","""event"",""trial"",""time""
""fullscreenenter"",""1"",""2003""
""blur"",""4"",""18743""
""focus"",""4"",""18744""
""blur"",""4"",""19162""
""focus"",""4"",""19163""
","""event"",""trial"",""time""
""blur"",""4"",""18743""
""blur"",""4"",""19162""
","""event"",""trial"",""time""
""focus"",""4"",""18744""
""focus"",""4"",""19163""
","""event"",""trial"",""time""
""fullscreenenter"",""1"",""2003""
","
","","","829.5","","","22","10167","4790","&#9789;","elianto","#f73b6a7A"," "," ","1","0","[1681.1000000238419]","1","0","4","","","","","","","",""
"pit-trial","92","733435","0.0-2.0-17.2-1.2","battery-v0.2","","""event"",""trial"",""time""
""fullscreenenter"",""1"",""2003""
""blur"",""4"",""18743""
""focus"",""4"",""18744""
""blur"",""4"",""19162""
""focus"",""4"",""19163""
","""event"",""trial"",""time""
""blur"",""4"",""18743""
""blur"",""4"",""19162""
","""event"",""trial"",""time""
""focus"",""4"",""18744""
""focus"",""4"",""19163""
","""event"",""trial"",""time""
""fullscreenenter"",""1"",""2003""
","
","","","741.8999999761581","","","22","10167","4790","&#9789;","elianto","#f73b6a7A"," "," ","1","0","[1592.3999999761581]","1","0","4","","","","","","","",""
"pit-trial","93","736946","0.0-2.0-17.2-2.2","battery-v0.2","","""event"",""trial"",""time""
""fullscreenenter"",""1"",""2003""
""blur"",""4"",""18743""
""focus"",""4"",""18744""
""blur"",""4"",""19162""
""focus"",""4"",""19163""
","""event"",""trial"",""time""
""blur"",""4"",""18743""
""blur"",""4"",""19162""
","""event"",""trial"",""time""
""focus"",""4"",""18744""
""focus"",""4"",""19163""
","""event"",""trial"",""time""
""fullscreenenter"",""1"",""2003""
","
","","","657.8000000715256","","","22","10167","4790","&#9789;","elianto","#f73b6a7A"," "," ","1","0","[1508.6000000238419]","1","0","4","","","","","","","",""
"pit-trial","94","740395","0.0-2.0-17.2-3.2","battery-v0.2","","""event"",""trial"",""time""
""fullscreenenter"",""1"",""2003""
""blur"",""4"",""18743""
""focus"",""4"",""18744""
""blur"",""4"",""19162""
""focus"",""4"",""19163""
","""event"",""trial"",""time""
""blur"",""4"",""18743""
""blur"",""4"",""19162""
","""event"",""trial"",""time""
""focus"",""4"",""18744""
""focus"",""4"",""19163""
","""event"",""trial"",""time""
""fullscreenenter"",""1"",""2003""
","
","","","596","","","22","10167","4790","&#9789;","elianto","#f73b6a7A"," "," ","1","-10","[1447.3999999761581]","1","0","4","","","","","","","",""
"pit-trial","95","743858","0.0-2.0-17.2-4.2","battery-v0.2","","""event"",""trial"",""time""
""fullscreenenter"",""1"",""2003""
""blur"",""4"",""18743""
""focus"",""4"",""18744""
""blur"",""4"",""19162""
""focus"",""4"",""19163""
","""event"",""trial"",""time""
""blur"",""4"",""18743""
""blur"",""4"",""19162""
","""event"",""trial"",""time""
""focus"",""4"",""18744""
""focus"",""4"",""19163""
","""event"",""trial"",""time""
""fullscreenenter"",""1"",""2003""
","
","","","610.5","","","22","10167","4790","&#9789;","elianto","#f73b6a7A"," "," ","1","0","[1460.7000000476837]","1","0","4","","","","","","","",""
"pit-trial","96","747421","0.0-2.0-17.3-0.3","battery-v0.2","","""event"",""trial"",""time""
""fullscreenenter"",""1"",""2003""
""blur"",""4"",""18743""
""focus"",""4"",""18744""
""blur"",""4"",""19162""
""focus"",""4"",""19163""
","""event"",""trial"",""time""
""blur"",""4"",""18743""
""blur"",""4"",""19162""
","""event"",""trial"",""time""
""focus"",""4"",""18744""
""focus"",""4"",""19163""
","""event"",""trial"",""time""
""fullscreenenter"",""1"",""2003""
","
","","","710.6999999284744","","","22","10167","4790","&#9789;","elianto","#f73b6a7A"," "," ","1","0","[1561.1999999284744,2442]","2","0","4","","","","","","","",""
"pit-trial","97","750418","0.0-2.0-17.3-1.3","battery-v0.2","","""event"",""trial"",""time""
""fullscreenenter"",""1"",""2003""
""blur"",""4"",""18743""
""focus"",""4"",""18744""
""blur"",""4"",""19162""
""focus"",""4"",""19163""
","""event"",""trial"",""time""
""blur"",""4"",""18743""
""blur"",""4"",""19162""
","""event"",""trial"",""time""
""focus"",""4"",""18744""
""focus"",""4"",""19163""
","""event"",""trial"",""time""
""fullscreenenter"",""1"",""2003""
","
","","","144.80000007152557","","","22","10167","4790","&#9789;","elianto","#f73b6a7A"," "," ","1","0","[213.40000009536743,994.8000000715256,1626.5]","3","0","4","","","","","","","",""
"pit-trial","98","753602","0.0-2.0-17.3-2.3","battery-v0.2","","""event"",""trial"",""time""
""fullscreenenter"",""1"",""2003""
""blur"",""4"",""18743""
""focus"",""4"",""18744""
""blur"",""4"",""19162""
""focus"",""4"",""19163""
","""event"",""trial"",""time""
""blur"",""4"",""18743""
""blur"",""4"",""19162""
","""event"",""trial"",""time""
""focus"",""4"",""18744""
""focus"",""4"",""19163""
","""event"",""trial"",""time""
""fullscreenenter"",""1"",""2003""
","
","","","331.7999999523163","","","22","10167","4790","&#9789;","elianto","#f73b6a7A"," "," ","1","0","[1182.7999999523163,1521.8999999761581]","2","0","4","","","","","","","",""
"pit-trial","99","756882","0.0-2.0-17.3-3.3","battery-v0.2","","""event"",""trial"",""time""
""fullscreenenter"",""1"",""2003""
""blur"",""4"",""18743""
""focus"",""4"",""18744""
""blur"",""4"",""19162""
""focus"",""4"",""19163""
","""event"",""trial"",""time""
""blur"",""4"",""18743""
""blur"",""4"",""19162""
","""event"",""trial"",""time""
""focus"",""4"",""18744""
""focus"",""4"",""19163""
","""event"",""trial"",""time""
""fullscreenenter"",""1"",""2003""
","
","","","427.8000000715256","","","22","10167","4790","&#9789;","elianto","#f73b6a7A"," "," ","1","-10","[1278.2000000476837,1821]","2","0","4","","","","","","","",""
"pit-trial","100","760269","0.0-2.0-17.3-4.3","battery-v0.2","","""event"",""trial"",""time""
""fullscreenenter"",""1"",""2003""
""blur"",""4"",""18743""
""focus"",""4"",""18744""
""blur"",""4"",""19162""
""focus"",""4"",""19163""
","""event"",""trial"",""time""
""blur"",""4"",""18743""
""blur"",""4"",""19162""
","""event"",""trial"",""time""
""focus"",""4"",""18744""
""focus"",""4"",""19163""
","""event"",""trial"",""time""
""fullscreenenter"",""1"",""2003""
","
","","","533.6999999284744","","","22","10167","4790","&#9789;","elianto","#f73b6a7A"," "," ","1","0","[1384.7999999523163]","1","0","4","","","","","","","",""
"call-function","101","760270","0.0-2.0-18.0","battery-v0.2","","""event"",""trial"",""time""
""fullscreenenter"",""1"",""2003""
""blur"",""4"",""18743""
""focus"",""4"",""18744""
""blur"",""4"",""19162""
""focus"",""4"",""19163""
","""event"",""trial"",""time""
""blur"",""4"",""18743""
""blur"",""4"",""19162""
","""event"",""trial"",""time""
""focus"",""4"",""18744""
""focus"",""4"",""19163""
","""event"",""trial"",""time""
""fullscreenenter"",""1"",""2003""
","
","","","","","","","","","","","","","","","","","","","","","","","","","","",""
"pit-instructions","102","838589","0.0-2.0-19.0","battery-v0.2","","""event"",""trial"",""time""
""fullscreenenter"",""1"",""2003""
""blur"",""4"",""18743""
""focus"",""4"",""18744""
""blur"",""4"",""19162""
""focus"",""4"",""19163""
","""event"",""trial"",""time""
""blur"",""4"",""18743""
""blur"",""4"",""19162""
","""event"",""trial"",""time""
""focus"",""4"",""18744""
""focus"",""4"",""19163""
","""event"",""trial"",""time""
""fullscreenenter"",""1"",""2003""
","
","","[{""page_index"":0,""viewing_time"":9715.399999976158},{""page_index"":1,""viewing_time"":8953},{""page_index"":2,""viewing_time"":12342.5},{""page_index"":3,""viewing_time"":5720.700000047684},{""page_index"":4,""viewing_time"":10299.5},{""page_index"":5,""viewing_time"":15975.799999952316},{""page_index"":6,""viewing_time"":4251.700000047684},{""page_index"":7,""viewing_time"":6094.5},{""page_index"":8,""viewing_time"":4965.200000047684}]","78318.5","","","","","","","","","","","","","","","","","","","","","","","",""
"pit-comprehension","103","843099","0.0-2.0-20.0-0.0","battery-v0.2","","""event"",""trial"",""time""
""fullscreenenter"",""1"",""2003""
""blur"",""4"",""18743""
""focus"",""4"",""18744""
""blur"",""4"",""19162""
""focus"",""4"",""19163""
","""event"",""trial"",""time""
""blur"",""4"",""18743""
""blur"",""4"",""19162""
","""event"",""trial"",""time""
""focus"",""4"",""18744""
""focus"",""4"",""19163""
","""event"",""trial"",""time""
""fullscreenenter"",""1"",""2003""
","
","","","4508.399999976158","[""SPACE""]","0","22","10167","4790","","","","","","","","","","","","","","","","","","",""
"pit-instructions","104","847924","0.0-2.0-20.0-1.0","battery-v0.2","","""event"",""trial"",""time""
""fullscreenenter"",""1"",""2003""
""blur"",""4"",""18743""
""focus"",""4"",""18744""
""blur"",""4"",""19162""
""focus"",""4"",""19163""
","""event"",""trial"",""time""
""blur"",""4"",""18743""
""blur"",""4"",""19162""
","""event"",""trial"",""time""
""focus"",""4"",""18744""
""focus"",""4"",""19163""
","""event"",""trial"",""time""
""fullscreenenter"",""1"",""2003""
","
","","[{""page_index"":0,""viewing_time"":4789.299999952316}]","4789.399999976158","","","","","","","","","","","","","","","","","","","","","","","",""
"pit-comprehension","105","853731","0.0-2.0-21.0-0.0","battery-v0.2","","""event"",""trial"",""time""
""fullscreenenter"",""1"",""2003""
""blur"",""4"",""18743""
""focus"",""4"",""18744""
""blur"",""4"",""19162""
""focus"",""4"",""19163""
","""event"",""trial"",""time""
""blur"",""4"",""18743""
""blur"",""4"",""19162""
","""event"",""trial"",""time""
""focus"",""4"",""18744""
""focus"",""4"",""19163""
","""event"",""trial"",""time""
""fullscreenenter"",""1"",""2003""
","
","","","5805.399999976158","[""10""]","0","22","10167","4790","","","","","","","","","","","","","","","","","","",""
"pit-instructions","106","856655","0.0-2.0-21.0-1.0","battery-v0.2","","""event"",""trial"",""time""
""fullscreenenter"",""1"",""2003""
""blur"",""4"",""18743""
""focus"",""4"",""18744""
""blur"",""4"",""19162""
""focus"",""4"",""19163""
","""event"",""trial"",""time""
""blur"",""4"",""18743""
""blur"",""4"",""19162""
","""event"",""trial"",""time""
""focus"",""4"",""18744""
""focus"",""4"",""19163""
","""event"",""trial"",""time""
""fullscreenenter"",""1"",""2003""
","
","","[{""page_index"":0,""viewing_time"":2894.100000023842}]","2894.2000000476837","","","","","","","","","","","","","","","","","","","","","","","",""
"pit-comprehension","107","863185","0.0-2.0-22.0-0.0","battery-v0.2","","""event"",""trial"",""time""
""fullscreenenter"",""1"",""2003""
""blur"",""4"",""18743""
""focus"",""4"",""18744""
""blur"",""4"",""19162""
""focus"",""4"",""19163""
","""event"",""trial"",""time""
""blur"",""4"",""18743""
""blur"",""4"",""19162""
","""event"",""trial"",""time""
""focus"",""4"",""18744""
""focus"",""4"",""19163""
","""event"",""trial"",""time""
""fullscreenenter"",""1"",""2003""
","
","","","6528.5","[""0""]","0","22","10167","4790","","","","","","","","","","","","","","","","","","",""
"pit-instructions","108","865191","0.0-2.0-22.0-1.0","battery-v0.2","","""event"",""trial"",""time""
""fullscreenenter"",""1"",""2003""
""blur"",""4"",""18743""
""focus"",""4"",""18744""
""blur"",""4"",""19162""
""focus"",""4"",""19163""
","""event"",""trial"",""time""
""blur"",""4"",""18743""
""blur"",""4"",""19162""
","""event"",""trial"",""time""
""focus"",""4"",""18744""
""focus"",""4"",""19163""
","""event"",""trial"",""time""
""fullscreenenter"",""1"",""2003""
","
","","[{""page_index"":0,""viewing_time"":1973.3000000715256}]","1973.3999999761581","","","","","","","","","","","","","","","","","","","","","","","",""
"pit-comprehension","109","873685","0.0-2.0-23.0-0.0","battery-v0.2","","""event"",""trial"",""time""
""fullscreenenter"",""1"",""2003""
""blur"",""4"",""18743""
""focus"",""4"",""18744""
""blur"",""4"",""19162""
""focus"",""4"",""19163""
","""event"",""trial"",""time""
""blur"",""4"",""18743""
""blur"",""4"",""19162""
","""event"",""trial"",""time""
""focus"",""4"",""18744""
""focus"",""4"",""19163""
","""event"",""trial"",""time""
""fullscreenenter"",""1"",""2003""
","
","","","8491.899999976158","[""True""]","0","22","10167","4790","","","","","","","","","","","","","","","","","","",""
"pit-instructions","110","876413","0.0-2.0-23.0-1.0","battery-v0.2","","""event"",""trial"",""time""
""fullscreenenter"",""1"",""2003""
""blur"",""4"",""18743""
""focus"",""4"",""18744""
""blur"",""4"",""19162""
""focus"",""4"",""19163""
","""event"",""trial"",""time""
""blur"",""4"",""18743""
""blur"",""4"",""19162""
","""event"",""trial"",""time""
""focus"",""4"",""18744""
""focus"",""4"",""19163""
","""event"",""trial"",""time""
""fullscreenenter"",""1"",""2003""
","
","","[{""page_index"":0,""viewing_time"":2695.100000023842}]","2695.3000000715256","","","","","","","","","","","","","","","","","","","","","","","",""
"pit-comprehension","111","883833","0.0-2.0-24.0-0.0","battery-v0.2","","""event"",""trial"",""time""
""fullscreenenter"",""1"",""2003""
""blur"",""4"",""18743""
""focus"",""4"",""18744""
""blur"",""4"",""19162""
""focus"",""4"",""19163""
","""event"",""trial"",""time""
""blur"",""4"",""18743""
""blur"",""4"",""19162""
","""event"",""trial"",""time""
""focus"",""4"",""18744""
""focus"",""4"",""19163""
","""event"",""trial"",""time""
""fullscreenenter"",""1"",""2003""
","
","","","7419.100000023842","[""False""]","1","22","10167","4790","","","","","","","","","","","","","","","","","","",""
"pit-instructions","112","890763","0.0-2.0-24.0-1.0","battery-v0.2","","""event"",""trial"",""time""
""fullscreenenter"",""1"",""2003""
""blur"",""4"",""18743""
""focus"",""4"",""18744""
""blur"",""4"",""19162""
""focus"",""4"",""19163""
","""event"",""trial"",""time""
""blur"",""4"",""18743""
""blur"",""4"",""19162""
","""event"",""trial"",""time""
""focus"",""4"",""18744""
""focus"",""4"",""19163""
","""event"",""trial"",""time""
""fullscreenenter"",""1"",""2003""
","
","","[{""page_index"":0,""viewing_time"":6895.400000095367}]","6895.600000023842","","","","","","","","","","","","","","","","","","","","","","","",""
"pit-instructions","113","891583","0.0-2.0-24.0-2.0-0.0","battery-v0.2","","""event"",""trial"",""time""
""fullscreenenter"",""1"",""2003""
""blur"",""4"",""18743""
""focus"",""4"",""18744""
""blur"",""4"",""19162""
""focus"",""4"",""19163""
","""event"",""trial"",""time""
""blur"",""4"",""18743""
""blur"",""4"",""19162""
","""event"",""trial"",""time""
""focus"",""4"",""18744""
""focus"",""4"",""19163""
","""event"",""trial"",""time""
""fullscreenenter"",""1"",""2003""
","
","","[{""page_index"":0,""viewing_time"":818.8000000715256}]","818.8999999761581","","","","","","","","","","","","","","","","","","","","","","","",""
"pit-comprehension","114","899011","0.0-2.0-24.1-0.1","battery-v0.2","","""event"",""trial"",""time""
""fullscreenenter"",""1"",""2003""
""blur"",""4"",""18743""
""focus"",""4"",""18744""
""blur"",""4"",""19162""
""focus"",""4"",""19163""
","""event"",""trial"",""time""
""blur"",""4"",""18743""
""blur"",""4"",""19162""
","""event"",""trial"",""time""
""focus"",""4"",""18744""
""focus"",""4"",""19163""
","""event"",""trial"",""time""
""fullscreenenter"",""1"",""2003""
","
","","","7426","[""True""]","0","22","10167","4790","","","","","","","","","","","","","","","","","","",""
"pit-instructions","115","901037","0.0-2.0-24.1-1.1","battery-v0.2","","""event"",""trial"",""time""
""fullscreenenter"",""1"",""2003""
""blur"",""4"",""18743""
""focus"",""4"",""18744""
""blur"",""4"",""19162""
""focus"",""4"",""19163""
","""event"",""trial"",""time""
""blur"",""4"",""18743""
""blur"",""4"",""19162""
","""event"",""trial"",""time""
""focus"",""4"",""18744""
""focus"",""4"",""19163""
","""event"",""trial"",""time""
""fullscreenenter"",""1"",""2003""
","
","","[{""page_index"":0,""viewing_time"":1993.2000000476837}]","1993.3999999761581","","","","","","","","","","","","","","","","","","","","","","","",""
"pit-comprehension","116","909133","0.0-2.0-25.0-0.0","battery-v0.2","","""event"",""trial"",""time""
""fullscreenenter"",""1"",""2003""
""blur"",""4"",""18743""
""focus"",""4"",""18744""
""blur"",""4"",""19162""
""focus"",""4"",""19163""
","""event"",""trial"",""time""
""blur"",""4"",""18743""
""blur"",""4"",""19162""
","""event"",""trial"",""time""
""focus"",""4"",""18744""
""focus"",""4"",""19163""
","""event"",""trial"",""time""
""fullscreenenter"",""1"",""2003""
","
","","","8093.899999976158","[""True""]","0","22","10167","4790","","","","","","","","","","","","","","","","","","",""
"pit-instructions","117","910745","0.0-2.0-25.0-1.0","battery-v0.2","","""event"",""trial"",""time""
""fullscreenenter"",""1"",""2003""
""blur"",""4"",""18743""
""focus"",""4"",""18744""
""blur"",""4"",""19162""
""focus"",""4"",""19163""
","""event"",""trial"",""time""
""blur"",""4"",""18743""
""blur"",""4"",""19162""
","""event"",""trial"",""time""
""focus"",""4"",""18744""
""focus"",""4"",""19163""
","""event"",""trial"",""time""
""fullscreenenter"",""1"",""2003""
","
","","[{""page_index"":0,""viewing_time"":1577.5}]","1577.6999999284744","","","","","","","","","","","","","","","","","","","","","","","",""
"pit-comprehension","118","916335","0.0-2.0-26.0-0.0","battery-v0.2","","""event"",""trial"",""time""
""fullscreenenter"",""1"",""2003""
""blur"",""4"",""18743""
""focus"",""4"",""18744""
""blur"",""4"",""19162""
""focus"",""4"",""19163""
","""event"",""trial"",""time""
""blur"",""4"",""18743""
""blur"",""4"",""19162""
","""event"",""trial"",""time""
""focus"",""4"",""18744""
""focus"",""4"",""19163""
","""event"",""trial"",""time""
""fullscreenenter"",""1"",""2003""
","
","","","5588.699999928474","[""False""]","0","22","10167","4790","","","","","","","","","","","","","","","","","","",""
"pit-instructions","119","917892","0.0-2.0-26.0-1.0","battery-v0.2","","""event"",""trial"",""time""
""fullscreenenter"",""1"",""2003""
""blur"",""4"",""18743""
""focus"",""4"",""18744""
""blur"",""4"",""19162""
""focus"",""4"",""19163""
","""event"",""trial"",""time""
""blur"",""4"",""18743""
""blur"",""4"",""19162""
","""event"",""trial"",""time""
""focus"",""4"",""18744""
""focus"",""4"",""19163""
","""event"",""trial"",""time""
""fullscreenenter"",""1"",""2003""
","
","","[{""page_index"":0,""viewing_time"":1523.1000000238419}]","1523.4000000953674","","","","","","","","","","","","","","","","","","","","","","","",""
"pit-instructions","120","935672","0.0-3.0","battery-v0.2","","""event"",""trial"",""time""
""fullscreenenter"",""1"",""2003""
""blur"",""4"",""18743""
""focus"",""4"",""18744""
""blur"",""4"",""19162""
""focus"",""4"",""19163""
","""event"",""trial"",""time""
""blur"",""4"",""18743""
""blur"",""4"",""19162""
","""event"",""trial"",""time""
""focus"",""4"",""18744""
""focus"",""4"",""19163""
","""event"",""trial"",""time""
""fullscreenenter"",""1"",""2003""
","
","","[{""page_index"":0,""viewing_time"":3926.5},{""page_index"":1,""viewing_time"":5636.599999904633},{""page_index"":2,""viewing_time"":8215.800000071526}]","17779.099999904633","","","","","","","","","","","","","","","","","","","","","","","",""
"pit-trial","121","939171","0.0-4.0","battery-v0.2","","""event"",""trial"",""time""
""fullscreenenter"",""1"",""2003""
""blur"",""4"",""18743""
""focus"",""4"",""18744""
""blur"",""4"",""19162""
""focus"",""4"",""19163""
","""event"",""trial"",""time""
""blur"",""4"",""18743""
""blur"",""4"",""19162""
","""event"",""trial"",""time""
""focus"",""4"",""18744""
""focus"",""4"",""19163""
","""event"",""trial"",""time""
""fullscreenenter"",""1"",""2003""
","
","","","634.7000000476837","","","22","10167","4790","&#9752;","elianto","#f73b6a7A"," "," ","1","0","[1492.1000000238419]","1","1","","","10167","1","3","3","lose","go","0"
"pit-trial","122","942615","0.0-5.0","battery-v0.2","","""event"",""trial"",""time""
""fullscreenenter"",""1"",""2003""
""blur"",""4"",""18743""
""focus"",""4"",""18744""
""blur"",""4"",""19162""
""focus"",""4"",""19163""
","""event"",""trial"",""time""
""blur"",""4"",""18743""
""blur"",""4"",""19162""
","""event"",""trial"",""time""
""focus"",""4"",""18744""
""focus"",""4"",""19163""
","""event"",""trial"",""time""
""fullscreenenter"",""1"",""2003""
","
","","","586.1999999284744","","","22","10167","4790","&#9730;","elianto","#3366ff99"," "," ","1","+10","[1441.1999999284744]","1","1","","","10167","2","1","1","win","go","0"
"pit-trial","123","945974","0.0-6.0","battery-v0.2","","""event"",""trial"",""time""
""fullscreenenter"",""1"",""2003""
""blur"",""4"",""18743""
""focus"",""4"",""18744""
""blur"",""4"",""19162""
""focus"",""4"",""19163""
","""event"",""trial"",""time""
""blur"",""4"",""18743""
""blur"",""4"",""19162""
","""event"",""trial"",""time""
""focus"",""4"",""18744""
""focus"",""4"",""19163""
","""event"",""trial"",""time""
""fullscreenenter"",""1"",""2003""
","
","","","490.60000002384186","","","22","10167","4790","&#9733;","elianto","#3366ff99","-1"," ","0","0","[1342.6000000238419]","1","1","","","10167","3","2","2","win","no-go","0"
"pit-trial","124","949557","0.0-7.0","battery-v0.2","","""event"",""trial"",""time""
""fullscreenenter"",""1"",""2003""
""blur"",""4"",""18743""
""focus"",""4"",""18744""
""blur"",""4"",""19162""
""focus"",""4"",""19163""
","""event"",""trial"",""time""
""blur"",""4"",""18743""
""blur"",""4"",""19162""
","""event"",""trial"",""time""
""focus"",""4"",""18744""
""focus"",""4"",""19163""
","""event"",""trial"",""time""
""fullscreenenter"",""1"",""2003""
","
","","","722.6999999284744","","","22","10167","4790","&#9728;","elianto","#f73b6a7A","-1"," ","0","-10","[1577.3000000715256]","1","1","","","10167","4","0","4","lose","no-go","0"
"pit-trial","125","952951","0.0-8.0","battery-v0.2","","""event"",""trial"",""time""
""fullscreenenter"",""1"",""2003""
""blur"",""4"",""18743""
""focus"",""4"",""18744""
""blur"",""4"",""19162""
""focus"",""4"",""19163""
","""event"",""trial"",""time""
""blur"",""4"",""18743""
""blur"",""4"",""19162""
","""event"",""trial"",""time""
""focus"",""4"",""18744""
""focus"",""4"",""19163""
","""event"",""trial"",""time""
""fullscreenenter"",""1"",""2003""
","
","","","522.2999999523163","","","22","10167","4790","&#9752;","elianto","#f73b6a7A"," "," ","1","0","[1382.2999999523163]","1","1","","","10167","5","3","3","lose","go","0"
"pit-trial","126","956477","0.0-9.0","battery-v0.2","","""event"",""trial"",""time""
""fullscreenenter"",""1"",""2003""
""blur"",""4"",""18743""
""focus"",""4"",""18744""
""blur"",""4"",""19162""
""focus"",""4"",""19163""
","""event"",""trial"",""time""
""blur"",""4"",""18743""
""blur"",""4"",""19162""
","""event"",""trial"",""time""
""focus"",""4"",""18744""
""focus"",""4"",""19163""
","""event"",""trial"",""time""
""fullscreenenter"",""1"",""2003""
","
","","","671.3999999761581","","","22","10167","4790","&#9730;","elianto","#3366ff99"," "," ","1","+10","[1521.8999999761581]","1","1","","","10167","6","1","1","win","go","0"
"pit-trial","127","961347","0.0-10.0","battery-v0.2","","""event"",""trial"",""time""
""fullscreenenter"",""1"",""2003""
""blur"",""4"",""18743""
""focus"",""4"",""18744""
""blur"",""4"",""19162""
""focus"",""4"",""19163""
","""event"",""trial"",""time""
""blur"",""4"",""18743""
""blur"",""4"",""19162""
","""event"",""trial"",""time""
""focus"",""4"",""18744""
""focus"",""4"",""19163""
","""event"",""trial"",""time""
""fullscreenenter"",""1"",""2003""
","
","","","-1","","","22","10167","4790","&#9733;","elianto","#3366ff99","-1","-1","1","0","[]","0","1","","","10167","7","2","2","win","no-go","1"
"pit-trial","128","966205","0.0-11.0","battery-v0.2","","""event"",""trial"",""time""
""fullscreenenter"",""1"",""2003""
""blur"",""4"",""18743""
""focus"",""4"",""18744""
""blur"",""4"",""19162""
""focus"",""4"",""19163""
","""event"",""trial"",""time""
""blur"",""4"",""18743""
""blur"",""4"",""19162""
","""event"",""trial"",""time""
""focus"",""4"",""18744""
""focus"",""4"",""19163""
","""event"",""trial"",""time""
""fullscreenenter"",""1"",""2003""
","
","","","-1","","","22","10167","4790","&#9728;","elianto","#f73b6a7A","-1","-1","1","0","[]","0","1","","","10167","8","0","4","lose","no-go","0"
"pit-trial","129","969673","0.0-12.0","battery-v0.2","","""event"",""trial"",""time""
""fullscreenenter"",""1"",""2003""
""blur"",""4"",""18743""
""focus"",""4"",""18744""
""blur"",""4"",""19162""
""focus"",""4"",""19163""
","""event"",""trial"",""time""
""blur"",""4"",""18743""
""blur"",""4"",""19162""
","""event"",""trial"",""time""
""focus"",""4"",""18744""
""focus"",""4"",""19163""
","""event"",""trial"",""time""
""fullscreenenter"",""1"",""2003""
","
","","","615.7999999523163","","","22","10167","4790","&#9730;","elianto","#3366ff99"," "," ","1","0","[1466.5]","1","1","","","10167","9","1","1","win","go","1"
"pit-trial","130","973023","0.0-13.0","battery-v0.2","","""event"",""trial"",""time""
""fullscreenenter"",""1"",""2003""
""blur"",""4"",""18743""
""focus"",""4"",""18744""
""blur"",""4"",""19162""
""focus"",""4"",""19163""
","""event"",""trial"",""time""
""blur"",""4"",""18743""
""blur"",""4"",""19162""
","""event"",""trial"",""time""
""focus"",""4"",""18744""
""focus"",""4"",""19163""
","""event"",""trial"",""time""
""fullscreenenter"",""1"",""2003""
","
","","","496.89999997615814","","","22","10167","4790","&#9752;","elianto","#f73b6a7A"," "," ","1","0","[1347.3000000715256]","1","1","","","10167","10","3","3","lose","go","0"
"pit-trial","131","977876","0.0-14.0","battery-v0.2","","""event"",""trial"",""time""
""fullscreenenter"",""1"",""2003""
""blur"",""4"",""18743""
""focus"",""4"",""18744""
""blur"",""4"",""19162""
""focus"",""4"",""19163""
","""event"",""trial"",""time""
""blur"",""4"",""18743""
""blur"",""4"",""19162""
","""event"",""trial"",""time""
""focus"",""4"",""18744""
""focus"",""4"",""19163""
","""event"",""trial"",""time""
""fullscreenenter"",""1"",""2003""
","
","","","-1","","","22","10167","4790","&#9733;","elianto","#3366ff99","-1","-1","1","+10","[]","0","1","","","10167","11","2","2","win","no-go","0"
"pit-trial","132","982728","0.0-15.0","battery-v0.2","","""event"",""trial"",""time""
""fullscreenenter"",""1"",""2003""
""blur"",""4"",""18743""
""focus"",""4"",""18744""
""blur"",""4"",""19162""
""focus"",""4"",""19163""
","""event"",""trial"",""time""
""blur"",""4"",""18743""
""blur"",""4"",""19162""
","""event"",""trial"",""time""
""focus"",""4"",""18744""
""focus"",""4"",""19163""
","""event"",""trial"",""time""
""fullscreenenter"",""1"",""2003""
","
","","","-1","","","22","10167","4790","&#9728;","elianto","#f73b6a7A","-1","-1","1","0","[]","0","1","","","10167","12","0","4","lose","no-go","0"
"pit-trial","133","987581","0.0-16.0","battery-v0.2","","""event"",""trial"",""time""
""fullscreenenter"",""1"",""2003""
""blur"",""4"",""18743""
""focus"",""4"",""18744""
""blur"",""4"",""19162""
""focus"",""4"",""19163""
","""event"",""trial"",""time""
""blur"",""4"",""18743""
""blur"",""4"",""19162""
","""event"",""trial"",""time""
""focus"",""4"",""18744""
""focus"",""4"",""19163""
","""event"",""trial"",""time""
""fullscreenenter"",""1"",""2003""
","
","","","-1","","","22","10167","4790","&#9728;","elianto","#f73b6a7A","-1","-1","1","0","[]","0","1","","","10167","13","0","4","lose","no-go","0"
"pit-trial","134","991284","0.0-17.0","battery-v0.2","","""event"",""trial"",""time""
""fullscreenenter"",""1"",""2003""
""blur"",""4"",""18743""
""focus"",""4"",""18744""
""blur"",""4"",""19162""
""focus"",""4"",""19163""
","""event"",""trial"",""time""
""blur"",""4"",""18743""
""blur"",""4"",""19162""
","""event"",""trial"",""time""
""focus"",""4"",""18744""
""focus"",""4"",""19163""
","""event"",""trial"",""time""
""fullscreenenter"",""1"",""2003""
","
","","","851.6999999284744","","","22","10167","4790","&#9730;","elianto","#3366ff99"," "," ","1","+10","[1701.7999999523163]","1","1","","","10167","14","1","1","win","go","0"
"pit-trial","135","996137","0.0-18.0","battery-v0.2","","""event"",""trial"",""time""
""fullscreenenter"",""1"",""2003""
""blur"",""4"",""18743""
""focus"",""4"",""18744""
""blur"",""4"",""19162""
""focus"",""4"",""19163""
","""event"",""trial"",""time""
""blur"",""4"",""18743""
""blur"",""4"",""19162""
","""event"",""trial"",""time""
""focus"",""4"",""18744""
""focus"",""4"",""19163""
","""event"",""trial"",""time""
""fullscreenenter"",""1"",""2003""
","
","","","-1","","","22","10167","4790","&#9733;","elianto","#3366ff99","-1","-1","1","+10","[]","0","1","","","10167","15","2","2","win","no-go","0"
"pit-trial","136","999495","0.0-19.0","battery-v0.2","","""event"",""trial"",""time""
""fullscreenenter"",""1"",""2003""
""blur"",""4"",""18743""
""focus"",""4"",""18744""
""blur"",""4"",""19162""
""focus"",""4"",""19163""
","""event"",""trial"",""time""
""blur"",""4"",""18743""
""blur"",""4"",""19162""
","""event"",""trial"",""time""
""focus"",""4"",""18744""
""focus"",""4"",""19163""
","""event"",""trial"",""time""
""fullscreenenter"",""1"",""2003""
","
","","","504.6999999284744","","","22","10167","4790","&#9752;","elianto","#f73b6a7A"," "," ","1","0","[1355.7000000476837]","1","1","","","10167","16","3","3","lose","go","0"
"pit-trial","137","1004348","0.0-20.0","battery-v0.2","","""event"",""trial"",""time""
""fullscreenenter"",""1"",""2003""
""blur"",""4"",""18743""
""focus"",""4"",""18744""
""blur"",""4"",""19162""
""focus"",""4"",""19163""
","""event"",""trial"",""time""
""blur"",""4"",""18743""
""blur"",""4"",""19162""
","""event"",""trial"",""time""
""focus"",""4"",""18744""
""focus"",""4"",""19163""
","""event"",""trial"",""time""
""fullscreenenter"",""1"",""2003""
","
","","","-1","","","22","10167","4790","&#9728;","elianto","#f73b6a7A","-1","-1","1","0","[]","0","1","","","10167","17","0","4","lose","no-go","0"
"pit-trial","138","1007740","0.0-21.0","battery-v0.2","","""event"",""trial"",""time""
""fullscreenenter"",""1"",""2003""
""blur"",""4"",""18743""
""focus"",""4"",""18744""
""blur"",""4"",""19162""
""focus"",""4"",""19163""
","""event"",""trial"",""time""
""blur"",""4"",""18743""
""blur"",""4"",""19162""
","""event"",""trial"",""time""
""focus"",""4"",""18744""
""focus"",""4"",""19163""
","""event"",""trial"",""time""
""fullscreenenter"",""1"",""2003""
","
","","","538.3999999761581","","","22","10167","4790","&#9730;","elianto","#3366ff99"," "," ","1","0","[1388.8999999761581]","1","1","","","10167","18","1","1","win","go","1"
"pit-trial","139","1012592","0.0-22.0","battery-v0.2","","""event"",""trial"",""time""
""fullscreenenter"",""1"",""2003""
""blur"",""4"",""18743""
""focus"",""4"",""18744""
""blur"",""4"",""19162""
""focus"",""4"",""19163""
","""event"",""trial"",""time""
""blur"",""4"",""18743""
""blur"",""4"",""19162""
","""event"",""trial"",""time""
""focus"",""4"",""18744""
""focus"",""4"",""19163""
","""event"",""trial"",""time""
""fullscreenenter"",""1"",""2003""
","
","","","-1","","","22","10167","4790","&#9733;","elianto","#3366ff99","-1","-1","1","+10","[]","0","1","","","10167","19","2","2","win","no-go","0"
"pit-trial","140","1015971","0.0-23.0","battery-v0.2","","""event"",""trial"",""time""
""fullscreenenter"",""1"",""2003""
""blur"",""4"",""18743""
""focus"",""4"",""18744""
""blur"",""4"",""19162""
""focus"",""4"",""19163""
","""event"",""trial"",""time""
""blur"",""4"",""18743""
""blur"",""4"",""19162""
","""event"",""trial"",""time""
""focus"",""4"",""18744""
""focus"",""4"",""19163""
","""event"",""trial"",""time""
""fullscreenenter"",""1"",""2003""
","
","","","526.6999999284744","","","22","10167","4790","&#9752;","elianto","#f73b6a7A"," "," ","1","-10","[1377.5999999046326]","1","1","","","10167","20","3","3","lose","go","1"
"pit-instructions","141","1030947","0.0-24.0","battery-v0.2","","""event"",""trial"",""time""
""fullscreenenter"",""1"",""2003""
""blur"",""4"",""18743""
""focus"",""4"",""18744""
""blur"",""4"",""19162""
""focus"",""4"",""19163""
","""event"",""trial"",""time""
""blur"",""4"",""18743""
""blur"",""4"",""19162""
","""event"",""trial"",""time""
""focus"",""4"",""18744""
""focus"",""4"",""19163""
","""event"",""trial"",""time""
""fullscreenenter"",""1"",""2003""
","
","","[{""page_index"":0,""viewing_time"":7687.100000023842},{""page_index"":1,""viewing_time"":7288.100000023842}]","14975.399999976158","","","","","","","","","","","","","","","","","","","","","","","",""
"pit-trial","142","1034598","0.0-25.0","battery-v0.2","","""event"",""trial"",""time""
""fullscreenenter"",""1"",""2003""
""blur"",""4"",""18743""
""focus"",""4"",""18744""
""blur"",""4"",""19162""
""focus"",""4"",""19163""
","""event"",""trial"",""time""
""blur"",""4"",""18743""
""blur"",""4"",""19162""
","""event"",""trial"",""time""
""focus"",""4"",""18744""
""focus"",""4"",""19163""
","""event"",""trial"",""time""
""fullscreenenter"",""1"",""2003""
","
","","","787.6000000238419","","","22","10167","4790","l","elianto","#3366ff99"," "," ","1","+10","[1639.6000000238419]","1","2","","","10167","21","1","1","win","go","0"
"pit-trial","143","1038058","0.0-26.0","battery-v0.2","","""event"",""trial"",""time""
""fullscreenenter"",""1"",""2003""
""blur"",""4"",""18743""
""focus"",""4"",""18744""
""blur"",""4"",""19162""
""focus"",""4"",""19163""
","""event"",""trial"",""time""
""blur"",""4"",""18743""
""blur"",""4"",""19162""
","""event"",""trial"",""time""
""focus"",""4"",""18744""
""focus"",""4"",""19163""
","""event"",""trial"",""time""
""fullscreenenter"",""1"",""2003""
","
","","","599.9000000953674","","","22","10167","4790","g","elianto","#f73b6a7A"," "," ","1","0","[1450.8999999761581]","1","2","","","10167","22","3","3","lose","go","0"
"pit-trial","144","1042013","0.0-27.0","battery-v0.2","","""event"",""trial"",""time""
""fullscreenenter"",""1"",""2003""
""blur"",""4"",""18743""
""focus"",""4"",""18744""
""blur"",""4"",""19162""
""focus"",""4"",""19163""
","""event"",""trial"",""time""
""blur"",""4"",""18743""
""blur"",""4"",""19162""
","""event"",""trial"",""time""
""focus"",""4"",""18744""
""focus"",""4"",""19163""
","""event"",""trial"",""time""
""fullscreenenter"",""1"",""2003""
","
","","","1092.2000000476837","","","22","10167","4790","u","elianto","#f73b6a7A","-1"," ","0","-10","[1950.3000000715256]","1","2","","","10167","23","0","4","lose","no-go","0"
"pit-trial","145","1045382","0.0-28.0","battery-v0.2","","""event"",""trial"",""time""
""fullscreenenter"",""1"",""2003""
""blur"",""4"",""18743""
""focus"",""4"",""18744""
""blur"",""4"",""19162""
""focus"",""4"",""19163""
","""event"",""trial"",""time""
""blur"",""4"",""18743""
""blur"",""4"",""19162""
","""event"",""trial"",""time""
""focus"",""4"",""18744""
""focus"",""4"",""19163""
","""event"",""trial"",""time""
""fullscreenenter"",""1"",""2003""
","
","","","504.39999997615814","","","22","10167","4790","a","elianto","#f73b6a7A","-1"," ","0","-10","[1357.8999999761581]","1","2","","","10167","24","2","4","lose","no-go","0"
"pit-trial","146","1049241","0.0-29.0","battery-v0.2","","""event"",""trial"",""time""
""fullscreenenter"",""1"",""2003""
""blur"",""4"",""18743""
""focus"",""4"",""18744""
""blur"",""4"",""19162""
""focus"",""4"",""19163""
","""event"",""trial"",""time""
""blur"",""4"",""18743""
""blur"",""4"",""19162""
","""event"",""trial"",""time""
""focus"",""4"",""18744""
""focus"",""4"",""19163""
","""event"",""trial"",""time""
""fullscreenenter"",""1"",""2003""
","
","","","992","","","22","10167","4790","l","elianto","#3366ff99"," "," ","1","0","[1842.6000000238419]","1","2","","","10167","25","1","1","win","go","1"
"pit-trial","147","1053183","0.0-30.0","battery-v0.2","","""event"",""trial"",""time""
""fullscreenenter"",""1"",""2003""
""blur"",""4"",""18743""
""focus"",""4"",""18744""
""blur"",""4"",""19162""
""focus"",""4"",""19163""
","""event"",""trial"",""time""
""blur"",""4"",""18743""
""blur"",""4"",""19162""
","""event"",""trial"",""time""
""focus"",""4"",""18744""
""focus"",""4"",""19163""
","""event"",""trial"",""time""
""fullscreenenter"",""1"",""2003""
","
","","","1079.2000000476837","","","22","10167","4790","g","elianto","#f73b6a7A"," "," ","1","0","[1931.9000000953674]","1","2","","","10167","26","3","3","lose","go","0"
"pit-trial","148","1058053","0.0-31.0","battery-v0.2","","""event"",""trial"",""time""
""fullscreenenter"",""1"",""2003""
""blur"",""4"",""18743""
""focus"",""4"",""18744""
""blur"",""4"",""19162""
""focus"",""4"",""19163""
","""event"",""trial"",""time""
""blur"",""4"",""18743""
""blur"",""4"",""19162""
","""event"",""trial"",""time""
""focus"",""4"",""18744""
""focus"",""4"",""19163""
","""event"",""trial"",""time""
""fullscreenenter"",""1"",""2003""
","
","","","-1","","","22","10167","4790","a","elianto","#f73b6a7A","-1","-1","1","-10","[]","0","2","","","10167","27","2","4","lose","no-go","1"
"pit-trial","149","1062916","0.0-32.0","battery-v0.2","","""event"",""trial"",""time""
""fullscreenenter"",""1"",""2003""
""blur"",""4"",""18743""
""focus"",""4"",""18744""
""blur"",""4"",""19162""
""focus"",""4"",""19163""
","""event"",""trial"",""time""
""blur"",""4"",""18743""
""blur"",""4"",""19162""
","""event"",""trial"",""time""
""focus"",""4"",""18744""
""focus"",""4"",""19163""
","""event"",""trial"",""time""
""fullscreenenter"",""1"",""2003""
","
","","","-1","","","22","10167","4790","u","elianto","#f73b6a7A","-1","-1","1","0","[]","0","2","","","10167","28","0","4","lose","no-go","0"
"pit-trial","150","1066492","0.0-33.0","battery-v0.2","","""event"",""trial"",""time""
""fullscreenenter"",""1"",""2003""
""blur"",""4"",""18743""
""focus"",""4"",""18744""
""blur"",""4"",""19162""
""focus"",""4"",""19163""
","""event"",""trial"",""time""
""blur"",""4"",""18743""
""blur"",""4"",""19162""
","""event"",""trial"",""time""
""focus"",""4"",""18744""
""focus"",""4"",""19163""
","""event"",""trial"",""time""
""fullscreenenter"",""1"",""2003""
","
","","","723.2000000476837","","","22","10167","4790","l","elianto","#3366ff99"," "," ","1","+10","[1573.6000000238419]","1","2","","","10167","29","1","1","win","go","0"
"pit-trial","151","1070466","0.0-34.0","battery-v0.2","","""event"",""trial"",""time""
""fullscreenenter"",""1"",""2003""
""blur"",""4"",""18743""
""focus"",""4"",""18744""
""blur"",""4"",""19162""
""focus"",""4"",""19163""
","""event"",""trial"",""time""
""blur"",""4"",""18743""
""blur"",""4"",""19162""
","""event"",""trial"",""time""
""focus"",""4"",""18744""
""focus"",""4"",""19163""
","""event"",""trial"",""time""
""fullscreenenter"",""1"",""2003""
","
","","","1120.2999999523163","","","22","10167","4790","g","elianto","#f73b6a7A"," "," ","1","0","[1971.2999999523163]","1","2","","","10167","30","3","3","lose","go","0"
"pit-trial","152","1073868","0.0-35.0","battery-v0.2","","""event"",""trial"",""time""
""fullscreenenter"",""1"",""2003""
""blur"",""4"",""18743""
""focus"",""4"",""18744""
""blur"",""4"",""19162""
""focus"",""4"",""19163""
","""event"",""trial"",""time""
""blur"",""4"",""18743""
""blur"",""4"",""19162""
","""event"",""trial"",""time""
""focus"",""4"",""18744""
""focus"",""4"",""19163""
","""event"",""trial"",""time""
""fullscreenenter"",""1"",""2003""
","
","","","548.7999999523163","","","22","10167","4790","a","elianto","#f73b6a7A","-1"," ","0","-10","[1399]","1","2","","","10167","31","2","4","lose","no-go","0"
"pit-trial","153","1078721","0.0-36.0","battery-v0.2","","""event"",""trial"",""time""
""fullscreenenter"",""1"",""2003""
""blur"",""4"",""18743""
""focus"",""4"",""18744""
""blur"",""4"",""19162""
""focus"",""4"",""19163""
","""event"",""trial"",""time""
""blur"",""4"",""18743""
""blur"",""4"",""19162""
","""event"",""trial"",""time""
""focus"",""4"",""18744""
""focus"",""4"",""19163""
","""event"",""trial"",""time""
""fullscreenenter"",""1"",""2003""
","
","","","-1","","","22","10167","4790","u","elianto","#f73b6a7A","-1","-1","1","0","[]","0","2","","","10167","32","0","4","lose","no-go","0"
"pit-trial","154","1082295","0.0-37.0","battery-v0.2","","""event"",""trial"",""time""
""fullscreenenter"",""1"",""2003""
""blur"",""4"",""18743""
""focus"",""4"",""18744""
""blur"",""4"",""19162""
""focus"",""4"",""19163""
","""event"",""trial"",""time""
""blur"",""4"",""18743""
""blur"",""4"",""19162""
","""event"",""trial"",""time""
""focus"",""4"",""18744""
""focus"",""4"",""19163""
","""event"",""trial"",""time""
""fullscreenenter"",""1"",""2003""
","
","","","719.8000000715256","","","22","10167","4790","g","elianto","#f73b6a7A"," "," ","1","0","[1570.8000000715256]","1","2","","","10167","33","3","3","lose","go","0"
"pit-trial","155","1087148","0.0-38.0","battery-v0.2","","""event"",""trial"",""time""
