"trial_type","trial_index","time_elapsed","internal_node_id","task_version","subject_id","interactions","blur_events","focus_events","fullscreenenter_events","fullscreenexit_events","success","view_history","rt","responses","num_errors","age","subject","participantId","rune","rune_set","hex","correct","choice","accuracy","outcome","keys","total_keys","block","practice","value","sub","trial","stimulus","robot","valence","action","sham"
"pavlovia","0","15","0.0-0.0","battery-v0.2","","""event"",""trial"",""time""
""fullscreenenter"",""1"",""2090""
","
","
","""event"",""trial"",""time""
""fullscreenenter"",""1"",""2090""
","
","","","","","","","","","","","","","","","","","","","","","","","","","","",""
"fullscreen","1","3073","0.0-1.0","battery-v0.2","","""event"",""trial"",""time""
""fullscreenenter"",""1"",""2090""
","
","
","""event"",""trial"",""time""
""fullscreenenter"",""1"",""2090""
","
","true","","","","","","","","","","","","","","","","","","","","","","","","","",""
"pit-instructions","2","12945","0.0-2.0-0.0","battery-v0.2","","""event"",""trial"",""time""
""fullscreenenter"",""1"",""2090""
","
","
","""event"",""trial"",""time""
""fullscreenenter"",""1"",""2090""
","
","","[{""page_index"":0,""viewing_time"":9865.700000017881}]","9866.300000011921","","","","","","","","","","","","","","","","","","","","","","","",""
"pit-comprehension","3","16175","0.0-2.0-1.0-0.0","battery-v0.2","","""event"",""trial"",""time""
""fullscreenenter"",""1"",""2090""
","
","
","""event"",""trial"",""time""
""fullscreenenter"",""1"",""2090""
","
","","","3223","[""shark""]","0","22","13377","5882","","","","","","","","","","","","","","","","","","",""
"pit-instructions","4","18285","0.0-2.0-1.0-1.0","battery-v0.2","","""event"",""trial"",""time""
""fullscreenenter"",""1"",""2090""
","
","
","""event"",""trial"",""time""
""fullscreenenter"",""1"",""2090""
","
","","[{""page_index"":0,""viewing_time"":2097}]","2097.5","","","","","","","","","","","","","","","","","","","","","","","",""
"pit-comprehension","5","21874","0.0-2.0-2.0-0.0","battery-v0.2","","""event"",""trial"",""time""
""fullscreenenter"",""1"",""2090""
","
","
","""event"",""trial"",""time""
""fullscreenenter"",""1"",""2090""
","
","","","3585","[""tiger""]","0","22","13377","5882","","","","","","","","","","","","","","","","","","",""
"pit-instructions","6","22989","0.0-2.0-2.0-1.0","battery-v0.2","","""event"",""trial"",""time""
""fullscreenenter"",""1"",""2090""
","
","
","""event"",""trial"",""time""
""fullscreenenter"",""1"",""2090""
","
","","[{""page_index"":0,""viewing_time"":1110.7000000178814}]","1111.300000011921","","","","","","","","","","","","","","","","","","","","","","","",""
"pit-instructions","7","124341","0.0-2.0-3.0","battery-v0.2","","""event"",""trial"",""time""
""fullscreenenter"",""1"",""2090""
","
","
","""event"",""trial"",""time""
""fullscreenenter"",""1"",""2090""
","
","","[{""page_index"":0,""viewing_time"":8909},{""page_index"":1,""viewing_time"":9996.700000017881},{""page_index"":2,""viewing_time"":6156.0999999940395},{""page_index"":3,""viewing_time"":6531.0999999940395},{""page_index"":4,""viewing_time"":7887.4000000059605},{""page_index"":5,""viewing_time"":5873.0999999940395},{""page_index"":6,""viewing_time"":7316.699999988079},{""page_index"":7,""viewing_time"":6797.100000023842},{""page_index"":8,""viewing_time"":6178},{""page_index"":9,""viewing_time"":7923.0999999940395},{""page_index"":10,""viewing_time"":8582.699999988079},{""page_index"":11,""viewing_time"":7707.9000000059605},{""page_index"":12,""viewing_time"":6323.5},{""page_index"":13,""viewing_time"":5162.800000011921}]","101345.90000000596","","","","","","","","","","","","","","","","","","","","","","","",""
"pit-trial","8","127828","0.0-2.0-4.0-0.0","battery-v0.2","","""event"",""trial"",""time""
""fullscreenenter"",""1"",""2090""
","
","
","""event"",""trial"",""time""
""fullscreenenter"",""1"",""2090""
","
","","","630.1999999880791","","","22","13377","5882","&#9784;","elianto","#FFFFF080"," "," ","1","&#10004","[1480.9000000059605]","1","0","0","","","","","","","",""
"pit-trial","9","131283","0.0-2.0-4.1-0.1","battery-v0.2","","""event"",""trial"",""time""
""fullscreenenter"",""1"",""2090""
","
","
","""event"",""trial"",""time""
""fullscreenenter"",""1"",""2090""
","
","","","596.1000000238419","","","22","13377","5882","&#9784;","elianto","#FFFFF080"," "," ","1","&#10004","[1447.5]","1","0","0","","","","","","","",""
"pit-trial","10","134660","0.0-2.0-4.2-0.2","battery-v0.2","","""event"",""trial"",""time""
""fullscreenenter"",""1"",""2090""
","
","
","""event"",""trial"",""time""
""fullscreenenter"",""1"",""2090""
","
","","","520","","","22","13377","5882","&#9784;","elianto","#FFFFF080"," "," ","1","&#10004","[1371.5]","1","0","0","","","","","","","",""
"pit-trial","11","137954","0.0-2.0-4.3-0.3","battery-v0.2","","""event"",""trial"",""time""
""fullscreenenter"",""1"",""2090""
","
","
","""event"",""trial"",""time""
""fullscreenenter"",""1"",""2090""
","
","","","439","","","22","13377","5882","&#9784;","elianto","#FFFFF080"," "," ","1","&#10004","[1289]","1","0","0","","","","","","","",""
"pit-trial","12","141251","0.0-2.0-4.4-0.4","battery-v0.2","","""event"",""trial"",""time""
""fullscreenenter"",""1"",""2090""
","
","
","""event"",""trial"",""time""
""fullscreenenter"",""1"",""2090""
","
","","","439.19999998807907","","","22","13377","5882","&#9784;","elianto","#FFFFF080"," "," ","1","&#10004","[1290.7000000178814]","1","0","0","","","","","","","",""
"pit-instructions","13","169089","0.0-2.0-5.0","battery-v0.2","","""event"",""trial"",""time""
""fullscreenenter"",""1"",""2090""
","
","
","""event"",""trial"",""time""
""fullscreenenter"",""1"",""2090""
","
","","[{""page_index"":0,""viewing_time"":4802.399999976158},{""page_index"":1,""viewing_time"":5486.5},{""page_index"":2,""viewing_time"":5283.9000000059605},{""page_index"":3,""viewing_time"":12260.09999999404}]","27833.59999999404","","","","","","","","","","","","","","","","","","","","","","","",""
"pit-trial","14","173946","0.0-2.0-6.0-0.0","battery-v0.2","","""event"",""trial"",""time""
""fullscreenenter"",""1"",""2090""
","
","
","""event"",""trial"",""time""
""fullscreenenter"",""1"",""2090""
","
","","","-1","","","22","13377","5882","&#9854;","elianto","#FFFFF080","-1","-1","1","&#10004","[]","0","0","1","","","","","","","",""
"pit-trial","15","178805","0.0-2.0-6.1-0.1","battery-v0.2","","""event"",""trial"",""time""
""fullscreenenter"",""1"",""2090""
","
","
","""event"",""trial"",""time""
""fullscreenenter"",""1"",""2090""
","
","","","-1","","","22","13377","5882","&#9854;","elianto","#FFFFF080","-1","-1","1","&#10004","[]","0","0","1","","","","","","","",""
"pit-trial","16","183662","0.0-2.0-6.2-0.2","battery-v0.2","","""event"",""trial"",""time""
""fullscreenenter"",""1"",""2090""
","
","
","""event"",""trial"",""time""
""fullscreenenter"",""1"",""2090""
","
","","","-1","","","22","13377","5882","&#9854;","elianto","#FFFFF080","-1","-1","1","&#10004","[]","0","0","1","","","","","","","",""
"pit-trial","17","188518","0.0-2.0-6.3-0.3","battery-v0.2","","""event"",""trial"",""time""
""fullscreenenter"",""1"",""2090""
","
","
","""event"",""trial"",""time""
""fullscreenenter"",""1"",""2090""
","
","","","-1","","","22","13377","5882","&#9854;","elianto","#FFFFF080","-1","-1","1","&#10004","[]","0","0","1","","","","","","","",""
"pit-trial","18","193376","0.0-2.0-6.4-0.4","battery-v0.2","","""event"",""trial"",""time""
""fullscreenenter"",""1"",""2090""
","
","
","""event"",""trial"",""time""
""fullscreenenter"",""1"",""2090""
","
","","","-1","","","22","13377","5882","&#9854;","elianto","#FFFFF080","-1","-1","1","&#10004","[]","0","0","1","","","","","","","",""
"pit-instructions","19","310054","0.0-2.0-7.0","battery-v0.2","","""event"",""trial"",""time""
""fullscreenenter"",""1"",""2090""
","
","
","""event"",""trial"",""time""
""fullscreenenter"",""1"",""2090""
","
","","[{""page_index"":0,""viewing_time"":6547.200000017881},{""page_index"":1,""viewing_time"":7758.899999976158},{""page_index"":2,""viewing_time"":6203.5},{""page_index"":3,""viewing_time"":6484.4000000059605},{""page_index"":4,""viewing_time"":5855.800000011921},{""page_index"":5,""viewing_time"":5244.699999988079},{""page_index"":6,""viewing_time"":4118.200000017881},{""page_index"":7,""viewing_time"":7346.5},{""page_index"":8,""viewing_time"":6277.5},{""page_index"":9,""viewing_time"":5643.5999999940395},{""page_index"":10,""viewing_time"":6179.5999999940395},{""page_index"":11,""viewing_time"":4034.699999988079},{""page_index"":12,""viewing_time"":8823.800000011921},{""page_index"":13,""viewing_time"":6829.800000011921},{""page_index"":14,""viewing_time"":7501.5},{""page_index"":15,""viewing_time"":7078.5},{""page_index"":16,""viewing_time"":7551.799999982119},{""page_index"":17,""viewing_time"":7191.300000011921}]","116671.90000000596","","","","","","","","","","","","","","","","","","","","","","","",""
"pit-trial","20","313385","0.0-2.0-8.0-0.0","battery-v0.2","","""event"",""trial"",""time""
""fullscreenenter"",""1"",""2090""
","
","
","""event"",""trial"",""time""
""fullscreenenter"",""1"",""2090""
","
","","","474","","","22","13377","5882","&#9776;","elianto","#3366ff99"," "," ","1","+10","[1326]","1","0","1","","","","","","","",""
"pit-trial","21","316737","0.0-2.0-8.0-1.0","battery-v0.2","","""event"",""trial"",""time""
""fullscreenenter"",""1"",""2090""
","
","
","""event"",""trial"",""time""
""fullscreenenter"",""1"",""2090""
","
","","","494.5","","","22","13377","5882","&#9776;","elianto","#3366ff99"," "," ","1","+10","[1346]","1","0","1","","","","","","","",""
"pit-trial","22","320240","0.0-2.0-8.0-2.0","battery-v0.2","","""event"",""trial"",""time""
""fullscreenenter"",""1"",""2090""
","
","
","""event"",""trial"",""time""
""fullscreenenter"",""1"",""2090""
","
","","","646.5","","","22","13377","5882","&#9776;","elianto","#3366ff99"," "," ","1","+10","[1498]","1","0","1","","","","","","","",""
"pit-trial","23","323506","0.0-2.0-8.0-3.0","battery-v0.2","","""event"",""trial"",""time""
""fullscreenenter"",""1"",""2090""
","
","
","""event"",""trial"",""time""
""fullscreenenter"",""1"",""2090""
","
","","","409.60000002384186","","","22","13377","5882","&#9776;","elianto","#3366ff99"," "," ","1","0","[1260.7999999821186]","1","0","1","","","","","","","",""
"pit-trial","24","326890","0.0-2.0-8.0-4.0","battery-v0.2","","""event"",""trial"",""time""
""fullscreenenter"",""1"",""2090""
","
","
","""event"",""trial"",""time""
""fullscreenenter"",""1"",""2090""
","
","","","528.0999999940395","","","22","13377","5882","&#9776;","elianto","#3366ff99"," "," ","1","+10","[1379.699999988079]","1","0","1","","","","","","","",""
"pit-trial","25","330223","0.0-2.0-8.1-0.1","battery-v0.2","","""event"",""trial"",""time""
""fullscreenenter"",""1"",""2090""
","
","
","""event"",""trial"",""time""
""fullscreenenter"",""1"",""2090""
","
","","","474.2000000178814","","","22","13377","5882","&#9776;","elianto","#3366ff99"," "," ","1","+10","[1326.0999999940395]","1","0","1","","","","","","","",""
"pit-trial","26","333568","0.0-2.0-8.1-1.1","battery-v0.2","","""event"",""trial"",""time""
""fullscreenenter"",""1"",""2090""
","
","
","""event"",""trial"",""time""
""fullscreenenter"",""1"",""2090""
","
","","","489","","","22","13377","5882","&#9776;","elianto","#3366ff99"," "," ","1","+10","[1340.300000011921]","1","0","1","","","","","","","",""
"pit-trial","27","337130","0.0-2.0-8.1-2.1","battery-v0.2","","""event"",""trial"",""time""
""fullscreenenter"",""1"",""2090""
","
","
","""event"",""trial"",""time""
""fullscreenenter"",""1"",""2090""
","
","","","705.2000000178814","","","22","13377","5882","&#9776;","elianto","#3366ff99"," "," ","1","+10","[1556.800000011921]","1","0","1","","","","","","","",""
"pit-trial","28","340421","0.0-2.0-8.1-3.1","battery-v0.2","","""event"",""trial"",""time""
""fullscreenenter"",""1"",""2090""
","
","
","""event"",""trial"",""time""
""fullscreenenter"",""1"",""2090""
","
","","","435.09999999403954","","","22","13377","5882","&#9776;","elianto","#3366ff99"," "," ","1","0","[1285.699999988079]","1","0","1","","","","","","","",""
"pit-trial","29","343692","0.0-2.0-8.1-4.1","battery-v0.2","","""event"",""trial"",""time""
""fullscreenenter"",""1"",""2090""
","
","
","""event"",""trial"",""time""
""fullscreenenter"",""1"",""2090""
","
","","","415.40000000596046","","","22","13377","5882","&#9776;","elianto","#3366ff99"," "," ","1","+10","[1266.7000000178814]","1","0","1","","","","","","","",""
"pit-trial","30","346994","0.0-2.0-8.2-0.2","battery-v0.2","","""event"",""trial"",""time""
""fullscreenenter"",""1"",""2090""
","
","
","""event"",""trial"",""time""
""fullscreenenter"",""1"",""2090""
","
","","","445.59999999403954","","","22","13377","5882","&#9776;","elianto","#3366ff99"," "," ","1","+10","[1296.4000000059605]","1","0","1","","","","","","","",""
"pit-trial","31","350354","0.0-2.0-8.2-1.2","battery-v0.2","","""event"",""trial"",""time""
""fullscreenenter"",""1"",""2090""
","
","
","""event"",""trial"",""time""
""fullscreenenter"",""1"",""2090""
","
","","","504.5","","","22","13377","5882","&#9776;","elianto","#3366ff99"," "," ","1","+10","[1356]","1","0","1","","","","","","","",""
"pit-trial","32","353923","0.0-2.0-8.2-2.2","battery-v0.2","","""event"",""trial"",""time""
""fullscreenenter"",""1"",""2090""
","
","
","""event"",""trial"",""time""
""fullscreenenter"",""1"",""2090""
","
","","","712","","","22","13377","5882","&#9776;","elianto","#3366ff99"," "," ","1","+10","[1563.699999988079]","1","0","1","","","","","","","",""
"pit-trial","33","357332","0.0-2.0-8.2-3.2","battery-v0.2","","""event"",""trial"",""time""
""fullscreenenter"",""1"",""2090""
","
","
","""event"",""trial"",""time""
""fullscreenenter"",""1"",""2090""
","
","","","552.9000000059605","","","22","13377","5882","&#9776;","elianto","#3366ff99"," "," ","1","0","[1404.699999988079]","1","0","1","","","","","","","",""
"pit-trial","34","360666","0.0-2.0-8.2-4.2","battery-v0.2","","""event"",""trial"",""time""
""fullscreenenter"",""1"",""2090""
","
","
","""event"",""trial"",""time""
""fullscreenenter"",""1"",""2090""
","
","","","478.59999999403954","","","22","13377","5882","&#9776;","elianto","#3366ff99"," "," ","1","+10","[1329.4000000059605]","1","0","1","","","","","","","",""
"call-function","35","360669","0.0-2.0-9.0","battery-v0.2","","""event"",""trial"",""time""
""fullscreenenter"",""1"",""2090""
","
","
","""event"",""trial"",""time""
""fullscreenenter"",""1"",""2090""
","
","","","","","","","","","","","","","","","","","","","","","","","","","","",""
"pit-instructions","36","407376","0.0-2.0-10.0","battery-v0.2","","""event"",""trial"",""time""
""fullscreenenter"",""1"",""2090""
","
","
","""event"",""trial"",""time""
""fullscreenenter"",""1"",""2090""
","
","","[{""page_index"":0,""viewing_time"":8786.40000000596},{""page_index"":1,""viewing_time"":8206.59999999404},{""page_index"":2,""viewing_time"":10366.90000000596},{""page_index"":3,""viewing_time"":10677.09999999404},{""page_index"":4,""viewing_time"":8667.90000000596}]","46705.5","","","","","","","","","","","","","","","","","","","","","","","",""
"pit-trial","37","412233","0.0-2.0-11.0-0.0","battery-v0.2","","""event"",""trial"",""time""
""fullscreenenter"",""1"",""2090""
","
","
","""event"",""trial"",""time""
""fullscreenenter"",""1"",""2090""
","
","","","-1","","","22","13377","5882","&#9761;","elianto","#3366ff99","-1","-1","1","+10","[]","0","0","2","","","","","","","",""
"pit-trial","38","417089","0.0-2.0-11.0-1.0","battery-v0.2","","""event"",""trial"",""time""
""fullscreenenter"",""1"",""2090""
","
","
","""event"",""trial"",""time""
""fullscreenenter"",""1"",""2090""
","
","","","-1","","","22","13377","5882","&#9761;","elianto","#3366ff99","-1","-1","1","+10","[]","0","0","2","","","","","","","",""
"pit-trial","39","421945","0.0-2.0-11.0-2.0","battery-v0.2","","""event"",""trial"",""time""
""fullscreenenter"",""1"",""2090""
","
","
","""event"",""trial"",""time""
""fullscreenenter"",""1"",""2090""
","
","","","-1","","","22","13377","5882","&#9761;","elianto","#3366ff99","-1","-1","1","+10","[]","0","0","2","","","","","","","",""
"pit-trial","40","426802","0.0-2.0-11.0-3.0","battery-v0.2","","""event"",""trial"",""time""
""fullscreenenter"",""1"",""2090""
","
","
","""event"",""trial"",""time""
""fullscreenenter"",""1"",""2090""
","
","","","-1","","","22","13377","5882","&#9761;","elianto","#3366ff99","-1","-1","1","0","[]","0","0","2","","","","","","","",""
"pit-trial","41","431658","0.0-2.0-11.0-4.0","battery-v0.2","","""event"",""trial"",""time""
""fullscreenenter"",""1"",""2090""
","
","
","""event"",""trial"",""time""
""fullscreenenter"",""1"",""2090""
","
","","","-1","","","22","13377","5882","&#9761;","elianto","#3366ff99","-1","-1","1","+10","[]","0","0","2","","","","","","","",""
"pit-trial","42","436516","0.0-2.0-11.1-0.1","battery-v0.2","","""event"",""trial"",""time""
""fullscreenenter"",""1"",""2090""
","
","
","""event"",""trial"",""time""
""fullscreenenter"",""1"",""2090""
","
","","","-1","","","22","13377","5882","&#9761;","elianto","#3366ff99","-1","-1","1","+10","[]","0","0","2","","","","","","","",""
"pit-trial","43","441372","0.0-2.0-11.1-1.1","battery-v0.2","","""event"",""trial"",""time""
""fullscreenenter"",""1"",""2090""
","
","
","""event"",""trial"",""time""
""fullscreenenter"",""1"",""2090""
","
","","","-1","","","22","13377","5882","&#9761;","elianto","#3366ff99","-1","-1","1","+10","[]","0","0","2","","","","","","","",""
"pit-trial","44","446226","0.0-2.0-11.1-2.1","battery-v0.2","","""event"",""trial"",""time""
""fullscreenenter"",""1"",""2090""
","
","
","""event"",""trial"",""time""
""fullscreenenter"",""1"",""2090""
","
","","","-1","","","22","13377","5882","&#9761;","elianto","#3366ff99","-1","-1","1","+10","[]","0","0","2","","","","","","","",""
"pit-trial","45","451082","0.0-2.0-11.1-3.1","battery-v0.2","","""event"",""trial"",""time""
""fullscreenenter"",""1"",""2090""
","
","
","""event"",""trial"",""time""
""fullscreenenter"",""1"",""2090""
","
","","","-1","","","22","13377","5882","&#9761;","elianto","#3366ff99","-1","-1","1","0","[]","0","0","2","","","","","","","",""
"pit-trial","46","455939","0.0-2.0-11.1-4.1","battery-v0.2","","""event"",""trial"",""time""
""fullscreenenter"",""1"",""2090""
","
","
","""event"",""trial"",""time""
""fullscreenenter"",""1"",""2090""
","
","","","-1","","","22","13377","5882","&#9761;","elianto","#3366ff99","-1","-1","1","+10","[]","0","0","2","","","","","","","",""
"pit-trial","47","460797","0.0-2.0-11.2-0.2","battery-v0.2","","""event"",""trial"",""time""
""fullscreenenter"",""1"",""2090""
","
","
","""event"",""trial"",""time""
""fullscreenenter"",""1"",""2090""
","
","","","-1","","","22","13377","5882","&#9761;","elianto","#3366ff99","-1","-1","1","+10","[]","0","0","2","","","","","","","",""
"pit-trial","48","465653","0.0-2.0-11.2-1.2","battery-v0.2","","""event"",""trial"",""time""
""fullscreenenter"",""1"",""2090""
","
","
","""event"",""trial"",""time""
""fullscreenenter"",""1"",""2090""
","
","","","-1","","","22","13377","5882","&#9761;","elianto","#3366ff99","-1","-1","1","+10","[]","0","0","2","","","","","","","",""
"pit-trial","49","470510","0.0-2.0-11.2-2.2","battery-v0.2","","""event"",""trial"",""time""
""fullscreenenter"",""1"",""2090""
","
","
","""event"",""trial"",""time""
""fullscreenenter"",""1"",""2090""
","
","","","-1","","","22","13377","5882","&#9761;","elianto","#3366ff99","-1","-1","1","+10","[]","0","0","2","","","","","","","",""
"pit-trial","50","475367","0.0-2.0-11.2-3.2","battery-v0.2","","""event"",""trial"",""time""
""fullscreenenter"",""1"",""2090""
","
","
","""event"",""trial"",""time""
""fullscreenenter"",""1"",""2090""
","
","","","-1","","","22","13377","5882","&#9761;","elianto","#3366ff99","-1","-1","1","0","[]","0","0","2","","","","","","","",""
"pit-trial","51","480223","0.0-2.0-11.2-4.2","battery-v0.2","","""event"",""trial"",""time""
""fullscreenenter"",""1"",""2090""
","
","
","""event"",""trial"",""time""
""fullscreenenter"",""1"",""2090""
","
","","","-1","","","22","13377","5882","&#9761;","elianto","#3366ff99","-1","-1","1","+10","[]","0","0","2","","","","","","","",""
"pit-trial","52","485080","0.0-2.0-11.3-0.3","battery-v0.2","","""event"",""trial"",""time""
""fullscreenenter"",""1"",""2090""
","
","
","""event"",""trial"",""time""
""fullscreenenter"",""1"",""2090""
","
","","","-1","","","22","13377","5882","&#9761;","elianto","#3366ff99","-1","-1","1","+10","[]","0","0","2","","","","","","","",""
"pit-trial","53","489937","0.0-2.0-11.3-1.3","battery-v0.2","","""event"",""trial"",""time""
""fullscreenenter"",""1"",""2090""
","
","
","""event"",""trial"",""time""
""fullscreenenter"",""1"",""2090""
","
","","","-1","","","22","13377","5882","&#9761;","elianto","#3366ff99","-1","-1","1","+10","[]","0","0","2","","","","","","","",""
"pit-trial","54","494794","0.0-2.0-11.3-2.3","battery-v0.2","","""event"",""trial"",""time""
""fullscreenenter"",""1"",""2090""
","
","
","""event"",""trial"",""time""
""fullscreenenter"",""1"",""2090""
","
","","","-1","","","22","13377","5882","&#9761;","elianto","#3366ff99","-1","-1","1","+10","[]","0","0","2","","","","","","","",""
"pit-trial","55","499650","0.0-2.0-11.3-3.3","battery-v0.2","","""event"",""trial"",""time""
""fullscreenenter"",""1"",""2090""
","
","
","""event"",""trial"",""time""
""fullscreenenter"",""1"",""2090""
","
","","","-1","","","22","13377","5882","&#9761;","elianto","#3366ff99","-1","-1","1","0","[]","0","0","2","","","","","","","",""
"pit-trial","56","504507","0.0-2.0-11.3-4.3","battery-v0.2","","""event"",""trial"",""time""
""fullscreenenter"",""1"",""2090""
","
","
","""event"",""trial"",""time""
""fullscreenenter"",""1"",""2090""
","
","","","-1","","","22","13377","5882","&#9761;","elianto","#3366ff99","-1","-1","1","+10","[]","0","0","2","","","","","","","",""
"call-function","57","504510","0.0-2.0-12.0","battery-v0.2","","""event"",""trial"",""time""
""fullscreenenter"",""1"",""2090""
","
","
","""event"",""trial"",""time""
""fullscreenenter"",""1"",""2090""
","
","","","","","","","","","","","","","","","","","","","","","","","","","","",""
"pit-instructions","58","538213","0.0-2.0-13.0","battery-v0.2","","""event"",""trial"",""time""
""fullscreenenter"",""1"",""2090""
","
","
","""event"",""trial"",""time""
""fullscreenenter"",""1"",""2090""
","
","","[{""page_index"":0,""viewing_time"":5924.5999999940395},{""page_index"":1,""viewing_time"":7547.300000011921},{""page_index"":2,""viewing_time"":4027},{""page_index"":3,""viewing_time"":10910.40000000596},{""page_index"":4,""viewing_time"":5291.799999982119}]","33701.40000000596","","","","","","","","","","","","","","","","","","","","","","","",""
"pit-trial","59","541558","0.0-2.0-14.0-0.0","battery-v0.2","","""event"",""trial"",""time""
""fullscreenenter"",""1"",""2090""
","
","
","""event"",""trial"",""time""
""fullscreenenter"",""1"",""2090""
","
","","","490.5","","","22","13377","5882","&#9826;","elianto","#f73b6a7A","-1"," ","0","-10","[1340.7000000178814]","1","0","3","","","","","","","",""
"pit-trial","60","544955","0.0-2.0-14.0-1.0","battery-v0.2","","""event"",""trial"",""time""
""fullscreenenter"",""1"",""2090""
","
","
","""event"",""trial"",""time""
""fullscreenenter"",""1"",""2090""
","
","","","540.0999999940395","","","22","13377","5882","&#9826;","elianto","#f73b6a7A","-1"," ","0","-10","[1391.9000000059605]","1","0","3","","","","","","","",""
"pit-trial","61","549810","0.0-2.0-14.0-2.0","battery-v0.2","","""event"",""trial"",""time""
""fullscreenenter"",""1"",""2090""
","
","
","""event"",""trial"",""time""
""fullscreenenter"",""1"",""2090""
","
","","","-1","","","22","13377","5882","&#9826;","elianto","#f73b6a7A","-1","-1","1","0","[]","0","0","3","","","","","","","",""
"pit-trial","62","554667","0.0-2.0-14.0-3.0","battery-v0.2","","""event"",""trial"",""time""
""fullscreenenter"",""1"",""2090""
","
","
","""event"",""trial"",""time""
""fullscreenenter"",""1"",""2090""
","
","","","-1","","","22","13377","5882","&#9826;","elianto","#f73b6a7A","-1","-1","1","-10","[]","0","0","3","","","","","","","",""
"pit-trial","63","559525","0.0-2.0-14.0-4.0","battery-v0.2","","""event"",""trial"",""time""
""fullscreenenter"",""1"",""2090""
","
","
","""event"",""trial"",""time""
""fullscreenenter"",""1"",""2090""
","
","","","-1","","","22","13377","5882","&#9826;","elianto","#f73b6a7A","-1","-1","1","0","[]","0","0","3","","","","","","","",""
"pit-trial","64","564382","0.0-2.0-14.1-0.1","battery-v0.2","","""event"",""trial"",""time""
""fullscreenenter"",""1"",""2090""
","
","
","""event"",""trial"",""time""
""fullscreenenter"",""1"",""2090""
","
","","","-1","","","22","13377","5882","&#9826;","elianto","#f73b6a7A","-1","-1","1","0","[]","0","0","3","","","","","","","",""
"pit-trial","65","569238","0.0-2.0-14.1-1.1","battery-v0.2","","""event"",""trial"",""time""
""fullscreenenter"",""1"",""2090""
","
","
","""event"",""trial"",""time""
""fullscreenenter"",""1"",""2090""
","
","","","-1","","","22","13377","5882","&#9826;","elianto","#f73b6a7A","-1","-1","1","0","[]","0","0","3","","","","","","","",""
"pit-trial","66","574095","0.0-2.0-14.1-2.1","battery-v0.2","","""event"",""trial"",""time""
""fullscreenenter"",""1"",""2090""
","
","
","""event"",""trial"",""time""
""fullscreenenter"",""1"",""2090""
","
","","","-1","","","22","13377","5882","&#9826;","elianto","#f73b6a7A","-1","-1","1","0","[]","0","0","3","","","","","","","",""
"pit-trial","67","578952","0.0-2.0-14.1-3.1","battery-v0.2","","""event"",""trial"",""time""
""fullscreenenter"",""1"",""2090""
","
","
","""event"",""trial"",""time""
""fullscreenenter"",""1"",""2090""
","
","","","-1","","","22","13377","5882","&#9826;","elianto","#f73b6a7A","-1","-1","1","-10","[]","0","0","3","","","","","","","",""
"pit-trial","68","583809","0.0-2.0-14.1-4.1","battery-v0.2","","""event"",""trial"",""time""
""fullscreenenter"",""1"",""2090""
","
","
","""event"",""trial"",""time""
""fullscreenenter"",""1"",""2090""
","
","","","-1","","","22","13377","5882","&#9826;","elianto","#f73b6a7A","-1","-1","1","0","[]","0","0","3","","","","","","","",""
"pit-trial","69","588666","0.0-2.0-14.2-0.2","battery-v0.2","","""event"",""trial"",""time""
""fullscreenenter"",""1"",""2090""
","
","
","""event"",""trial"",""time""
""fullscreenenter"",""1"",""2090""
","
","","","-1","","","22","13377","5882","&#9826;","elianto","#f73b6a7A","-1","-1","1","0","[]","0","0","3","","","","","","","",""
"pit-trial","70","593522","0.0-2.0-14.2-1.2","battery-v0.2","","""event"",""trial"",""time""
""fullscreenenter"",""1"",""2090""
","
","
","""event"",""trial"",""time""
""fullscreenenter"",""1"",""2090""
","
","","","-1","","","22","13377","5882","&#9826;","elianto","#f73b6a7A","-1","-1","1","0","[]","0","0","3","","","","","","","",""
"pit-trial","71","598378","0.0-2.0-14.2-2.2","battery-v0.2","","""event"",""trial"",""time""
""fullscreenenter"",""1"",""2090""
","
","
","""event"",""trial"",""time""
""fullscreenenter"",""1"",""2090""
","
","","","-1","","","22","13377","5882","&#9826;","elianto","#f73b6a7A","-1","-1","1","0","[]","0","0","3","","","","","","","",""
"pit-trial","72","603235","0.0-2.0-14.2-3.2","battery-v0.2","","""event"",""trial"",""time""
""fullscreenenter"",""1"",""2090""
","
","
","""event"",""trial"",""time""
""fullscreenenter"",""1"",""2090""
","
","","","-1","","","22","13377","5882","&#9826;","elianto","#f73b6a7A","-1","-1","1","-10","[]","0","0","3","","","","","","","",""
"pit-trial","73","608092","0.0-2.0-14.2-4.2","battery-v0.2","","""event"",""trial"",""time""
""fullscreenenter"",""1"",""2090""
","
","
","""event"",""trial"",""time""
""fullscreenenter"",""1"",""2090""
","
","","","-1","","","22","13377","5882","&#9826;","elianto","#f73b6a7A","-1","-1","1","0","[]","0","0","3","","","","","","","",""
"pit-trial","74","612949","0.0-2.0-14.3-0.3","battery-v0.2","","""event"",""trial"",""time""
""fullscreenenter"",""1"",""2090""
","
","
","""event"",""trial"",""time""
""fullscreenenter"",""1"",""2090""
","
","","","-1","","","22","13377","5882","&#9826;","elianto","#f73b6a7A","-1","-1","1","0","[]","0","0","3","","","","","","","",""
"pit-trial","75","617805","0.0-2.0-14.3-1.3","battery-v0.2","","""event"",""trial"",""time""
""fullscreenenter"",""1"",""2090""
","
","
","""event"",""trial"",""time""
""fullscreenenter"",""1"",""2090""
","
","","","-1","","","22","13377","5882","&#9826;","elianto","#f73b6a7A","-1","-1","1","0","[]","0","0","3","","","","","","","",""
"pit-trial","76","622661","0.0-2.0-14.3-2.3","battery-v0.2","","""event"",""trial"",""time""
""fullscreenenter"",""1"",""2090""
","
","
","""event"",""trial"",""time""
""fullscreenenter"",""1"",""2090""
","
","","","-1","","","22","13377","5882","&#9826;","elianto","#f73b6a7A","-1","-1","1","0","[]","0","0","3","","","","","","","",""
"pit-trial","77","627517","0.0-2.0-14.3-3.3","battery-v0.2","","""event"",""trial"",""time""
""fullscreenenter"",""1"",""2090""
","
","
","""event"",""trial"",""time""
""fullscreenenter"",""1"",""2090""
","
","","","-1","","","22","13377","5882","&#9826;","elianto","#f73b6a7A","-1","-1","1","-10","[]","0","0","3","","","","","","","",""
"pit-trial","78","632373","0.0-2.0-14.3-4.3","battery-v0.2","","""event"",""trial"",""time""
""fullscreenenter"",""1"",""2090""
","
","
","""event"",""trial"",""time""
""fullscreenenter"",""1"",""2090""
","
","","","-1","","","22","13377","5882","&#9826;","elianto","#f73b6a7A","-1","-1","1","0","[]","0","0","3","","","","","","","",""
"call-function","79","632375","0.0-2.0-15.0","battery-v0.2","","""event"",""trial"",""time""
""fullscreenenter"",""1"",""2090""
","
","
","""event"",""trial"",""time""
""fullscreenenter"",""1"",""2090""
","
","","","","","","","","","","","","","","","","","","","","","","","","","","",""
"pit-instructions","80","665012","0.0-2.0-16.0","battery-v0.2","","""event"",""trial"",""time""
""fullscreenenter"",""1"",""2090""
","
","
","""event"",""trial"",""time""
""fullscreenenter"",""1"",""2090""
","
","","[{""page_index"":0,""viewing_time"":8277.800000011921},{""page_index"":1,""viewing_time"":12566},{""page_index"":2,""viewing_time"":6847},{""page_index"":3,""viewing_time"":4942.9000000059605}]","32634.40000000596","","","","","","","","","","","","","","","","","","","","","","","",""
"pit-trial","81","668411","0.0-2.0-17.0-0.0","battery-v0.2","","""event"",""trial"",""time""
""fullscreenenter"",""1"",""2090""
","
","
","""event"",""trial"",""time""
""fullscreenenter"",""1"",""2090""
","
","","","543.2999999821186","","","22","13377","5882","&#9789;","elianto","#f73b6a7A"," "," ","1","0","[1394.699999988079]","1","0","4","","","","","","","",""
"pit-trial","82","671723","0.0-2.0-17.0-1.0","battery-v0.2","","""event"",""trial"",""time""
""fullscreenenter"",""1"",""2090""
","
","
","""event"",""trial"",""time""
""fullscreenenter"",""1"",""2090""
","
","","","456.19999998807907","","","22","13377","5882","&#9789;","elianto","#f73b6a7A"," "," ","1","0","[1308.199999988079]","1","0","4","","","","","","","",""
"pit-trial","83","674831","0.0-2.0-17.0-2.0","battery-v0.2","","""event"",""trial"",""time""
""fullscreenenter"",""1"",""2090""
","
","
","""event"",""trial"",""time""
""fullscreenenter"",""1"",""2090""
","
","","","250.89999997615814","","","22","13377","5882","&#9789;","elianto","#f73b6a7A"," "," ","1","0","[1102]","1","0","4","","","","","","","",""
"pit-trial","84","678387","0.0-2.0-17.0-3.0","battery-v0.2","","""event"",""trial"",""time""
""fullscreenenter"",""1"",""2090""
","
","
","""event"",""trial"",""time""
""fullscreenenter"",""1"",""2090""
","
","","","699.5999999940395","","","22","13377","5882","&#9789;","elianto","#f73b6a7A"," "," ","1","-10","[1551.2999999821186]","1","0","4","","","","","","","",""
"pit-trial","85","681665","0.0-2.0-17.0-4.0","battery-v0.2","","""event"",""trial"",""time""
""fullscreenenter"",""1"",""2090""
","
","
","""event"",""trial"",""time""
""fullscreenenter"",""1"",""2090""
","
","","","421.59999999403954","","","22","13377","5882","&#9789;","elianto","#f73b6a7A"," "," ","1","0","[1272.5]","1","0","4","","","","","","","",""
"pit-trial","86","684871","0.0-2.0-17.1-0.1","battery-v0.2","","""event"",""trial"",""time""
""fullscreenenter"",""1"",""2090""
","
","
","""event"",""trial"",""time""
""fullscreenenter"",""1"",""2090""
","
","","","348.60000002384186","","","22","13377","5882","&#9789;","elianto","#f73b6a7A"," "," ","1","0","[1200.1000000238419]","1","0","4","","","","","","","",""
"pit-trial","87","688160","0.0-2.0-17.1-1.1","battery-v0.2","","""event"",""trial"",""time""
""fullscreenenter"",""1"",""2090""
","
","
","""event"",""trial"",""time""
""fullscreenenter"",""1"",""2090""
","
","","","434.40000000596046","","","22","13377","5882","&#9789;","elianto","#f73b6a7A"," "," ","1","0","[1285.199999988079]","1","0","4","","","","","","","",""
"pit-trial","88","691540","0.0-2.0-17.1-2.1","battery-v0.2","","""event"",""trial"",""time""
""fullscreenenter"",""1"",""2090""
","
","
","""event"",""trial"",""time""
""fullscreenenter"",""1"",""2090""
","
","","","523.9000000059605","","","22","13377","5882","&#9789;","elianto","#f73b6a7A"," "," ","1","0","[1375.5999999940395]","1","0","4","","","","","","","",""
"pit-trial","89","694942","0.0-2.0-17.1-3.1","battery-v0.2","","""event"",""trial"",""time""
""fullscreenenter"",""1"",""2090""
","
","
","""event"",""trial"",""time""
""fullscreenenter"",""1"",""2090""
","
","","","545.3000000119209","","","22","13377","5882","&#9789;","elianto","#f73b6a7A"," "," ","1","-10","[1396.8999999761581]","1","0","4","","","","","","","",""
"pit-trial","90","698302","0.0-2.0-17.1-4.1","battery-v0.2","","""event"",""trial"",""time""
""fullscreenenter"",""1"",""2090""
","
","
","""event"",""trial"",""time""
""fullscreenenter"",""1"",""2090""
","
","","","504.80000001192093","","","22","13377","5882","&#9789;","elianto","#f73b6a7A"," "," ","1","0","[1356.300000011921]","1","0","4","","","","","","","",""
"pit-trial","91","701723","0.0-2.0-17.2-0.2","battery-v0.2","","""event"",""trial"",""time""
""fullscreenenter"",""1"",""2090""
","
","
","""event"",""trial"",""time""
""fullscreenenter"",""1"",""2090""
","
","","","564.7000000178814","","","22","13377","5882","&#9789;","elianto","#f73b6a7A"," "," ","1","0","[1415.2000000178814]","1","0","4","","","","","","","",""
"pit-trial","92","705538","0.0-2.0-17.2-1.2","battery-v0.2","","""event"",""trial"",""time""
""fullscreenenter"",""1"",""2090""
","
","
","""event"",""trial"",""time""
""fullscreenenter"",""1"",""2090""
","
","","","958.8000000119209","","","22","13377","5882","&#9789;","elianto","#f73b6a7A"," "," ","1","0","[1810.5]","1","0","4","","","","","","","",""
"pit-trial","93","709273","0.0-2.0-17.2-2.2","battery-v0.2","","""event"",""trial"",""time""
""fullscreenenter"",""1"",""2090""
","
","
","""event"",""trial"",""time""
""fullscreenenter"",""1"",""2090""
","
","","","878.7999999821186","","","22","13377","5882","&#9789;","elianto","#f73b6a7A"," "," ","1","0","[1730.5]","1","0","4","","","","","","","",""
"pit-trial","94","713715","0.0-2.0-17.2-3.2","battery-v0.2","","""event"",""trial"",""time""
""fullscreenenter"",""1"",""2090""
","
","
","""event"",""trial"",""time""
""fullscreenenter"",""1"",""2090""
","
","","","1585.5999999940395","","","22","13377","5882","&#9789;","elianto","#f73b6a7A"," "," ","1","-10","[2437.5]","1","0","4","","","","","","","",""
"pit-trial","95","717886","0.0-2.0-17.2-4.2","battery-v0.2","","""event"",""trial"",""time""
""fullscreenenter"",""1"",""2090""
","
","
","""event"",""trial"",""time""
""fullscreenenter"",""1"",""2090""
","
","","","1315.5999999940395","","","22","13377","5882","&#9789;","elianto","#f73b6a7A"," "," ","1","0","[2166]","1","0","4","","","","","","","",""
"pit-trial","96","721301","0.0-2.0-17.3-0.3","battery-v0.2","","""event"",""trial"",""time""
""fullscreenenter"",""1"",""2090""
","
","
","""event"",""trial"",""time""
""fullscreenenter"",""1"",""2090""
","
","","","558.2999999821186","","","22","13377","5882","&#9789;","elianto","#f73b6a7A"," "," ","1","0","[1409.699999988079]","1","0","4","","","","","","","",""
"pit-trial","97","724825","0.0-2.0-17.3-1.3","battery-v0.2","","""event"",""trial"",""time""
""fullscreenenter"",""1"",""2090""
","
","
","""event"",""trial"",""time""
""fullscreenenter"",""1"",""2090""
","
","","","667.5999999940395","","","22","13377","5882","&#9789;","elianto","#f73b6a7A"," "," ","1","0","[1518.2000000178814]","1","0","4","","","","","","","",""
"pit-trial","98","728008","0.0-2.0-17.3-2.3","battery-v0.2","","""event"",""trial"",""time""
""fullscreenenter"",""1"",""2090""
","
","
","""event"",""trial"",""time""
""fullscreenenter"",""1"",""2090""
","
","","","326.80000001192093","","","22","13377","5882","&#9789;","elianto","#f73b6a7A"," "," ","1","0","[1178.199999988079]","1","0","4","","","","","","","",""
"pit-trial","99","731229","0.0-2.0-17.3-3.3","battery-v0.2","","""event"",""trial"",""time""
""fullscreenenter"",""1"",""2090""
","
","
","""event"",""trial"",""time""
""fullscreenenter"",""1"",""2090""
","
","","","365","","","22","13377","5882","&#9789;","elianto","#f73b6a7A"," "," ","1","-10","[1216.5999999940395]","1","0","4","","","","","","","",""
"pit-trial","100","735534","0.0-2.0-17.3-4.3","battery-v0.2","","""event"",""trial"",""time""
""fullscreenenter"",""1"",""2090""
","
","
","""event"",""trial"",""time""
""fullscreenenter"",""1"",""2090""
","
","","","1448","","","22","13377","5882","&#9789;","elianto","#f73b6a7A"," "," ","1","0","[2299.0999999940395]","1","0","4","","","","","","","",""
"call-function","101","735537","0.0-2.0-18.0","battery-v0.2","","""event"",""trial"",""time""
""fullscreenenter"",""1"",""2090""
","
","
","""event"",""trial"",""time""
""fullscreenenter"",""1"",""2090""
","
","","","","","","","","","","","","","","","","","","","","","","","","","","",""
"pit-instructions","102","798735","0.0-2.0-19.0","battery-v0.2","","""event"",""trial"",""time""
""fullscreenenter"",""1"",""2090""
","
","
","""event"",""trial"",""time""
""fullscreenenter"",""1"",""2090""
","
","","[{""page_index"":0,""viewing_time"":9931.40000000596},{""page_index"":1,""viewing_time"":4217.699999988079},{""page_index"":2,""viewing_time"":9208.199999988079},{""page_index"":3,""viewing_time"":7062.4000000059605},{""page_index"":4,""viewing_time"":6947.800000011921},{""page_index"":5,""viewing_time"":8488.5},{""page_index"":6,""viewing_time"":7807.699999988079},{""page_index"":7,""viewing_time"":5879.4000000059605},{""page_index"":8,""viewing_time"":3652.9000000059605}]","63196.59999999404","","","","","","","","","","","","","","","","","","","","","","","",""
"pit-comprehension","103","803524","0.0-2.0-20.0-0.0","battery-v0.2","","""event"",""trial"",""time""
""fullscreenenter"",""1"",""2090""
","
","
","""event"",""trial"",""time""
""fullscreenenter"",""1"",""2090""
","
","","","4782.800000011921","[""SPACE""]","0","22","13377","5882","","","","","","","","","","","","","","","","","","",""
"pit-instructions","104","807101","0.0-2.0-20.0-1.0","battery-v0.2","","""event"",""trial"",""time""
""fullscreenenter"",""1"",""2090""
","
","
","""event"",""trial"",""time""
""fullscreenenter"",""1"",""2090""
","
","","[{""page_index"":0,""viewing_time"":3551.199999988079}]","3551.800000011921","","","","","","","","","","","","","","","","","","","","","","","",""
"pit-comprehension","105","813259","0.0-2.0-21.0-0.0","battery-v0.2","","""event"",""trial"",""time""
""fullscreenenter"",""1"",""2090""
","
","
","""event"",""trial"",""time""
""fullscreenenter"",""1"",""2090""
","
","","","6153","[""10""]","0","22","13377","5882","","","","","","","","","","","","","","","","","","",""
"pit-instructions","106","816992","0.0-2.0-21.0-1.0","battery-v0.2","","""event"",""trial"",""time""
""fullscreenenter"",""1"",""2090""
","
","
","""event"",""trial"",""time""
""fullscreenenter"",""1"",""2090""
","
","","[{""page_index"":0,""viewing_time"":3706.5}]","3707.2000000178814","","","","","","","","","","","","","","","","","","","","","","","",""
"pit-comprehension","107","823476","0.0-2.0-22.0-0.0","battery-v0.2","","""event"",""trial"",""time""
""fullscreenenter"",""1"",""2090""
","
","
","""event"",""trial"",""time""
""fullscreenenter"",""1"",""2090""
","
","","","6478.4000000059605","[""-10""]","1","22","13377","5882","","","","","","","","","","","","","","","","","","",""
"pit-instructions","108","829529","0.0-2.0-22.0-1.0","battery-v0.2","","""event"",""trial"",""time""
""fullscreenenter"",""1"",""2090""
","
","
","""event"",""trial"",""time""
""fullscreenenter"",""1"",""2090""
","
","","[{""page_index"":0,""viewing_time"":6028.4000000059605}]","6028.9000000059605","","","","","","","","","","","","","","","","","","","","","","","",""
"pit-instructions","109","831160","0.0-2.0-22.0-2.0-0.0","battery-v0.2","","""event"",""trial"",""time""
""fullscreenenter"",""1"",""2090""
","
","
","""event"",""trial"",""time""
""fullscreenenter"",""1"",""2090""
","
","","[{""page_index"":0,""viewing_time"":1627.800000011921}]","1628.300000011921","","","","","","","","","","","","","","","","","","","","","","","",""
"pit-comprehension","110","839079","0.0-2.0-22.1-0.1","battery-v0.2","","""event"",""trial"",""time""
""fullscreenenter"",""1"",""2090""
","
","
","""event"",""trial"",""time""
""fullscreenenter"",""1"",""2090""
","
","","","7913.899999976158","[""0""]","0","22","13377","5882","","","","","","","","","","","","","","","","","","",""
"pit-instructions","111","841801","0.0-2.0-22.1-1.1","battery-v0.2","","""event"",""trial"",""time""
""fullscreenenter"",""1"",""2090""
","
","
","""event"",""trial"",""time""
""fullscreenenter"",""1"",""2090""
","
","","[{""page_index"":0,""viewing_time"":2695}]","2695.5","","","","","","","","","","","","","","","","","","","","","","","",""
"pit-comprehension","112","849856","0.0-2.0-23.0-0.0","battery-v0.2","","""event"",""trial"",""time""
""fullscreenenter"",""1"",""2090""
","
","
","""event"",""trial"",""time""
""fullscreenenter"",""1"",""2090""
","
","","","8051.800000011921","[""True""]","0","22","13377","5882","","","","","","","","","","","","","","","","","","",""
"pit-instructions","113","851325","0.0-2.0-23.0-1.0","battery-v0.2","","""event"",""trial"",""time""
""fullscreenenter"",""1"",""2090""
","
","
","""event"",""trial"",""time""
""fullscreenenter"",""1"",""2090""
","
","","[{""page_index"":0,""viewing_time"":1441.5}]","1442.1000000238419","","","","","","","","","","","","","","","","","","","","","","","",""
"pit-comprehension","114","858799","0.0-2.0-24.0-0.0","battery-v0.2","","""event"",""trial"",""time""
""fullscreenenter"",""1"",""2090""
","
","
","""event"",""trial"",""time""
""fullscreenenter"",""1"",""2090""
","
","","","7469","[""True""]","0","22","13377","5882","","","","","","","","","","","","","","","","","","",""
"pit-instructions","115","861838","0.0-2.0-24.0-1.0","battery-v0.2","","""event"",""trial"",""time""
""fullscreenenter"",""1"",""2090""
","
","
","""event"",""trial"",""time""
""fullscreenenter"",""1"",""2090""
","
","","[{""page_index"":0,""viewing_time"":3014.199999988079}]","3014.7999999821186","","","","","","","","","","","","","","","","","","","","","","","",""
"pit-comprehension","116","869070","0.0-2.0-25.0-0.0","battery-v0.2","","""event"",""trial"",""time""
""fullscreenenter"",""1"",""2090""
","
","
","""event"",""trial"",""time""
""fullscreenenter"",""1"",""2090""
","
","","","7226.4000000059605","[""True""]","0","22","13377","5882","","","","","","","","","","","","","","","","","","",""
"pit-instructions","117","871059","0.0-2.0-25.0-1.0","battery-v0.2","","""event"",""trial"",""time""
""fullscreenenter"",""1"",""2090""
","
","
","""event"",""trial"",""time""
""fullscreenenter"",""1"",""2090""
","
","","[{""page_index"":0,""viewing_time"":1963.2000000178814}]","1963.800000011921","","","","","","","","","","","","","","","","","","","","","","","",""
"pit-comprehension","118","876302","0.0-2.0-26.0-0.0","battery-v0.2","","""event"",""trial"",""time""
""fullscreenenter"",""1"",""2090""
","
","
","""event"",""trial"",""time""
""fullscreenenter"",""1"",""2090""
","
","","","5239","[""False""]","0","22","13377","5882","","","","","","","","","","","","","","","","","","",""
"pit-instructions","119","895968","0.0-2.0-26.0-1.0","battery-v0.2","","""event"",""trial"",""time""
""fullscreenenter"",""1"",""2090""
","
","
","""event"",""trial"",""time""
""fullscreenenter"",""1"",""2090""
","
","","[{""page_index"":0,""viewing_time"":19639.19999998808}]","19639.69999998808","","","","","","","","","","","","","","","","","","","","","","","",""
"pit-instructions","120","924236","0.0-3.0","battery-v0.2","","""event"",""trial"",""time""
""fullscreenenter"",""1"",""2090""
","
","
","""event"",""trial"",""time""
""fullscreenenter"",""1"",""2090""
","
","","[{""page_index"":0,""viewing_time"":14268.699999988079},{""page_index"":1,""viewing_time"":5503.4000000059605},{""page_index"":2,""viewing_time"":8491.299999982119}]","28263.69999998808","","","","","","","","","","","","","","","","","","","","","","","",""
"pit-trial","121","927733","0.0-4.0","battery-v0.2","","""event"",""trial"",""time""
""fullscreenenter"",""1"",""2090""
","
","
","""event"",""trial"",""time""
""fullscreenenter"",""1"",""2090""
","
","","","637.5","","","22","13377","5882","&#9730;","elianto","#3366ff99"," "," ","1","+10","[1488.4000000059605]","1","1","","","13377","1","1","1","win","go","0"
"pit-trial","122","931319","0.0-5.0","battery-v0.2","","""event"",""trial"",""time""
""fullscreenenter"",""1"",""2090""
","
","
","""event"",""trial"",""time""
""fullscreenenter"",""1"",""2090""
","
","","","730.2999999821186","","","22","13377","5882","&#9752;","elianto","#f73b6a7A"," "," ","1","-10","[1581.2000000178814]","1","1","","","13377","2","3","3","lose","go","1"
"pit-trial","123","935061","0.0-6.0","battery-v0.2","","""event"",""trial"",""time""
""fullscreenenter"",""1"",""2090""
","
","
","""event"",""trial"",""time""
""fullscreenenter"",""1"",""2090""
","
","","","885.9000000059605","","","22","13377","5882","&#9728;","elianto","#f73b6a7A","-1"," ","0","-10","[1736.2999999821186]","1","1","","","13377","3","0","4","lose","no-go","0"
"pit-trial","124","938815","0.0-7.0","battery-v0.2","","""event"",""trial"",""time""
""fullscreenenter"",""1"",""2090""
","
","
","""event"",""trial"",""time""
""fullscreenenter"",""1"",""2090""
","
","","","896.9000000059605","","","22","13377","5882","&#9733;","elianto","#3366ff99","-1"," ","0","0","[1748.4000000059605]","1","1","","","13377","4","2","2","win","no-go","0"
"pit-trial","125","942739","0.0-8.0","battery-v0.2","","""event"",""trial"",""time""
""fullscreenenter"",""1"",""2090""
","
","
","""event"",""trial"",""time""
""fullscreenenter"",""1"",""2090""
","
","","","1069.9000000059605","","","22","13377","5882","&#9728;","elianto","#f73b6a7A","-1"," ","0","0","[1920.199999988079]","1","1","","","13377","5","0","4","lose","no-go","1"
"pit-trial","126","946044","0.0-9.0","battery-v0.2","","""event"",""trial"",""time""
""fullscreenenter"",""1"",""2090""
","
","
","""event"",""trial"",""time""
""fullscreenenter"",""1"",""2090""
","
","","","448.59999999403954","","","22","13377","5882","&#9730;","elianto","#3366ff99"," "," ","1","+10","[1300.199999988079]","1","1","","","13377","6","1","1","win","go","0"
"pit-trial","127","950900","0.0-10.0","battery-v0.2","","""event"",""trial"",""time""
""fullscreenenter"",""1"",""2090""
","
","
","""event"",""trial"",""time""
""fullscreenenter"",""1"",""2090""
","
","","","-1","","","22","13377","5882","&#9752;","elianto","#f73b6a7A"," ","-1","0","0","[]","0","1","","","13377","7","3","3","lose","go","1"
"pit-trial","128","954814","0.0-11.0","battery-v0.2","","""event"",""trial"",""time""
""fullscreenenter"",""1"",""2090""
","
","
","""event"",""trial"",""time""
""fullscreenenter"",""1"",""2090""
","
","","","1058.4000000059605","","","22","13377","5882","&#9733;","elianto","#3366ff99","-1"," ","0","+10","[1909]","1","1","","","13377","8","2","2","win","no-go","1"
"pit-trial","129","958362","0.0-12.0","battery-v0.2","","""event"",""trial"",""time""
""fullscreenenter"",""1"",""2090""
","
","
","""event"",""trial"",""time""
""fullscreenenter"",""1"",""2090""
","
","","","691.5","","","22","13377","5882","&#9733;","elianto","#3366ff99","-1"," ","0","0","[1542.800000011921]","1","1","","","13377","9","2","2","win","no-go","0"
"pit-trial","130","963218","0.0-13.0","battery-v0.2","","""event"",""trial"",""time""
""fullscreenenter"",""1"",""2090""
","
","
","""event"",""trial"",""time""
""fullscreenenter"",""1"",""2090""
","
","","","-1","","","22","13377","5882","&#9728;","elianto","#f73b6a7A","-1","-1","1","0","[]","0","1","","","13377","10","0","4","lose","no-go","0"
"pit-trial","131","968074","0.0-14.0","battery-v0.2","","""event"",""trial"",""time""
""fullscreenenter"",""1"",""2090""
","
","
","""event"",""trial"",""time""
""fullscreenenter"",""1"",""2090""
","
","","","-1","","","22","13377","5882","&#9752;","elianto","#f73b6a7A"," ","-1","0","-10","[]","0","1","","","13377","11","3","3","lose","go","0"
"pit-trial","132","971603","0.0-15.0","battery-v0.2","","""event"",""trial"",""time""
""fullscreenenter"",""1"",""2090""
","
","
","""event"",""trial"",""time""
""fullscreenenter"",""1"",""2090""
","
","","","672.7999999821186","","","22","13377","5882","&#9730;","elianto","#3366ff99"," "," ","1","+10","[1523.7999999821186]","1","1","","","13377","12","1","1","win","go","0"
"pit-trial","133","975078","0.0-16.0","battery-v0.2","","""event"",""trial"",""time""
""fullscreenenter"",""1"",""2090""
","
","
","""event"",""trial"",""time""
""fullscreenenter"",""1"",""2090""
","
","","","620","","","22","13377","5882","&#9730;","elianto","#3366ff99"," "," ","1","0","[1470.699999988079]","1","1","","","13377","13","1","1","win","go","1"
"pit-trial","134","979936","0.0-17.0","battery-v0.2","","""event"",""trial"",""time""
""fullscreenenter"",""1"",""2090""
","
","
","""event"",""trial"",""time""
""fullscreenenter"",""1"",""2090""
","
","","","-1","","","22","13377","5882","&#9728;","elianto","#f73b6a7A","-1","-1","1","0","[]","0","1","","","13377","14","0","4","lose","no-go","0"
"pit-trial","135","984792","0.0-18.0","battery-v0.2","","""event"",""trial"",""time""
""fullscreenenter"",""1"",""2090""
","
","
","""event"",""trial"",""time""
""fullscreenenter"",""1"",""2090""
","
","","","-1","","","22","13377","5882","&#9752;","elianto","#f73b6a7A"," ","-1","0","0","[]","0","1","","","13377","15","3","3","lose","go","1"
"pit-trial","136","989649","0.0-19.0","battery-v0.2","","""event"",""trial"",""time""
""fullscreenenter"",""1"",""2090""
","
","
","""event"",""trial"",""time""
""fullscreenenter"",""1"",""2090""
","
","","","-1","","","22","13377","5882","&#9733;","elianto","#3366ff99","-1","-1","1","+10","[]","0","1","","","13377","16","2","2","win","no-go","0"
"pit-trial","137","994505","0.0-20.0","battery-v0.2","","""event"",""trial"",""time""
""fullscreenenter"",""1"",""2090""
","
","
","""event"",""trial"",""time""
""fullscreenenter"",""1"",""2090""
","
","","","-1","","","22","13377","5882","&#9733;","elianto","#3366ff99","-1","-1","1","+10","[]","0","1","","","13377","17","2","2","win","no-go","0"
"pit-trial","138","999362","0.0-21.0","battery-v0.2","","""event"",""trial"",""time""
""fullscreenenter"",""1"",""2090""
","
","
","""event"",""trial"",""time""
""fullscreenenter"",""1"",""2090""
","
","","","-1","","","22","13377","5882","&#9752;","elianto","#f73b6a7A"," ","-1","0","0","[]","0","1","","","13377","18","3","3","lose","go","1"
"pit-trial","139","1004218","0.0-22.0","battery-v0.2","","""event"",""trial"",""time""
""fullscreenenter"",""1"",""2090""
","
","
","""event"",""trial"",""time""
""fullscreenenter"",""1"",""2090""
","
","","","-1","","","22","13377","5882","&#9728;","elianto","#f73b6a7A","-1","-1","1","0","[]","0","1","","","13377","19","0","4","lose","no-go","0"
"pit-trial","140","1007727","0.0-23.0","battery-v0.2","","""event"",""trial"",""time""
""fullscreenenter"",""1"",""2090""
","
","
","""event"",""trial"",""time""
""fullscreenenter"",""1"",""2090""
","
","","","653.5","","","22","13377","5882","&#9730;","elianto","#3366ff99"," "," ","1","+10","[1503.800000011921]","1","1","","","13377","20","1","1","win","go","0"
"pit-instructions","141","1020917","0.0-24.0","battery-v0.2","","""event"",""trial"",""time""
""fullscreenenter"",""1"",""2090""
","
","
","""event"",""trial"",""time""
""fullscreenenter"",""1"",""2090""
","
","","[{""page_index"":0,""viewing_time"":6165.5},{""page_index"":1,""viewing_time"":7020.299999982119}]","13186.40000000596","","","","","","","","","","","","","","","","","","","","","","","",""
"pit-trial","142","1024350","0.0-25.0","battery-v0.2","","""event"",""trial"",""time""
""fullscreenenter"",""1"",""2090""
","
","
","""event"",""trial"",""time""
""fullscreenenter"",""1"",""2090""
","
","","","577.5","","","22","13377","5882","d","elianto","#3366ff99"," "," ","1","+10","[1427.9000000059605]","1","2","","","13377","21","1","1","win","go","0"
"pit-trial","143","1029205","0.0-26.0","battery-v0.2","","""event"",""trial"",""time""
""fullscreenenter"",""1"",""2090""
","
","
","""event"",""trial"",""time""
""fullscreenenter"",""1"",""2090""
","
","","","-1","","","22","13377","5882","e","elianto","#f73b6a7A","-1","-1","1","0","[]","0","2","","","13377","22","2","4","lose","no-go","0"
"pit-trial","144","1032886","0.0-27.0","battery-v0.2","","""event"",""trial"",""time""
""fullscreenenter"",""1"",""2090""
","
","
","""event"",""trial"",""time""
""fullscreenenter"",""1"",""2090""
","
","","","823.7999999821186","","","22","13377","5882","w","elianto","#f73b6a7A"," "," ","1","0","[1675.0999999940395]","1","2","","","13377","23","3","3","lose","go","0"
"pit-trial","145","1036835","0.0-28.0","battery-v0.2","","""event"",""trial"",""time""
""fullscreenenter"",""1"",""2090""
","
","
","""event"",""trial"",""time""
""fullscreenenter"",""1"",""2090""
","
","","","1093.3999999761581","","","22","13377","5882","j","elianto","#f73b6a7A","-1"," ","0","-10","[1944]","1","2","","","13377","24","0","4","lose","no-go","0"
"pit-trial","146","1041691","0.0-29.0","battery-v0.2","","""event"",""trial"",""time""
""fullscreenenter"",""1"",""2090""
","
","
","""event"",""trial"",""time""
""fullscreenenter"",""1"",""2090""
","
","","","-1","","","22","13377","5882","e","elianto","#f73b6a7A","-1","-1","1","0","[]","0","2","","","13377","25","2","4","lose","no-go","0"
"pit-trial","147","1045517","0.0-30.0","battery-v0.2","","""event"",""trial"",""time""
""fullscreenenter"",""1"",""2090""
","
","
","""event"",""trial"",""time""
""fullscreenenter"",""1"",""2090""
","
","","","968.7000000178814","","","22","13377","5882","w","elianto","#f73b6a7A"," "," ","1","0","[1820.300000011921]","1","2","","","13377","26","3","3","lose","go","0"
"pit-trial","148","1049021","0.0-31.0","battery-v0.2","","""event"",""trial"",""time""
""fullscreenenter"",""1"",""2090""
","
","
","""event"",""trial"",""time""
""fullscreenenter"",""1"",""2090""
","
","","","648.1999999880791","","","22","13377","5882","d","elianto","#3366ff99"," "," ","1","0","[1498.5]","1","2","","","13377","27","1","1","win","go","1"
"pit-trial","149","1053878","0.0-32.0","battery-v0.2","","""event"",""trial"",""time""
""fullscreenenter"",""1"",""2090""
","
","
","""event"",""trial"",""time""
""fullscreenenter"",""1"",""2090""
","
","","","-1","","","22","13377","5882","j","elianto","#f73b6a7A","-1","-1","1","0","[]","0","2","","","13377","28","0","4","lose","no-go","0"
"pit-trial","150","1058733","0.0-33.0","battery-v0.2","","""event"",""trial"",""time""
""fullscreenenter"",""1"",""2090""
","
","
","""event"",""trial"",""time""
""fullscreenenter"",""1"",""2090""
","
","","","-1","","","22","13377","5882","j","elianto","#f73b6a7A","-1","-1","1","0","[]","0","2","","","13377","29","0","4","lose","no-go","0"
"pit-trial","151","1062086","0.0-34.0","battery-v0.2","","""event"",""trial"",""time""
""fullscreenenter"",""1"",""2090""
","
","
","""event"",""trial"",""time""
""fullscreenenter"",""1"",""2090""
","
","","","497","","","22","13377","5882","d","elianto","#3366ff99"," "," ","1","+10","[1348]","1","2","","","13377","30","1","1","win","go","0"
"pit-trial","152","1066943","0.0-35.0","battery-v0.2","","""event"",""trial"",""time""
""fullscreenenter"",""1"",""2090""
","
","
","""event"",""trial"",""time""
""fullscreenenter"",""1"",""2090""
","
","","","-1","","","22","13377","5882","w","elianto","#f73b6a7A"," ","-1","0","0","[]","0","2","","","13377","31","3","3","lose","go","1"
"pit-trial","153","1070705","0.0-36.0","battery-v0.2","","""event"",""trial"",""time""
""fullscreenenter"",""1"",""2090""
","
","
","""event"",""trial"",""time""
""fullscreenenter"",""1"",""2090""
","
","","","905.3999999761581","","","22","13377","5882","e","elianto","#f73b6a7A","-1"," ","0","0","[1756.7999999821186]","1","2","","","13377","32","2","4","lose","no-go","1"
"pit-trial","154","1074257","0.0-37.0","battery-v0.2","","""event"",""trial"",""time""
""fullscreenenter"",""1"",""2090""
","
","
","""event"",""trial"",""time""
""fullscreenenter"",""1"",""2090""
","
","","","697.1999999880791","","","22","13377","5882","w","elianto","#f73b6a7A"," "," ","1","0","[1547.7999999821186]","1","2","","","13377","33","3","3","lose","go","0"
"pit-trial","155","1079114","0.0-38.0","battery-v0.2","","""event"",""trial"",""time""
""fullscreenenter"",""1"",""2090""
","
","
","""event"",""trial"",""time""
""fullscreenenter"",""1"",""2090""
","
","","","-1","","","22","13377","5882","e","elianto","#f73b6a7A","-1","-1","1","0","[]","0","2","","","13377","34","2","4","lose","no-go","0"
"pit-trial","156","1082467","0.0-39.0","battery-v0.2","","""event"",""trial"",""time""
""fullscreenenter"",""1"",""2090""
","
","
","""event"",""trial"",""time""
""fullscreenenter"",""1"",""2090""
","
","","","496.69999998807907","","","22","13377","5882","d","elianto","#3366ff99"," "," ","1","+10","[1348.3999999761581]","1","2","","","13377","35","1","1","win","go","0"
"pit-trial","157","1086916","0.0-40.0","battery-v0.2","","""event"",""trial"",""time""
""fullscreenenter"",""1"",""2090""
","
","
","""event"",""trial"",""time""
""fullscreenenter"",""1"",""2090""
","
","","","1594","","","22","13377","5882","j","elianto","#f73b6a7A","-1"," ","0","0","[2444.0999999940395]","1","2","","","13377","36","0","4","lose","no-go","1"
"pit-trial","158","1090709","0.0-41.0","battery-v0.2","","""event"",""trial"",""time""
""fullscreenenter"",""1"",""2090""
","
","
","""event"",""trial"",""time""
""fullscreenenter"",""1"",""2090""
","
","","","937.0999999940395","","","22","13377","5882","d","elianto","#3366ff99"," "," ","1","0","[1787.5999999940395]","1","2","","","13377","37","1","1","win","go","1"
"pit-trial","159","1095565","0.0-42.0","battery-v0.2","","""event"",""trial"",""time""
""fullscreenenter"",""1"",""2090""
","
","
","""event"",""trial"",""time""
""fullscreenenter"",""1"",""2090""
","
","","","-1","","","22","13377","5882","e","elianto","#f73b6a7A","-1","-1","1","0","[]","0","2","","","13377","38","2","4","lose","no-go","0"
"pit-trial","160","1098943","0.0-43.0","battery-v0.2","","""event"",""trial"",""time""
""fullscreenenter"",""1"",""2090""
","
","
","""event"",""trial"",""time""
""fullscreenenter"",""1"",""2090""
","
","","","521.7000000178814","","","22","13377","5882","w","elianto","#f73b6a7A"," "," ","1","0","[1372.4000000059605]","1","2","","","13377","39","3","3","lose","go","0"
"pit-trial","161","1103800","0.0-44.0","battery-v0.2","","""event"",""trial"",""time""
""fullscreenenter"",""1"",""2090""
","
","
","""event"",""trial"",""time""
""fullscreenenter"",""1"",""2090""
","
","","","-1","","","22","13377","5882","j","elianto","#f73b6a7A","-1","-1","1","0","[2864.5]","1","2","","","13377","40","0","4","lose","no-go","0"
"pit-trial","162","1107652","0.0-45.0","battery-v0.2","","""event"",""trial"",""time""
""fullscreenenter"",""1"",""2090""
","
","
","""event"",""trial"",""time""
""fullscreenenter"",""1"",""2090""
","
","","","996.2000000178814","","","22","13377","5882","j","elianto","#f73b6a7A","-1"," ","0","0","[1846.7000000178814]","1","2","","","13377","41","0","4","lose","no-go","1"
"pit-trial","163","1112510","0.0-46.0","battery-v0.2","","""event"",""trial"",""time""
""fullscreenenter"",""1"",""2090""
","
","
","""event"",""trial"",""time""
""fullscreenenter"",""1"",""2090""
","
","","","-1","","","22","13377","5882","e","elianto","#f73b6a7A","-1","-1","1","0","[]","0","2","","","13377","42","2","4","lose","no-go","0"
"pit-trial","164","1115804","0.0-47.0","battery-v0.2","","""event"",""trial"",""time""
""fullscreenenter"",""1"",""2090""
","
","
","""event"",""trial"",""time""
""fullscreenenter"",""1"",""2090""
","
","","","437.69999998807907","","","22","13377","5882","d","elianto","#3366ff99"," "," ","1","+10","[1289.199999988079]","1","2","","","13377","43","1","1","win","go","0"
"pit-trial","165","1119348","0.0-48.0","battery-v0.2","","""event"",""trial"",""time""
""fullscreenenter"",""1"",""2090""
","
","
","""event"",""trial"",""time""
""fullscreenenter"",""1"",""2090""
","
","","","687.5","","","22","13377","5882","w","elianto","#f73b6a7A"," "," ","1","0","[1538.5]","1","2","","","13377","44","3","3","lose","go","0"
"pit-trial","166","1124205","0.0-49.0","battery-v0.2","","""event"",""trial"",""time""
""fullscreenenter"",""1"",""2090""
","
","
","""event"",""trial"",""time""
""fullscreenenter"",""1"",""2090""
","
","","","-1","","","22","13377","5882","e","elianto","#f73b6a7A","-1","-1","1","0","[]","0","2","","","13377","45","2","4","lose","no-go","0"
"pit-trial","167","1128218","0.0-50.0","battery-v0.2","","""event"",""trial"",""time""
""fullscreenenter"",""1"",""2090""
","
","
","""event"",""trial"",""time""
""fullscreenenter"",""1"",""2090""
","
","","","1156.300000011921","","","22","13377","5882","s","elianto","#3366ff99","-1"," ","0","0","[2007.6000000238419]","1","2","","","13377","46","4","2","win","no-go","0"
"pit-trial","168","1131799","0.0-51.0","battery-v0.2","","""event"",""trial"",""time""
""fullscreenenter"",""1"",""2090""
","
","
","""event"",""trial"",""time""
""fullscreenenter"",""1"",""2090""
","
","","","726.5","","","22","13377","5882","j","elianto","#f73b6a7A","-1"," ","0","-10","[1577]","1","2","","","13377","47","0","4","lose","no-go","0"
"pit-trial","169","1135384","0.0-52.0","battery-v0.2","","""event"",""trial"",""time""
""fullscreenenter"",""1"",""2090""
","
","
","""event"",""trial"",""time""
""fullscreenenter"",""1"",""2090""
","
","","","729","","","22","13377","5882","w","elianto","#f73b6a7A"," "," ","1","0","[1580]","1","2","","","13377","48","3","3","lose","go","0"
"pit-trial","170","1139106","0.0-53.0","battery-v0.2","","""event"",""trial"",""time""
""fullscreenenter"",""1"",""2090""
","
","
","""event"",""trial"",""time""
""fullscreenenter"",""1"",""2090""
","
","","","864.7999999821186","","","22","13377","5882","w","elianto","#f73b6a7A"," "," ","1","-10","[1716.5]","1","2","","","13377","49","3","3","lose","go","1"
"pit-trial","171","1142579","0.0-54.0","battery-v0.2","","""event"",""trial"",""time""
""fullscreenenter"",""1"",""2090""
","
","
","""event"",""trial"",""time""
""fullscreenenter"",""1"",""2090""
","
","","","616.9000000059605","","","22","13377","5882","d","elianto","#3366ff99"," "," ","1","+10","[1468]","1","2","","","13377","50","1","1","win","go","0"
"pit-trial","172","1147435","0.0-55.0","battery-v0.2","","""event"",""trial"",""time""
""fullscreenenter"",""1"",""2090""
","
","
","""event"",""trial"",""time""
""fullscreenenter"",""1"",""2090""
","
","","","-1","","","22","13377","5882","s","elianto","#3366ff99","-1","-1","1","+10","[]","0","2","","","13377","51","4","2","win","no-go","0"
"pit-trial","173","1151238","0.0-56.0","battery-v0.2","","""event"",""trial"",""time""
""fullscreenenter"",""1"",""2090""
","
","
","""event"",""trial"",""time""
""fullscreenenter"",""1"",""2090""
","
","","","947.1999999880791","","","22","13377","5882","j","elianto","#f73b6a7A","-1"," ","0","-10","[1798]","1","2","","","13377","52","0","4","lose","no-go","0"
"pit-trial","174","1156095","0.0-57.0","battery-v0.2","","""event"",""trial"",""time""
""fullscreenenter"",""1"",""2090""
","
","
","""event"",""trial"",""time""
""fullscreenenter"",""1"",""2090""
","
","","","-1","","","22","13377","5882","e","elianto","#f73b6a7A","-1","-1","1","0","[]","0","2","","","13377","53","2","4","lose","no-go","0"
"pit-trial","175","1160952","0.0-58.0","battery-v0.2","","""event"",""trial"",""time""
""fullscreenenter"",""1"",""2090""
","
","
","""event"",""trial"",""time""
""fullscreenenter"",""1"",""2090""
","
","","","-1","","","22","13377","5882","j","elianto","#f73b6a7A","-1","-1","1","0","[]","0","2","","","13377","54","0","4","lose","no-go","0"
"pit-trial","176","1165807","0.0-59.0","battery-v0.2","","""event"",""trial"",""time""
""fullscreenenter"",""1"",""2090""
","
","
","""event"",""trial"",""time""
""fullscreenenter"",""1"",""2090""
","
","","","-1","","","22","13377","5882","s","elianto","#3366ff99","-1","-1","1","+10","[]","0","2","","","13377","55","4","2","win","no-go","0"
"pit-trial","177","1169577","0.0-60.0","battery-v0.2","","""event"",""trial"",""time""
""fullscreenenter"",""1"",""2090""
","
","
","""event"",""trial"",""time""
""fullscreenenter"",""1"",""2090""
","
","","","914.0999999940395","","","22","13377","5882","d","elianto","#3366ff99"," "," ","1","+10","[1765.0999999940395]","1","2","","","13377","56","1","1","win","go","0"
"pit-trial","178","1174434","0.0-61.0","battery-v0.2","","""event"",""trial"",""time""
""fullscreenenter"",""1"",""2090""
","
","
","""event"",""trial"",""time""
""fullscreenenter"",""1"",""2090""
","
","","","-1","","","22","13377","5882","s","elianto","#3366ff99","-1","-1","1","0","[]","0","2","","","13377","57","4","2","win","no-go","1"
"pit-trial","179","1179290","0.0-62.0","battery-v0.2","","""event"",""trial"",""time""
""fullscreenenter"",""1"",""2090""
","
","
","""event"",""trial"",""time""
""fullscreenenter"",""1"",""2090""
","
","","","-1","","","22","13377","5882","j","elianto","#f73b6a7A","-1","-1","1","0","[]","0","2","","","13377","58","0","4","lose","no-go","0"
"pit-trial","180","1182852","0.0-63.0","battery-v0.2","","""event"",""trial"",""time""
""fullscreenenter"",""1"",""2090""
","
","
","""event"",""trial"",""time""
""fullscreenenter"",""1"",""2090""
","
","","","704.5999999940395","","","22","13377","5882","d","elianto","#3366ff99"," "," ","1","+10","[1555.800000011921]","1","2","","","13377","59","1","1","win","go","0"
"pit-trial","181","1186513","0.0-64.0","battery-v0.2","","""event"",""trial"",""time""
""fullscreenenter"",""1"",""2090""
","
","
","""event"",""trial"",""time""
""fullscreenenter"",""1"",""2090""
","
","","","804.1999999880791","","","22","13377","5882","w","elianto","#f73b6a7A"," "," ","1","0","[1655.2000000178814]","1","2","","","13377","60","3","3","lose","go","0"
"pit-trial","182","1190009","0.0-65.0","battery-v0.2","","""event"",""trial"",""time""
""fullscreenenter"",""1"",""2090""
","
","
","""event"",""trial"",""time""
""fullscreenenter"",""1"",""2090""
","
","","","639.5","","","22","13377","5882","d","elianto","#3366ff99"," "," ","1","+10","[1491.2000000178814]","1","2","","","13377","61","1","1","win","go","0"
"pit-trial","183","1193520","0.0-66.0","battery-v0.2","","""event"",""trial"",""time""
""fullscreenenter"",""1"",""2090""
","
","
","""event"",""trial"",""time""
""fullscreenenter"",""1"",""2090""
","
","","","655.0999999940395","","","22","13377","5882","w","elianto","#f73b6a7A"," "," ","1","0","[1505.699999988079]","1","2","","","13377","62","3","3","lose","go","0"
"pit-trial","184","1198377","0.0-67.0","battery-v0.2","","""event"",""trial"",""time""
""fullscreenenter"",""1"",""2090""
","
","
","""event"",""trial"",""time""
""fullscreenenter"",""1"",""2090""
","
","","","-1","","","22","13377","5882","s","elianto","#3366ff99","-1","-1","1","+10","[]","0","2","","","13377","63","4","2","win","no-go","0"
"pit-trial","185","1203233","0.0-68.0","battery-v0.2","","""event"",""trial"",""time""
""fullscreenenter"",""1"",""2090""
","
","
","""event"",""trial"",""time""
""fullscreenenter"",""1"",""2090""
","
","","","-1","","","22","13377","5882","e","elianto","#f73b6a7A","-1","-1","1","-10","[]","0","2","","","13377","64","2","4","lose","no-go","1"
"pit-trial","186","1206784","0.0-69.0","battery-v0.2","","""event"",""trial"",""time""
""fullscreenenter"",""1"",""2090""
","
","
","""event"",""trial"",""time""
""fullscreenenter"",""1"",""2090""
","
","","","696","","","22","13377","5882","e","elianto","#f73b6a7A","-1"," ","0","-10","[1546]","1","2","","","13377","65","2","4","lose","no-go","0"
"pit-trial","187","1210231","0.0-70.0","battery-v0.2","","""event"",""trial"",""time""
""fullscreenenter"",""1"",""2090""
","
","
","""event"",""trial"",""time""
""fullscreenenter"",""1"",""2090""
","
","","","591.3999999761581","","","22","13377","5882","w","elianto","#f73b6a7A"," "," ","1","0","[1441.5999999940395]","1","2","","","13377","66","3","3","lose","go","0"
"pit-trial","188","1213756","0.0-71.0","battery-v0.2","","""event"",""trial"",""time""
""fullscreenenter"",""1"",""2090""
","
","
","""event"",""trial"",""time""
""fullscreenenter"",""1"",""2090""
","
","","","667.8000000119209","","","22","13377","5882","d","elianto","#3366ff99"," "," ","1","+10","[1519.4000000059605]","1","2","","","13377","67","1","1","win","go","0"
"pit-trial","189","1218613","0.0-72.0","battery-v0.2","","""event"",""trial"",""time""
""fullscreenenter"",""1"",""2090""
","
","
","""event"",""trial"",""time""
""fullscreenenter"",""1"",""2090""
","
","","","-1","","","22","13377","5882","s","elianto","#3366ff99","-1","-1","1","+10","[]","0","2","","","13377","68","4","2","win","no-go","0"
"pit-trial","190","1223470","0.0-73.0","battery-v0.2","","""event"",""trial"",""time""
""fullscreenenter"",""1"",""2090""
","
","
","""event"",""trial"",""time""
""fullscreenenter"",""1"",""2090""
","
","","","-1","","","22","13377","5882","s","elianto","#3366ff99","-1","-1","1","+10","[]","0","2","","","13377","69","4","2","win","no-go","0"
"pit-trial","191","1227550","0.0-74.0","battery-v0.2","","""event"",""trial"",""time""
""fullscreenenter"",""1"",""2090""
","
","
","""event"",""trial"",""time""
""fullscreenenter"",""1"",""2090""
","
","","","1223.7000000178814","","","22","13377","5882","p","elianto","#3366ff99"," "," ","1","+10","[2074.2000000178814]","1","2","","","13377","70","5","1","win","go","0"
"pit-trial","192","1231374","0.0-75.0","battery-v0.2","","""event"",""trial"",""time""
""fullscreenenter"",""1"",""2090""
","
","
","""event"",""trial"",""time""
""fullscreenenter"",""1"",""2090""
","
","","","966.9000000059605","","","22","13377","5882","w","elianto","#f73b6a7A"," "," ","1","0","[1818.4000000059605]","1","2","","","13377","71","3","3","lose","go","0"
"pit-trial","193","1234866","0.0-76.0","battery-v0.2","","""event"",""trial"",""time""
""fullscreenenter"",""1"",""2090""
","
","
","""event"",""trial"",""time""
""fullscreenenter"",""1"",""2090""
","
","","","635.9000000059605","","","22","13377","5882","d","elianto","#3366ff99"," "," ","1","+10","[1487.2000000178814]","1","2","","","13377","72","1","1","win","go","0"
"pit-trial","194","1239722","0.0-77.0","battery-v0.2","","""event"",""trial"",""time""
""fullscreenenter"",""1"",""2090""
","
","
","""event"",""trial"",""time""
""fullscreenenter"",""1"",""2090""
","
","","","-1","","","22","13377","5882","s","elianto","#3366ff99","-1","-1","1","+10","[]","0","2","","","13377","73","4","2","win","no-go","0"
"pit-trial","195","1243262","0.0-78.0","battery-v0.2","","""event"",""trial"",""time""
""fullscreenenter"",""1"",""2090""
","
","
","""event"",""trial"",""time""
""fullscreenenter"",""1"",""2090""
","
","","","682.6000000238419","","","22","13377","5882","d","elianto","#3366ff99"," "," ","1","+10","[1533.699999988079]","1","2","","","13377","74","1","1","win","go","0"
"pit-trial","196","1246833","0.0-79.0","battery-v0.2","","""event"",""trial"",""time""
""fullscreenenter"",""1"",""2090""
","
","
","""event"",""trial"",""time""
""fullscreenenter"",""1"",""2090""
","
","","","714.1000000238419","","","22","13377","5882","w","elianto","#f73b6a7A"," "," ","1","0","[1565.699999988079]","1","2","","","13377","75","3","3","lose","go","0"
"pit-trial","197","1250540","0.0-80.0","battery-v0.2","","""event"",""trial"",""time""
""fullscreenenter"",""1"",""2090""
","
","
","""event"",""trial"",""time""
""fullscreenenter"",""1"",""2090""
","
","","","850","","","22","13377","5882","p","elianto","#3366ff99"," "," ","1","+10","[1701.5999999940395]","1","2","","","13377","76","5","1","win","go","0"
"pit-trial","198","1253939","0.0-81.0","battery-v0.2","","""event"",""trial"",""time""
""fullscreenenter"",""1"",""2090""
","
","
","""event"",""trial"",""time""
""fullscreenenter"",""1"",""2090""
","
","","","543.2999999821186","","","22","13377","5882","w","elianto","#f73b6a7A"," "," ","1","0","[1394.5]","1","2","","","13377","77","3","3","lose","go","0"
"pit-trial","199","1258023","0.0-82.0","battery-v0.2","","""event"",""trial"",""time""
""fullscreenenter"",""1"",""2090""
","
","
","""event"",""trial"",""time""
""fullscreenenter"",""1"",""2090""
","
","","","1227.0999999940395","","","22","13377","5882","g","elianto","#f73b6a7A","-1"," ","0","-10","[2078.0999999940395]","1","2","","","13377","78","6","4","lose","no-go","0"
"pit-trial","200","1262256","0.0-83.0","battery-v0.2","","""event"",""trial"",""time""
""fullscreenenter"",""1"",""2090""
","
","
","""event"",""trial"",""time""
""fullscreenenter"",""1"",""2090""
","
","","","1377.2999999821186","","","22","13377","5882","p","elianto","#3366ff99"," "," ","1","+10","[2228.899999976158]","1","2","","","13377","79","5","1","win","go","0"
"pit-trial","201","1267113","0.0-84.0","battery-v0.2","","""event"",""trial"",""time""
""fullscreenenter"",""1"",""2090""
","
","
","""event"",""trial"",""time""
""fullscreenenter"",""1"",""2090""
","
","","","-1","","","22","13377","5882","s","elianto","#3366ff99","-1","-1","1","0","[]","0","2","","","13377","80","4","2","win","no-go","1"
"pit-trial","202","1271209","0.0-85.0","battery-v0.2","","""event"",""trial"",""time""
""fullscreenenter"",""1"",""2090""
","
","
","""event"",""trial"",""time""
""fullscreenenter"",""1"",""2090""
","
","","","1240.2000000178814","","","22","13377","5882","a","elianto","#f73b6a7A"," "," ","1","-10","[2090.5999999940395]","1","2","","","13377","81","7","3","lose","go","1"
"pit-trial","203","1276066","0.0-86.0","battery-v0.2","","""event"",""trial"",""time""
""fullscreenenter"",""1"",""2090""
","
","
","""event"",""trial"",""time""
""fullscreenenter"",""1"",""2090""
","
","","","-1","","","22","13377","5882","g","elianto","#f73b6a7A","-1","-1","1","-10","[]","0","2","","","13377","82","6","4","lose","no-go","1"
"pit-trial","204","1280922","0.0-87.0","battery-v0.2","","""event"",""trial"",""time""
""fullscreenenter"",""1"",""2090""
","
","
","""event"",""trial"",""time""
""fullscreenenter"",""1"",""2090""
","
","","","-1","","","22","13377","5882","s","elianto","#3366ff99","-1","-1","1","+10","[]","0","2","","","13377","83","4","2","win","no-go","0"
"pit-trial","205","1285778","0.0-88.0","battery-v0.2","","""event"",""trial"",""time""
""fullscreenenter"",""1"",""2090""
","
","
","""event"",""trial"",""time""
""fullscreenenter"",""1"",""2090""
","
","","","-1","","","22","13377","5882","p","elianto","#3366ff99"," ","-1","0","0","[]","0","2","","","13377","84","5","1","win","go","0"
"pit-trial","206","1290635","0.0-89.0","battery-v0.2","","""event"",""trial"",""time""
""fullscreenenter"",""1"",""2090""
","
","
","""event"",""trial"",""time""
""fullscreenenter"",""1"",""2090""
","
","","","-1","","","22","13377","5882","g","elianto","#f73b6a7A","-1","-1","1","0","[]","0","2","","","13377","85","6","4","lose","no-go","0"
"pit-trial","207","1294692","0.0-90.0","battery-v0.2","","""event"",""trial"",""time""
""fullscreenenter"",""1"",""2090""
","
","
","""event"",""trial"",""time""
""fullscreenenter"",""1"",""2090""
","
","","","1199.699999988079","","","22","13377","5882","p","elianto","#3366ff99"," "," ","1","+10","[2050.7999999821186]","1","2","","","13377","86","5","1","win","go","0"
"pit-trial","208","1299549","0.0-91.0","battery-v0.2","","""event"",""trial"",""time""
""fullscreenenter"",""1"",""2090""
","
","
","""event"",""trial"",""time""
""fullscreenenter"",""1"",""2090""
","
","","","-1","","","22","13377","5882","a","elianto","#f73b6a7A"," ","-1","0","0","[]","0","2","","","13377","87","7","3","lose","go","1"
"pit-trial","209","1303568","0.0-92.0","battery-v0.2","","""event"",""trial"",""time""
""fullscreenenter"",""1"",""2090""
","
","
","""event"",""trial"",""time""
""fullscreenenter"",""1"",""2090""
","
","","","1162.2999999821186","","","22","13377","5882","s","elianto","#3366ff99","-1"," ","0","0","[2013.699999988079]","1","2","","","13377","88","4","2","win","no-go","0"
"pit-trial","210","1306964","0.0-93.0","battery-v0.2","","""event"",""trial"",""time""
""fullscreenenter"",""1"",""2090""
","
","
","""event"",""trial"",""time""
""fullscreenenter"",""1"",""2090""
","
","","","540.5999999940395","","","22","13377","5882","p","elianto","#3366ff99"," "," ","1","+10","[1391.2999999821186]","1","2","","","13377","89","5","1","win","go","0"
"pit-trial","211","1311822","0.0-94.0","battery-v0.2","","""event"",""trial"",""time""
""fullscreenenter"",""1"",""2090""
","
","
","""event"",""trial"",""time""
""fullscreenenter"",""1"",""2090""
","
","","","-1","","","22","13377","5882","a","elianto","#f73b6a7A"," ","-1","0","0","[]","0","2","","","13377","90","7","3","lose","go","1"
"pit-trial","212","1316679","0.0-95.0","battery-v0.2","","""event"",""trial"",""time""
""fullscreenenter"",""1"",""2090""
","
","
","""event"",""trial"",""time""
""fullscreenenter"",""1"",""2090""
","
","","","-1","","","22","13377","5882","g","elianto","#f73b6a7A","-1","-1","1","0","[]","0","2","","","13377","91","6","4","lose","no-go","0"
"pit-trial","213","1321536","0.0-96.0","battery-v0.2","","""event"",""trial"",""time""
""fullscreenenter"",""1"",""2090""
","
","
","""event"",""trial"",""time""
""fullscreenenter"",""1"",""2090""
","
","","","-1","","","22","13377","5882","s","elianto","#3366ff99","-1","-1","1","+10","[]","0","2","","","13377","92","4","2","win","no-go","0"
"pit-trial","214","1326392","0.0-97.0","battery-v0.2","","""event"",""trial"",""time""
""fullscreenenter"",""1"",""2090""
","
","
","""event"",""trial"",""time""
""fullscreenenter"",""1"",""2090""
","
","","","-1","","","22","13377","5882","g","elianto","#f73b6a7A","-1","-1","1","-10","[]","0","2","","","13377","93","6","4","lose","no-go","1"
"pit-trial","215","1329985","0.0-98.0","battery-v0.2","","""event"",""trial"",""time""
""fullscreenenter"",""1"",""2090""
","
","
","""event"",""trial"",""time""
""fullscreenenter"",""1"",""2090""
","
","","","736.6999999880791","","","22","13377","5882","p","elianto","#3366ff99"," "," ","1","0","[1588]","1","2","","","13377","94","5","1","win","go","1"
"pit-trial","216","1333827","0.0-99.0","battery-v0.2","","""event"",""trial"",""time""
""fullscreenenter"",""1"",""2090""
","
","
","""event"",""trial"",""time""
""fullscreenenter"",""1"",""2090""
","
","","","986.0999999940395","","","22","13377","5882","l","elianto","#3366ff99","-1"," ","0","+10","[1836.4000000059605]","1","2","","","13377","95","8","2","win","no-go","1"
"pit-trial","217","1337462","0.0-100.0","battery-v0.2","","""event"",""trial"",""time""
""fullscreenenter"",""1"",""2090""
","
","
","""event"",""trial"",""time""
""fullscreenenter"",""1"",""2090""
","
","","","778","","","22","13377","5882","a","elianto","#f73b6a7A"," "," ","1","-10","[1629.7999999821186]","1","2","","","13377","96","7","3","lose","go","1"
"pit-trial","218","1341234","0.0-101.0","battery-v0.2","","""event"",""trial"",""time""
""fullscreenenter"",""1"",""2090""
","
","
","""event"",""trial"",""time""
""fullscreenenter"",""1"",""2090""
","
","","","915.0999999940395","","","22","13377","5882","p","elianto","#3366ff99"," "," ","1","+10","[1766.5]","1","2","","","13377","97","5","1","win","go","0"
"pit-trial","219","1345628","0.0-102.0","battery-v0.2","","""event"",""trial"",""time""
""fullscreenenter"",""1"",""2090""
","
","
","""event"",""trial"",""time""
""fullscreenenter"",""1"",""2090""
","
","","","1536.6000000238419","","","22","13377","5882","a","elianto","#f73b6a7A"," "," ","1","0","[2388.300000011921]","1","2","","","13377","98","7","3","lose","go","0"
"pit-trial","220","1349890","0.0-103.0","battery-v0.2","","""event"",""trial"",""time""
""fullscreenenter"",""1"",""2090""
","
","
","""event"",""trial"",""time""
""fullscreenenter"",""1"",""2090""
","
","","","1405.800000011921","","","22","13377","5882","g","elianto","#f73b6a7A","-1"," ","0","-10","[2257.5999999940395]","1","2","","","13377","99","6","4","lose","no-go","0"
"pit-trial","221","1353747","0.0-104.0","battery-v0.2","","""event"",""trial"",""time""
""fullscreenenter"",""1"",""2090""
","
","
","""event"",""trial"",""time""
""fullscreenenter"",""1"",""2090""
","
","","","1000.8000000119209","","","22","13377","5882","l","elianto","#3366ff99","-1"," ","0","0","[1851.5999999940395]","1","2","","","13377","100","8","2","win","no-go","0"
"pit-trial","222","1358605","0.0-105.0","battery-v0.2","","""event"",""trial"",""time""
""fullscreenenter"",""1"",""2090""
","
","
","""event"",""trial"",""time""
""fullscreenenter"",""1"",""2090""
","
","","","-1","","","22","13377","5882","g","elianto","#f73b6a7A","-1","-1","1","0","[]","0","2","","","13377","101","6","4","lose","no-go","0"
"pit-trial","223","1362029","0.0-106.0","battery-v0.2","","""event"",""trial"",""time""
""fullscreenenter"",""1"",""2090""
","
","
","""event"",""trial"",""time""
""fullscreenenter"",""1"",""2090""
","
","","","568.8000000119209","","","22","13377","5882","p","elianto","#3366ff99"," "," ","1","0","[1419.2999999821186]","1","2","","","13377","102","5","1","win","go","1"
"pit-trial","224","1365874","0.0-107.0","battery-v0.2","","""event"",""trial"",""time""
""fullscreenenter"",""1"",""2090""
","
","
","""event"",""trial"",""time""
""fullscreenenter"",""1"",""2090""
","
","","","987.4000000059605","","","22","13377","5882","l","elianto","#3366ff99","-1"," ","0","0","[1839.3999999761581]","1","2","","","13377","103","8","2","win","no-go","0"
"pit-trial","225","1370730","0.0-108.0","battery-v0.2","","""event"",""trial"",""time""
""fullscreenenter"",""1"",""2090""
","
","
","""event"",""trial"",""time""
""fullscreenenter"",""1"",""2090""
","
","","","-1","","","22","13377","5882","u","elianto","#3366ff99","-1","-1","1","0","[]","0","2","","","13377","104","9","2","win","no-go","1"
"pit-trial","226","1375038","0.0-109.0","battery-v0.2","","""event"",""trial"",""time""
""fullscreenenter"",""1"",""2090""
","
","
","""event"",""trial"",""time""
""fullscreenenter"",""1"",""2090""
","
","","","1450.9000000059605","","","22","13377","5882","p","elianto","#3366ff99"," "," ","1","0","[2302.800000011921,2625.9000000059605]","2","2","","","13377","105","5","1","win","go","1"
"pit-trial","227","1378548","0.0-110.0","battery-v0.2","","""event"",""trial"",""time""
""fullscreenenter"",""1"",""2090""
","
","
","""event"",""trial"",""time""
""fullscreenenter"",""1"",""2090""
","
","","","653.9000000059605","","","22","13377","5882","g","elianto","#f73b6a7A","-1"," ","0","0","[1505.199999988079]","1","2","","","13377","106","6","4","lose","no-go","1"
"pit-trial","228","1383404","0.0-111.0","battery-v0.2","","""event"",""trial"",""time""
""fullscreenenter"",""1"",""2090""
","
","
","""event"",""trial"",""time""
""fullscreenenter"",""1"",""2090""
","
","","","-1","","","22","13377","5882","u","elianto","#3366ff99","-1","-1","1","0","[]","0","2","","","13377","107","9","2","win","no-go","1"
"pit-trial","229","1387176","0.0-112.0","battery-v0.2","","""event"",""trial"",""time""
""fullscreenenter"",""1"",""2090""
","
","
","""event"",""trial"",""time""
""fullscreenenter"",""1"",""2090""
","
","","","916.0999999940395","","","22","13377","5882","l","elianto","#3366ff99","-1"," ","0","0","[1766.800000011921]","1","2","","","13377","108","8","2","win","no-go","0"
"pit-trial","230","1392034","0.0-113.0","battery-v0.2","","""event"",""trial"",""time""
""fullscreenenter"",""1"",""2090""
","
","
","""event"",""trial"",""time""
""fullscreenenter"",""1"",""2090""
","
","","","-1","","","22","13377","5882","l","elianto","#3366ff99","-1","-1","1","+10","[]","0","2","","","13377","109","8","2","win","no-go","0"
"pit-trial","231","1395489","0.0-114.0","battery-v0.2","","""event"",""trial"",""time""
""fullscreenenter"",""1"",""2090""
","
","
","""event"",""trial"",""time""
""fullscreenenter"",""1"",""2090""
","
","","","598.0999999940395","","","22","13377","5882","p","elianto","#3366ff99"," "," ","1","+10","[1449]","1","2","","","13377","110","5","1","win","go","0"
"pit-trial","232","1399198","0.0-115.0","battery-v0.2","","""event"",""trial"",""time""
""fullscreenenter"",""1"",""2090""
","
","
","""event"",""trial"",""time""
""fullscreenenter"",""1"",""2090""
","
","","","854.4000000059605","","","22","13377","5882","u","elianto","#3366ff99","-1"," ","0","0","[1704.300000011921]","1","2","","","13377","111","9","2","win","no-go","0"
"pit-trial","233","1404054","0.0-116.0","battery-v0.2","","""event"",""trial"",""time""
""fullscreenenter"",""1"",""2090""
","
","
","""event"",""trial"",""time""
""fullscreenenter"",""1"",""2090""
","
","","","-1","","","22","13377","5882","g","elianto","#f73b6a7A","-1","-1","1","0","[]","0","2","","","13377","112","6","4","lose","no-go","0"
"pit-trial","234","1408912","0.0-117.0","battery-v0.2","","""event"",""trial"",""time""
""fullscreenenter"",""1"",""2090""
","
","
","""event"",""trial"",""time""
""fullscreenenter"",""1"",""2090""
","
","","","-1","","","22","13377","5882","l","elianto","#3366ff99","-1","-1","1","+10","[]","0","2","","","13377","113","8","2","win","no-go","0"
"pit-trial","235","1412913","0.0-118.0","battery-v0.2","","""event"",""trial"",""time""
""fullscreenenter"",""1"",""2090""
","
","
","""event"",""trial"",""time""
""fullscreenenter"",""1"",""2090""
","
","","","1144.5","","","22","13377","5882","a","elianto","#f73b6a7A"," "," ","1","0","[1996]","1","2","","","13377","114","7","3","lose","go","0"
"pit-trial","236","1417770","0.0-119.0","battery-v0.2","","""event"",""trial"",""time""
""fullscreenenter"",""1"",""2090""
","
","
","""event"",""trial"",""time""
""fullscreenenter"",""1"",""2090""
","
","","","-1","","","22","13377","5882","u","elianto","#3366ff99","-1","-1","1","+10","[]","0","2","","","13377","115","9","2","win","no-go","0"
"pit-trial","237","1421240","0.0-120.0","battery-v0.2","","""event"",""trial"",""time""
""fullscreenenter"",""1"",""2090""
","
","
","""event"",""trial"",""time""
""fullscreenenter"",""1"",""2090""
","
","","","613.3999999761581","","","22","13377","5882","p","elianto","#3366ff99"," "," ","1","+10","[1464.699999988079]","1","2","","","13377","116","5","1","win","go","0"
"pit-trial","238","1424687","0.0-121.0","battery-v0.2","","""event"",""trial"",""time""
""fullscreenenter"",""1"",""2090""
","
","
","""event"",""trial"",""time""
""fullscreenenter"",""1"",""2090""
","
","","","591","","","22","13377","5882","p","elianto","#3366ff99"," "," ","1","+10","[1442.4000000059605]","1","2","","","13377","117","5","1","win","go","0"
"pit-trial","239","1429545","0.0-122.0","battery-v0.2","","""event"",""trial"",""time""
""fullscreenenter"",""1"",""2090""
","
","
","""event"",""trial"",""time""
""fullscreenenter"",""1"",""2090""
","
","","","-1","","","22","13377","5882","g","elianto","#f73b6a7A","-1","-1","1","0","[]","0","2","","","13377","118","6","4","lose","no-go","0"
"pit-trial","240","1434401","0.0-123.0","battery-v0.2","","""event"",""trial"",""time""
""fullscreenenter"",""1"",""2090""
","
","
","""event"",""trial"",""time""
""fullscreenenter"",""1"",""2090""
","
","","","-1","","","22","13377","5882","u","elianto","#3366ff99","-1","-1","1","+10","[]","0","2","","","13377","119","9","2","win","no-go","0"
"pit-trial","241","1439258","0.0-124.0","battery-v0.2","","""event"",""trial"",""time""
""fullscreenenter"",""1"",""2090""
","
","
","""event"",""trial"",""time""
""fullscreenenter"",""1"",""2090""
","
","","","-1","","","22","13377","5882","l","elianto","#3366ff99","-1","-1","1","+10","[]","0","2","","","13377","120","8","2","win","no-go","0"
"pit-trial","242","1444115","0.0-125.0","battery-v0.2","","""event"",""trial"",""time""
""fullscreenenter"",""1"",""2090""
","
","
","""event"",""trial"",""time""
""fullscreenenter"",""1"",""2090""
","
","","","-1","","","22","13377","5882","u","elianto","#3366ff99","-1","-1","1","+10","[]","0","2","","","13377","121","9","2","win","no-go","0"
"pit-trial","243","1447547","0.0-126.0","battery-v0.2","","""event"",""trial"",""time""
""fullscreenenter"",""1"",""2090""
","
","
","""event"",""trial"",""time""
""fullscreenenter"",""1"",""2090""
","
","","","576.4000000059605","","","22","13377","5882","l","elianto","#3366ff99","-1"," ","0","0","[1427.2000000178814]","1","2","","","13377","122","8","2","win","no-go","0"
"pit-trial","244","1451045","0.0-127.0","battery-v0.2","","""event"",""trial"",""time""
""fullscreenenter"",""1"",""2090""
","
","
","""event"",""trial"",""time""
""fullscreenenter"",""1"",""2090""
","
","","","641","","","22","13377","5882","p","elianto","#3366ff99"," "," ","1","+10","[1492.2999999821186]","1","2","","","13377","123","5","1","win","go","0"
"pit-trial","245","1455902","0.0-128.0","battery-v0.2","","""event"",""trial"",""time""
""fullscreenenter"",""1"",""2090""
","
","
","""event"",""trial"",""time""
""fullscreenenter"",""1"",""2090""
","
","","","-1","","","22","13377","5882","a","elianto","#f73b6a7A"," ","-1","0","-10","[]","0","2","","","13377","124","7","3","lose","go","0"
"pit-trial","246","1460758","0.0-129.0","battery-v0.2","","""event"",""trial"",""time""
""fullscreenenter"",""1"",""2090""
","
","
","""event"",""trial"",""time""
""fullscreenenter"",""1"",""2090""
","
","","","-1","","","22","13377","5882","l","elianto","#3366ff99","-1","-1","1","+10","[]","0","2","","","13377","125","8","2","win","no-go","0"
"pit-trial","247","1465616","0.0-130.0","battery-v0.2","","""event"",""trial"",""time""
""fullscreenenter"",""1"",""2090""
","
","
","""event"",""trial"",""time""
""fullscreenenter"",""1"",""2090""
","
","","","-1","","","22","13377","5882","g","elianto","#f73b6a7A","-1","-1","1","0","[]","0","2","","","13377","126","6","4","lose","no-go","0"
"pit-trial","248","1470472","0.0-131.0","battery-v0.2","","""event"",""trial"",""time""
""fullscreenenter"",""1"",""2090""
","
","
","""event"",""trial"",""time""
""fullscreenenter"",""1"",""2090""
","
","","","-1","","","22","13377","5882","u","elianto","#3366ff99","-1","-1","1","+10","[]","0","2","","","13377","127","9","2","win","no-go","0"
"pit-trial","249","1474385","0.0-132.0","battery-v0.2","","""event"",""trial"",""time""
""fullscreenenter"",""1"",""2090""
","
","
","""event"",""trial"",""time""
""fullscreenenter"",""1"",""2090""
","
","","","1056.9000000059605","","","22","13377","5882","a","elianto","#f73b6a7A"," "," ","1","0","[1907.1000000238419]","1","2","","","13377","128","7","3","lose","go","0"
"pit-trial","250","1479242","0.0-133.0","battery-v0.2","","""event"",""trial"",""time""
""fullscreenenter"",""1"",""2090""
","
","
","""event"",""trial"",""time""
""fullscreenenter"",""1"",""2090""
","
","","","-1","","","22","13377","5882","g","elianto","#f73b6a7A","-1","-1","1","0","[]","0","2","","","13377","129","6","4","lose","no-go","0"
"pit-trial","251","1484099","0.0-134.0","battery-v0.2","","""event"",""trial"",""time""
""fullscreenenter"",""1"",""2090""
","
","
","""event"",""trial"",""time""
""fullscreenenter"",""1"",""2090""
","
","","","-1","","","22","13377","5882","u","elianto","#3366ff99","-1","-1","1","0","[]","0","2","","","13377","130","9","2","win","no-go","1"
"pit-trial","252","1488956","0.0-135.0","battery-v0.2","","""event"",""trial"",""time""
""fullscreenenter"",""1"",""2090""
","
","
","""event"",""trial"",""time""
""fullscreenenter"",""1"",""2090""
","
","","","-1","","","22","13377","5882","l","elianto","#3366ff99","-1","-1","1","0","[]","0","2","","","13377","131","8","2","win","no-go","1"
"pit-trial","253","1492790","0.0-136.0","battery-v0.2","","""event"",""trial"",""time""
""fullscreenenter"",""1"",""2090""
","
","
","""event"",""trial"",""time""
""fullscreenenter"",""1"",""2090""
","
","","","977.2999999821186","","","22","13377","5882","a","elianto","#f73b6a7A"," "," ","1","0","[1828.5]","1","2","","","13377","132","7","3","lose","go","0"
"pit-trial","254","1497647","0.0-137.0","battery-v0.2","","""event"",""trial"",""time""
""fullscreenenter"",""1"",""2090""
","
","
","""event"",""trial"",""time""
""fullscreenenter"",""1"",""2090""
","
","","","-1","","","22","13377","5882","u","elianto","#3366ff99","-1","-1","1","0","[]","0","2","","","13377","133","9","2","win","no-go","1"
"pit-trial","255","1501377","0.0-138.0","battery-v0.2","","""event"",""trial"",""time""
""fullscreenenter"",""1"",""2090""
","
","
","""event"",""trial"",""time""
""fullscreenenter"",""1"",""2090""
","
","","","873.7000000178814","","","22","13377","5882","a","elianto","#f73b6a7A"," "," ","1","0","[1725]","1","2","","","13377","134","7","3","lose","go","0"
"pit-trial","256","1506234","0.0-139.0","battery-v0.2","","""event"",""trial"",""time""
""fullscreenenter"",""1"",""2090""
","
","
","""event"",""trial"",""time""
""fullscreenenter"",""1"",""2090""
","
","","","-1","","","22","13377","5882","l","elianto","#3366ff99","-1","-1","1","+10","[]","0","2","","","13377","135","8","2","win","no-go","0"
"pit-trial","257","1511089","0.0-140.0","battery-v0.2","","""event"",""trial"",""time""
""fullscreenenter"",""1"",""2090""
","
","
","""event"",""trial"",""time""
""fullscreenenter"",""1"",""2090""
","
","","","-1","","","22","13377","5882","g","elianto","#f73b6a7A","-1","-1","1","-10","[3047.7000000178814]","1","2","","","13377","136","6","4","lose","no-go","1"
"pit-trial","258","1515946","0.0-141.0","battery-v0.2","","""event"",""trial"",""time""
""fullscreenenter"",""1"",""2090""
","
","
","""event"",""trial"",""time""
""fullscreenenter"",""1"",""2090""
","
","","","-1","","","22","13377","5882","l","elianto","#3366ff99","-1","-1","1","+10","[]","0","2","","","13377","137","8","2","win","no-go","0"
"pit-trial","259","1519526","0.0-142.0","battery-v0.2","","""event"",""trial"",""time""
""fullscreenenter"",""1"",""2090""
","
","
","""event"",""trial"",""time""
""fullscreenenter"",""1"",""2090""
","
","","","722.9000000059605","","","22","13377","5882","g","elianto","#f73b6a7A","-1"," ","0","-10","[1574.2000000178814]","1","2","","","13377","138","6","4","lose","no-go","0"
"pit-trial","260","1523034","0.0-143.0","battery-v0.2","","""event"",""trial"",""time""
""fullscreenenter"",""1"",""2090""
","
","
","""event"",""trial"",""time""
""fullscreenenter"",""1"",""2090""
","
","","","651.9000000059605","","","22","13377","5882","a","elianto","#f73b6a7A"," "," ","1","0","[1502.6000000238419]","1","2","","","13377","139","7","3","lose","go","0"
"pit-trial","261","1527891","0.0-144.0","battery-v0.2","","""event"",""trial"",""time""
""fullscreenenter"",""1"",""2090""
","
","
","""event"",""trial"",""time""
""fullscreenenter"",""1"",""2090""
","
","","","-1","","","22","13377","5882","u","elianto","#3366ff99","-1","-1","1","+10","[]","0","2","","","13377","140","9","2","win","no-go","0"
"pit-instructions","262","1746810","0.0-145.0","battery-v0.2","","""event"",""trial"",""time""
""fullscreenenter"",""1"",""2090""
","
","
","""event"",""trial"",""time""
""fullscreenenter"",""1"",""2090""
","
","","[{""page_index"":0,""viewing_time"":210694.40000000596},{""page_index"":1,""viewing_time"":8216.899999976158}]","218911.79999998212","","","","","","","","","","","","","","","","","","","","","","","",""
"pit-trial","263","1750510","0.0-146.0","battery-v0.2","","""event"",""trial"",""time""
""fullscreenenter"",""1"",""2090""
","
","
","""event"",""trial"",""time""
""fullscreenenter"",""1"",""2090""
","
","","","840","","","22","13377","5882","n","elianto","#f73b6a7A"," "," ","1","0","[1691.5999999940395]","1","3","","","13377","141","0","3","lose","go","0"
"pit-trial","264","1754067","0.0-147.0","battery-v0.2","","""event"",""trial"",""time""
""fullscreenenter"",""1"",""2090""
","
","
","""event"",""trial"",""time""
""fullscreenenter"",""1"",""2090""
","
","","","701.5999999940395","","","22","13377","5882","b","elianto","#f73b6a7A","-1"," ","0","-10","[1551.9000000059605]","1","3","","","13377","142","3","4","lose","no-go","0"
"pit-trial","265","1757490","0.0-148.0","battery-v0.2","","""event"",""trial"",""time""
""fullscreenenter"",""1"",""2090""
","
","
","""event"",""trial"",""time""
""fullscreenenter"",""1"",""2090""
","
","","","566","","","22","13377","5882","t","elianto","#f73b6a7A"," "," ","1","0","[1417.5]","1","3","","","13377","143","2","3","lose","go","0"
"pit-trial","266","1761224","0.0-149.0","battery-v0.2","","""event"",""trial"",""time""
""fullscreenenter"",""1"",""2090""
","
","
","""event"",""trial"",""time""
""fullscreenenter"",""1"",""2090""
","
","","","877.6999999880791","","","22","13377","5882","f","elianto","#3366ff99","-1"," ","0","0","[1729.800000011921]","1","3","","","13377","144","1","2","win","no-go","0"
"pit-trial","267","1764827","0.0-150.0","battery-v0.2","","""event"",""trial"",""time""
""fullscreenenter"",""1"",""2090""
","
","
","""event"",""trial"",""time""
""fullscreenenter"",""1"",""2090""
","
