"trial_type","trial_index","time_elapsed","internal_node_id","task_version","subject_id","interactions","blur_events","focus_events","fullscreenenter_events","fullscreenexit_events","success","view_history","rt","responses","num_errors","age","subject","participantId","rune","rune_set","hex","correct","choice","accuracy","outcome","keys","total_keys","block","practice","value","sub","trial","stimulus","robot","valence","action","sham"
"pavlovia","0","8","0.0-0.0","battery-v0.2","","""event"",""trial"",""time""
""fullscreenenter"",""1"",""3254""
","
","
","""event"",""trial"",""time""
""fullscreenenter"",""1"",""3254""
","
","","","","","","","","","","","","","","","","","","","","","","","","","","",""
"fullscreen","1","4226","0.0-1.0","battery-v0.2","","""event"",""trial"",""time""
""fullscreenenter"",""1"",""3254""
","
","
","""event"",""trial"",""time""
""fullscreenenter"",""1"",""3254""
","
","true","","","","","","","","","","","","","","","","","","","","","","","","","",""
"pit-instructions","2","10197","0.0-2.0-0.0","battery-v0.2","","""event"",""trial"",""time""
""fullscreenenter"",""1"",""3254""
","
","
","""event"",""trial"",""time""
""fullscreenenter"",""1"",""3254""
","
","","[{""page_index"":0,""viewing_time"":5961.700000047684}]","5962.100000023842","","","","","","","","","","","","","","","","","","","","","","","",""
"pit-comprehension","3","14127","0.0-2.0-1.0-0.0","battery-v0.2","","""event"",""trial"",""time""
""fullscreenenter"",""1"",""3254""
","
","
","""event"",""trial"",""time""
""fullscreenenter"",""1"",""3254""
","
","","","3926.5","[""shark""]","0","25","7846","4155","","","","","","","","","","","","","","","","","","",""
"pit-instructions","4","17090","0.0-2.0-1.0-1.0","battery-v0.2","","""event"",""trial"",""time""
""fullscreenenter"",""1"",""3254""
","
","
","""event"",""trial"",""time""
""fullscreenenter"",""1"",""3254""
","
","","[{""page_index"":0,""viewing_time"":2944.5}]","2944.7999999523163","","","","","","","","","","","","","","","","","","","","","","","",""
"pit-comprehension","5","19821","0.0-2.0-2.0-0.0","battery-v0.2","","""event"",""trial"",""time""
""fullscreenenter"",""1"",""3254""
","
","
","""event"",""trial"",""time""
""fullscreenenter"",""1"",""3254""
","
","","","2726.899999976158","[""tiger""]","0","25","7846","4155","","","","","","","","","","","","","","","","","","",""
"pit-instructions","6","21218","0.0-2.0-2.0-1.0","battery-v0.2","","""event"",""trial"",""time""
""fullscreenenter"",""1"",""3254""
","
","
","""event"",""trial"",""time""
""fullscreenenter"",""1"",""3254""
","
","","[{""page_index"":0,""viewing_time"":1392.6000000238419}]","1393","","","","","","","","","","","","","","","","","","","","","","","",""
"pit-instructions","7","138858","0.0-2.0-3.0","battery-v0.2","","""event"",""trial"",""time""
""fullscreenenter"",""1"",""3254""
","
","
","""event"",""trial"",""time""
""fullscreenenter"",""1"",""3254""
","
","","[{""page_index"":0,""viewing_time"":9961},{""page_index"":1,""viewing_time"":6363.600000023842},{""page_index"":2,""viewing_time"":7018.399999976158},{""page_index"":3,""viewing_time"":5568},{""page_index"":4,""viewing_time"":6912},{""page_index"":5,""viewing_time"":5993.600000023842},{""page_index"":6,""viewing_time"":8342.399999976158},{""page_index"":7,""viewing_time"":7357.5},{""page_index"":8,""viewing_time"":6252.100000023842},{""page_index"":9,""viewing_time"":21286.099999904633},{""page_index"":10,""viewing_time"":7958.100000023842},{""page_index"":11,""viewing_time"":10101.899999976158},{""page_index"":12,""viewing_time"":6234},{""page_index"":13,""viewing_time"":8287.700000047684}]","117636.69999992847","","","","","","","","","","","","","","","","","","","","","","","",""
"pit-trial","8","143732","0.0-2.0-4.0-0.0","battery-v0.2","","""event"",""trial"",""time""
""fullscreenenter"",""1"",""3254""
","
","
","""event"",""trial"",""time""
""fullscreenenter"",""1"",""3254""
","
","","","-1","","","25","7846","4155","&#9784;","elianto","#FFFFF080"," ","-1","0","&#10060","[]","0","0","0","","","","","","","",""
"pit-trial","9","148348","0.0-2.0-4.1-0.1","battery-v0.2","","""event"",""trial"",""time""
""fullscreenenter"",""1"",""3254""
","
","
","""event"",""trial"",""time""
""fullscreenenter"",""1"",""3254""
","
","","","1746.0999999046326","","","25","7846","4155","&#9784;","elianto","#FFFFF080"," "," ","1","&#10004","[2598.100000023842]","1","0","0","","","","","","","",""
"pit-trial","10","152071","0.0-2.0-4.2-0.2","battery-v0.2","","""event"",""trial"",""time""
""fullscreenenter"",""1"",""3254""
","
","
","""event"",""trial"",""time""
""fullscreenenter"",""1"",""3254""
","
","","","859","","","25","7846","4155","&#9784;","elianto","#FFFFF080"," "," ","1","&#10004","[1712]","1","0","0","","","","","","","",""
"pit-trial","11","155683","0.0-2.0-4.3-0.3","battery-v0.2","","""event"",""trial"",""time""
""fullscreenenter"",""1"",""3254""
","
","
","""event"",""trial"",""time""
""fullscreenenter"",""1"",""3254""
","
","","","744.6999999284744","","","25","7846","4155","&#9784;","elianto","#FFFFF080"," "," ","1","&#10004","[1596.2999999523163]","1","0","0","","","","","","","",""
"pit-trial","12","159455","0.0-2.0-4.4-0.4","battery-v0.2","","""event"",""trial"",""time""
""fullscreenenter"",""1"",""3254""
","
","
","""event"",""trial"",""time""
""fullscreenenter"",""1"",""3254""
","
","","","908.2000000476837","","","25","7846","4155","&#9784;","elianto","#FFFFF080"," "," ","1","&#10004","[1766.2000000476837]","1","0","0","","","","","","","",""
"pit-instructions","13","183787","0.0-2.0-5.0","battery-v0.2","","""event"",""trial"",""time""
""fullscreenenter"",""1"",""3254""
","
","
","""event"",""trial"",""time""
""fullscreenenter"",""1"",""3254""
","
","","[{""page_index"":0,""viewing_time"":6644.5},{""page_index"":1,""viewing_time"":7143.799999952316},{""page_index"":2,""viewing_time"":5134.5},{""page_index"":3,""viewing_time"":5403.600000023842}]","24326.799999952316","","","","","","","","","","","","","","","","","","","","","","","",""
"pit-trial","14","188659","0.0-2.0-6.0-0.0","battery-v0.2","","""event"",""trial"",""time""
""fullscreenenter"",""1"",""3254""
","
","
","""event"",""trial"",""time""
""fullscreenenter"",""1"",""3254""
","
","","","-1","","","25","7846","4155","&#9854;","elianto","#FFFFF080","-1","-1","1","&#10004","[]","0","0","1","","","","","","","",""
"pit-trial","15","193527","0.0-2.0-6.1-0.1","battery-v0.2","","""event"",""trial"",""time""
""fullscreenenter"",""1"",""3254""
","
","
","""event"",""trial"",""time""
""fullscreenenter"",""1"",""3254""
","
","","","-1","","","25","7846","4155","&#9854;","elianto","#FFFFF080","-1","-1","1","&#10004","[]","0","0","1","","","","","","","",""
"pit-trial","16","198394","0.0-2.0-6.2-0.2","battery-v0.2","","""event"",""trial"",""time""
""fullscreenenter"",""1"",""3254""
","
","
","""event"",""trial"",""time""
""fullscreenenter"",""1"",""3254""
","
","","","-1","","","25","7846","4155","&#9854;","elianto","#FFFFF080","-1","-1","1","&#10004","[]","0","0","1","","","","","","","",""
"pit-trial","17","203269","0.0-2.0-6.3-0.3","battery-v0.2","","""event"",""trial"",""time""
""fullscreenenter"",""1"",""3254""
","
","
","""event"",""trial"",""time""
""fullscreenenter"",""1"",""3254""
","
","","","-1","","","25","7846","4155","&#9854;","elianto","#FFFFF080","-1","-1","1","&#10004","[]","0","0","1","","","","","","","",""
"pit-trial","18","208140","0.0-2.0-6.4-0.4","battery-v0.2","","""event"",""trial"",""time""
""fullscreenenter"",""1"",""3254""
","
","
","""event"",""trial"",""time""
""fullscreenenter"",""1"",""3254""
","
","","","-1","","","25","7846","4155","&#9854;","elianto","#FFFFF080","-1","-1","1","&#10004","[]","0","0","1","","","","","","","",""
"pit-instructions","19","360251","0.0-2.0-7.0","battery-v0.2","","""event"",""trial"",""time""
""fullscreenenter"",""1"",""3254""
","
","
","""event"",""trial"",""time""
""fullscreenenter"",""1"",""3254""
","
","","[{""page_index"":0,""viewing_time"":5989.599999904633},{""page_index"":1,""viewing_time"":7705.900000095367},{""page_index"":2,""viewing_time"":6496},{""page_index"":3,""viewing_time"":6584},{""page_index"":4,""viewing_time"":6743.799999952316},{""page_index"":5,""viewing_time"":6154.399999976158},{""page_index"":6,""viewing_time"":6565.399999976158},{""page_index"":7,""viewing_time"":28692.300000071526},{""page_index"":8,""viewing_time"":10670.100000023842},{""page_index"":9,""viewing_time"":6845.099999904633},{""page_index"":10,""viewing_time"":6481.200000047684},{""page_index"":11,""viewing_time"":8805.899999976158},{""page_index"":12,""viewing_time"":7413.899999976158},{""page_index"":13,""viewing_time"":7189.800000071526},{""page_index"":14,""viewing_time"":7799.899999976158},{""page_index"":15,""viewing_time"":7136.200000047684},{""page_index"":16,""viewing_time"":8165.899999976158},{""page_index"":17,""viewing_time"":6666.199999928474}]","152106","","","","","","","","","","","","","","","","","","","","","","","",""
"pit-trial","20","363962","0.0-2.0-8.0-0.0","battery-v0.2","","""event"",""trial"",""time""
""fullscreenenter"",""1"",""3254""
","
","
","""event"",""trial"",""time""
""fullscreenenter"",""1"",""3254""
","
","","","834","","","25","7846","4155","&#9776;","elianto","#3366ff99"," "," ","1","+10","[1695.5999999046326]","1","0","1","","","","","","","",""
"pit-trial","21","367608","0.0-2.0-8.0-1.0","battery-v0.2","","""event"",""trial"",""time""
""fullscreenenter"",""1"",""3254""
","
","
","""event"",""trial"",""time""
""fullscreenenter"",""1"",""3254""
","
","","","780.2000000476837","","","25","7846","4155","&#9776;","elianto","#3366ff99"," "," ","1","+10","[1633.8999999761581]","1","0","1","","","","","","","",""
"pit-trial","22","371260","0.0-2.0-8.0-2.0","battery-v0.2","","""event"",""trial"",""time""
""fullscreenenter"",""1"",""3254""
","
","
","""event"",""trial"",""time""
""fullscreenenter"",""1"",""3254""
","
","","","790.1000000238419","","","25","7846","4155","&#9776;","elianto","#3366ff99"," "," ","1","+10","[1643.2000000476837]","1","0","1","","","","","","","",""
"pit-trial","23","374867","0.0-2.0-8.0-3.0","battery-v0.2","","""event"",""trial"",""time""
""fullscreenenter"",""1"",""3254""
","
","
","""event"",""trial"",""time""
""fullscreenenter"",""1"",""3254""
","
","","","727.8999999761581","","","25","7846","4155","&#9776;","elianto","#3366ff99"," "," ","1","0","[1590.0999999046326]","1","0","1","","","","","","","",""
"pit-trial","24","378535","0.0-2.0-8.0-4.0","battery-v0.2","","""event"",""trial"",""time""
""fullscreenenter"",""1"",""3254""
","
","
","""event"",""trial"",""time""
""fullscreenenter"",""1"",""3254""
","
","","","808.6000000238419","","","25","7846","4155","&#9776;","elianto","#3366ff99"," "," ","1","+10","[1663.3999999761581]","1","0","1","","","","","","","",""
"pit-trial","25","382059","0.0-2.0-8.1-0.1","battery-v0.2","","""event"",""trial"",""time""
""fullscreenenter"",""1"",""3254""
","
","
","""event"",""trial"",""time""
""fullscreenenter"",""1"",""3254""
","
","","","652.7000000476837","","","25","7846","4155","&#9776;","elianto","#3366ff99"," "," ","1","+10","[1505.5]","1","0","1","","","","","","","",""
"pit-trial","26","385643","0.0-2.0-8.1-1.1","battery-v0.2","","""event"",""trial"",""time""
""fullscreenenter"",""1"",""3254""
","
","
","""event"",""trial"",""time""
""fullscreenenter"",""1"",""3254""
","
","","","723.6000000238419","","","25","7846","4155","&#9776;","elianto","#3366ff99"," "," ","1","+10","[1577.2000000476837]","1","0","1","","","","","","","",""
"pit-trial","27","389219","0.0-2.0-8.1-2.1","battery-v0.2","","""event"",""trial"",""time""
""fullscreenenter"",""1"",""3254""
","
","
","""event"",""trial"",""time""
""fullscreenenter"",""1"",""3254""
","
","","","703.6000000238419","","","25","7846","4155","&#9776;","elianto","#3366ff99"," "," ","1","+10","[1559.1000000238419]","1","0","1","","","","","","","",""
"pit-trial","28","392750","0.0-2.0-8.1-3.1","battery-v0.2","","""event"",""trial"",""time""
""fullscreenenter"",""1"",""3254""
","
","
","""event"",""trial"",""time""
""fullscreenenter"",""1"",""3254""
","
","","","676","","","25","7846","4155","&#9776;","elianto","#3366ff99"," "," ","1","0","[1527]","1","0","1","","","","","","","",""
"pit-trial","29","396703","0.0-2.0-8.1-4.1","battery-v0.2","","""event"",""trial"",""time""
""fullscreenenter"",""1"",""3254""
","
","
","""event"",""trial"",""time""
""fullscreenenter"",""1"",""3254""
","
","","","1097.7000000476837","","","25","7846","4155","&#9776;","elianto","#3366ff99"," "," ","1","+10","[1948.3000000715256]","1","0","1","","","","","","","",""
"pit-trial","30","400231","0.0-2.0-8.2-0.2","battery-v0.2","","""event"",""trial"",""time""
""fullscreenenter"",""1"",""3254""
","
","
","""event"",""trial"",""time""
""fullscreenenter"",""1"",""3254""
","
","","","670.6999999284744","","","25","7846","4155","&#9776;","elianto","#3366ff99"," "," ","1","+10","[1521.5999999046326]","1","0","1","","","","","","","",""
"pit-trial","31","403984","0.0-2.0-8.2-1.2","battery-v0.2","","""event"",""trial"",""time""
""fullscreenenter"",""1"",""3254""
","
","
","""event"",""trial"",""time""
""fullscreenenter"",""1"",""3254""
","
","","","897.1000000238419","","","25","7846","4155","&#9776;","elianto","#3366ff99"," "," ","1","+10","[1748.2999999523163]","1","0","1","","","","","","","",""
"pit-trial","32","407537","0.0-2.0-8.2-2.2","battery-v0.2","","""event"",""trial"",""time""
""fullscreenenter"",""1"",""3254""
","
","
","""event"",""trial"",""time""
""fullscreenenter"",""1"",""3254""
","
","","","697.2999999523163","","","25","7846","4155","&#9776;","elianto","#3366ff99"," "," ","1","+10","[1548.2000000476837]","1","0","1","","","","","","","",""
"pit-trial","33","411151","0.0-2.0-8.2-3.2","battery-v0.2","","""event"",""trial"",""time""
""fullscreenenter"",""1"",""3254""
","
","
","""event"",""trial"",""time""
""fullscreenenter"",""1"",""3254""
","
","","","759.7000000476837","","","25","7846","4155","&#9776;","elianto","#3366ff99"," "," ","1","0","[1610.6000000238419]","1","0","1","","","","","","","",""
"pit-trial","34","414560","0.0-2.0-8.2-4.2","battery-v0.2","","""event"",""trial"",""time""
""fullscreenenter"",""1"",""3254""
","
","
","""event"",""trial"",""time""
""fullscreenenter"",""1"",""3254""
","
","","","551.2000000476837","","","25","7846","4155","&#9776;","elianto","#3366ff99"," "," ","1","+10","[1404]","1","0","1","","","","","","","",""
"call-function","35","414561","0.0-2.0-9.0","battery-v0.2","","""event"",""trial"",""time""
""fullscreenenter"",""1"",""3254""
","
","
","""event"",""trial"",""time""
""fullscreenenter"",""1"",""3254""
","
","","","","","","","","","","","","","","","","","","","","","","","","","","",""
"pit-instructions","36","459065","0.0-2.0-10.0","battery-v0.2","","""event"",""trial"",""time""
""fullscreenenter"",""1"",""3254""
","
","
","""event"",""trial"",""time""
""fullscreenenter"",""1"",""3254""
","
","","[{""page_index"":0,""viewing_time"":7035.700000047684},{""page_index"":1,""viewing_time"":9615.799999952316},{""page_index"":2,""viewing_time"":10521.899999976158},{""page_index"":3,""viewing_time"":10038},{""page_index"":4,""viewing_time"":7292.100000023842}]","44503.89999997616","","","","","","","","","","","","","","","","","","","","","","","",""
"pit-trial","37","463935","0.0-2.0-11.0-0.0","battery-v0.2","","""event"",""trial"",""time""
""fullscreenenter"",""1"",""3254""
","
","
","""event"",""trial"",""time""
""fullscreenenter"",""1"",""3254""
","
","","","-1","","","25","7846","4155","&#9761;","elianto","#3366ff99","-1","-1","1","+10","[]","0","0","2","","","","","","","",""
"pit-trial","38","468803","0.0-2.0-11.0-1.0","battery-v0.2","","""event"",""trial"",""time""
""fullscreenenter"",""1"",""3254""
","
","
","""event"",""trial"",""time""
""fullscreenenter"",""1"",""3254""
","
","","","-1","","","25","7846","4155","&#9761;","elianto","#3366ff99","-1","-1","1","+10","[]","0","0","2","","","","","","","",""
"pit-trial","39","473678","0.0-2.0-11.0-2.0","battery-v0.2","","""event"",""trial"",""time""
""fullscreenenter"",""1"",""3254""
","
","
","""event"",""trial"",""time""
""fullscreenenter"",""1"",""3254""
","
","","","-1","","","25","7846","4155","&#9761;","elianto","#3366ff99","-1","-1","1","+10","[]","0","0","2","","","","","","","",""
"pit-trial","40","478546","0.0-2.0-11.0-3.0","battery-v0.2","","""event"",""trial"",""time""
""fullscreenenter"",""1"",""3254""
","
","
","""event"",""trial"",""time""
""fullscreenenter"",""1"",""3254""
","
","","","-1","","","25","7846","4155","&#9761;","elianto","#3366ff99","-1","-1","1","0","[]","0","0","2","","","","","","","",""
"pit-trial","41","483421","0.0-2.0-11.0-4.0","battery-v0.2","","""event"",""trial"",""time""
""fullscreenenter"",""1"",""3254""
","
","
","""event"",""trial"",""time""
""fullscreenenter"",""1"",""3254""
","
","","","-1","","","25","7846","4155","&#9761;","elianto","#3366ff99","-1","-1","1","+10","[]","0","0","2","","","","","","","",""
"pit-trial","42","488291","0.0-2.0-11.1-0.1","battery-v0.2","","""event"",""trial"",""time""
""fullscreenenter"",""1"",""3254""
","
","
","""event"",""trial"",""time""
""fullscreenenter"",""1"",""3254""
","
","","","-1","","","25","7846","4155","&#9761;","elianto","#3366ff99","-1","-1","1","+10","[]","0","0","2","","","","","","","",""
"pit-trial","43","493147","0.0-2.0-11.1-1.1","battery-v0.2","","""event"",""trial"",""time""
""fullscreenenter"",""1"",""3254""
","
","
","""event"",""trial"",""time""
""fullscreenenter"",""1"",""3254""
","
","","","-1","","","25","7846","4155","&#9761;","elianto","#3366ff99","-1","-1","1","+10","[]","0","0","2","","","","","","","",""
"pit-trial","44","498002","0.0-2.0-11.1-2.1","battery-v0.2","","""event"",""trial"",""time""
""fullscreenenter"",""1"",""3254""
","
","
","""event"",""trial"",""time""
""fullscreenenter"",""1"",""3254""
","
","","","-1","","","25","7846","4155","&#9761;","elianto","#3366ff99","-1","-1","1","+10","[]","0","0","2","","","","","","","",""
"pit-trial","45","502857","0.0-2.0-11.1-3.1","battery-v0.2","","""event"",""trial"",""time""
""fullscreenenter"",""1"",""3254""
","
","
","""event"",""trial"",""time""
""fullscreenenter"",""1"",""3254""
","
","","","-1","","","25","7846","4155","&#9761;","elianto","#3366ff99","-1","-1","1","0","[]","0","0","2","","","","","","","",""
"pit-trial","46","507712","0.0-2.0-11.1-4.1","battery-v0.2","","""event"",""trial"",""time""
""fullscreenenter"",""1"",""3254""
","
","
","""event"",""trial"",""time""
""fullscreenenter"",""1"",""3254""
","
","","","-1","","","25","7846","4155","&#9761;","elianto","#3366ff99","-1","-1","1","+10","[]","0","0","2","","","","","","","",""
"pit-trial","47","512570","0.0-2.0-11.2-0.2","battery-v0.2","","""event"",""trial"",""time""
""fullscreenenter"",""1"",""3254""
","
","
","""event"",""trial"",""time""
""fullscreenenter"",""1"",""3254""
","
","","","-1","","","25","7846","4155","&#9761;","elianto","#3366ff99","-1","-1","1","+10","[]","0","0","2","","","","","","","",""
"pit-trial","48","517423","0.0-2.0-11.2-1.2","battery-v0.2","","""event"",""trial"",""time""
""fullscreenenter"",""1"",""3254""
","
","
","""event"",""trial"",""time""
""fullscreenenter"",""1"",""3254""
","
","","","-1","","","25","7846","4155","&#9761;","elianto","#3366ff99","-1","-1","1","+10","[]","0","0","2","","","","","","","",""
"pit-trial","49","522278","0.0-2.0-11.2-2.2","battery-v0.2","","""event"",""trial"",""time""
""fullscreenenter"",""1"",""3254""
","
","
","""event"",""trial"",""time""
""fullscreenenter"",""1"",""3254""
","
","","","-1","","","25","7846","4155","&#9761;","elianto","#3366ff99","-1","-1","1","+10","[]","0","0","2","","","","","","","",""
"pit-trial","50","527134","0.0-2.0-11.2-3.2","battery-v0.2","","""event"",""trial"",""time""
""fullscreenenter"",""1"",""3254""
","
","
","""event"",""trial"",""time""
""fullscreenenter"",""1"",""3254""
","
","","","-1","","","25","7846","4155","&#9761;","elianto","#3366ff99","-1","-1","1","0","[]","0","0","2","","","","","","","",""
"pit-trial","51","531990","0.0-2.0-11.2-4.2","battery-v0.2","","""event"",""trial"",""time""
""fullscreenenter"",""1"",""3254""
","
","
","""event"",""trial"",""time""
""fullscreenenter"",""1"",""3254""
","
","","","-1","","","25","7846","4155","&#9761;","elianto","#3366ff99","-1","-1","1","+10","[]","0","0","2","","","","","","","",""
"pit-trial","52","536847","0.0-2.0-11.3-0.3","battery-v0.2","","""event"",""trial"",""time""
""fullscreenenter"",""1"",""3254""
","
","
","""event"",""trial"",""time""
""fullscreenenter"",""1"",""3254""
","
","","","-1","","","25","7846","4155","&#9761;","elianto","#3366ff99","-1","-1","1","+10","[]","0","0","2","","","","","","","",""
"pit-trial","53","541702","0.0-2.0-11.3-1.3","battery-v0.2","","""event"",""trial"",""time""
""fullscreenenter"",""1"",""3254""
","
","
","""event"",""trial"",""time""
""fullscreenenter"",""1"",""3254""
","
","","","-1","","","25","7846","4155","&#9761;","elianto","#3366ff99","-1","-1","1","+10","[]","0","0","2","","","","","","","",""
"pit-trial","54","546557","0.0-2.0-11.3-2.3","battery-v0.2","","""event"",""trial"",""time""
""fullscreenenter"",""1"",""3254""
","
","
","""event"",""trial"",""time""
""fullscreenenter"",""1"",""3254""
","
","","","-1","","","25","7846","4155","&#9761;","elianto","#3366ff99","-1","-1","1","+10","[]","0","0","2","","","","","","","",""
"pit-trial","55","551412","0.0-2.0-11.3-3.3","battery-v0.2","","""event"",""trial"",""time""
""fullscreenenter"",""1"",""3254""
","
","
","""event"",""trial"",""time""
""fullscreenenter"",""1"",""3254""
","
","","","-1","","","25","7846","4155","&#9761;","elianto","#3366ff99","-1","-1","1","0","[]","0","0","2","","","","","","","",""
"pit-trial","56","556274","0.0-2.0-11.3-4.3","battery-v0.2","","""event"",""trial"",""time""
""fullscreenenter"",""1"",""3254""
","
","
","""event"",""trial"",""time""
""fullscreenenter"",""1"",""3254""
","
","","","-1","","","25","7846","4155","&#9761;","elianto","#3366ff99","-1","-1","1","+10","[]","0","0","2","","","","","","","",""
"call-function","57","556278","0.0-2.0-12.0","battery-v0.2","","""event"",""trial"",""time""
""fullscreenenter"",""1"",""3254""
","
","
","""event"",""trial"",""time""
""fullscreenenter"",""1"",""3254""
","
","","","","","","","","","","","","","","","","","","","","","","","","","","",""
"pit-instructions","58","588552","0.0-2.0-13.0","battery-v0.2","","""event"",""trial"",""time""
""fullscreenenter"",""1"",""3254""
","
","
","""event"",""trial"",""time""
""fullscreenenter"",""1"",""3254""
","
","","[{""page_index"":0,""viewing_time"":5908.799999952316},{""page_index"":1,""viewing_time"":7088.200000047684},{""page_index"":2,""viewing_time"":4109.699999928474},{""page_index"":3,""viewing_time"":10115.899999976158},{""page_index"":4,""viewing_time"":5050}]","32273","","","","","","","","","","","","","","","","","","","","","","","",""
"pit-trial","59","593413","0.0-2.0-14.0-0.0","battery-v0.2","","""event"",""trial"",""time""
""fullscreenenter"",""1"",""3254""
","
","
","""event"",""trial"",""time""
""fullscreenenter"",""1"",""3254""
","
","","","-1","","","25","7846","4155","&#9826;","elianto","#f73b6a7A","-1","-1","1","0","[]","0","0","3","","","","","","","",""
"pit-trial","60","598292","0.0-2.0-14.0-1.0","battery-v0.2","","""event"",""trial"",""time""
""fullscreenenter"",""1"",""3254""
","
","
","""event"",""trial"",""time""
""fullscreenenter"",""1"",""3254""
","
","","","-1","","","25","7846","4155","&#9826;","elianto","#f73b6a7A","-1","-1","1","0","[]","0","0","3","","","","","","","",""
"pit-trial","61","603155","0.0-2.0-14.0-2.0","battery-v0.2","","""event"",""trial"",""time""
""fullscreenenter"",""1"",""3254""
","
","
","""event"",""trial"",""time""
""fullscreenenter"",""1"",""3254""
","
","","","-1","","","25","7846","4155","&#9826;","elianto","#f73b6a7A","-1","-1","1","0","[]","0","0","3","","","","","","","",""
"pit-trial","62","608016","0.0-2.0-14.0-3.0","battery-v0.2","","""event"",""trial"",""time""
""fullscreenenter"",""1"",""3254""
","
","
","""event"",""trial"",""time""
""fullscreenenter"",""1"",""3254""
","
","","","-1","","","25","7846","4155","&#9826;","elianto","#f73b6a7A","-1","-1","1","-10","[]","0","0","3","","","","","","","",""
"pit-trial","63","612878","0.0-2.0-14.0-4.0","battery-v0.2","","""event"",""trial"",""time""
""fullscreenenter"",""1"",""3254""
","
","
","""event"",""trial"",""time""
""fullscreenenter"",""1"",""3254""
","
","","","-1","","","25","7846","4155","&#9826;","elianto","#f73b6a7A","-1","-1","1","0","[]","0","0","3","","","","","","","",""
"pit-trial","64","617746","0.0-2.0-14.1-0.1","battery-v0.2","","""event"",""trial"",""time""
""fullscreenenter"",""1"",""3254""
","
","
","""event"",""trial"",""time""
""fullscreenenter"",""1"",""3254""
","
","","","-1","","","25","7846","4155","&#9826;","elianto","#f73b6a7A","-1","-1","1","0","[]","0","0","3","","","","","","","",""
"pit-trial","65","622601","0.0-2.0-14.1-1.1","battery-v0.2","","""event"",""trial"",""time""
""fullscreenenter"",""1"",""3254""
","
","
","""event"",""trial"",""time""
""fullscreenenter"",""1"",""3254""
","
","","","-1","","","25","7846","4155","&#9826;","elianto","#f73b6a7A","-1","-1","1","0","[]","0","0","3","","","","","","","",""
"pit-trial","66","627456","0.0-2.0-14.1-2.1","battery-v0.2","","""event"",""trial"",""time""
""fullscreenenter"",""1"",""3254""
","
","
","""event"",""trial"",""time""
""fullscreenenter"",""1"",""3254""
","
","","","-1","","","25","7846","4155","&#9826;","elianto","#f73b6a7A","-1","-1","1","0","[]","0","0","3","","","","","","","",""
"pit-trial","67","632312","0.0-2.0-14.1-3.1","battery-v0.2","","""event"",""trial"",""time""
""fullscreenenter"",""1"",""3254""
","
","
","""event"",""trial"",""time""
""fullscreenenter"",""1"",""3254""
","
","","","-1","","","25","7846","4155","&#9826;","elianto","#f73b6a7A","-1","-1","1","-10","[]","0","0","3","","","","","","","",""
"pit-trial","68","637168","0.0-2.0-14.1-4.1","battery-v0.2","","""event"",""trial"",""time""
""fullscreenenter"",""1"",""3254""
","
","
","""event"",""trial"",""time""
""fullscreenenter"",""1"",""3254""
","
","","","-1","","","25","7846","4155","&#9826;","elianto","#f73b6a7A","-1","-1","1","0","[]","0","0","3","","","","","","","",""
"pit-trial","69","642025","0.0-2.0-14.2-0.2","battery-v0.2","","""event"",""trial"",""time""
""fullscreenenter"",""1"",""3254""
","
","
","""event"",""trial"",""time""
""fullscreenenter"",""1"",""3254""
","
","","","-1","","","25","7846","4155","&#9826;","elianto","#f73b6a7A","-1","-1","1","0","[]","0","0","3","","","","","","","",""
"pit-trial","70","646882","0.0-2.0-14.2-1.2","battery-v0.2","","""event"",""trial"",""time""
""fullscreenenter"",""1"",""3254""
","
","
","""event"",""trial"",""time""
""fullscreenenter"",""1"",""3254""
","
","","","-1","","","25","7846","4155","&#9826;","elianto","#f73b6a7A","-1","-1","1","0","[]","0","0","3","","","","","","","",""
"pit-trial","71","651749","0.0-2.0-14.2-2.2","battery-v0.2","","""event"",""trial"",""time""
""fullscreenenter"",""1"",""3254""
","
","
","""event"",""trial"",""time""
""fullscreenenter"",""1"",""3254""
","
","","","-1","","","25","7846","4155","&#9826;","elianto","#f73b6a7A","-1","-1","1","0","[]","0","0","3","","","","","","","",""
"pit-trial","72","656604","0.0-2.0-14.2-3.2","battery-v0.2","","""event"",""trial"",""time""
""fullscreenenter"",""1"",""3254""
","
","
","""event"",""trial"",""time""
""fullscreenenter"",""1"",""3254""
","
","","","-1","","","25","7846","4155","&#9826;","elianto","#f73b6a7A","-1","-1","1","-10","[]","0","0","3","","","","","","","",""
"pit-trial","73","661460","0.0-2.0-14.2-4.2","battery-v0.2","","""event"",""trial"",""time""
""fullscreenenter"",""1"",""3254""
","
","
","""event"",""trial"",""time""
""fullscreenenter"",""1"",""3254""
","
","","","-1","","","25","7846","4155","&#9826;","elianto","#f73b6a7A","-1","-1","1","0","[]","0","0","3","","","","","","","",""
"pit-trial","74","666316","0.0-2.0-14.3-0.3","battery-v0.2","","""event"",""trial"",""time""
""fullscreenenter"",""1"",""3254""
","
","
","""event"",""trial"",""time""
""fullscreenenter"",""1"",""3254""
","
","","","-1","","","25","7846","4155","&#9826;","elianto","#f73b6a7A","-1","-1","1","0","[]","0","0","3","","","","","","","",""
"pit-trial","75","671171","0.0-2.0-14.3-1.3","battery-v0.2","","""event"",""trial"",""time""
""fullscreenenter"",""1"",""3254""
","
","
","""event"",""trial"",""time""
""fullscreenenter"",""1"",""3254""
","
","","","-1","","","25","7846","4155","&#9826;","elianto","#f73b6a7A","-1","-1","1","0","[]","0","0","3","","","","","","","",""
"pit-trial","76","676026","0.0-2.0-14.3-2.3","battery-v0.2","","""event"",""trial"",""time""
""fullscreenenter"",""1"",""3254""
","
","
","""event"",""trial"",""time""
""fullscreenenter"",""1"",""3254""
","
","","","-1","","","25","7846","4155","&#9826;","elianto","#f73b6a7A","-1","-1","1","0","[]","0","0","3","","","","","","","",""
"pit-trial","77","680882","0.0-2.0-14.3-3.3","battery-v0.2","","""event"",""trial"",""time""
""fullscreenenter"",""1"",""3254""
","
","
","""event"",""trial"",""time""
""fullscreenenter"",""1"",""3254""
","
","","","-1","","","25","7846","4155","&#9826;","elianto","#f73b6a7A","-1","-1","1","-10","[]","0","0","3","","","","","","","",""
"pit-trial","78","685737","0.0-2.0-14.3-4.3","battery-v0.2","","""event"",""trial"",""time""
""fullscreenenter"",""1"",""3254""
","
","
","""event"",""trial"",""time""
""fullscreenenter"",""1"",""3254""
","
","","","-1","","","25","7846","4155","&#9826;","elianto","#f73b6a7A","-1","-1","1","0","[]","0","0","3","","","","","","","",""
"call-function","79","685740","0.0-2.0-15.0","battery-v0.2","","""event"",""trial"",""time""
""fullscreenenter"",""1"",""3254""
","
","
","""event"",""trial"",""time""
""fullscreenenter"",""1"",""3254""
","
","","","","","","","","","","","","","","","","","","","","","","","","","","",""
"pit-instructions","80","729236","0.0-2.0-16.0","battery-v0.2","","""event"",""trial"",""time""
""fullscreenenter"",""1"",""3254""
","
","
","""event"",""trial"",""time""
""fullscreenenter"",""1"",""3254""
","
","","[{""page_index"":0,""viewing_time"":7186.599999904633},{""page_index"":1,""viewing_time"":18210.200000047684},{""page_index"":2,""viewing_time"":13089.899999976158},{""page_index"":3,""viewing_time"":5008.100000023842}]","43495.09999990463","","","","","","","","","","","","","","","","","","","","","","","",""
"pit-trial","81","733084","0.0-2.0-17.0-0.0","battery-v0.2","","""event"",""trial"",""time""
""fullscreenenter"",""1"",""3254""
","
","
","""event"",""trial"",""time""
""fullscreenenter"",""1"",""3254""
","
","","","989.6000000238419","","","25","7846","4155","&#9789;","elianto","#f73b6a7A"," "," ","1","0","[1839.8999999761581]","1","0","4","","","","","","","",""
"pit-trial","82","736549","0.0-2.0-17.0-1.0","battery-v0.2","","""event"",""trial"",""time""
""fullscreenenter"",""1"",""3254""
","
","
","""event"",""trial"",""time""
""fullscreenenter"",""1"",""3254""
","
","","","596.2000000476837","","","25","7846","4155","&#9789;","elianto","#f73b6a7A"," "," ","1","0","[1447.9000000953674]","1","0","4","","","","","","","",""
"pit-trial","83","739673","0.0-2.0-17.0-2.0","battery-v0.2","","""event"",""trial"",""time""
""fullscreenenter"",""1"",""3254""
","
","
","""event"",""trial"",""time""
""fullscreenenter"",""1"",""3254""
","
","","","255.09999990463257","","","25","7846","4155","&#9789;","elianto","#f73b6a7A"," "," ","1","0","[1108.8999999761581]","1","0","4","","","","","","","",""
"pit-trial","84","742659","0.0-2.0-17.0-3.0","battery-v0.2","","""event"",""trial"",""time""
""fullscreenenter"",""1"",""3254""
","
","
","""event"",""trial"",""time""
""fullscreenenter"",""1"",""3254""
","
","","","118.20000004768372","","","25","7846","4155","&#9789;","elianto","#f73b6a7A"," "," ","1","-10","[969.4000000953674]","1","0","4","","","","","","","",""
"pit-trial","85","745640","0.0-2.0-17.0-4.0","battery-v0.2","","""event"",""trial"",""time""
""fullscreenenter"",""1"",""3254""
","
","
","""event"",""trial"",""time""
""fullscreenenter"",""1"",""3254""
","
","","","122.5","","","25","7846","4155","&#9789;","elianto","#f73b6a7A"," "," ","1","0","[973.5,2439.899999976158]","2","0","4","","","","","","","",""
"pit-trial","86","749376","0.0-2.0-17.1-0.1","battery-v0.2","","""event"",""trial"",""time""
""fullscreenenter"",""1"",""3254""
","
","
","""event"",""trial"",""time""
""fullscreenenter"",""1"",""3254""
","
","","","877.8999999761581","","","25","7846","4155","&#9789;","elianto","#f73b6a7A"," "," ","1","0","[1729.1999999284744]","1","0","4","","","","","","","",""
"pit-trial","87","752774","0.0-2.0-17.1-1.1","battery-v0.2","","""event"",""trial"",""time""
""fullscreenenter"",""1"",""3254""
","
","
","""event"",""trial"",""time""
""fullscreenenter"",""1"",""3254""
","
","","","534.3999999761581","","","25","7846","4155","&#9789;","elianto","#f73b6a7A"," "," ","1","0","[1387]","1","0","4","","","","","","","",""
"pit-trial","88","756399","0.0-2.0-17.1-2.1","battery-v0.2","","""event"",""trial"",""time""
""fullscreenenter"",""1"",""3254""
","
","
","""event"",""trial"",""time""
""fullscreenenter"",""1"",""3254""
","
","","","759.8999999761581","","","25","7846","4155","&#9789;","elianto","#f73b6a7A"," "," ","1","0","[1619.8999999761581]","1","0","4","","","","","","","",""
"pit-trial","89","761256","0.0-2.0-17.1-3.1","battery-v0.2","","""event"",""trial"",""time""
""fullscreenenter"",""1"",""3254""
","
","
","""event"",""trial"",""time""
""fullscreenenter"",""1"",""3254""
","
","","","-1","","","25","7846","4155","&#9789;","elianto","#f73b6a7A"," ","-1","0","0","[]","0","0","4","","","","","","","",""
"pit-trial","90","765232","0.0-2.0-17.1-4.1","battery-v0.2","","""event"",""trial"",""time""
""fullscreenenter"",""1"",""3254""
","
","
","""event"",""trial"",""time""
""fullscreenenter"",""1"",""3254""
","
","","","1121","","","25","7846","4155","&#9789;","elianto","#f73b6a7A"," "," ","1","0","[1971.9000000953674]","1","0","4","","","","","","","",""
"pit-trial","91","768574","0.0-2.0-17.2-0.2","battery-v0.2","","""event"",""trial"",""time""
""fullscreenenter"",""1"",""3254""
","
","
","""event"",""trial"",""time""
""fullscreenenter"",""1"",""3254""
","
","","","484.7000000476837","","","25","7846","4155","&#9789;","elianto","#f73b6a7A"," "," ","1","0","[1336.6000000238419]","1","0","4","","","","","","","",""
"pit-trial","92","772519","0.0-2.0-17.2-1.2","battery-v0.2","","""event"",""trial"",""time""
""fullscreenenter"",""1"",""3254""
","
","
","""event"",""trial"",""time""
""fullscreenenter"",""1"",""3254""
","
","","","1090.9000000953674","","","25","7846","4155","&#9789;","elianto","#f73b6a7A"," "," ","1","0","[1942.2000000476837]","1","0","4","","","","","","","",""
"pit-trial","93","775775","0.0-2.0-17.2-2.2","battery-v0.2","","""event"",""trial"",""time""
""fullscreenenter"",""1"",""3254""
","
","
","""event"",""trial"",""time""
""fullscreenenter"",""1"",""3254""
","
","","","400.5","","","25","7846","4155","&#9789;","elianto","#f73b6a7A"," "," ","1","0","[1251.1000000238419]","1","0","4","","","","","","","",""
"pit-trial","94","779143","0.0-2.0-17.2-3.2","battery-v0.2","","""event"",""trial"",""time""
""fullscreenenter"",""1"",""3254""
","
","
","""event"",""trial"",""time""
""fullscreenenter"",""1"",""3254""
","
","","","511.90000009536743","","","25","7846","4155","&#9789;","elianto","#f73b6a7A"," "," ","1","-10","[1363.5]","1","0","4","","","","","","","",""
"pit-trial","95","782494","0.0-2.0-17.2-4.2","battery-v0.2","","""event"",""trial"",""time""
""fullscreenenter"",""1"",""3254""
","
","
","""event"",""trial"",""time""
""fullscreenenter"",""1"",""3254""
","
","","","496.10000002384186","","","25","7846","4155","&#9789;","elianto","#f73b6a7A"," "," ","1","0","[1347]","1","0","4","","","","","","","",""
"pit-trial","96","786008","0.0-2.0-17.3-0.3","battery-v0.2","","""event"",""trial"",""time""
""fullscreenenter"",""1"",""3254""
","
","
","""event"",""trial"",""time""
""fullscreenenter"",""1"",""3254""
","
","","","657.2000000476837","","","25","7846","4155","&#9789;","elianto","#f73b6a7A"," "," ","1","0","[1507.4000000953674]","1","0","4","","","","","","","",""
"pit-trial","97","789382","0.0-2.0-17.3-1.3","battery-v0.2","","""event"",""trial"",""time""
""fullscreenenter"",""1"",""3254""
","
","
","""event"",""trial"",""time""
""fullscreenenter"",""1"",""3254""
","
","","","519.1000000238419","","","25","7846","4155","&#9789;","elianto","#f73b6a7A"," "," ","1","0","[1369.6000000238419,1425.2000000476837]","2","0","4","","","","","","","",""
"pit-trial","98","792774","0.0-2.0-17.3-2.3","battery-v0.2","","""event"",""trial"",""time""
""fullscreenenter"",""1"",""3254""
","
","
","""event"",""trial"",""time""
""fullscreenenter"",""1"",""3254""
","
","","","536.5","","","25","7846","4155","&#9789;","elianto","#f73b6a7A"," "," ","1","0","[1387]","1","0","4","","","","","","","",""
"pit-trial","99","796200","0.0-2.0-17.3-3.3","battery-v0.2","","""event"",""trial"",""time""
""fullscreenenter"",""1"",""3254""
","
","
","""event"",""trial"",""time""
""fullscreenenter"",""1"",""3254""
","
","","","569.7000000476837","","","25","7846","4155","&#9789;","elianto","#f73b6a7A"," "," ","1","-10","[1420.2999999523163]","1","0","4","","","","","","","",""
"pit-trial","100","799845","0.0-2.0-17.3-4.3","battery-v0.2","","""event"",""trial"",""time""
""fullscreenenter"",""1"",""3254""
","
","
","""event"",""trial"",""time""
""fullscreenenter"",""1"",""3254""
","
","","","791.0999999046326","","","25","7846","4155","&#9789;","elianto","#f73b6a7A"," "," ","1","0","[1642.5]","1","0","4","","","","","","","",""
"call-function","101","799849","0.0-2.0-18.0","battery-v0.2","","""event"",""trial"",""time""
""fullscreenenter"",""1"",""3254""
","
","
","""event"",""trial"",""time""
""fullscreenenter"",""1"",""3254""
","
","","","","","","","","","","","","","","","","","","","","","","","","","","",""
"pit-instructions","102","883918","0.0-2.0-19.0","battery-v0.2","","""event"",""trial"",""time""
""fullscreenenter"",""1"",""3254""
","
","
","""event"",""trial"",""time""
""fullscreenenter"",""1"",""3254""
","
","","[{""page_index"":0,""viewing_time"":6879.200000047684},{""page_index"":1,""viewing_time"":5954.600000023842},{""page_index"":2,""viewing_time"":13935.799999952316},{""page_index"":3,""viewing_time"":8025.700000047684},{""page_index"":4,""viewing_time"":8198.100000023842},{""page_index"":5,""viewing_time"":10454.099999904633},{""page_index"":6,""viewing_time"":20649.900000095367},{""page_index"":7,""viewing_time"":5931.899999976158},{""page_index"":8,""viewing_time"":4038.399999976158}]","84068.10000002384","","","","","","","","","","","","","","","","","","","","","","","",""
"pit-comprehension","103","888500","0.0-2.0-20.0-0.0","battery-v0.2","","""event"",""trial"",""time""
""fullscreenenter"",""1"",""3254""
","
","
","""event"",""trial"",""time""
""fullscreenenter"",""1"",""3254""
","
","","","4578.100000023842","[""SPACE""]","0","25","7846","4155","","","","","","","","","","","","","","","","","","",""
"pit-instructions","104","891303","0.0-2.0-20.0-1.0","battery-v0.2","","""event"",""trial"",""time""
""fullscreenenter"",""1"",""3254""
","
","
","""event"",""trial"",""time""
""fullscreenenter"",""1"",""3254""
","
","","[{""page_index"":0,""viewing_time"":2743}]","2743.399999976158","","","","","","","","","","","","","","","","","","","","","","","",""
"pit-comprehension","105","897939","0.0-2.0-21.0-0.0","battery-v0.2","","""event"",""trial"",""time""
""fullscreenenter"",""1"",""3254""
","
","
","""event"",""trial"",""time""
""fullscreenenter"",""1"",""3254""
","
","","","6631.700000047684","[""10""]","0","25","7846","4155","","","","","","","","","","","","","","","","","","",""
"pit-instructions","106","903032","0.0-2.0-21.0-1.0","battery-v0.2","","""event"",""trial"",""time""
""fullscreenenter"",""1"",""3254""
","
","
","""event"",""trial"",""time""
""fullscreenenter"",""1"",""3254""
","
","","[{""page_index"":0,""viewing_time"":5042}]","5042.399999976158","","","","","","","","","","","","","","","","","","","","","","","",""
"pit-comprehension","107","910670","0.0-2.0-22.0-0.0","battery-v0.2","","""event"",""trial"",""time""
""fullscreenenter"",""1"",""3254""
","
","
","""event"",""trial"",""time""
""fullscreenenter"",""1"",""3254""
","
","","","7634.899999976158","[""0""]","0","25","7846","4155","","","","","","","","","","","","","","","","","","",""
"pit-instructions","108","913100","0.0-2.0-22.0-1.0","battery-v0.2","","""event"",""trial"",""time""
""fullscreenenter"",""1"",""3254""
","
","
","""event"",""trial"",""time""
""fullscreenenter"",""1"",""3254""
","
","","[{""page_index"":0,""viewing_time"":2379.2999999523163}]","2379.5999999046326","","","","","","","","","","","","","","","","","","","","","","","",""
"pit-comprehension","109","933302","0.0-2.0-23.0-0.0","battery-v0.2","","""event"",""trial"",""time""
""fullscreenenter"",""1"",""3254""
","
","
","""event"",""trial"",""time""
""fullscreenenter"",""1"",""3254""
","
","","","20199.100000023842","[""True""]","0","25","7846","4155","","","","","","","","","","","","","","","","","","",""
"pit-instructions","110","938352","0.0-2.0-23.0-1.0","battery-v0.2","","""event"",""trial"",""time""
""fullscreenenter"",""1"",""3254""
","
","
","""event"",""trial"",""time""
""fullscreenenter"",""1"",""3254""
","
","","[{""page_index"":0,""viewing_time"":4997.799999952316}]","4998.100000023842","","","","","","","","","","","","","","","","","","","","","","","",""
"pit-comprehension","111","946972","0.0-2.0-24.0-0.0","battery-v0.2","","""event"",""trial"",""time""
""fullscreenenter"",""1"",""3254""
","
","
","""event"",""trial"",""time""
""fullscreenenter"",""1"",""3254""
","
","","","8616.700000047684","[""True""]","0","25","7846","4155","","","","","","","","","","","","","","","","","","",""
"pit-instructions","112","950080","0.0-2.0-24.0-1.0","battery-v0.2","","""event"",""trial"",""time""
""fullscreenenter"",""1"",""3254""
","
","
","""event"",""trial"",""time""
""fullscreenenter"",""1"",""3254""
","
","","[{""page_index"":0,""viewing_time"":3056.600000023842}]","3057.100000023842","","","","","","","","","","","","","","","","","","","","","","","",""
"pit-comprehension","113","956797","0.0-2.0-25.0-0.0","battery-v0.2","","""event"",""trial"",""time""
""fullscreenenter"",""1"",""3254""
","
","
","""event"",""trial"",""time""
""fullscreenenter"",""1"",""3254""
","
","","","6713.900000095367","[""True""]","0","25","7846","4155","","","","","","","","","","","","","","","","","","",""
"pit-instructions","114","959111","0.0-2.0-25.0-1.0","battery-v0.2","","""event"",""trial"",""time""
""fullscreenenter"",""1"",""3254""
","
","
","""event"",""trial"",""time""
""fullscreenenter"",""1"",""3254""
","
","","[{""page_index"":0,""viewing_time"":2282.4000000953674}]","2282.7000000476837","","","","","","","","","","","","","","","","","","","","","","","",""
"pit-comprehension","115","964434","0.0-2.0-26.0-0.0","battery-v0.2","","""event"",""trial"",""time""
""fullscreenenter"",""1"",""3254""
","
","
","""event"",""trial"",""time""
""fullscreenenter"",""1"",""3254""
","
","","","5319.699999928474","[""False""]","0","25","7846","4155","","","","","","","","","","","","","","","","","","",""
"pit-instructions","116","966411","0.0-2.0-26.0-1.0","battery-v0.2","","""event"",""trial"",""time""
""fullscreenenter"",""1"",""3254""
","
","
","""event"",""trial"",""time""
""fullscreenenter"",""1"",""3254""
","
","","[{""page_index"":0,""viewing_time"":1925.6000000238419}]","1925.8999999761581","","","","","","","","","","","","","","","","","","","","","","","",""
"pit-instructions","117","985755","0.0-3.0","battery-v0.2","","""event"",""trial"",""time""
""fullscreenenter"",""1"",""3254""
","
","
","""event"",""trial"",""time""
""fullscreenenter"",""1"",""3254""
","
","","[{""page_index"":0,""viewing_time"":3923.8000000715256},{""page_index"":1,""viewing_time"":6967.699999928474},{""page_index"":2,""viewing_time"":8449.899999976158}]","19341.800000071526","","","","","","","","","","","","","","","","","","","","","","","",""
"pit-trial","118","990629","0.0-4.0","battery-v0.2","","""event"",""trial"",""time""
""fullscreenenter"",""1"",""3254""
","
","
","""event"",""trial"",""time""
""fullscreenenter"",""1"",""3254""
","
","","","-1","","","25","7846","4155","&#9733;","elianto","#3366ff99","-1","-1","1","+10","[]","0","1","","","7846","1","2","2","win","no-go","0"
"pit-trial","119","995508","0.0-5.0","battery-v0.2","","""event"",""trial"",""time""
""fullscreenenter"",""1"",""3254""
","
","
","""event"",""trial"",""time""
""fullscreenenter"",""1"",""3254""
","
","","","-1","","","25","7846","4155","&#9752;","elianto","#f73b6a7A"," ","-1","0","-10","[]","0","1","","","7846","2","3","3","lose","go","0"
"pit-trial","120","1000378","0.0-6.0","battery-v0.2","","""event"",""trial"",""time""
""fullscreenenter"",""1"",""3254""
","
","
","""event"",""trial"",""time""
""fullscreenenter"",""1"",""3254""
","
","","","-1","","","25","7846","4155","&#9730;","elianto","#3366ff99"," ","-1","0","+10","[]","0","1","","","7846","3","1","1","win","go","1"
"pit-trial","121","1005240","0.0-7.0","battery-v0.2","","""event"",""trial"",""time""
""fullscreenenter"",""1"",""3254""
","
","
","""event"",""trial"",""time""
""fullscreenenter"",""1"",""3254""
","
","","","-1","","","25","7846","4155","&#9728;","elianto","#f73b6a7A","-1","-1","1","-10","[]","0","1","","","7846","4","0","4","lose","no-go","1"
"pit-trial","122","1010109","0.0-8.0","battery-v0.2","","""event"",""trial"",""time""
""fullscreenenter"",""1"",""3254""
","
","
","""event"",""trial"",""time""
""fullscreenenter"",""1"",""3254""
","
","","","-1","","","25","7846","4155","&#9730;","elianto","#3366ff99"," ","-1","0","0","[]","0","1","","","7846","5","1","1","win","go","0"
"pit-trial","123","1014261","0.0-9.0","battery-v0.2","","""event"",""trial"",""time""
""fullscreenenter"",""1"",""3254""
","
","
","""event"",""trial"",""time""
""fullscreenenter"",""1"",""3254""
","
","","","1280","","","25","7846","4155","&#9728;","elianto","#f73b6a7A","-1"," ","0","-10","[2133.600000023842]","1","1","","","7846","6","0","4","lose","no-go","0"
"pit-trial","124","1018183","0.0-10.0","battery-v0.2","","""event"",""trial"",""time""
""fullscreenenter"",""1"",""3254""
","
","
","""event"",""trial"",""time""
""fullscreenenter"",""1"",""3254""
","
","","","1065.3999999761581","","","25","7846","4155","&#9752;","elianto","#f73b6a7A"," "," ","1","0","[1916]","1","1","","","7846","7","3","3","lose","go","0"
"pit-trial","125","1023037","0.0-11.0","battery-v0.2","","""event"",""trial"",""time""
""fullscreenenter"",""1"",""3254""
","
","
","""event"",""trial"",""time""
""fullscreenenter"",""1"",""3254""
","
","","","-1","","","25","7846","4155","&#9733;","elianto","#3366ff99","-1","-1","1","+10","[]","0","1","","","7846","8","2","2","win","no-go","0"
"pit-trial","126","1027892","0.0-12.0","battery-v0.2","","""event"",""trial"",""time""
""fullscreenenter"",""1"",""3254""
","
","
","""event"",""trial"",""time""
""fullscreenenter"",""1"",""3254""
","
","","","-1","","","25","7846","4155","&#9733;","elianto","#3366ff99","-1","-1","1","+10","[]","0","1","","","7846","9","2","2","win","no-go","0"
"pit-trial","127","1032748","0.0-13.0","battery-v0.2","","""event"",""trial"",""time""
""fullscreenenter"",""1"",""3254""
","
","
","""event"",""trial"",""time""
""fullscreenenter"",""1"",""3254""
","
","","","-1","","","25","7846","4155","&#9730;","elianto","#3366ff99"," ","-1","0","0","[]","0","1","","","7846","10","1","1","win","go","0"
"pit-trial","128","1037604","0.0-14.0","battery-v0.2","","""event"",""trial"",""time""
""fullscreenenter"",""1"",""3254""
","
","
","""event"",""trial"",""time""
""fullscreenenter"",""1"",""3254""
","
","","","-1","","","25","7846","4155","&#9728;","elianto","#f73b6a7A","-1","-1","1","0","[]","0","1","","","7846","11","0","4","lose","no-go","0"
"pit-trial","129","1041678","0.0-15.0","battery-v0.2","","""event"",""trial"",""time""
""fullscreenenter"",""1"",""3254""
","
","
","""event"",""trial"",""time""
""fullscreenenter"",""1"",""3254""
","
","","","1218.6999999284744","","","25","7846","4155","&#9752;","elianto","#f73b6a7A"," "," ","1","0","[2069.899999976158]","1","1","","","7846","12","3","3","lose","go","0"
"pit-trial","130","1045687","0.0-16.0","battery-v0.2","","""event"",""trial"",""time""
""fullscreenenter"",""1"",""3254""
","
","
","""event"",""trial"",""time""
""fullscreenenter"",""1"",""3254""
","
","","","1153.6000000238419","","","25","7846","4155","&#9752;","elianto","#f73b6a7A"," "," ","1","0","[2003.7000000476837]","1","1","","","7846","13","3","3","lose","go","0"
"pit-trial","131","1050544","0.0-17.0","battery-v0.2","","""event"",""trial"",""time""
""fullscreenenter"",""1"",""3254""
","
","
","""event"",""trial"",""time""
""fullscreenenter"",""1"",""3254""
","
","","","-1","","","25","7846","4155","&#9733;","elianto","#3366ff99","-1","-1","1","+10","[]","0","1","","","7846","14","2","2","win","no-go","0"
"pit-trial","132","1054889","0.0-18.0","battery-v0.2","","""event"",""trial"",""time""
""fullscreenenter"",""1"",""3254""
","
","
","""event"",""trial"",""time""
""fullscreenenter"",""1"",""3254""
","
","","","1487.7999999523163","","","25","7846","4155","&#9728;","elianto","#f73b6a7A","-1"," ","0","-10","[2338.5]","1","1","","","7846","15","0","4","lose","no-go","0"
"pit-trial","133","1059745","0.0-19.0","battery-v0.2","","""event"",""trial"",""time""
""fullscreenenter"",""1"",""3254""
","
","
","""event"",""trial"",""time""
""fullscreenenter"",""1"",""3254""
","
","","","-1","","","25","7846","4155","&#9730;","elianto","#3366ff99"," ","-1","0","0","[]","0","1","","","7846","16","1","1","win","go","0"
"pit-trial","134","1064601","0.0-20.0","battery-v0.2","","""event"",""trial"",""time""
""fullscreenenter"",""1"",""3254""
","
","
","""event"",""trial"",""time""
""fullscreenenter"",""1"",""3254""
","
","","","-1","","","25","7846","4155","&#9733;","elianto","#3366ff99","-1","-1","1","+10","[]","0","1","","","7846","17","2","2","win","no-go","0"
"pit-trial","135","1069455","0.0-21.0","battery-v0.2","","""event"",""trial"",""time""
""fullscreenenter"",""1"",""3254""
","
","
","""event"",""trial"",""time""
""fullscreenenter"",""1"",""3254""
","
","","","-1","","","25","7846","4155","&#9730;","elianto","#3366ff99"," ","-1","0","0","[]","0","1","","","7846","18","1","1","win","go","0"
"pit-trial","136","1074309","0.0-22.0","battery-v0.2","","""event"",""trial"",""time""
""fullscreenenter"",""1"",""3254""
","
","
","""event"",""trial"",""time""
""fullscreenenter"",""1"",""3254""
","
","","","-1","","","25","7846","4155","&#9752;","elianto","#f73b6a7A"," ","-1","0","0","[]","0","1","","","7846","19","3","3","lose","go","1"
"pit-trial","137","1079165","0.0-23.0","battery-v0.2","","""event"",""trial"",""time""
""fullscreenenter"",""1"",""3254""
","
","
","""event"",""trial"",""time""
""fullscreenenter"",""1"",""3254""
","
","","","-1","","","25","7846","4155","&#9728;","elianto","#f73b6a7A","-1","-1","1","0","[]","0","1","","","7846","20","0","4","lose","no-go","0"
"pit-instructions","138","1091341","0.0-24.0","battery-v0.2","","""event"",""trial"",""time""
""fullscreenenter"",""1"",""3254""
","
","
","""event"",""trial"",""time""
""fullscreenenter"",""1"",""3254""
","
","","[{""page_index"":0,""viewing_time"":5702},{""page_index"":1,""viewing_time"":6469.700000047684}]","12172","","","","","","","","","","","","","","","","","","","","","","","",""
"pit-trial","139","1096208","0.0-25.0","battery-v0.2","","""event"",""trial"",""time""
""fullscreenenter"",""1"",""3254""
","
","
","""event"",""trial"",""time""
""fullscreenenter"",""1"",""3254""
","
","","","-1","","","25","7846","4155","l","elianto","#3366ff99"," ","-1","0","+10","[]","0","2","","","7846","21","1","1","win","go","1"
"pit-trial","140","1101080","0.0-26.0","battery-v0.2","","""event"",""trial"",""time""
""fullscreenenter"",""1"",""3254""
","
","
","""event"",""trial"",""time""
""fullscreenenter"",""1"",""3254""
","
","","","-1","","","25","7846","4155","g","elianto","#f73b6a7A"," ","-1","0","-10","[]","0","2","","","7846","22","3","3","lose","go","0"
"pit-trial","141","1105954","0.0-27.0","battery-v0.2","","""event"",""trial"",""time""
""fullscreenenter"",""1"",""3254""
","
","
","""event"",""trial"",""time""
""fullscreenenter"",""1"",""3254""
","
","","","-1","","","25","7846","4155","a","elianto","#f73b6a7A","-1","-1","1","0","[]","0","2","","","7846","23","2","4","lose","no-go","0"
"pit-trial","142","1110837","0.0-28.0","battery-v0.2","","""event"",""trial"",""time""
""fullscreenenter"",""1"",""3254""
","
","
","""event"",""trial"",""time""
""fullscreenenter"",""1"",""3254""
","
","","","-1","","","25","7846","4155","u","elianto","#f73b6a7A","-1","-1","1","0","[]","0","2","","","7846","24","0","4","lose","no-go","0"
"pit-trial","143","1114921","0.0-29.0","battery-v0.2","","""event"",""trial"",""time""
""fullscreenenter"",""1"",""3254""
","
","
","""event"",""trial"",""time""
""fullscreenenter"",""1"",""3254""
","
","","","1221.2999999523163","","","25","7846","4155","l","elianto","#3366ff99"," "," ","1","+10","[2077.3000000715256]","1","2","","","7846","25","1","1","win","go","0"
"pit-trial","144","1119794","0.0-30.0","battery-v0.2","","""event"",""trial"",""time""
""fullscreenenter"",""1"",""3254""
","
","
","""event"",""trial"",""time""
""fullscreenenter"",""1"",""3254""
","
","","","-1","","","25","7846","4155","a","elianto","#f73b6a7A","-1","-1","1","0","[]","0","2","","","7846","26","2","4","lose","no-go","0"
"pit-trial","145","1124649","0.0-31.0","battery-v0.2","","""event"",""trial"",""time""
""fullscreenenter"",""1"",""3254""
","
","
","""event"",""trial"",""time""
""fullscreenenter"",""1"",""3254""
","
","","","-1","","","25","7846","4155","u","elianto","#f73b6a7A","-1","-1","1","0","[]","0","2","","","7846","27","0","4","lose","no-go","0"
"pit-trial","146","1128567","0.0-32.0","battery-v0.2","","""event"",""trial"",""time""
""fullscreenenter"",""1"",""3254""
","
","
","""event"",""trial"",""time""
""fullscreenenter"",""1"",""3254""
","
","","","1061.2999999523163","","","25","7846","4155","g","elianto","#f73b6a7A"," "," ","1","-10","[1912.5]","1","2","","","7846","28","3","3","lose","go","1"
"pit-trial","147","1133420","0.0-33.0","battery-v0.2","","""event"",""trial"",""time""
""fullscreenenter"",""1"",""3254""
","
","
","""event"",""trial"",""time""
""fullscreenenter"",""1"",""3254""
","
","","","-1","","","25","7846","4155","a","elianto","#f73b6a7A","-1","-1","1","0","[]","0","2","","","7846","29","2","4","lose","no-go","0"
"pit-trial","148","1137605","0.0-34.0","battery-v0.2","","""event"",""trial"",""time""
""fullscreenenter"",""1"",""3254""
","
","
","""event"",""trial"",""time""
""fullscreenenter"",""1"",""3254""
","
","","","1329.1999999284744","","","25","7846","4155","l","elianto","#3366ff99"," "," ","1","+10","[2180.2999999523163]","1","2","","","7846","30","1","1","win","go","0"
"pit-trial","149","1142459","0.0-35.0","battery-v0.2","","""event"",""trial"",""time""
""fullscreenenter"",""1"",""3254""
","
","
","""event"",""trial"",""time""
""fullscreenenter"",""1"",""3254""
","
","","","-1","","","25","7846","4155","u","elianto","#f73b6a7A","-1","-1","1","0","[]","0","2","","","7846","31","0","4","lose","no-go","0"
"pit-trial","150","1146022","0.0-36.0","battery-v0.2","","""event"",""trial"",""time""
""fullscreenenter"",""1"",""3254""
","
","
","""event"",""trial"",""time""
""fullscreenenter"",""1"",""3254""
","
","","","708.7999999523163","","","25","7846","4155","g","elianto","#f73b6a7A"," "," ","1","0","[1558.8999999761581]","1","2","","","7846","32","3","3","lose","go","0"
"pit-trial","151","1150877","0.0-37.0","battery-v0.2","","""event"",""trial"",""time""
""fullscreenenter"",""1"",""3254""
","
","
","""event"",""trial"",""time""
""fullscreenenter"",""1"",""3254""
","
","","","-1","","","25","7846","4155","a","elianto","#f73b6a7A","-1","-1","1","0","[]","0","2","","","7846","33","2","4","lose","no-go","0"
"pit-trial","152","1155734","0.0-38.0","battery-v0.2","","""event"",""trial"",""time""
""fullscreenenter"",""1"",""3254""
","
","
","""event"",""trial"",""time""
""fullscreenenter"",""1"",""3254""
","
","","","-1","","","25","7846","4155","u","elianto","#f73b6a7A","-1","-1","1","0","[]","0","2","","","7846","34","0","4","lose","no-go","0"
"pit-trial","153","1159343","0.0-39.0","battery-v0.2","","""event"",""trial"",""time""
""fullscreenenter"",""1"",""3254""
","
","
","""event"",""trial"",""time""
""fullscreenenter"",""1"",""3254""
","
","","","751.8999999761581","","","25","7846","4155","l","elianto","#3366ff99"," "," ","1","0","[1604.2999999523163]","1","2","","","7846","35","1","1","win","go","1"
"pit-trial","154","1163253","0.0-40.0","battery-v0.2","","""event"",""trial"",""time""
""fullscreenenter"",""1"",""3254""
","
","
","""event"",""trial"",""time""
""fullscreenenter"",""1"",""3254""
","
","","","1055.5","","","25","7846","4155","g","elianto","#f73b6a7A"," "," ","1","-10","[1905.6999999284744]","1","2","","","7846","36","3","3","lose","go","1"
"pit-trial","155","1168107","0.0-41.0","battery-v0.2","","""event"",""trial"",""time""
""fullscreenenter"",""1"",""3254""
","
","
","""event"",""trial"",""time""
""fullscreenenter"",""1"",""3254""
","
","","","-1","","","25","7846","4155","a","elianto","#f73b6a7A","-1","-1","1","-10","[]","0","2","","","7846","37","2","4","lose","no-go","1"
"pit-trial","156","1172964","0.0-42.0","battery-v0.2","","""event"",""trial"",""time""
""fullscreenenter"",""1"",""3254""
","
","
","""event"",""trial"",""time""
""fullscreenenter"",""1"",""3254""
","
","","","-1","","","25","7846","4155","u","elianto","#f73b6a7A","-1","-1","1","-10","[]","0","2","","","7846","38","0","4","lose","no-go","1"
"pit-trial","157","1177820","0.0-43.0","battery-v0.2","","""event"",""trial"",""time""
""fullscreenenter"",""1"",""3254""
","
","
","""event"",""trial"",""time""
""fullscreenenter"",""1"",""3254""
","
","","","-1","","","25","7846","4155","g","elianto","#f73b6a7A"," ","-1","0","-10","[3109.2000000476837]","1","2","","","7846","39","3","3","lose","go","0"
"pit-trial","158","1181733","0.0-44.0","battery-v0.2","","""event"",""trial"",""time""
""fullscreenenter"",""1"",""3254""
","
","
","""event"",""trial"",""time""
""fullscreenenter"",""1"",""3254""
","
","","","1058.3999999761581","","","25","7846","4155","l","elianto","#3366ff99"," "," ","1","0","[1908.5]","1","2","","","7846","40","1","1","win","go","1"
"pit-trial","159","1186589","0.0-45.0","battery-v0.2","","""event"",""trial"",""time""
""fullscreenenter"",""1"",""3254""
","
","
","""event"",""trial"",""time""
""fullscreenenter"",""1"",""3254""
","
","","","-1","","","25","7846","4155","u","elianto","#f73b6a7A","-1","-1","1","0","[]","0","2","","","7846","41","0","4","lose","no-go","0"
"pit-trial","160","1191444","0.0-46.0","battery-v0.2","","""event"",""trial"",""time""
""fullscreenenter"",""1"",""3254""
","
","
","""event"",""trial"",""time""
""fullscreenenter"",""1"",""3254""
","
","","","-1","","","25","7846","4155","a","elianto","#f73b6a7A","-1","-1","1","0","[]","0","2","","","7846","42","2","4","lose","no-go","0"
"pit-trial","161","1194998","0.0-47.0","battery-v0.2","","""event"",""trial"",""time""
""fullscreenenter"",""1"",""3254""
","
","
","""event"",""trial"",""time""
""fullscreenenter"",""1"",""3254""
","
","","","697.9000000953674","","","25","7846","4155","l","elianto","#3366ff99"," "," ","1","+10","[1549]","1","2","","","7846","43","1","1","win","go","0"
"pit-trial","162","1198445","0.0-48.0","battery-v0.2","","""event"",""trial"",""time""
""fullscreenenter"",""1"",""3254""
","
","
","""event"",""trial"",""time""
""fullscreenenter"",""1"",""3254""
","
","","","590.7000000476837","","","25","7846","4155","g","elianto","#f73b6a7A"," "," ","1","-10","[1442.6000000238419]","1","2","","","7846","44","3","3","lose","go","1"
"pit-trial","163","1202749","0.0-49.0","battery-v0.2","","""event"",""trial"",""time""
""fullscreenenter"",""1"",""3254""
","
","
","""event"",""trial"",""time""
""fullscreenenter"",""1"",""3254""
","
","","","1448.1000000238419","","","25","7846","4155","p","elianto","#3366ff99","-1"," ","0","+10","[2298.7999999523163]","1","2","","","7846","45","4","2","win","no-go","1"
"pit-trial","164","1207604","0.0-50.0","battery-v0.2","","""event"",""trial"",""time""
""fullscreenenter"",""1"",""3254""
","
","
","""event"",""trial"",""time""
""fullscreenenter"",""1"",""3254""
","
","","","-1","","","25","7846","4155","u","elianto","#f73b6a7A","-1","-1","1","0","[]","0","2","","","7846","46","0","4","lose","no-go","0"
"pit-trial","165","1212197","0.0-51.0","battery-v0.2","","""event"",""trial"",""time""
""fullscreenenter"",""1"",""3254""
","
","
","""event"",""trial"",""time""
""fullscreenenter"",""1"",""3254""
","
","","","1738.6000000238419","","","25","7846","4155","g","elianto","#f73b6a7A"," "," ","1","0","[2589.100000023842]","1","2","","","7846","47","3","3","lose","go","0"
"pit-trial","166","1217057","0.0-52.0","battery-v0.2","","""event"",""trial"",""time""
""fullscreenenter"",""1"",""3254""
","
","
","""event"",""trial"",""time""
""fullscreenenter"",""1"",""3254""
","
","","","-1","","","25","7846","4155","a","elianto","#f73b6a7A","-1","-1","1","0","[]","0","2","","","7846","48","2","4","lose","no-go","0"
"pit-trial","167","1220853","0.0-53.0","battery-v0.2","","""event"",""trial"",""time""
""fullscreenenter"",""1"",""3254""
","
","
","""event"",""trial"",""time""
""fullscreenenter"",""1"",""3254""
","
","","","939.8999999761581","","","25","7846","4155","l","elianto","#3366ff99"," "," ","1","+10","[1790.3000000715256]","1","2","","","7846","49","1","1","win","go","0"
"pit-trial","168","1224543","0.0-54.0","battery-v0.2","","""event"",""trial"",""time""
""fullscreenenter"",""1"",""3254""
","
","
","""event"",""trial"",""time""
""fullscreenenter"",""1"",""3254""
","
","","","833.3000000715256","","","25","7846","4155","p","elianto","#3366ff99","-1"," ","0","0","[1684.6000000238419]","1","2","","","7846","50","4","2","win","no-go","0"
"pit-trial","169","1229398","0.0-55.0","battery-v0.2","","""event"",""trial"",""time""
""fullscreenenter"",""1"",""3254""
","
","
","""event"",""trial"",""time""
""fullscreenenter"",""1"",""3254""
","
","","","-1","","","25","7846","4155","u","elianto","#f73b6a7A","-1","-1","1","0","[]","0","2","","","7846","51","0","4","lose","no-go","0"
"pit-trial","170","1234254","0.0-56.0","battery-v0.2","","""event"",""trial"",""time""
""fullscreenenter"",""1"",""3254""
","
","
","""event"",""trial"",""time""
""fullscreenenter"",""1"",""3254""
","
","","","-1","","","25","7846","4155","g","elianto","#f73b6a7A"," ","-1","0","-10","[]","0","2","","","7846","52","3","3","lose","go","0"
"pit-trial","171","1238150","0.0-57.0","battery-v0.2","","""event"",""trial"",""time""
""fullscreenenter"",""1"",""3254""
","
","
","""event"",""trial"",""time""
""fullscreenenter"",""1"",""3254""
","
","","","1040.5","","","25","7846","4155","l","elianto","#3366ff99"," "," ","1","+10","[1891.5]","1","2","","","7846","53","1","1","win","go","0"
"pit-trial","172","1243005","0.0-58.0","battery-v0.2","","""event"",""trial"",""time""
""fullscreenenter"",""1"",""3254""
","
","
","""event"",""trial"",""time""
""fullscreenenter"",""1"",""3254""
","
","","","-1","","","25","7846","4155","a","elianto","#f73b6a7A","-1","-1","1","0","[]","0","2","","","7846","54","2","4","lose","no-go","0"
"pit-trial","173","1247862","0.0-59.0","battery-v0.2","","""event"",""trial"",""time""
""fullscreenenter"",""1"",""3254""
","
","
","""event"",""trial"",""time""
""fullscreenenter"",""1"",""3254""
","
","","","-1","","","25","7846","4155","u","elianto","#f73b6a7A","-1","-1","1","0","[]","0","2","","","7846","55","0","4","lose","no-go","0"
"pit-trial","174","1251503","0.0-60.0","battery-v0.2","","""event"",""trial"",""time""
""fullscreenenter"",""1"",""3254""
","
","
","""event"",""trial"",""time""
""fullscreenenter"",""1"",""3254""
","
","","","785.8999999761581","","","25","7846","4155","p","elianto","#3366ff99","-1"," ","0","0","[1635.8999999761581]","1","2","","","7846","56","4","2","win","no-go","0"
"pit-trial","175","1255229","0.0-61.0","battery-v0.2","","""event"",""trial"",""time""
""fullscreenenter"",""1"",""3254""
","
","
","""event"",""trial"",""time""
""fullscreenenter"",""1"",""3254""
","
","","","869.8999999761581","","","25","7846","4155","g","elianto","#f73b6a7A"," "," ","1","-10","[1720.6999999284744]","1","2","","","7846","57","3","3","lose","go","1"
"pit-trial","176","1258789","0.0-62.0","battery-v0.2","","""event"",""trial"",""time""
""fullscreenenter"",""1"",""3254""
","
","
","""event"",""trial"",""time""
""fullscreenenter"",""1"",""3254""
","
","","","705.1000000238419","","","25","7846","4155","l","elianto","#3366ff99"," "," ","1","+10","[1555.7999999523163]","1","2","","","7846","58","1","1","win","go","0"
"pit-trial","177","1262422","0.0-63.0","battery-v0.2","","""event"",""trial"",""time""
""fullscreenenter"",""1"",""3254""
","
","
","""event"",""trial"",""time""
""fullscreenenter"",""1"",""3254""
","
","","","777.1999999284744","","","25","7846","4155","p","elianto","#3366ff99","-1"," ","0","0","[1628.2999999523163]","1","2","","","7846","59","4","2","win","no-go","0"
"pit-trial","178","1267278","0.0-64.0","battery-v0.2","","""event"",""trial"",""time""
""fullscreenenter"",""1"",""3254""
","
","
","""event"",""trial"",""time""
""fullscreenenter"",""1"",""3254""
","
","","","-1","","","25","7846","4155","u","elianto","#f73b6a7A","-1","-1","1","0","[]","0","2","","","7846","60","0","4","lose","no-go","0"
"pit-trial","179","1270886","0.0-65.0","battery-v0.2","","""event"",""trial"",""time""
""fullscreenenter"",""1"",""3254""
","
","
","""event"",""trial"",""time""
""fullscreenenter"",""1"",""3254""
","
","","","751.6000000238419","","","25","7846","4155","l","elianto","#3366ff99"," "," ","1","+10","[1602.2999999523163]","1","2","","","7846","61","1","1","win","go","0"
"pit-trial","180","1275742","0.0-66.0","battery-v0.2","","""event"",""trial"",""time""
""fullscreenenter"",""1"",""3254""
","
","
","""event"",""trial"",""time""
""fullscreenenter"",""1"",""3254""
","
","","","-1","","","25","7846","4155","a","elianto","#f73b6a7A","-1","-1","1","0","[]","0","2","","","7846","62","2","4","lose","no-go","0"
"pit-trial","181","1279567","0.0-67.0","battery-v0.2","","""event"",""trial"",""time""
""fullscreenenter"",""1"",""3254""
","
","
","""event"",""trial"",""time""
""fullscreenenter"",""1"",""3254""
","
","","","968.3999999761581","","","25","7846","4155","p","elianto","#3366ff99","-1"," ","0","0","[1819.2000000476837]","1","2","","","7846","63","4","2","win","no-go","0"
"pit-trial","182","1283662","0.0-68.0","battery-v0.2","","""event"",""trial"",""time""
""fullscreenenter"",""1"",""3254""
","
","
","""event"",""trial"",""time""
""fullscreenenter"",""1"",""3254""
","
","","","1241","","","25","7846","4155","g","elianto","#f73b6a7A"," "," ","1","0","[2091.2000000476837]","1","2","","","7846","64","3","3","lose","go","0"
"pit-trial","183","1287821","0.0-69.0","battery-v0.2","","""event"",""trial"",""time""
""fullscreenenter"",""1"",""3254""
","
","
","""event"",""trial"",""time""
""fullscreenenter"",""1"",""3254""
","
","","","1303.8999999761581","","","25","7846","4155","g","elianto","#f73b6a7A"," "," ","1","0","[2154.1999999284744]","1","2","","","7846","65","3","3","lose","go","0"
"pit-trial","184","1291438","0.0-70.0","battery-v0.2","","""event"",""trial"",""time""
""fullscreenenter"",""1"",""3254""
","
","
","""event"",""trial"",""time""
""fullscreenenter"",""1"",""3254""
","
","","","761.6999999284744","","","25","7846","4155","l","elianto","#3366ff99"," "," ","1","+10","[1612.2000000476837]","1","2","","","7846","66","1","1","win","go","0"
"pit-trial","185","1296292","0.0-71.0","battery-v0.2","","""event"",""trial"",""time""
""fullscreenenter"",""1"",""3254""
","
","
","""event"",""trial"",""time""
""fullscreenenter"",""1"",""3254""
","
","","","-1","","","25","7846","4155","a","elianto","#f73b6a7A","-1","-1","1","0","[]","0","2","","","7846","67","2","4","lose","no-go","0"
"pit-trial","186","1299870","0.0-72.0","battery-v0.2","","""event"",""trial"",""time""
""fullscreenenter"",""1"",""3254""
","
","
","""event"",""trial"",""time""
""fullscreenenter"",""1"",""3254""
","
","","","721.8000000715256","","","25","7846","4155","p","elianto","#3366ff99","-1"," ","0","0","[1572.3999999761581]","1","2","","","7846","68","4","2","win","no-go","0"
"pit-trial","187","1303910","0.0-73.0","battery-v0.2","","""event"",""trial"",""time""
""fullscreenenter"",""1"",""3254""
","
","
","""event"",""trial"",""time""
""fullscreenenter"",""1"",""3254""
","
","","","1184","","","25","7846","4155","g","elianto","#f73b6a7A"," "," ","1","0","[2036.1000000238419]","1","2","","","7846","69","3","3","lose","go","0"
"pit-trial","188","1307750","0.0-74.0","battery-v0.2","","""event"",""trial"",""time""
""fullscreenenter"",""1"",""3254""
","
","
","""event"",""trial"",""time""
""fullscreenenter"",""1"",""3254""
","
","","","984.2999999523163","","","25","7846","4155","l","elianto","#3366ff99"," "," ","1","+10","[1834.8999999761581]","1","2","","","7846","70","1","1","win","go","0"
"pit-trial","189","1312606","0.0-75.0","battery-v0.2","","""event"",""trial"",""time""
""fullscreenenter"",""1"",""3254""
","
","
","""event"",""trial"",""time""
""fullscreenenter"",""1"",""3254""
","
","","","-1","","","25","7846","4155","p","elianto","#3366ff99","-1","-1","1","0","[]","0","2","","","7846","71","4","2","win","no-go","1"
"pit-trial","190","1316671","0.0-76.0","battery-v0.2","","""event"",""trial"",""time""
""fullscreenenter"",""1"",""3254""
","
","
","""event"",""trial"",""time""
""fullscreenenter"",""1"",""3254""
","
","","","1208.6000000238419","","","25","7846","4155","s","elianto","#3366ff99"," "," ","1","+10","[2059.8000000715256]","1","2","","","7846","72","5","1","win","go","0"
"pit-trial","191","1320341","0.0-77.0","battery-v0.2","","""event"",""trial"",""time""
""fullscreenenter"",""1"",""3254""
","
","
","""event"",""trial"",""time""
""fullscreenenter"",""1"",""3254""
","
","","","815.1000000238419","","","25","7846","4155","l","elianto","#3366ff99"," "," ","1","+10","[1665.6000000238419]","1","2","","","7846","73","1","1","win","go","0"
"pit-trial","192","1323885","0.0-78.0","battery-v0.2","","""event"",""trial"",""time""
""fullscreenenter"",""1"",""3254""
","
","
","""event"",""trial"",""time""
""fullscreenenter"",""1"",""3254""
","
","","","689.8999999761581","","","25","7846","4155","g","elianto","#f73b6a7A"," "," ","1","0","[1540.2999999523163]","1","2","","","7846","74","3","3","lose","go","0"
"pit-trial","193","1328741","0.0-79.0","battery-v0.2","","""event"",""trial"",""time""
""fullscreenenter"",""1"",""3254""
","
","
","""event"",""trial"",""time""
""fullscreenenter"",""1"",""3254""
","
","","","-1","","","25","7846","4155","p","elianto","#3366ff99","-1","-1","1","0","[]","0","2","","","7846","75","4","2","win","no-go","1"
"pit-trial","194","1332398","0.0-80.0","battery-v0.2","","""event"",""trial"",""time""
""fullscreenenter"",""1"",""3254""
","
","
","""event"",""trial"",""time""
""fullscreenenter"",""1"",""3254""
","
","","","798.8999999761581","","","25","7846","4155","s","elianto","#3366ff99"," "," ","1","+10","[1651.9000000953674]","1","2","","","7846","76","5","1","win","go","0"
"pit-trial","195","1336093","0.0-81.0","battery-v0.2","","""event"",""trial"",""time""
""fullscreenenter"",""1"",""3254""
","
","
","""event"",""trial"",""time""
""fullscreenenter"",""1"",""3254""
","
","","","842","","","25","7846","4155","s","elianto","#3366ff99"," "," ","1","+10","[1692.3000000715256]","1","2","","","7846","77","5","1","win","go","0"
"pit-trial","196","1340037","0.0-82.0","battery-v0.2","","""event"",""trial"",""time""
""fullscreenenter"",""1"",""3254""
","
","
","""event"",""trial"",""time""
""fullscreenenter"",""1"",""3254""
","
","","","1084.8999999761581","","","25","7846","4155","g","elianto","#f73b6a7A"," "," ","1","0","[1939]","1","2","","","7846","78","3","3","lose","go","0"
"pit-trial","197","1344892","0.0-83.0","battery-v0.2","","""event"",""trial"",""time""
""fullscreenenter"",""1"",""3254""
","
","
","""event"",""trial"",""time""
""fullscreenenter"",""1"",""3254""
","
","","","-1","","","25","7846","4155","w","elianto","#f73b6a7A","-1","-1","1","0","[]","0","2","","","7846","79","6","4","lose","no-go","0"
"pit-trial","198","1348918","0.0-84.0","battery-v0.2","","""event"",""trial"",""time""
""fullscreenenter"",""1"",""3254""
","
","
","""event"",""trial"",""time""
""fullscreenenter"",""1"",""3254""
","
","","","1172.5","","","25","7846","4155","p","elianto","#3366ff99","-1"," ","0","0","[2024.1999999284744]","1","2","","","7846","80","4","2","win","no-go","0"
"pit-trial","199","1353773","0.0-85.0","battery-v0.2","","""event"",""trial"",""time""
""fullscreenenter"",""1"",""3254""
","
","
","""event"",""trial"",""time""
""fullscreenenter"",""1"",""3254""
","
","","","-1","","","25","7846","4155","w","elianto","#f73b6a7A","-1","-1","1","0","[]","0","2","","","7846","81","6","4","lose","no-go","0"
"pit-trial","200","1358627","0.0-86.0","battery-v0.2","","""event"",""trial"",""time""
""fullscreenenter"",""1"",""3254""
","
","
","""event"",""trial"",""time""
""fullscreenenter"",""1"",""3254""
","
","","","-1","","","25","7846","4155","e","elianto","#f73b6a7A"," ","-1","0","0","[]","0","2","","","7846","82","7","3","lose","go","1"
"pit-trial","201","1362654","0.0-87.0","battery-v0.2","","""event"",""trial"",""time""
""fullscreenenter"",""1"",""3254""
","
","
","""event"",""trial"",""time""
""fullscreenenter"",""1"",""3254""
","
","","","1170.8000000715256","","","25","7846","4155","s","elianto","#3366ff99"," "," ","1","+10","[2022.1000000238419]","1","2","","","7846","83","5","1","win","go","0"
"pit-trial","202","1367509","0.0-88.0","battery-v0.2","","""event"",""trial"",""time""
""fullscreenenter"",""1"",""3254""
","
","
","""event"",""trial"",""time""
""fullscreenenter"",""1"",""3254""
","
","","","-1","","","25","7846","4155","p","elianto","#3366ff99","-1","-1","1","+10","[]","0","2","","","7846","84","4","2","win","no-go","0"
"pit-trial","203","1372013","0.0-89.0","battery-v0.2","","""event"",""trial"",""time""
""fullscreenenter"",""1"",""3254""
","
","
","""event"",""trial"",""time""
""fullscreenenter"",""1"",""3254""
","
","","","1648.6000000238419","","","25","7846","4155","w","elianto","#f73b6a7A","-1"," ","0","0","[2499.2000000476837]","1","2","","","7846","85","6","4","lose","no-go","1"
"pit-trial","204","1376405","0.0-90.0","battery-v0.2","","""event"",""trial"",""time""
""fullscreenenter"",""1"",""3254""
","
","
","""event"",""trial"",""time""
""fullscreenenter"",""1"",""3254""
","
","","","1540.1999999284744","","","25","7846","4155","s","elianto","#3366ff99"," "," ","1","+10","[2390.100000023842]","1","2","","","7846","86","5","1","win","go","0"
"pit-trial","205","1381261","0.0-91.0","battery-v0.2","","""event"",""trial"",""time""
""fullscreenenter"",""1"",""3254""
","
","
","""event"",""trial"",""time""
""fullscreenenter"",""1"",""3254""
","
","","","-1","","","25","7846","4155","e","elianto","#f73b6a7A"," ","-1","0","-10","[]","0","2","","","7846","87","7","3","lose","go","0"
"pit-trial","206","1386115","0.0-92.0","battery-v0.2","","""event"",""trial"",""time""
""fullscreenenter"",""1"",""3254""
","
","
","""event"",""trial"",""time""
""fullscreenenter"",""1"",""3254""
","
","","","-1","","","25","7846","4155","p","elianto","#3366ff99","-1","-1","1","+10","[]","0","2","","","7846","88","4","2","win","no-go","0"
"pit-trial","207","1390972","0.0-93.0","battery-v0.2","","""event"",""trial"",""time""
""fullscreenenter"",""1"",""3254""
","
","
","""event"",""trial"",""time""
""fullscreenenter"",""1"",""3254""
","
","","","-1","","","25","7846","4155","w","elianto","#f73b6a7A","-1","-1","1","0","[]","0","2","","","7846","89","6","4","lose","no-go","0"
"pit-trial","208","1395828","0.0-94.0","battery-v0.2","","""event"",""trial"",""time""
""fullscreenenter"",""1"",""3254""
","
","
","""event"",""trial"",""time""
""fullscreenenter"",""1"",""3254""
","
","","","-1","","","25","7846","4155","e","elianto","#f73b6a7A"," ","-1","0","-10","[]","0","2","","","7846","90","7","3","lose","go","0"
"pit-trial","209","1400683","0.0-95.0","battery-v0.2","","""event"",""trial"",""time""
""fullscreenenter"",""1"",""3254""
","
","
","""event"",""trial"",""time""
""fullscreenenter"",""1"",""3254""
","
","","","-1","","","25","7846","4155","p","elianto","#3366ff99","-1","-1","1","+10","[]","0","2","","","7846","91","4","2","win","no-go","0"
"pit-trial","210","1404615","0.0-96.0","battery-v0.2","","""event"",""trial"",""time""
""fullscreenenter"",""1"",""3254""
","
","
","""event"",""trial"",""time""
""fullscreenenter"",""1"",""3254""
","
","","","1076.2999999523163","","","25","7846","4155","s","elianto","#3366ff99"," "," ","1","+10","[1926.4000000953674]","1","2","","","7846","92","5","1","win","go","0"
"pit-trial","211","1408349","0.0-97.0","battery-v0.2","","""event"",""trial"",""time""
""fullscreenenter"",""1"",""3254""
","
","
","""event"",""trial"",""time""
""fullscreenenter"",""1"",""3254""
","
","","","878.5","","","25","7846","4155","s","elianto","#3366ff99"," "," ","1","0","[1729.3000000715256]","1","2","","","7846","93","5","1","win","go","1"
"pit-trial","212","1413206","0.0-98.0","battery-v0.2","","""event"",""trial"",""time""
""fullscreenenter"",""1"",""3254""
","
","
","""event"",""trial"",""time""
""fullscreenenter"",""1"",""3254""
","
","","","-1","","","25","7846","4155","w","elianto","#f73b6a7A","-1","-1","1","-10","[]","0","2","","","7846","94","6","4","lose","no-go","1"
"pit-trial","213","1417253","0.0-99.0","battery-v0.2","","""event"",""trial"",""time""
""fullscreenenter"",""1"",""3254""
","
","
","""event"",""trial"",""time""
""fullscreenenter"",""1"",""3254""
","
","","","1191.3999999761581","","","25","7846","4155","d","elianto","#3366ff99","-1"," ","0","+10","[2042.1999999284744]","1","2","","","7846","95","8","2","win","no-go","1"
"pit-trial","214","1422108","0.0-100.0","battery-v0.2","","""event"",""trial"",""time""
""fullscreenenter"",""1"",""3254""
","
","
","""event"",""trial"",""time""
""fullscreenenter"",""1"",""3254""
","
","","","-1","","","25","7846","4155","e","elianto","#f73b6a7A"," ","-1","0","0","[]","0","2","","","7846","96","7","3","lose","go","1"
"pit-trial","215","1426964","0.0-101.0","battery-v0.2","","""event"",""trial"",""time""
""fullscreenenter"",""1"",""3254""
","
","
","""event"",""trial"",""time""
""fullscreenenter"",""1"",""3254""
","
","","","-1","","","25","7846","4155","e","elianto","#f73b6a7A"," ","-1","0","-10","[]","0","2","","","7846","97","7","3","lose","go","0"
"pit-trial","216","1430646","0.0-102.0","battery-v0.2","","""event"",""trial"",""time""
""fullscreenenter"",""1"",""3254""
","
","
","""event"",""trial"",""time""
""fullscreenenter"",""1"",""3254""
","
","","","826.9000000953674","","","25","7846","4155","s","elianto","#3366ff99"," "," ","1","+10","[1677.2000000476837]","1","2","","","7846","98","5","1","win","go","0"
"pit-trial","217","1434622","0.0-103.0","battery-v0.2","","""event"",""trial"",""time""
""fullscreenenter"",""1"",""3254""
","
","
","""event"",""trial"",""time""
""fullscreenenter"",""1"",""3254""
","
","","","1121.1000000238419","","","25","7846","4155","w","elianto","#f73b6a7A","-1"," ","0","-10","[1971.1000000238419]","1","2","","","7846","99","6","4","lose","no-go","0"
"pit-trial","218","1438757","0.0-104.0","battery-v0.2","","""event"",""trial"",""time""
""fullscreenenter"",""1"",""3254""
","
","
","""event"",""trial"",""time""
""fullscreenenter"",""1"",""3254""
","
","","","1280","","","25","7846","4155","d","elianto","#3366ff99","-1"," ","0","0","[2130.5999999046326]","1","2","","","7846","100","8","2","win","no-go","0"
"pit-trial","219","1442437","0.0-105.0","battery-v0.2","","""event"",""trial"",""time""
""fullscreenenter"",""1"",""3254""
","
","
","""event"",""trial"",""time""
""fullscreenenter"",""1"",""3254""
","
","","","824.6999999284744","","","25","7846","4155","s","elianto","#3366ff99"," "," ","1","+10","[1676]","1","2","","","7846","101","5","1","win","go","0"
"pit-trial","220","1447293","0.0-106.0","battery-v0.2","","""event"",""trial"",""time""
""fullscreenenter"",""1"",""3254""
","
","
","""event"",""trial"",""time""
""fullscreenenter"",""1"",""3254""
","
","","","-1","","","25","7846","4155","w","elianto","#f73b6a7A","-1","-1","1","0","[]","0","2","","","7846","102","6","4","lose","no-go","0"
"pit-trial","221","1450933","0.0-107.0","battery-v0.2","","""event"",""trial"",""time""
""fullscreenenter"",""1"",""3254""
","
","
","""event"",""trial"",""time""
""fullscreenenter"",""1"",""3254""
","
","","","784.2000000476837","","","25","7846","4155","j","elianto","#3366ff99","-1"," ","0","+10","[1634.9000000953674]","1","2","","","7846","103","9","2","win","no-go","1"
"pit-trial","222","1454646","0.0-108.0","battery-v0.2","","""event"",""trial"",""time""
""fullscreenenter"",""1"",""3254""
","
","
","""event"",""trial"",""time""
""fullscreenenter"",""1"",""3254""
","
","","","857.2000000476837","","","25","7846","4155","d","elianto","#3366ff99","-1"," ","0","0","[1708.1000000238419]","1","2","","","7846","104","8","2","win","no-go","0"
"pit-trial","223","1458541","0.0-109.0","battery-v0.2","","""event"",""trial"",""time""
""fullscreenenter"",""1"",""3254""
","
","
","""event"",""trial"",""time""
""fullscreenenter"",""1"",""3254""
","
","","","1037.7999999523163","","","25","7846","4155","j","elianto","#3366ff99","-1"," ","0","+10","[1889.6000000238419]","1","2","","","7846","105","9","2","win","no-go","1"
"pit-trial","224","1462132","0.0-110.0","battery-v0.2","","""event"",""trial"",""time""
""fullscreenenter"",""1"",""3254""
","
","
","""event"",""trial"",""time""
""fullscreenenter"",""1"",""3254""
","
","","","735.3999999761581","","","25","7846","4155","s","elianto","#3366ff99"," "," ","1","+10","[1586.3000000715256]","1","2","","","7846","106","5","1","win","go","0"
"pit-trial","225","1466988","0.0-111.0","battery-v0.2","","""event"",""trial"",""time""
""fullscreenenter"",""1"",""3254""
","
","
","""event"",""trial"",""time""
""fullscreenenter"",""1"",""3254""
","
","","","-1","","","25","7846","4155","w","elianto","#f73b6a7A","-1","-1","1","-10","[]","0","2","","","7846","107","6","4","lose","no-go","1"
"pit-trial","226","1470606","0.0-112.0","battery-v0.2","","""event"",""trial"",""time""
""fullscreenenter"",""1"",""3254""
","
","
","""event"",""trial"",""time""
""fullscreenenter"",""1"",""3254""
","
","","","762.8000000715256","","","25","7846","4155","d","elianto","#3366ff99","-1"," ","0","+10","[1613]","1","2","","","7846","108","8","2","win","no-go","1"
"pit-trial","227","1474310","0.0-113.0","battery-v0.2","","""event"",""trial"",""time""
""fullscreenenter"",""1"",""3254""
","
","
","""event"",""trial"",""time""
""fullscreenenter"",""1"",""3254""
","
","","","847.8000000715256","","","25","7846","4155","s","elianto","#3366ff99"," "," ","1","+10","[1698.3999999761581]","1","2","","","7846","109","5","1","win","go","0"
"pit-trial","228","1479163","0.0-114.0","battery-v0.2","","""event"",""trial"",""time""
""fullscreenenter"",""1"",""3254""
","
","
","""event"",""trial"",""time""
""fullscreenenter"",""1"",""3254""
","
","","","-1","","","25","7846","4155","w","elianto","#f73b6a7A","-1","-1","1","0","[]","0","2","","","7846","110","6","4","lose","no-go","0"
"pit-trial","229","1482973","0.0-115.0","battery-v0.2","","""event"",""trial"",""time""
""fullscreenenter"",""1"",""3254""
","
","
","""event"",""trial"",""time""
""fullscreenenter"",""1"",""3254""
","
","","","954.6000000238419","","","25","7846","4155","j","elianto","#3366ff99","-1"," ","0","0","[1804.8999999761581]","1","2","","","7846","111","9","2","win","no-go","0"
"pit-trial","230","1486509","0.0-116.0","battery-v0.2","","""event"",""trial"",""time""
""fullscreenenter"",""1"",""3254""
","
","
","""event"",""trial"",""time""
""fullscreenenter"",""1"",""3254""
","
","","","680","","","25","7846","4155","d","elianto","#3366ff99","-1"," ","0","+10","[1530.1000000238419]","1","2","","","7846","112","8","2","win","no-go","1"
"pit-trial","231","1490109","0.0-117.0","battery-v0.2","","""event"",""trial"",""time""
""fullscreenenter"",""1"",""3254""
","
","
","""event"",""trial"",""time""
""fullscreenenter"",""1"",""3254""
","
","","","744.1000000238419","","","25","7846","4155","d","elianto","#3366ff99","-1"," ","0","+10","[1594.8999999761581]","1","2","","","7846","113","8","2","win","no-go","1"
"pit-trial","232","1494967","0.0-118.0","battery-v0.2","","""event"",""trial"",""time""
""fullscreenenter"",""1"",""3254""
","
","
","""event"",""trial"",""time""
""fullscreenenter"",""1"",""3254""
","
","","","-1","","","25","7846","4155","e","elianto","#f73b6a7A"," ","-1","0","-10","[]","0","2","","","7846","114","7","3","lose","go","0"
"pit-trial","233","1499823","0.0-119.0","battery-v0.2","","""event"",""trial"",""time""
""fullscreenenter"",""1"",""3254""
","
","
","""event"",""trial"",""time""
""fullscreenenter"",""1"",""3254""
","
","","","-1","","","25","7846","4155","j","elianto","#3366ff99","-1","-1","1","+10","[]","0","2","","","7846","115","9","2","win","no-go","0"
"pit-trial","234","1503398","0.0-120.0","battery-v0.2","","""event"",""trial"",""time""
""fullscreenenter"",""1"",""3254""
","
","
","""event"",""trial"",""time""
""fullscreenenter"",""1"",""3254""
","
","","","718.0999999046326","","","25","7846","4155","s","elianto","#3366ff99"," "," ","1","+10","[1569]","1","2","","","7846","116","5","1","win","go","0"
"pit-trial","235","1507172","0.0-121.0","battery-v0.2","","""event"",""trial"",""time""
""fullscreenenter"",""1"",""3254""
","
","
","""event"",""trial"",""time""
""fullscreenenter"",""1"",""3254""
","
","","","919","","","25","7846","4155","d","elianto","#3366ff99","-1"," ","0","0","[1769.7000000476837]","1","2","","","7846","117","8","2","win","no-go","0"
"pit-trial","236","1512028","0.0-122.0","battery-v0.2","","""event"",""trial"",""time""
""fullscreenenter"",""1"",""3254""
","
","
","""event"",""trial"",""time""
""fullscreenenter"",""1"",""3254""
","
","","","-1","","","25","7846","4155","j","elianto","#3366ff99","-1","-1","1","0","[]","0","2","","","7846","118","9","2","win","no-go","1"
"pit-trial","237","1515550","0.0-123.0","battery-v0.2","","""event"",""trial"",""time""
""fullscreenenter"",""1"",""3254""
","
","
","""event"",""trial"",""time""
""fullscreenenter"",""1"",""3254""
","
","","","664.2999999523163","","","25","7846","4155","s","elianto","#3366ff99"," "," ","1","0","[1516]","1","2","","","7846","119","5","1","win","go","1"
"pit-trial","238","1520406","0.0-124.0","battery-v0.2","","""event"",""trial"",""time""
""fullscreenenter"",""1"",""3254""
","
","
","""event"",""trial"",""time""
""fullscreenenter"",""1"",""3254""
","
","","","-1","","","25","7846","4155","w","elianto","#f73b6a7A","-1","-1","1","0","[]","0","2","","","7846","120","6","4","lose","no-go","0"
"pit-trial","239","1525262","0.0-125.0","battery-v0.2","","""event"",""trial"",""time""
""fullscreenenter"",""1"",""3254""
","
","
","""event"",""trial"",""time""
""fullscreenenter"",""1"",""3254""
","
","","","-1","","","25","7846","4155","e","elianto","#f73b6a7A"," ","-1","0","-10","[]","0","2","","","7846","121","7","3","lose","go","0"
"pit-trial","240","1528926","0.0-126.0","battery-v0.2","","""event"",""trial"",""time""
""fullscreenenter"",""1"",""3254""
","
","
","""event"",""trial"",""time""
""fullscreenenter"",""1"",""3254""
","
","","","807.8999999761581","","","25","7846","4155","j","elianto","#3366ff99","-1"," ","0","0","[1658.5]","1","2","","","7846","122","9","2","win","no-go","0"
"pit-trial","241","1532493","0.0-127.0","battery-v0.2","","""event"",""trial"",""time""
""fullscreenenter"",""1"",""3254""
","
","
","""event"",""trial"",""time""
""fullscreenenter"",""1"",""3254""
","
","","","710.5","","","25","7846","4155","s","elianto","#3366ff99"," "," ","1","+10","[1561.5]","1","2","","","7846","123","5","1","win","go","0"
"pit-trial","242","1536309","0.0-128.0","battery-v0.2","","""event"",""trial"",""time""
""fullscreenenter"",""1"",""3254""
","
","
","""event"",""trial"",""time""
""fullscreenenter"",""1"",""3254""
","
","","","959.3999999761581","","","25","7846","4155","d","elianto","#3366ff99","-1"," ","0","0","[1810.8999999761581]","1","2","","","7846","124","8","2","win","no-go","0"
"pit-trial","243","1541166","0.0-129.0","battery-v0.2","","""event"",""trial"",""time""
""fullscreenenter"",""1"",""3254""
","
","
","""event"",""trial"",""time""
""fullscreenenter"",""1"",""3254""
","
","","","-1","","","25","7846","4155","j","elianto","#3366ff99","-1","-1","1","+10","[]","0","2","","","7846","125","9","2","win","no-go","0"
"pit-trial","244","1544941","0.0-130.0","battery-v0.2","","""event"",""trial"",""time""
""fullscreenenter"",""1"",""3254""
","
","
","""event"",""trial"",""time""
""fullscreenenter"",""1"",""3254""
","
","","","918.3000000715256","","","25","7846","4155","d","elianto","#3366ff99","-1"," ","0","0","[1770.2999999523163]","1","2","","","7846","126","8","2","win","no-go","0"
"pit-trial","245","1549798","0.0-131.0","battery-v0.2","","""event"",""trial"",""time""
""fullscreenenter"",""1"",""3254""
","
","
","""event"",""trial"",""time""
""fullscreenenter"",""1"",""3254""
","
","","","-1","","","25","7846","4155","w","elianto","#f73b6a7A","-1","-1","1","0","[]","0","2","","","7846","127","6","4","lose","no-go","0"
"pit-trial","246","1554654","0.0-132.0","battery-v0.2","","""event"",""trial"",""time""
""fullscreenenter"",""1"",""3254""
","
","
","""event"",""trial"",""time""
""fullscreenenter"",""1"",""3254""
","
","","","-1","","","25","7846","4155","e","elianto","#f73b6a7A"," ","-1","0","-10","[]","0","2","","","7846","128","7","3","lose","go","0"
"pit-trial","247","1558287","0.0-133.0","battery-v0.2","","""event"",""trial"",""time""
""fullscreenenter"",""1"",""3254""
","
","
","""event"",""trial"",""time""
""fullscreenenter"",""1"",""3254""
","
","","","774.3000000715256","","","25","7846","4155","e","elianto","#f73b6a7A"," "," ","1","0","[1625.8000000715256]","1","2","","","7846","129","7","3","lose","go","0"
"pit-trial","248","1562421","0.0-134.0","battery-v0.2","","""event"",""trial"",""time""
""fullscreenenter"",""1"",""3254""
","
","
","""event"",""trial"",""time""
""fullscreenenter"",""1"",""3254""
","
","","","1278.7000000476837","","","25","7846","4155","d","elianto","#3366ff99","-1"," ","0","0","[2128.7999999523163]","1","2","","","7846","130","8","2","win","no-go","0"
"pit-trial","249","1566069","0.0-135.0","battery-v0.2","","""event"",""trial"",""time""
""fullscreenenter"",""1"",""3254""
","
","
","""event"",""trial"",""time""
""fullscreenenter"",""1"",""3254""
","
","","","793.6000000238419","","","25","7846","4155","j","elianto","#3366ff99","-1"," ","0","0","[1643.5999999046326]","1","2","","","7846","131","9","2","win","no-go","0"
"pit-trial","250","1570925","0.0-136.0","battery-v0.2","","""event"",""trial"",""time""
""fullscreenenter"",""1"",""3254""
","
","
","""event"",""trial"",""time""
""fullscreenenter"",""1"",""3254""
","
","","","-1","","","25","7846","4155","w","elianto","#f73b6a7A","-1","-1","1","0","[]","0","2","","","7846","132","6","4","lose","no-go","0"
"pit-trial","251","1575780","0.0-137.0","battery-v0.2","","""event"",""trial"",""time""
""fullscreenenter"",""1"",""3254""
","
","
","""event"",""trial"",""time""
""fullscreenenter"",""1"",""3254""
","
","","","-1","","","25","7846","4155","w","elianto","#f73b6a7A","-1","-1","1","0","[]","0","2","","","7846","133","6","4","lose","no-go","0"
"pit-trial","252","1579823","0.0-138.0","battery-v0.2","","""event"",""trial"",""time""
""fullscreenenter"",""1"",""3254""
","
","
","""event"",""trial"",""time""
""fullscreenenter"",""1"",""3254""
","
","","","1188.8999999761581","","","25","7846","4155","j","elianto","#3366ff99","-1"," ","0","+10","[2039.2999999523163]","1","2","","","7846","134","9","2","win","no-go","1"
"pit-trial","253","1583805","0.0-139.0","battery-v0.2","","""event"",""trial"",""time""
""fullscreenenter"",""1"",""3254""
","
","
","""event"",""trial"",""time""
""fullscreenenter"",""1"",""3254""
","
","","","1125.3999999761581","","","25","7846","4155","e","elianto","#f73b6a7A"," "," ","1","-10","[1976.8999999761581]","1","2","","","7846","135","7","3","lose","go","1"
"pit-trial","254","1587501","0.0-140.0","battery-v0.2","","""event"",""trial"",""time""
""fullscreenenter"",""1"",""3254""
","
","
","""event"",""trial"",""time""
""fullscreenenter"",""1"",""3254""
","
","","","840.5","","","25","7846","4155","d","elianto","#3366ff99","-1"," ","0","0","[1691.2999999523163]","1","2","","","7846","136","8","2","win","no-go","0"
"pit-trial","255","1591142","0.0-141.0","battery-v0.2","","""event"",""trial"",""time""
""fullscreenenter"",""1"",""3254""
","
","
","""event"",""trial"",""time""
""fullscreenenter"",""1"",""3254""
","
","","","785.5","","","25","7846","4155","d","elianto","#3366ff99","-1"," ","0","0","[1636.1000000238419]","1","2","","","7846","137","8","2","win","no-go","0"
"pit-trial","256","1596000","0.0-142.0","battery-v0.2","","""event"",""trial"",""time""
""fullscreenenter"",""1"",""3254""
","
","
","""event"",""trial"",""time""
""fullscreenenter"",""1"",""3254""
","
","","","-1","","","25","7846","4155","w","elianto","#f73b6a7A","-1","-1","1","-10","[]","0","2","","","7846","138","6","4","lose","no-go","1"
"pit-trial","257","1600856","0.0-143.0","battery-v0.2","","""event"",""trial"",""time""
""fullscreenenter"",""1"",""3254""
","
","
","""event"",""trial"",""time""
""fullscreenenter"",""1"",""3254""
","
","","","-1","","","25","7846","4155","j","elianto","#3366ff99","-1","-1","1","0","[]","0","2","","","7846","139","9","2","win","no-go","1"
"pit-trial","258","1604886","0.0-144.0","battery-v0.2","","""event"",""trial"",""time""
""fullscreenenter"",""1"",""3254""
","
","
","""event"",""trial"",""time""
""fullscreenenter"",""1"",""3254""
","
","","","1174.7999999523163","","","25","7846","4155","e","elianto","#f73b6a7A"," "," ","1","0","[2025]","1","2","","","7846","140","7","3","lose","go","0"
"pit-instructions","259","1619643","0.0-145.0","battery-v0.2","","""event"",""trial"",""time""
""fullscreenenter"",""1"",""3254""
","
","
","""event"",""trial"",""time""
""fullscreenenter"",""1"",""3254""
","
","","[{""page_index"":0,""viewing_time"":6726.399999976158},{""page_index"":1,""viewing_time"":8027.100000023842}]","14753.700000047684","","","","","","","","","","","","","","","","","","","","","","","",""
"pit-trial","260","1624511","0.0-146.0","battery-v0.2","","""event"",""trial"",""time""
""fullscreenenter"",""1"",""3254""
","
","
","""event"",""trial"",""time""
""fullscreenenter"",""1"",""3254""
","
","","","-1","","","25","7846","4155","f","elianto","#3366ff99","-1","-1","1","+10","[]","0","3","","","7846","141","1","2","win","no-go","0"
"pit-trial","261","1629378","0.0-147.0","battery-v0.2","","""event"",""trial"",""time""
""fullscreenenter"",""1"",""3254""
","
","
","""event"",""trial"",""time""
""fullscreenenter"",""1"",""3254""
","
","","","-1","","","25","7846","4155","n","elianto","#f73b6a7A"," ","-1","0","-10","[]","0","3","","","7846","142","0","3","lose","go","0"
"pit-trial","262","1634251","0.0-148.0","battery-v0.2","","""event"",""trial"",""time""
""fullscreenenter"",""1"",""3254""
","
","
","""event"",""trial"",""time""
""fullscreenenter"",""1"",""3254""
","
","","","-1","","","25","7846","4155","b","elianto","#f73b6a7A","-1","-1","1","0","[]","0","3","","","7846","143","3","4","lose","no-go","0"
"pit-trial","263","1639115","0.0-149.0","battery-v0.2","","""event"",""trial"",""time""
""fullscreenenter"",""1"",""3254""
","
","
","""event"",""trial"",""time""
""fullscreenenter"",""1"",""3254""
","
","","","-1","","","25","7846","4155","t","elianto","#f73b6a7A"," ","-1","0","-10","[]","0","3","","","7846","144","2","3","lose","go","0"
"pit-trial","264","1642840","0.0-150.0","battery-v0.2","","""event"",""trial"",""time""
""fullscreenenter"",""1"",""3254""
","
","
","""event"",""trial"",""time""
""fullscreenenter"",""1"",""3254""
","
","","","865.3999999761581","","","25","7846","4155","n","elianto","#f73b6a7A"," "," ","1","0","[1717.5]","1","3","","","7846","145","0","3","lose","go","0"
"pit-trial","265","1646517","0.0-151.0","battery-v0.2","","""event"",""trial"",""time""
""fullscreenenter"",""1"",""3254""
","
","
","""event"",""trial"",""time""
""fullscreenenter"",""1"",""3254""
","
","","","812.7999999523163","","","25","7846","4155","f","elianto","#3366ff99","-1"," ","0","0","[1671]","1","3","","","7846","146","1","2","win","no-go","0"
"pit-trial","266","1651380","0.0-152.0","battery-v0.2","","""event"",""trial"",""time""
""fullscreenenter"",""1"",""3254""
","
","
","""event"",""trial"",""time""
""fullscreenenter"",""1"",""3254""
","
","","","-1","","","25","7846","4155","t","elianto","#f73b6a7A"," ","-1","0","-10","[]","0","3","","","7846","147","2","3","lose","go","0"
"pit-trial","267","1656236","0.0-153.0","battery-v0.2","","""event"",""trial"",""time""
""fullscreenenter"",""1"",""3254""
","
","
","""event"",""trial"",""time""
""fullscreenenter"",""1"",""3254""
","
","","","-1","","","25","7846","4155","b","elianto","#f73b6a7A","-1","-1","1","-10","[]","0","3","","","7846","148","3","4","lose","no-go","1"
"pit-trial","268","1660557","0.0-154.0","battery-v0.2","","""event"",""trial"",""time""
""fullscreenenter"",""1"",""3254""
","
","
","""event"",""trial"",""time""
""fullscreenenter"",""1"",""3254""
","
