"trial_type","trial_index","time_elapsed","internal_node_id","task_version","subject_id","interactions","blur_events","focus_events","fullscreenenter_events","fullscreenexit_events","success","view_history","rt","responses","num_errors","age","subject","participantId","rune","rune_set","hex","correct","choice","accuracy","outcome","keys","total_keys","block","practice","value","sub","trial","stimulus","robot","valence","action","sham"
"pavlovia","0","38","0.0-0.0","battery-v0.2","","""event"",""trial"",""time""
""fullscreenenter"",""1"",""7507""
","
","
","""event"",""trial"",""time""
""fullscreenenter"",""1"",""7507""
","
","","","","","","","","","","","","","","","","","","","","","","","","","","",""
"fullscreen","1","8427","0.0-1.0","battery-v0.2","","""event"",""trial"",""time""
""fullscreenenter"",""1"",""7507""
","
","
","""event"",""trial"",""time""
""fullscreenenter"",""1"",""7507""
","
","true","","","","","","","","","","","","","","","","","","","","","","","","","",""
"pit-instructions","2","17972","0.0-2.0-0.0","battery-v0.2","","""event"",""trial"",""time""
""fullscreenenter"",""1"",""7507""
","
","
","""event"",""trial"",""time""
""fullscreenenter"",""1"",""7507""
","
","","[{""page_index"":0,""viewing_time"":9538.300000190735}]","9538.900000095367","","","","","","","","","","","","","","","","","","","","","","","",""
"pit-comprehension","3","21991","0.0-2.0-1.0-0.0","battery-v0.2","","""event"",""trial"",""time""
""fullscreenenter"",""1"",""7507""
","
","
","""event"",""trial"",""time""
""fullscreenenter"",""1"",""7507""
","
","","","4012.5","[""shark""]","0","15","5948","3447","","","","","","","","","","","","","","","","","","",""
"pit-instructions","4","23715","0.0-2.0-1.0-1.0","battery-v0.2","","""event"",""trial"",""time""
""fullscreenenter"",""1"",""7507""
","
","
","""event"",""trial"",""time""
""fullscreenenter"",""1"",""7507""
","
","","[{""page_index"":0,""viewing_time"":1703.7000000476837}]","1704.2999999523163","","","","","","","","","","","","","","","","","","","","","","","",""
"pit-comprehension","5","27444","0.0-2.0-2.0-0.0","battery-v0.2","","""event"",""trial"",""time""
""fullscreenenter"",""1"",""7507""
","
","
","""event"",""trial"",""time""
""fullscreenenter"",""1"",""7507""
","
","","","3723","[""tiger""]","0","15","5948","3447","","","","","","","","","","","","","","","","","","",""
"pit-instructions","6","28805","0.0-2.0-2.0-1.0","battery-v0.2","","""event"",""trial"",""time""
""fullscreenenter"",""1"",""7507""
","
","
","""event"",""trial"",""time""
""fullscreenenter"",""1"",""7507""
","
","","[{""page_index"":0,""viewing_time"":1346}]","1346.5","","","","","","","","","","","","","","","","","","","","","","","",""
"pit-instructions","7","155109","0.0-2.0-3.0","battery-v0.2","","""event"",""trial"",""time""
""fullscreenenter"",""1"",""7507""
","
","
","""event"",""trial"",""time""
""fullscreenenter"",""1"",""7507""
","
","","[{""page_index"":0,""viewing_time"":11989},{""page_index"":1,""viewing_time"":8183.5},{""page_index"":2,""viewing_time"":9513.5},{""page_index"":3,""viewing_time"":8468.799999952316},{""page_index"":4,""viewing_time"":12160.299999952316},{""page_index"":5,""viewing_time"":10141.300000190735},{""page_index"":6,""viewing_time"":7647.099999904633},{""page_index"":7,""viewing_time"":8926.599999904633},{""page_index"":8,""viewing_time"":6492.700000047684},{""page_index"":9,""viewing_time"":10891},{""page_index"":10,""viewing_time"":8599.400000095367},{""page_index"":11,""viewing_time"":9237.200000047684},{""page_index"":12,""viewing_time"":7705},{""page_index"":13,""viewing_time"":6342}]","126298.90000009537","","","","","","","","","","","","","","","","","","","","","","","",""
"pit-trial","8","159050","0.0-2.0-4.0-0.0","battery-v0.2","","""event"",""trial"",""time""
""fullscreenenter"",""1"",""7507""
","
","
","""event"",""trial"",""time""
""fullscreenenter"",""1"",""7507""
","
","","","1071.2999999523163","","","15","5948","3447","&#9784;","elianto","#FFFFF080"," "," ","1","&#10004","[1927.5]","1","0","0","","","","","","","",""
"pit-trial","9","162620","0.0-2.0-4.1-0.1","battery-v0.2","","""event"",""trial"",""time""
""fullscreenenter"",""1"",""7507""
","
","
","""event"",""trial"",""time""
""fullscreenenter"",""1"",""7507""
","
","","","681.2000000476837","","","15","5948","3447","&#9784;","elianto","#FFFFF080"," "," ","1","&#10004","[1534.3999998569489]","1","0","0","","","","","","","",""
"pit-trial","10","166098","0.0-2.0-4.2-0.2","battery-v0.2","","""event"",""trial"",""time""
""fullscreenenter"",""1"",""7507""
","
","
","""event"",""trial"",""time""
""fullscreenenter"",""1"",""7507""
","
","","","608.5","","","15","5948","3447","&#9784;","elianto","#FFFFF080"," "," ","1","&#10004","[1460.2999999523163]","1","0","0","","","","","","","",""
"pit-trial","11","169891","0.0-2.0-4.3-0.3","battery-v0.2","","""event"",""trial"",""time""
""fullscreenenter"",""1"",""7507""
","
","
","""event"",""trial"",""time""
""fullscreenenter"",""1"",""7507""
","
","","","917","","","15","5948","3447","&#9784;","elianto","#FFFFF080"," "," ","1","&#10004","[1770.7999999523163]","1","0","0","","","","","","","",""
"pit-trial","12","173373","0.0-2.0-4.4-0.4","battery-v0.2","","""event"",""trial"",""time""
""fullscreenenter"",""1"",""7507""
","
","
","""event"",""trial"",""time""
""fullscreenenter"",""1"",""7507""
","
","","","605.3999998569489","","","15","5948","3447","&#9784;","elianto","#FFFFF080"," "," ","1","&#10004","[1463.7000000476837]","1","0","0","","","","","","","",""
"pit-instructions","13","202846","0.0-2.0-5.0","battery-v0.2","","""event"",""trial"",""time""
""fullscreenenter"",""1"",""7507""
","
","
","""event"",""trial"",""time""
""fullscreenenter"",""1"",""7507""
","
","","[{""page_index"":0,""viewing_time"":7792.799999952316},{""page_index"":1,""viewing_time"":7923.799999952316},{""page_index"":2,""viewing_time"":5505.700000047684},{""page_index"":3,""viewing_time"":8240.700000047684}]","29463.700000047684","","","","","","","","","","","","","","","","","","","","","","","",""
"pit-trial","14","207730","0.0-2.0-6.0-0.0","battery-v0.2","","""event"",""trial"",""time""
""fullscreenenter"",""1"",""7507""
","
","
","""event"",""trial"",""time""
""fullscreenenter"",""1"",""7507""
","
","","","-1","","","15","5948","3447","&#9854;","elianto","#FFFFF080","-1","-1","1","&#10004","[]","0","0","1","","","","","","","",""
"pit-trial","15","212620","0.0-2.0-6.1-0.1","battery-v0.2","","""event"",""trial"",""time""
""fullscreenenter"",""1"",""7507""
","
","
","""event"",""trial"",""time""
""fullscreenenter"",""1"",""7507""
","
","","","-1","","","15","5948","3447","&#9854;","elianto","#FFFFF080","-1","-1","1","&#10004","[]","0","0","1","","","","","","","",""
"pit-trial","16","217490","0.0-2.0-6.2-0.2","battery-v0.2","","""event"",""trial"",""time""
""fullscreenenter"",""1"",""7507""
","
","
","""event"",""trial"",""time""
""fullscreenenter"",""1"",""7507""
","
","","","-1","","","15","5948","3447","&#9854;","elianto","#FFFFF080","-1","-1","1","&#10004","[]","0","0","1","","","","","","","",""
"pit-trial","17","222378","0.0-2.0-6.3-0.3","battery-v0.2","","""event"",""trial"",""time""
""fullscreenenter"",""1"",""7507""
","
","
","""event"",""trial"",""time""
""fullscreenenter"",""1"",""7507""
","
","","","-1","","","15","5948","3447","&#9854;","elianto","#FFFFF080","-1","-1","1","&#10004","[]","0","0","1","","","","","","","",""
"pit-trial","18","227279","0.0-2.0-6.4-0.4","battery-v0.2","","""event"",""trial"",""time""
""fullscreenenter"",""1"",""7507""
","
","
","""event"",""trial"",""time""
""fullscreenenter"",""1"",""7507""
","
","","","-1","","","15","5948","3447","&#9854;","elianto","#FFFFF080","-1","-1","1","&#10004","[]","0","0","1","","","","","","","",""
"pit-instructions","19","369734","0.0-2.0-7.0","battery-v0.2","","""event"",""trial"",""time""
""fullscreenenter"",""1"",""7507""
","
","
","""event"",""trial"",""time""
""fullscreenenter"",""1"",""7507""
","
","","[{""page_index"":0,""viewing_time"":7905.5},{""page_index"":1,""viewing_time"":12714},{""page_index"":2,""viewing_time"":7322.899999856949},{""page_index"":3,""viewing_time"":7003.700000047684},{""page_index"":4,""viewing_time"":6664.5},{""page_index"":5,""viewing_time"":6452.299999952316},{""page_index"":6,""viewing_time"":5020},{""page_index"":7,""viewing_time"":7592.600000143051},{""page_index"":8,""viewing_time"":6897.399999856949},{""page_index"":9,""viewing_time"":6478.200000047684},{""page_index"":10,""viewing_time"":7087.700000047684},{""page_index"":11,""viewing_time"":5245.099999904633},{""page_index"":12,""viewing_time"":10510},{""page_index"":13,""viewing_time"":12477.800000190735},{""page_index"":14,""viewing_time"":10285.5},{""page_index"":15,""viewing_time"":7681.799999952316},{""page_index"":16,""viewing_time"":8369.200000047684},{""page_index"":17,""viewing_time"":6742.699999809265}]","142452.5","","","","","","","","","","","","","","","","","","","","","","","",""
"pit-trial","20","373228","0.0-2.0-8.0-0.0","battery-v0.2","","""event"",""trial"",""time""
""fullscreenenter"",""1"",""7507""
","
","
","""event"",""trial"",""time""
""fullscreenenter"",""1"",""7507""
","
","","","607.0999999046326","","","15","5948","3447","&#9776;","elianto","#3366ff99"," "," ","1","+10","[1464.5]","1","0","1","","","","","","","",""
"pit-trial","21","376615","0.0-2.0-8.0-1.0","battery-v0.2","","""event"",""trial"",""time""
""fullscreenenter"",""1"",""7507""
","
","
","""event"",""trial"",""time""
""fullscreenenter"",""1"",""7507""
","
","","","496.89999985694885","","","15","5948","3447","&#9776;","elianto","#3366ff99"," "," ","1","+10","[1357.2999999523163]","1","0","1","","","","","","","",""
"pit-trial","22","379999","0.0-2.0-8.0-2.0","battery-v0.2","","""event"",""trial"",""time""
""fullscreenenter"",""1"",""7507""
","
","
","""event"",""trial"",""time""
""fullscreenenter"",""1"",""7507""
","
","","","438","","","15","5948","3447","&#9776;","elianto","#3366ff99"," "," ","1","+10","[1367.1000001430511]","1","0","1","","","","","","","",""
"pit-trial","23","383768","0.0-2.0-8.0-3.0","battery-v0.2","","""event"",""trial"",""time""
""fullscreenenter"",""1"",""7507""
","
","
","""event"",""trial"",""time""
""fullscreenenter"",""1"",""7507""
","
","","","889","","","15","5948","3447","&#9776;","elianto","#3366ff99"," "," ","1","0","[1744.9000000953674]","1","0","1","","","","","","","",""
"pit-trial","24","387209","0.0-2.0-8.0-4.0","battery-v0.2","","""event"",""trial"",""time""
""fullscreenenter"",""1"",""7507""
","
","
","""event"",""trial"",""time""
""fullscreenenter"",""1"",""7507""
","
","","","578.7999999523163","","","15","5948","3447","&#9776;","elianto","#3366ff99"," "," ","1","+10","[1433.7999999523163]","1","0","1","","","","","","","",""
"pit-trial","25","390779","0.0-2.0-8.1-0.1","battery-v0.2","","""event"",""trial"",""time""
""fullscreenenter"",""1"",""7507""
","
","
","""event"",""trial"",""time""
""fullscreenenter"",""1"",""7507""
","
","","","688.6000001430511","","","15","5948","3447","&#9776;","elianto","#3366ff99"," "," ","1","+10","[1548.6000001430511]","1","0","1","","","","","","","",""
"pit-trial","26","394338","0.0-2.0-8.1-1.1","battery-v0.2","","""event"",""trial"",""time""
""fullscreenenter"",""1"",""7507""
","
","
","""event"",""trial"",""time""
""fullscreenenter"",""1"",""7507""
","
","","","684.1999998092651","","","15","5948","3447","&#9776;","elianto","#3366ff99"," "," ","1","+10","[1542.5999999046326]","1","0","1","","","","","","","",""
"pit-trial","27","398048","0.0-2.0-8.1-2.1","battery-v0.2","","""event"",""trial"",""time""
""fullscreenenter"",""1"",""7507""
","
","
","""event"",""trial"",""time""
""fullscreenenter"",""1"",""7507""
","
","","","849.7000000476837","","","15","5948","3447","&#9776;","elianto","#3366ff99"," "," ","1","+10","[1700.2000000476837]","1","0","1","","","","","","","",""
"pit-trial","28","401494","0.0-2.0-8.1-3.1","battery-v0.2","","""event"",""trial"",""time""
""fullscreenenter"",""1"",""7507""
","
","
","""event"",""trial"",""time""
""fullscreenenter"",""1"",""7507""
","
","","","579.9000000953674","","","15","5948","3447","&#9776;","elianto","#3366ff99"," "," ","1","0","[1437.3000001907349]","1","0","1","","","","","","","",""
"pit-trial","29","404472","0.0-2.0-8.1-4.1","battery-v0.2","","""event"",""trial"",""time""
""fullscreenenter"",""1"",""7507""
","
","
","""event"",""trial"",""time""
""fullscreenenter"",""1"",""7507""
","
","","","115.20000004768372","","","15","5948","3447","&#9776;","elianto","#3366ff99"," "," ","1","+10","[969]","1","0","1","","","","","","","",""
"pit-trial","30","407751","0.0-2.0-8.2-0.2","battery-v0.2","","""event"",""trial"",""time""
""fullscreenenter"",""1"",""7507""
","
","
","""event"",""trial"",""time""
""fullscreenenter"",""1"",""7507""
","
","","","417.7999999523163","","","15","5948","3447","&#9776;","elianto","#3366ff99"," "," ","1","+10","[1269]","1","0","1","","","","","","","",""
"pit-trial","31","411016","0.0-2.0-8.2-1.2","battery-v0.2","","""event"",""trial"",""time""
""fullscreenenter"",""1"",""7507""
","
","
","""event"",""trial"",""time""
""fullscreenenter"",""1"",""7507""
","
","","","403.09999990463257","","","15","5948","3447","&#9776;","elianto","#3366ff99"," "," ","1","+10","[1254.7999999523163]","1","0","1","","","","","","","",""
"pit-trial","32","414431","0.0-2.0-8.2-2.2","battery-v0.2","","""event"",""trial"",""time""
""fullscreenenter"",""1"",""7507""
","
","
","""event"",""trial"",""time""
""fullscreenenter"",""1"",""7507""
","
","","","552.2000000476837","","","15","5948","3447","&#9776;","elianto","#3366ff99"," "," ","1","+10","[1405.5]","1","0","1","","","","","","","",""
"pit-trial","33","417472","0.0-2.0-8.2-3.2","battery-v0.2","","""event"",""trial"",""time""
""fullscreenenter"",""1"",""7507""
","
","
","""event"",""trial"",""time""
""fullscreenenter"",""1"",""7507""
","
","","","177.10000014305115","","","15","5948","3447","&#9776;","elianto","#3366ff99"," "," ","1","0","[1028]","1","0","1","","","","","","","",""
"pit-trial","34","420351","0.0-2.0-8.2-4.2","battery-v0.2","","""event"",""trial"",""time""
""fullscreenenter"",""1"",""7507""
","
","
","""event"",""trial"",""time""
""fullscreenenter"",""1"",""7507""
","
","","","18.5","","","15","5948","3447","&#9776;","elianto","#3366ff99"," "," ","1","+10","[869.1000001430511]","1","0","1","","","","","","","",""
"call-function","35","420353","0.0-2.0-9.0","battery-v0.2","","""event"",""trial"",""time""
""fullscreenenter"",""1"",""7507""
","
","
","""event"",""trial"",""time""
""fullscreenenter"",""1"",""7507""
","
","","","","","","","","","","","","","","","","","","","","","","","","","","",""
"pit-instructions","36","462859","0.0-2.0-10.0","battery-v0.2","","""event"",""trial"",""time""
""fullscreenenter"",""1"",""7507""
","
","
","""event"",""trial"",""time""
""fullscreenenter"",""1"",""7507""
","
","","[{""page_index"":0,""viewing_time"":7006.299999952316},{""page_index"":1,""viewing_time"":8200.400000095367},{""page_index"":2,""viewing_time"":10046.900000095367},{""page_index"":3,""viewing_time"":9578.899999856949},{""page_index"":4,""viewing_time"":7669.799999952316}]","42504","","","","","","","","","","","","","","","","","","","","","","","",""
"pit-trial","37","466297","0.0-2.0-11.0-0.0","battery-v0.2","","""event"",""trial"",""time""
""fullscreenenter"",""1"",""7507""
","
","
","""event"",""trial"",""time""
""fullscreenenter"",""1"",""7507""
","
","","","553.5","","","15","5948","3447","&#9761;","elianto","#3366ff99","-1"," ","0","0","[1410.5]","1","0","2","","","","","","","",""
"pit-trial","38","469697","0.0-2.0-11.0-1.0","battery-v0.2","","""event"",""trial"",""time""
""fullscreenenter"",""1"",""7507""
","
","
","""event"",""trial"",""time""
""fullscreenenter"",""1"",""7507""
","
","","","525.2000000476837","","","15","5948","3447","&#9761;","elianto","#3366ff99","-1"," ","0","0","[1379.4000000953674]","1","0","2","","","","","","","",""
"pit-trial","39","474217","0.0-2.0-11.0-2.0","battery-v0.2","","""event"",""trial"",""time""
""fullscreenenter"",""1"",""7507""
","
","
","""event"",""trial"",""time""
""fullscreenenter"",""1"",""7507""
","
","","","1651.6999998092651","","","15","5948","3447","&#9761;","elianto","#3366ff99","-1"," ","0","0","[2506]","1","0","2","","","","","","","",""
"pit-trial","40","477543","0.0-2.0-11.0-3.0","battery-v0.2","","""event"",""trial"",""time""
""fullscreenenter"",""1"",""7507""
","
","
","""event"",""trial"",""time""
""fullscreenenter"",""1"",""7507""
","
","","","453.60000014305115","","","15","5948","3447","&#9761;","elianto","#3366ff99","-1"," ","0","+10","[1306.1000001430511]","1","0","2","","","","","","","",""
"pit-trial","41","480786","0.0-2.0-11.0-4.0","battery-v0.2","","""event"",""trial"",""time""
""fullscreenenter"",""1"",""7507""
","
","
","""event"",""trial"",""time""
""fullscreenenter"",""1"",""7507""
","
","","","368.59999990463257","","","15","5948","3447","&#9761;","elianto","#3366ff99","-1"," ","0","0","[1224.5999999046326]","1","0","2","","","","","","","",""
"pit-trial","42","485677","0.0-2.0-11.1-0.1","battery-v0.2","","""event"",""trial"",""time""
""fullscreenenter"",""1"",""7507""
","
","
","""event"",""trial"",""time""
""fullscreenenter"",""1"",""7507""
","
","","","-1","","","15","5948","3447","&#9761;","elianto","#3366ff99","-1","-1","1","+10","[3703.2000000476837]","1","0","2","","","","","","","",""
"pit-trial","43","489007","0.0-2.0-11.1-1.1","battery-v0.2","","""event"",""trial"",""time""
""fullscreenenter"",""1"",""7507""
","
","
","""event"",""trial"",""time""
""fullscreenenter"",""1"",""7507""
","
","","","459.40000009536743","","","15","5948","3447","&#9761;","elianto","#3366ff99","-1"," ","0","0","[1313.9000000953674]","1","0","2","","","","","","","",""
"pit-trial","44","492383","0.0-2.0-11.1-2.1","battery-v0.2","","""event"",""trial"",""time""
""fullscreenenter"",""1"",""7507""
","
","
","""event"",""trial"",""time""
""fullscreenenter"",""1"",""7507""
","
","","","513.5999999046326","","","15","5948","3447","&#9761;","elianto","#3366ff99","-1"," ","0","0","[1368.4000000953674]","1","0","2","","","","","","","",""
"pit-trial","45","497247","0.0-2.0-11.1-3.1","battery-v0.2","","""event"",""trial"",""time""
""fullscreenenter"",""1"",""7507""
","
","
","""event"",""trial"",""time""
""fullscreenenter"",""1"",""7507""
","
","","","-1","","","15","5948","3447","&#9761;","elianto","#3366ff99","-1","-1","1","0","[]","0","0","2","","","","","","","",""
"pit-trial","46","501383","0.0-2.0-11.1-4.1","battery-v0.2","","""event"",""trial"",""time""
""fullscreenenter"",""1"",""7507""
","
","
","""event"",""trial"",""time""
""fullscreenenter"",""1"",""7507""
","
","","","1275.2000000476837","","","15","5948","3447","&#9761;","elianto","#3366ff99","-1"," ","0","0","[2129.2999999523163]","1","0","2","","","","","","","",""
"pit-trial","47","504647","0.0-2.0-11.2-0.2","battery-v0.2","","""event"",""trial"",""time""
""fullscreenenter"",""1"",""7507""
","
","
","""event"",""trial"",""time""
""fullscreenenter"",""1"",""7507""
","
","","","391.2999999523163","","","15","5948","3447","&#9761;","elianto","#3366ff99","-1"," ","0","0","[1248.7999999523163]","1","0","2","","","","","","","",""
"pit-trial","48","507783","0.0-2.0-11.2-1.2","battery-v0.2","","""event"",""trial"",""time""
""fullscreenenter"",""1"",""7507""
","
","
","""event"",""trial"",""time""
""fullscreenenter"",""1"",""7507""
","
","","","270.40000009536743","","","15","5948","3447","&#9761;","elianto","#3366ff99","-1"," ","0","0","[1123.5]","1","0","2","","","","","","","",""
"pit-trial","49","512663","0.0-2.0-11.2-2.2","battery-v0.2","","""event"",""trial"",""time""
""fullscreenenter"",""1"",""7507""
","
","
","""event"",""trial"",""time""
""fullscreenenter"",""1"",""7507""
","
","","","-1","","","15","5948","3447","&#9761;","elianto","#3366ff99","-1","-1","1","+10","[3482.399999856949]","1","0","2","","","","","","","",""
"pit-trial","50","516103","0.0-2.0-11.2-3.2","battery-v0.2","","""event"",""trial"",""time""
""fullscreenenter"",""1"",""7507""
","
","
","""event"",""trial"",""time""
""fullscreenenter"",""1"",""7507""
","
","","","575.7000000476837","","","15","5948","3447","&#9761;","elianto","#3366ff99","-1"," ","0","+10","[1429.3000001907349]","1","0","2","","","","","","","",""
"pit-trial","51","519456","0.0-2.0-11.2-4.2","battery-v0.2","","""event"",""trial"",""time""
""fullscreenenter"",""1"",""7507""
","
","
","""event"",""trial"",""time""
""fullscreenenter"",""1"",""7507""
","
","","","487.2000000476837","","","15","5948","3447","&#9761;","elianto","#3366ff99","-1"," ","0","0","[1338.1000001430511]","1","0","2","","","","","","","",""
"pit-trial","52","523327","0.0-2.0-11.3-0.3","battery-v0.2","","""event"",""trial"",""time""
""fullscreenenter"",""1"",""7507""
","
","
","""event"",""trial"",""time""
""fullscreenenter"",""1"",""7507""
","
","","","1006.8999998569489","","","15","5948","3447","&#9761;","elianto","#3366ff99","-1"," ","0","0","[1861.1000001430511]","1","0","2","","","","","","","",""
"pit-trial","53","528191","0.0-2.0-11.3-1.3","battery-v0.2","","""event"",""trial"",""time""
""fullscreenenter"",""1"",""7507""
","
","
","""event"",""trial"",""time""
""fullscreenenter"",""1"",""7507""
","
","","","-1","","","15","5948","3447","&#9761;","elianto","#3366ff99","-1","-1","1","+10","[3407.699999809265]","1","0","2","","","","","","","",""
"pit-trial","54","531528","0.0-2.0-11.3-2.3","battery-v0.2","","""event"",""trial"",""time""
""fullscreenenter"",""1"",""7507""
","
","
","""event"",""trial"",""time""
""fullscreenenter"",""1"",""7507""
","
","","","473","","","15","5948","3447","&#9761;","elianto","#3366ff99","-1"," ","0","0","[1326.5999999046326]","1","0","2","","","","","","","",""
"pit-trial","55","536399","0.0-2.0-11.3-3.3","battery-v0.2","","""event"",""trial"",""time""
""fullscreenenter"",""1"",""7507""
","
","
","""event"",""trial"",""time""
""fullscreenenter"",""1"",""7507""
","
","","","-1","","","15","5948","3447","&#9761;","elianto","#3366ff99","-1","-1","1","0","[]","0","0","2","","","","","","","",""
"pit-trial","56","541272","0.0-2.0-11.3-4.3","battery-v0.2","","""event"",""trial"",""time""
""fullscreenenter"",""1"",""7507""
","
","
","""event"",""trial"",""time""
""fullscreenenter"",""1"",""7507""
","
","","","-1","","","15","5948","3447","&#9761;","elianto","#3366ff99","-1","-1","1","+10","[4564.5]","1","0","2","","","","","","","",""
"call-function","57","541276","0.0-2.0-12.0","battery-v0.2","","""event"",""trial"",""time""
""fullscreenenter"",""1"",""7507""
","
","
","""event"",""trial"",""time""
""fullscreenenter"",""1"",""7507""
","
","","","","","","","","","","","","","","","","","","","","","","","","","","",""
"pit-instructions","58","574681","0.0-2.0-13.0","battery-v0.2","","""event"",""trial"",""time""
""fullscreenenter"",""1"",""7507""
","
","
","""event"",""trial"",""time""
""fullscreenenter"",""1"",""7507""
","
","","[{""page_index"":0,""viewing_time"":6531.099999904633},{""page_index"":1,""viewing_time"":7450.200000047684},{""page_index"":2,""viewing_time"":3508},{""page_index"":3,""viewing_time"":10490.5},{""page_index"":4,""viewing_time"":5420.900000095367}]","33402.39999985695","","","","","","","","","","","","","","","","","","","","","","","",""
"pit-trial","59","579557","0.0-2.0-14.0-0.0","battery-v0.2","","""event"",""trial"",""time""
""fullscreenenter"",""1"",""7507""
","
","
","""event"",""trial"",""time""
""fullscreenenter"",""1"",""7507""
","
","","","-1","","","15","5948","3447","&#9826;","elianto","#f73b6a7A","-1","-1","1","0","[]","0","0","3","","","","","","","",""
"pit-trial","60","584447","0.0-2.0-14.0-1.0","battery-v0.2","","""event"",""trial"",""time""
""fullscreenenter"",""1"",""7507""
","
","
","""event"",""trial"",""time""
""fullscreenenter"",""1"",""7507""
","
","","","-1","","","15","5948","3447","&#9826;","elianto","#f73b6a7A","-1","-1","1","0","[]","0","0","3","","","","","","","",""
"pit-trial","61","589338","0.0-2.0-14.0-2.0","battery-v0.2","","""event"",""trial"",""time""
""fullscreenenter"",""1"",""7507""
","
","
","""event"",""trial"",""time""
""fullscreenenter"",""1"",""7507""
","
","","","-1","","","15","5948","3447","&#9826;","elianto","#f73b6a7A","-1","-1","1","0","[]","0","0","3","","","","","","","",""
"pit-trial","62","594227","0.0-2.0-14.0-3.0","battery-v0.2","","""event"",""trial"",""time""
""fullscreenenter"",""1"",""7507""
","
","
","""event"",""trial"",""time""
""fullscreenenter"",""1"",""7507""
","
","","","-1","","","15","5948","3447","&#9826;","elianto","#f73b6a7A","-1","-1","1","-10","[]","0","0","3","","","","","","","",""
"pit-trial","63","599117","0.0-2.0-14.0-4.0","battery-v0.2","","""event"",""trial"",""time""
""fullscreenenter"",""1"",""7507""
","
","
","""event"",""trial"",""time""
""fullscreenenter"",""1"",""7507""
","
","","","-1","","","15","5948","3447","&#9826;","elianto","#f73b6a7A","-1","-1","1","0","[]","0","0","3","","","","","","","",""
"pit-trial","64","603983","0.0-2.0-14.1-0.1","battery-v0.2","","""event"",""trial"",""time""
""fullscreenenter"",""1"",""7507""
","
","
","""event"",""trial"",""time""
""fullscreenenter"",""1"",""7507""
","
","","","-1","","","15","5948","3447","&#9826;","elianto","#f73b6a7A","-1","-1","1","0","[]","0","0","3","","","","","","","",""
"pit-trial","65","608847","0.0-2.0-14.1-1.1","battery-v0.2","","""event"",""trial"",""time""
""fullscreenenter"",""1"",""7507""
","
","
","""event"",""trial"",""time""
""fullscreenenter"",""1"",""7507""
","
","","","-1","","","15","5948","3447","&#9826;","elianto","#f73b6a7A","-1","-1","1","0","[]","0","0","3","","","","","","","",""
"pit-trial","66","613714","0.0-2.0-14.1-2.1","battery-v0.2","","""event"",""trial"",""time""
""fullscreenenter"",""1"",""7507""
","
","
","""event"",""trial"",""time""
""fullscreenenter"",""1"",""7507""
","
","","","-1","","","15","5948","3447","&#9826;","elianto","#f73b6a7A","-1","-1","1","0","[]","0","0","3","","","","","","","",""
"pit-trial","67","618584","0.0-2.0-14.1-3.1","battery-v0.2","","""event"",""trial"",""time""
""fullscreenenter"",""1"",""7507""
","
","
","""event"",""trial"",""time""
""fullscreenenter"",""1"",""7507""
","
","","","-1","","","15","5948","3447","&#9826;","elianto","#f73b6a7A","-1","-1","1","-10","[]","0","0","3","","","","","","","",""
"pit-trial","68","623447","0.0-2.0-14.1-4.1","battery-v0.2","","""event"",""trial"",""time""
""fullscreenenter"",""1"",""7507""
","
","
","""event"",""trial"",""time""
""fullscreenenter"",""1"",""7507""
","
","","","-1","","","15","5948","3447","&#9826;","elianto","#f73b6a7A","-1","-1","1","0","[]","0","0","3","","","","","","","",""
"pit-trial","69","626936","0.0-2.0-14.2-0.2","battery-v0.2","","""event"",""trial"",""time""
""fullscreenenter"",""1"",""7507""
","
","
","""event"",""trial"",""time""
""fullscreenenter"",""1"",""7507""
","
","","","626.4000000953674","","","15","5948","3447","&#9826;","elianto","#f73b6a7A","-1"," ","0","-10","[1479.7000000476837]","1","0","3","","","","","","","",""
"pit-trial","70","630399","0.0-2.0-14.2-1.2","battery-v0.2","","""event"",""trial"",""time""
""fullscreenenter"",""1"",""7507""
","
","
","""event"",""trial"",""time""
""fullscreenenter"",""1"",""7507""
","
","","","602.7000000476837","","","15","5948","3447","&#9826;","elianto","#f73b6a7A","-1"," ","0","-10","[1454.5]","1","0","3","","","","","","","",""
"pit-trial","71","633984","0.0-2.0-14.2-2.2","battery-v0.2","","""event"",""trial"",""time""
""fullscreenenter"",""1"",""7507""
","
","
","""event"",""trial"",""time""
""fullscreenenter"",""1"",""7507""
","
","","","722.5","","","15","5948","3447","&#9826;","elianto","#f73b6a7A","-1"," ","0","-10","[1572.5]","1","0","3","","","","","","","",""
"pit-trial","72","637744","0.0-2.0-14.2-3.2","battery-v0.2","","""event"",""trial"",""time""
""fullscreenenter"",""1"",""7507""
","
","
","""event"",""trial"",""time""
""fullscreenenter"",""1"",""7507""
","
","","","891.5","","","15","5948","3447","&#9826;","elianto","#f73b6a7A","-1"," ","0","0","[1746.2999999523163]","1","0","3","","","","","","","",""
"pit-trial","73","641087","0.0-2.0-14.2-4.2","battery-v0.2","","""event"",""trial"",""time""
""fullscreenenter"",""1"",""7507""
","
","
","""event"",""trial"",""time""
""fullscreenenter"",""1"",""7507""
","
","","","477.2999999523163","","","15","5948","3447","&#9826;","elianto","#f73b6a7A","-1"," ","0","-10","[1334.9000000953674]","1","0","3","","","","","","","",""
"pit-trial","74","645960","0.0-2.0-14.3-0.3","battery-v0.2","","""event"",""trial"",""time""
""fullscreenenter"",""1"",""7507""
","
","
","""event"",""trial"",""time""
""fullscreenenter"",""1"",""7507""
","
","","","-1","","","15","5948","3447","&#9826;","elianto","#f73b6a7A","-1","-1","1","0","[]","0","0","3","","","","","","","",""
"pit-trial","75","650825","0.0-2.0-14.3-1.3","battery-v0.2","","""event"",""trial"",""time""
""fullscreenenter"",""1"",""7507""
","
","
","""event"",""trial"",""time""
""fullscreenenter"",""1"",""7507""
","
","","","-1","","","15","5948","3447","&#9826;","elianto","#f73b6a7A","-1","-1","1","0","[]","0","0","3","","","","","","","",""
"pit-trial","76","655696","0.0-2.0-14.3-2.3","battery-v0.2","","""event"",""trial"",""time""
""fullscreenenter"",""1"",""7507""
","
","
","""event"",""trial"",""time""
""fullscreenenter"",""1"",""7507""
","
","","","-1","","","15","5948","3447","&#9826;","elianto","#f73b6a7A","-1","-1","1","0","[]","0","0","3","","","","","","","",""
"pit-trial","77","660559","0.0-2.0-14.3-3.3","battery-v0.2","","""event"",""trial"",""time""
""fullscreenenter"",""1"",""7507""
","
","
","""event"",""trial"",""time""
""fullscreenenter"",""1"",""7507""
","
","","","-1","","","15","5948","3447","&#9826;","elianto","#f73b6a7A","-1","-1","1","-10","[]","0","0","3","","","","","","","",""
"pit-trial","78","665423","0.0-2.0-14.3-4.3","battery-v0.2","","""event"",""trial"",""time""
""fullscreenenter"",""1"",""7507""
","
","
","""event"",""trial"",""time""
""fullscreenenter"",""1"",""7507""
","
","","","-1","","","15","5948","3447","&#9826;","elianto","#f73b6a7A","-1","-1","1","0","[]","0","0","3","","","","","","","",""
"call-function","79","665428","0.0-2.0-15.0","battery-v0.2","","""event"",""trial"",""time""
""fullscreenenter"",""1"",""7507""
","
","
","""event"",""trial"",""time""
""fullscreenenter"",""1"",""7507""
","
","","","","","","","","","","","","","","","","","","","","","","","","","","",""
"pit-instructions","80","692318","0.0-2.0-16.0","battery-v0.2","","""event"",""trial"",""time""
""fullscreenenter"",""1"",""7507""
","
","
","""event"",""trial"",""time""
""fullscreenenter"",""1"",""7507""
","
","","[{""page_index"":0,""viewing_time"":7146.199999809265},{""page_index"":1,""viewing_time"":9159.600000143051},{""page_index"":2,""viewing_time"":4587.599999904633},{""page_index"":3,""viewing_time"":5993.100000143051}]","26888","","","","","","","","","","","","","","","","","","","","","","","",""
"pit-trial","81","696701","0.0-2.0-17.0-0.0","battery-v0.2","","""event"",""trial"",""time""
""fullscreenenter"",""1"",""7507""
","
","
","""event"",""trial"",""time""
""fullscreenenter"",""1"",""7507""
","
","","","1507.7000000476837","","","15","5948","3447","&#9789;","elianto","#f73b6a7A"," "," ","1","0","[2362]","1","0","4","","","","","","","",""
"pit-trial","82","701571","0.0-2.0-17.0-1.0","battery-v0.2","","""event"",""trial"",""time""
""fullscreenenter"",""1"",""7507""
","
","
","""event"",""trial"",""time""
""fullscreenenter"",""1"",""7507""
","
","","","-1","","","15","5948","3447","&#9789;","elianto","#f73b6a7A"," ","-1","0","-10","[]","0","0","4","","","","","","","",""
"pit-trial","83","705311","0.0-2.0-17.0-2.0","battery-v0.2","","""event"",""trial"",""time""
""fullscreenenter"",""1"",""7507""
","
","
","""event"",""trial"",""time""
""fullscreenenter"",""1"",""7507""
","
","","","882","","","15","5948","3447","&#9789;","elianto","#f73b6a7A"," "," ","1","0","[1735]","1","0","4","","","","","","","",""
"pit-trial","84","710201","0.0-2.0-17.0-3.0","battery-v0.2","","""event"",""trial"",""time""
""fullscreenenter"",""1"",""7507""
","
","
","""event"",""trial"",""time""
""fullscreenenter"",""1"",""7507""
","
","","","-1","","","15","5948","3447","&#9789;","elianto","#f73b6a7A"," ","-1","0","0","[]","0","0","4","","","","","","","",""
"pit-trial","85","713792","0.0-2.0-17.0-4.0","battery-v0.2","","""event"",""trial"",""time""
""fullscreenenter"",""1"",""7507""
","
","
","""event"",""trial"",""time""
""fullscreenenter"",""1"",""7507""
","
","","","721.2999999523163","","","15","5948","3447","&#9789;","elianto","#f73b6a7A"," "," ","1","0","[1575.5]","1","0","4","","","","","","","",""
"pit-trial","86","718667","0.0-2.0-17.1-0.1","battery-v0.2","","""event"",""trial"",""time""
""fullscreenenter"",""1"",""7507""
","
","
","""event"",""trial"",""time""
""fullscreenenter"",""1"",""7507""
","
","","","-1","","","15","5948","3447","&#9789;","elianto","#f73b6a7A"," ","-1","0","-10","[]","0","0","4","","","","","","","",""
"pit-trial","87","722063","0.0-2.0-17.1-1.1","battery-v0.2","","""event"",""trial"",""time""
""fullscreenenter"",""1"",""7507""
","
","
","""event"",""trial"",""time""
""fullscreenenter"",""1"",""7507""
","
","","","533.7999999523163","","","15","5948","3447","&#9789;","elianto","#f73b6a7A"," "," ","1","0","[1389.2999999523163]","1","0","4","","","","","","","",""
"pit-trial","88","726927","0.0-2.0-17.1-2.1","battery-v0.2","","""event"",""trial"",""time""
""fullscreenenter"",""1"",""7507""
","
","
","""event"",""trial"",""time""
""fullscreenenter"",""1"",""7507""
","
","","","-1","","","15","5948","3447","&#9789;","elianto","#f73b6a7A"," ","-1","0","-10","[]","0","0","4","","","","","","","",""
"pit-trial","89","731799","0.0-2.0-17.1-3.1","battery-v0.2","","""event"",""trial"",""time""
""fullscreenenter"",""1"",""7507""
","
","
","""event"",""trial"",""time""
""fullscreenenter"",""1"",""7507""
","
","","","-1","","","15","5948","3447","&#9789;","elianto","#f73b6a7A"," ","-1","0","0","[]","0","0","4","","","","","","","",""
"pit-trial","90","736663","0.0-2.0-17.1-4.1","battery-v0.2","","""event"",""trial"",""time""
""fullscreenenter"",""1"",""7507""
","
","
","""event"",""trial"",""time""
""fullscreenenter"",""1"",""7507""
","
","","","-1","","","15","5948","3447","&#9789;","elianto","#f73b6a7A"," ","-1","0","-10","[]","0","0","4","","","","","","","",""
"pit-trial","91","739959","0.0-2.0-17.2-0.2","battery-v0.2","","""event"",""trial"",""time""
""fullscreenenter"",""1"",""7507""
","
","
","""event"",""trial"",""time""
""fullscreenenter"",""1"",""7507""
","
","","","430.7000000476837","","","15","5948","3447","&#9789;","elianto","#f73b6a7A"," "," ","1","0","[325.59999990463257,1282.7000000476837]","2","0","4","","","","","","","",""
"pit-trial","92","743607","0.0-2.0-17.2-1.2","battery-v0.2","","""event"",""trial"",""time""
""fullscreenenter"",""1"",""7507""
","
","
","""event"",""trial"",""time""
""fullscreenenter"",""1"",""7507""
","
","","","787","","","15","5948","3447","&#9789;","elianto","#f73b6a7A"," "," ","1","0","[1638.5999999046326]","1","0","4","","","","","","","",""
"pit-trial","93","748472","0.0-2.0-17.2-2.2","battery-v0.2","","""event"",""trial"",""time""
""fullscreenenter"",""1"",""7507""
","
","
","""event"",""trial"",""time""
""fullscreenenter"",""1"",""7507""
","
","","","-1","","","15","5948","3447","&#9789;","elianto","#f73b6a7A"," ","-1","0","-10","[]","0","0","4","","","","","","","",""
"pit-trial","94","753347","0.0-2.0-17.2-3.2","battery-v0.2","","""event"",""trial"",""time""
""fullscreenenter"",""1"",""7507""
","
","
","""event"",""trial"",""time""
""fullscreenenter"",""1"",""7507""
","
","","","-1","","","15","5948","3447","&#9789;","elianto","#f73b6a7A"," ","-1","0","0","[]","0","0","4","","","","","","","",""
"pit-trial","95","758215","0.0-2.0-17.2-4.2","battery-v0.2","","""event"",""trial"",""time""
""fullscreenenter"",""1"",""7507""
","
","
","""event"",""trial"",""time""
""fullscreenenter"",""1"",""7507""
","
","","","-1","","","15","5948","3447","&#9789;","elianto","#f73b6a7A"," ","-1","0","-10","[]","0","0","4","","","","","","","",""
"pit-trial","96","763047","0.0-2.0-17.3-0.3","battery-v0.2","","""event"",""trial"",""time""
""fullscreenenter"",""1"",""7507""
","
","
","""event"",""trial"",""time""
""fullscreenenter"",""1"",""7507""
","
","","","1972.2000000476837","","","15","5948","3447","&#9789;","elianto","#f73b6a7A"," "," ","1","0","[2822.9000000953674]","1","0","4","","","","","","","",""
"pit-trial","97","766591","0.0-2.0-17.3-1.3","battery-v0.2","","""event"",""trial"",""time""
""fullscreenenter"",""1"",""7507""
","
","
","""event"",""trial"",""time""
""fullscreenenter"",""1"",""7507""
","
","","","683.6000001430511","","","15","5948","3447","&#9789;","elianto","#f73b6a7A"," "," ","1","0","[1534.1000001430511]","1","0","4","","","","","","","",""
"pit-trial","98","771456","0.0-2.0-17.3-2.3","battery-v0.2","","""event"",""trial"",""time""
""fullscreenenter"",""1"",""7507""
","
","
","""event"",""trial"",""time""
""fullscreenenter"",""1"",""7507""
","
","","","-1","","","15","5948","3447","&#9789;","elianto","#f73b6a7A"," ","-1","0","-10","[]","0","0","4","","","","","","","",""
"pit-trial","99","775223","0.0-2.0-17.3-3.3","battery-v0.2","","""event"",""trial"",""time""
""fullscreenenter"",""1"",""7507""
","
","
","""event"",""trial"",""time""
""fullscreenenter"",""1"",""7507""
","
","","","898.2000000476837","","","15","5948","3447","&#9789;","elianto","#f73b6a7A"," "," ","1","-10","[1755.7999999523163]","1","0","4","","","","","","","",""
"pit-trial","100","778719","0.0-2.0-17.3-4.3","battery-v0.2","","""event"",""trial"",""time""
""fullscreenenter"",""1"",""7507""
","
","
","""event"",""trial"",""time""
""fullscreenenter"",""1"",""7507""
","
","","","635.7000000476837","","","15","5948","3447","&#9789;","elianto","#f73b6a7A"," "," ","1","0","[1486.4000000953674]","1","0","4","","","","","","","",""
"call-function","101","778723","0.0-2.0-18.0","battery-v0.2","","""event"",""trial"",""time""
""fullscreenenter"",""1"",""7507""
","
","
","""event"",""trial"",""time""
""fullscreenenter"",""1"",""7507""
","
","","","","","","","","","","","","","","","","","","","","","","","","","","",""
"pit-instructions","102","866417","0.0-2.0-19.0","battery-v0.2","","""event"",""trial"",""time""
""fullscreenenter"",""1"",""7507""
","
","
","""event"",""trial"",""time""
""fullscreenenter"",""1"",""7507""
","
","","[{""page_index"":0,""viewing_time"":10152.700000047684},{""page_index"":1,""viewing_time"":7328.700000047684},{""page_index"":2,""viewing_time"":15543},{""page_index"":3,""viewing_time"":10831.400000095367},{""page_index"":4,""viewing_time"":11339.599999904633},{""page_index"":5,""viewing_time"":10101.400000095367},{""page_index"":6,""viewing_time"":8944.599999904633},{""page_index"":7,""viewing_time"":6382.400000095367},{""page_index"":8,""viewing_time"":7076.399999856949}]","87701","","","","","","","","","","","","","","","","","","","","","","","",""
"pit-comprehension","103","877712","0.0-2.0-20.0-0.0","battery-v0.2","","""event"",""trial"",""time""
""fullscreenenter"",""1"",""7507""
","
","
","""event"",""trial"",""time""
""fullscreenenter"",""1"",""7507""
","
","","","11286.199999809265","[""SPACE""]","0","15","5948","3447","","","","","","","","","","","","","","","","","","",""
"pit-instructions","104","880718","0.0-2.0-20.0-1.0","battery-v0.2","","""event"",""trial"",""time""
""fullscreenenter"",""1"",""7507""
","
","
","""event"",""trial"",""time""
""fullscreenenter"",""1"",""7507""
","
","","[{""page_index"":0,""viewing_time"":2920.199999809265}]","2920.899999856949","","","","","","","","","","","","","","","","","","","","","","","",""
"pit-comprehension","105","888200","0.0-2.0-21.0-0.0","battery-v0.2","","""event"",""trial"",""time""
""fullscreenenter"",""1"",""7507""
","
","
","""event"",""trial"",""time""
""fullscreenenter"",""1"",""7507""
","
","","","7477.900000095367","[""10""]","0","15","5948","3447","","","","","","","","","","","","","","","","","","",""
"pit-instructions","106","890242","0.0-2.0-21.0-1.0","battery-v0.2","","""event"",""trial"",""time""
""fullscreenenter"",""1"",""7507""
","
","
","""event"",""trial"",""time""
""fullscreenenter"",""1"",""7507""
","
","","[{""page_index"":0,""viewing_time"":1968.0999999046326}]","1968.7000000476837","","","","","","","","","","","","","","","","","","","","","","","",""
"pit-comprehension","107","899955","0.0-2.0-22.0-0.0","battery-v0.2","","""event"",""trial"",""time""
""fullscreenenter"",""1"",""7507""
","
","
","""event"",""trial"",""time""
""fullscreenenter"",""1"",""7507""
","
","","","9705.799999952316","[""-10""]","1","15","5948","3447","","","","","","","","","","","","","","","","","","",""
"pit-instructions","108","904607","0.0-2.0-22.0-1.0","battery-v0.2","","""event"",""trial"",""time""
""fullscreenenter"",""1"",""7507""
","
","
","""event"",""trial"",""time""
""fullscreenenter"",""1"",""7507""
","
","","[{""page_index"":0,""viewing_time"":4557.400000095367}]","4558.5","","","","","","","","","","","","","","","","","","","","","","","",""
"pit-instructions","109","906458","0.0-2.0-22.0-2.0-0.0","battery-v0.2","","""event"",""trial"",""time""
""fullscreenenter"",""1"",""7507""
","
","
","""event"",""trial"",""time""
""fullscreenenter"",""1"",""7507""
","
","","[{""page_index"":0,""viewing_time"":1843.9000000953674}]","1844.9000000953674","","","","","","","","","","","","","","","","","","","","","","","",""
"pit-comprehension","110","913223","0.0-2.0-22.1-0.1","battery-v0.2","","""event"",""trial"",""time""
""fullscreenenter"",""1"",""7507""
","
","
","""event"",""trial"",""time""
""fullscreenenter"",""1"",""7507""
","
","","","6756.900000095367","[""0""]","0","15","5948","3447","","","","","","","","","","","","","","","","","","",""
"pit-instructions","111","914958","0.0-2.0-22.1-1.1","battery-v0.2","","""event"",""trial"",""time""
""fullscreenenter"",""1"",""7507""
","
","
","""event"",""trial"",""time""
""fullscreenenter"",""1"",""7507""
","
","","[{""page_index"":0,""viewing_time"":1636.3000001907349}]","1637.4000000953674","","","","","","","","","","","","","","","","","","","","","","","",""
"pit-comprehension","112","944023","0.0-2.0-23.0-0.0","battery-v0.2","","""event"",""trial"",""time""
""fullscreenenter"",""1"",""7507""
","
","
","""event"",""trial"",""time""
""fullscreenenter"",""1"",""7507""
","
","","","29070.200000047684","[""False""]","1","15","5948","3447","","","","","","","","","","","","","","","","","","",""
"pit-instructions","113","946514","0.0-2.0-23.0-1.0","battery-v0.2","","""event"",""trial"",""time""
""fullscreenenter"",""1"",""7507""
","
","
","""event"",""trial"",""time""
""fullscreenenter"",""1"",""7507""
","
","","[{""page_index"":0,""viewing_time"":2398}]","2398.5","","","","","","","","","","","","","","","","","","","","","","","",""
"pit-instructions","114","948106","0.0-2.0-23.0-2.0-0.0","battery-v0.2","","""event"",""trial"",""time""
""fullscreenenter"",""1"",""7507""
","
","
","""event"",""trial"",""time""
""fullscreenenter"",""1"",""7507""
","
","","[{""page_index"":0,""viewing_time"":1588.0999999046326}]","1589.0999999046326","","","","","","","","","","","","","","","","","","","","","","","",""
"pit-comprehension","115","956813","0.0-2.0-23.1-0.1","battery-v0.2","","""event"",""trial"",""time""
""fullscreenenter"",""1"",""7507""
","
","
","""event"",""trial"",""time""
""fullscreenenter"",""1"",""7507""
","
","","","8698.5","[""True""]","0","15","5948","3447","","","","","","","","","","","","","","","","","","",""
"pit-instructions","116","959637","0.0-2.0-23.1-1.1","battery-v0.2","","""event"",""trial"",""time""
""fullscreenenter"",""1"",""7507""
","
","
","""event"",""trial"",""time""
""fullscreenenter"",""1"",""7507""
","
","","[{""page_index"":0,""viewing_time"":2716.7999999523163}]","2718","","","","","","","","","","","","","","","","","","","","","","","",""
"pit-comprehension","117","971121","0.0-2.0-24.0-0.0","battery-v0.2","","""event"",""trial"",""time""
""fullscreenenter"",""1"",""7507""
","
","
","""event"",""trial"",""time""
""fullscreenenter"",""1"",""7507""
","
","","","11474.599999904633","[""True""]","0","15","5948","3447","","","","","","","","","","","","","","","","","","",""
"pit-instructions","118","974739","0.0-2.0-24.0-1.0","battery-v0.2","","""event"",""trial"",""time""
""fullscreenenter"",""1"",""7507""
","
","
","""event"",""trial"",""time""
""fullscreenenter"",""1"",""7507""
","
","","[{""page_index"":0,""viewing_time"":3504.4000000953674}]","3505.5","","","","","","","","","","","","","","","","","","","","","","","",""
"pit-comprehension","119","984621","0.0-2.0-25.0-0.0","battery-v0.2","","""event"",""trial"",""time""
""fullscreenenter"",""1"",""7507""
","
","
","""event"",""trial"",""time""
""fullscreenenter"",""1"",""7507""
","
","","","9869.200000047684","[""True""]","0","15","5948","3447","","","","","","","","","","","","","","","","","","",""
"pit-instructions","120","987069","0.0-2.0-25.0-1.0","battery-v0.2","","""event"",""trial"",""time""
""fullscreenenter"",""1"",""7507""
","
","
","""event"",""trial"",""time""
""fullscreenenter"",""1"",""7507""
","
","","[{""page_index"":0,""viewing_time"":2341.7999999523163}]","2343.0999999046326","","","","","","","","","","","","","","","","","","","","","","","",""
"pit-comprehension","121","995537","0.0-2.0-26.0-0.0","battery-v0.2","","""event"",""trial"",""time""
""fullscreenenter"",""1"",""7507""
","
","
","""event"",""trial"",""time""
""fullscreenenter"",""1"",""7507""
","
","","","8471.699999809265","[""False""]","0","15","5948","3447","","","","","","","","","","","","","","","","","","",""
"pit-instructions","122","997475","0.0-2.0-26.0-1.0","battery-v0.2","","""event"",""trial"",""time""
""fullscreenenter"",""1"",""7507""
","
","
","""event"",""trial"",""time""
""fullscreenenter"",""1"",""7507""
","
","","[{""page_index"":0,""viewing_time"":1815.4000000953674}]","1816.6000001430511","","","","","","","","","","","","","","","","","","","","","","","",""
"pit-instructions","123","1016951","0.0-3.0","battery-v0.2","","""event"",""trial"",""time""
""fullscreenenter"",""1"",""7507""
","
","
","""event"",""trial"",""time""
""fullscreenenter"",""1"",""7507""
","
","","[{""page_index"":0,""viewing_time"":4383},{""page_index"":1,""viewing_time"":6636.599999904633},{""page_index"":2,""viewing_time"":8450}]","19470.099999904633","","","","","","","","","","","","","","","","","","","","","","","",""
"pit-trial","124","1021833","0.0-4.0","battery-v0.2","","""event"",""trial"",""time""
""fullscreenenter"",""1"",""7507""
","
","
","""event"",""trial"",""time""
""fullscreenenter"",""1"",""7507""
","
","","","-1","","","15","5948","3447","&#9728;","elianto","#f73b6a7A","-1","-1","1","0","[]","0","1","","","5948","1","0","4","lose","no-go","0"
"pit-trial","125","1026682","0.0-5.0","battery-v0.2","","""event"",""trial"",""time""
""fullscreenenter"",""1"",""7507""
","
","
","""event"",""trial"",""time""
""fullscreenenter"",""1"",""7507""
","
","","","1970.2999999523163","","","15","5948","3447","&#9752;","elianto","#f73b6a7A"," "," ","1","0","[2829.800000190735]","1","1","","","5948","2","3","3","lose","go","0"
"pit-trial","126","1030512","0.0-6.0","battery-v0.2","","""event"",""trial"",""time""
""fullscreenenter"",""1"",""7507""
","
","
","""event"",""trial"",""time""
""fullscreenenter"",""1"",""7507""
","
","","","942.9000000953674","","","15","5948","3447","&#9730;","elianto","#3366ff99"," "," ","1","+10","[1799.2000000476837]","1","1","","","5948","3","1","1","win","go","0"
"pit-trial","127","1034783","0.0-7.0","battery-v0.2","","""event"",""trial"",""time""
""fullscreenenter"",""1"",""7507""
","
","
","""event"",""trial"",""time""
""fullscreenenter"",""1"",""7507""
","
","","","1392","","","15","5948","3447","&#9733;","elianto","#3366ff99","-1"," ","0","0","[2254.5999999046326]","1","1","","","5948","4","2","2","win","no-go","0"
"pit-trial","128","1038518","0.0-8.0","battery-v0.2","","""event"",""trial"",""time""
""fullscreenenter"",""1"",""7507""
","
","
","""event"",""trial"",""time""
""fullscreenenter"",""1"",""7507""
","
","","","858.7000000476837","","","15","5948","3447","&#9733;","elianto","#3366ff99","-1"," ","0","0","[1717.7999999523163]","1","1","","","5948","5","2","2","win","no-go","0"
"pit-trial","129","1042407","0.0-9.0","battery-v0.2","","""event"",""trial"",""time""
""fullscreenenter"",""1"",""7507""
","
","
","""event"",""trial"",""time""
""fullscreenenter"",""1"",""7507""
","
","","","1019.9000000953674","","","15","5948","3447","&#9728;","elianto","#f73b6a7A","-1"," ","0","-10","[1876.1000001430511]","1","1","","","5948","6","0","4","lose","no-go","0"
"pit-trial","130","1046943","0.0-10.0","battery-v0.2","","""event"",""trial"",""time""
""fullscreenenter"",""1"",""7507""
","
","
","""event"",""trial"",""time""
""fullscreenenter"",""1"",""7507""
","
","","","1667.5999999046326","","","15","5948","3447","&#9730;","elianto","#3366ff99"," "," ","1","+10","[2522.0999999046326]","1","1","","","5948","7","1","1","win","go","0"
"pit-trial","131","1051800","0.0-11.0","battery-v0.2","","""event"",""trial"",""time""
""fullscreenenter"",""1"",""7507""
","
","
","""event"",""trial"",""time""
""fullscreenenter"",""1"",""7507""
","
","","","-1","","","15","5948","3447","&#9752;","elianto","#f73b6a7A"," ","-1","0","-10","[]","0","1","","","5948","8","3","3","lose","go","0"
"pit-trial","132","1056025","0.0-12.0","battery-v0.2","","""event"",""trial"",""time""
""fullscreenenter"",""1"",""7507""
","
","
","""event"",""trial"",""time""
""fullscreenenter"",""1"",""7507""
","
","","","1353.7000000476837","","","15","5948","3447","&#9730;","elianto","#3366ff99"," "," ","1","+10","[2211.600000143051]","1","1","","","5948","9","1","1","win","go","0"
"pit-trial","133","1060896","0.0-13.0","battery-v0.2","","""event"",""trial"",""time""
""fullscreenenter"",""1"",""7507""
","
","
","""event"",""trial"",""time""
""fullscreenenter"",""1"",""7507""
","
","","","-1","","","15","5948","3447","&#9752;","elianto","#f73b6a7A"," ","-1","0","-10","[]","0","1","","","5948","10","3","3","lose","go","0"
"pit-trial","134","1064880","0.0-14.0","battery-v0.2","","""event"",""trial"",""time""
""fullscreenenter"",""1"",""7507""
","
","
","""event"",""trial"",""time""
""fullscreenenter"",""1"",""7507""
","
","","","1113","","","15","5948","3447","&#9733;","elianto","#3366ff99","-1"," ","0","0","[1971.3000001907349]","1","1","","","5948","11","2","2","win","no-go","0"
"pit-trial","135","1069745","0.0-15.0","battery-v0.2","","""event"",""trial"",""time""
""fullscreenenter"",""1"",""7507""
","
","
","""event"",""trial"",""time""
""fullscreenenter"",""1"",""7507""
","
","","","-1","","","15","5948","3447","&#9728;","elianto","#f73b6a7A","-1","-1","1","0","[]","0","1","","","5948","12","0","4","lose","no-go","0"
"pit-trial","136","1073848","0.0-16.0","battery-v0.2","","""event"",""trial"",""time""
""fullscreenenter"",""1"",""7507""
","
","
","""event"",""trial"",""time""
""fullscreenenter"",""1"",""7507""
","
","","","1237.7999999523163","","","15","5948","3447","&#9733;","elianto","#3366ff99","-1"," ","0","0","[2095.399999856949]","1","1","","","5948","13","2","2","win","no-go","0"
"pit-trial","137","1077425","0.0-17.0","battery-v0.2","","""event"",""trial"",""time""
""fullscreenenter"",""1"",""7507""
","
","
","""event"",""trial"",""time""
""fullscreenenter"",""1"",""7507""
","
","","","709.5","","","15","5948","3447","&#9730;","elianto","#3366ff99"," "," ","1","+10","[1567.4000000953674]","1","1","","","5948","14","1","1","win","go","0"
"pit-trial","138","1082296","0.0-18.0","battery-v0.2","","""event"",""trial"",""time""
""fullscreenenter"",""1"",""7507""
","
","
","""event"",""trial"",""time""
""fullscreenenter"",""1"",""7507""
","
","","","-1","","","15","5948","3447","&#9752;","elianto","#f73b6a7A"," ","-1","0","-10","[]","0","1","","","5948","15","3","3","lose","go","0"
"pit-trial","139","1087180","0.0-19.0","battery-v0.2","","""event"",""trial"",""time""
""fullscreenenter"",""1"",""7507""
","
","
","""event"",""trial"",""time""
""fullscreenenter"",""1"",""7507""
","
","","","-1","","","15","5948","3447","&#9728;","elianto","#f73b6a7A","-1","-1","1","-10","[]","0","1","","","5948","16","0","4","lose","no-go","1"
"pit-trial","140","1090673","0.0-20.0","battery-v0.2","","""event"",""trial"",""time""
""fullscreenenter"",""1"",""7507""
","
","
","""event"",""trial"",""time""
""fullscreenenter"",""1"",""7507""
","
","","","623.5999999046326","","","15","5948","3447","&#9730;","elianto","#3366ff99"," "," ","1","+10","[1483.0999999046326]","1","1","","","5948","17","1","1","win","go","0"
"pit-trial","141","1094793","0.0-21.0","battery-v0.2","","""event"",""trial"",""time""
""fullscreenenter"",""1"",""7507""
","
","
","""event"",""trial"",""time""
""fullscreenenter"",""1"",""7507""
","
","","","1256.7000000476837","","","15","5948","3447","&#9733;","elianto","#3366ff99","-1"," ","0","+10","[2109.2000000476837]","1","1","","","5948","18","2","2","win","no-go","1"
"pit-trial","142","1099664","0.0-22.0","battery-v0.2","","""event"",""trial"",""time""
""fullscreenenter"",""1"",""7507""
","
","
","""event"",""trial"",""time""
""fullscreenenter"",""1"",""7507""
","
","","","-1","","","15","5948","3447","&#9752;","elianto","#f73b6a7A"," ","-1","0","-10","[]","0","1","","","5948","19","3","3","lose","go","0"
"pit-trial","143","1104528","0.0-23.0","battery-v0.2","","""event"",""trial"",""time""
""fullscreenenter"",""1"",""7507""
","
","
","""event"",""trial"",""time""
""fullscreenenter"",""1"",""7507""
","
","","","-1","","","15","5948","3447","&#9728;","elianto","#f73b6a7A","-1","-1","1","0","[3568.399999856949]","1","1","","","5948","20","0","4","lose","no-go","0"
"pit-instructions","144","1124921","0.0-24.0","battery-v0.2","","""event"",""trial"",""time""
""fullscreenenter"",""1"",""7507""
","
","
","""event"",""trial"",""time""
""fullscreenenter"",""1"",""7507""
","
","","[{""page_index"":0,""viewing_time"":11074.599999904633},{""page_index"":1,""viewing_time"":9329.400000095367}]","20405.200000047684","","","","","","","","","","","","","","","","","","","","","","","",""
"pit-trial","145","1129807","0.0-25.0","battery-v0.2","","""event"",""trial"",""time""
""fullscreenenter"",""1"",""7507""
","
","
","""event"",""trial"",""time""
""fullscreenenter"",""1"",""7507""
","
","","","-1","","","15","5948","3447","m","elianto","#f73b6a7A"," ","-1","0","-10","[]","0","2","","","5948","21","0","3","lose","go","0"
"pit-trial","146","1134687","0.0-26.0","battery-v0.2","","""event"",""trial"",""time""
""fullscreenenter"",""1"",""7507""
","
","
","""event"",""trial"",""time""
""fullscreenenter"",""1"",""7507""
","
","","","-1","","","15","5948","3447","y","elianto","#f73b6a7A"," ","-1","0","0","[]","0","2","","","5948","22","2","3","lose","go","1"
"pit-trial","147","1138487","0.0-27.0","battery-v0.2","","""event"",""trial"",""time""
""fullscreenenter"",""1"",""7507""
","
","
","""event"",""trial"",""time""
""fullscreenenter"",""1"",""7507""
","
","","","923.6000001430511","","","15","5948","3447","r","elianto","#3366ff99","-1"," ","0","0","[1773.5999999046326]","1","2","","","5948","23","1","2","win","no-go","0"
"pit-trial","148","1143369","0.0-28.0","battery-v0.2","","""event"",""trial"",""time""
""fullscreenenter"",""1"",""7507""
","
","
","""event"",""trial"",""time""
""fullscreenenter"",""1"",""7507""
","
","","","-1","","","15","5948","3447","h","elianto","#f73b6a7A","-1","-1","1","0","[]","0","2","","","5948","24","3","4","lose","no-go","0"
"pit-trial","149","1146997","0.0-29.0","battery-v0.2","","""event"",""trial"",""time""
""fullscreenenter"",""1"",""7507""
","
","
","""event"",""trial"",""time""
""fullscreenenter"",""1"",""7507""
","
","","","764.3000001907349","","","15","5948","3447","r","elianto","#3366ff99","-1"," ","0","+10","[1615]","1","2","","","5948","25","1","2","win","no-go","1"
"pit-trial","150","1151867","0.0-30.0","battery-v0.2","","""event"",""trial"",""time""
""fullscreenenter"",""1"",""7507""
","
","
","""event"",""trial"",""time""
""fullscreenenter"",""1"",""7507""
","
","","","-1","","","15","5948","3447","y","elianto","#f73b6a7A"," ","-1","0","-10","[]","0","2","","","5948","26","2","3","lose","go","0"
"pit-trial","151","1156735","0.0-31.0","battery-v0.2","","""event"",""trial"",""time""
""fullscreenenter"",""1"",""7507""
","
","
","""event"",""trial"",""time""
""fullscreenenter"",""1"",""7507""
","
","","","-1","","","15","5948","3447","m","elianto","#f73b6a7A"," ","-1","0","-10","[]","0","2","","","5948","27","0","3","lose","go","0"
"pit-trial","152","1161601","0.0-32.0","battery-v0.2","","""event"",""trial"",""time""
""fullscreenenter"",""1"",""7507""
","
","
","""event"",""trial"",""time""
""fullscreenenter"",""1"",""7507""
","
","","","-1","","","15","5948","3447","h","elianto","#f73b6a7A","-1","-1","1","0","[]","0","2","","","5948","28","3","4","lose","no-go","0"
"pit-trial","153","1166472","0.0-33.0","battery-v0.2","","""event"",""trial"",""time""
""fullscreenenter"",""1"",""7507""
","
","
","""event"",""trial"",""time""
""fullscreenenter"",""1"",""7507""
","
","","","-1","","","15","5948","3447","m","elianto","#f73b6a7A"," ","-1","0","-10","[]","0","2","","","5948","29","0","3","lose","go","0"
"pit-trial","154","1170272","0.0-34.0","battery-v0.2","","""event"",""trial"",""time""
""fullscreenenter"",""1"",""7507""
","
","
","""event"",""trial"",""time""
""fullscreenenter"",""1"",""7507""
","
","","","935.9000000953674","","","15","5948","3447","r","elianto","#3366ff99","-1"," ","0","+10","[1785.8999998569489]","1","2","","","5948","30","1","2","win","no-go","1"
"pit-trial","155","1175145","0.0-35.0","battery-v0.2","","""event"",""trial"",""time""
""fullscreenenter"",""1"",""7507""
","
","
","""event"",""trial"",""time""
""fullscreenenter"",""1"",""7507""
","
","","","-1","","","15","5948","3447","h","elianto","#f73b6a7A","-1","-1","1","0","[]","0","2","","","5948","31","3","4","lose","no-go","0"
"pit-trial","156","1180002","0.0-36.0","battery-v0.2","","""event"",""trial"",""time""
""fullscreenenter"",""1"",""7507""
","
","
","""event"",""trial"",""time""
""fullscreenenter"",""1"",""7507""
","
","","","-1","","","15","5948","3447","y","elianto","#f73b6a7A"," ","-1","0","-10","[]","0","2","","","5948","32","2","3","lose","go","0"
"pit-trial","157","1184874","0.0-37.0","battery-v0.2","","""event"",""trial"",""time""
""fullscreenenter"",""1"",""7507""
","
","
","""event"",""trial"",""time""
""fullscreenenter"",""1"",""7507""
","
","","","-1","","","15","5948","3447","h","elianto","#f73b6a7A","-1","-1","1","0","[]","0","2","","","5948","33","3","4","lose","no-go","0"
"pit-trial","158","1189514","0.0-38.0","battery-v0.2","","""event"",""trial"",""time""
""fullscreenenter"",""1"",""7507""
","
","
","""event"",""trial"",""time""
""fullscreenenter"",""1"",""7507""
","
","","","1771.4000000953674","","","15","5948","3447","y","elianto","#f73b6a7A"," "," ","1","0","[2629.600000143051]","1","2","","","5948","34","2","3","lose","go","0"
"pit-trial","159","1194386","0.0-39.0","battery-v0.2","","""event"",""trial"",""time""
""fullscreenenter"",""1"",""7507""
","
","
","""event"",""trial"",""time""
""fullscreenenter"",""1"",""7507""
","
","","","-1","","","15","5948","3447","m","elianto","#f73b6a7A"," ","-1","0","-10","[]","0","2","","","5948","35","0","3","lose","go","0"
"pit-trial","160","1197977","0.0-40.0","battery-v0.2","","""event"",""trial"",""time""
""fullscreenenter"",""1"",""7507""
","
","
","""event"",""trial"",""time""
""fullscreenenter"",""1"",""7507""
","
","","","727.1000001430511","","","15","5948","3447","r","elianto","#3366ff99","-1"," ","0","0","[1578.9000000953674]","1","2","","","5948","36","1","2","win","no-go","0"
"pit-trial","161","1202842","0.0-41.0","battery-v0.2","","""event"",""trial"",""time""
""fullscreenenter"",""1"",""7507""
","
","
","""event"",""trial"",""time""
""fullscreenenter"",""1"",""7507""
","
","","","-1","","","15","5948","3447","h","elianto","#f73b6a7A","-1","-1","1","0","[]","0","2","","","5948","37","3","4","lose","no-go","0"
"pit-trial","162","1207706","0.0-42.0","battery-v0.2","","""event"",""trial"",""time""
""fullscreenenter"",""1"",""7507""
","
","
","""event"",""trial"",""time""
""fullscreenenter"",""1"",""7507""
","
","","","-1","","","15","5948","3447","m","elianto","#f73b6a7A"," ","-1","0","-10","[]","0","2","","","5948","38","0","3","lose","go","0"
"pit-trial","163","1211578","0.0-43.0","battery-v0.2","","""event"",""trial"",""time""
""fullscreenenter"",""1"",""7507""
","
","
","""event"",""trial"",""time""
""fullscreenenter"",""1"",""7507""
","
","","","1001.9000000953674","","","15","5948","3447","y","elianto","#f73b6a7A"," "," ","1","-10","[1860.2000000476837]","1","2","","","5948","39","2","3","lose","go","1"
"pit-trial","164","1214977","0.0-44.0","battery-v0.2","","""event"",""trial"",""time""
""fullscreenenter"",""1"",""7507""
","
","
","""event"",""trial"",""time""
""fullscreenenter"",""1"",""7507""
","
","","","538","","","15","5948","3447","r","elianto","#3366ff99","-1"," ","0","+10","[1389.0999999046326]","1","2","","","5948","40","1","2","win","no-go","1"
"pit-trial","165","1219330","0.0-45.0","battery-v0.2","","""event"",""trial"",""time""
""fullscreenenter"",""1"",""7507""
","
","
","""event"",""trial"",""time""
""fullscreenenter"",""1"",""7507""
","
","","","1490","","","15","5948","3447","y","elianto","#f73b6a7A"," "," ","1","0","[2342.2999999523163]","1","2","","","5948","41","2","3","lose","go","0"
"pit-trial","166","1223345","0.0-46.0","battery-v0.2","","""event"",""trial"",""time""
""fullscreenenter"",""1"",""7507""
","
","
","""event"",""trial"",""time""
""fullscreenenter"",""1"",""7507""
","
","","","1147.3999998569489","","","15","5948","3447","r","elianto","#3366ff99","-1"," ","0","0","[2001.7999999523163]","1","2","","","5948","42","1","2","win","no-go","0"
"pit-trial","167","1228209","0.0-47.0","battery-v0.2","","""event"",""trial"",""time""
""fullscreenenter"",""1"",""7507""
","
","
","""event"",""trial"",""time""
""fullscreenenter"",""1"",""7507""
","
","","","-1","","","15","5948","3447","m","elianto","#f73b6a7A"," ","-1","0","-10","[]","0","2","","","5948","43","0","3","lose","go","0"
"pit-trial","168","1233081","0.0-48.0","battery-v0.2","","""event"",""trial"",""time""
""fullscreenenter"",""1"",""7507""
","
","
","""event"",""trial"",""time""
""fullscreenenter"",""1"",""7507""
","
","","","-1","","","15","5948","3447","h","elianto","#f73b6a7A","-1","-1","1","-10","[]","0","2","","","5948","44","3","4","lose","no-go","1"
"pit-trial","169","1237930","0.0-49.0","battery-v0.2","","""event"",""trial"",""time""
""fullscreenenter"",""1"",""7507""
","
","
","""event"",""trial"",""time""
""fullscreenenter"",""1"",""7507""
","
","","","-1","","","15","5948","3447","m","elianto","#f73b6a7A"," ","-1","0","0","[]","0","2","","","5948","45","0","3","lose","go","1"
"pit-trial","170","1242795","0.0-50.0","battery-v0.2","","""event"",""trial"",""time""
""fullscreenenter"",""1"",""7507""
","
","
","""event"",""trial"",""time""
""fullscreenenter"",""1"",""7507""
","
","","","-1","","","15","5948","3447","h","elianto","#f73b6a7A","-1","-1","1","-10","[]","0","2","","","5948","46","3","4","lose","no-go","1"
"pit-trial","171","1247666","0.0-51.0","battery-v0.2","","""event"",""trial"",""time""
""fullscreenenter"",""1"",""7507""
","
","
","""event"",""trial"",""time""
""fullscreenenter"",""1"",""7507""
","
","","","-1","","","15","5948","3447","r","elianto","#3366ff99","-1","-1","1","+10","[]","0","2","","","5948","47","1","2","win","no-go","0"
"pit-trial","172","1252538","0.0-52.0","battery-v0.2","","""event"",""trial"",""time""
""fullscreenenter"",""1"",""7507""
","
","
","""event"",""trial"",""time""
""fullscreenenter"",""1"",""7507""
","
","","","-1","","","15","5948","3447","y","elianto","#f73b6a7A"," ","-1","0","-10","[]","0","2","","","5948","48","2","3","lose","go","0"
"pit-trial","173","1257402","0.0-53.0","battery-v0.2","","""event"",""trial"",""time""
""fullscreenenter"",""1"",""7507""
","
","
","""event"",""trial"",""time""
""fullscreenenter"",""1"",""7507""
","
","","","-1","","","15","5948","3447","y","elianto","#f73b6a7A"," ","-1","0","-10","[]","0","2","","","5948","49","2","3","lose","go","0"
"pit-trial","174","1262274","0.0-54.0","battery-v0.2","","""event"",""trial"",""time""
""fullscreenenter"",""1"",""7507""
","
","
","""event"",""trial"",""time""
""fullscreenenter"",""1"",""7507""
","
","","","-1","","","15","5948","3447","h","elianto","#f73b6a7A","-1","-1","1","0","[]","0","2","","","5948","50","3","4","lose","no-go","0"
"pit-trial","175","1265811","0.0-55.0","battery-v0.2","","""event"",""trial"",""time""
""fullscreenenter"",""1"",""7507""
","
","
","""event"",""trial"",""time""
""fullscreenenter"",""1"",""7507""
","
","","","673.4000000953674","","","15","5948","3447","r","elianto","#3366ff99","-1"," ","0","0","[1525.3999998569489]","1","2","","","5948","51","1","2","win","no-go","0"
"pit-trial","176","1270682","0.0-56.0","battery-v0.2","","""event"",""trial"",""time""
""fullscreenenter"",""1"",""7507""
","
","
","""event"",""trial"",""time""
""fullscreenenter"",""1"",""7507""
","
","","","-1","","","15","5948","3447","m","elianto","#f73b6a7A"," ","-1","0","-10","[]","0","2","","","5948","52","0","3","lose","go","0"
"pit-trial","177","1275554","0.0-57.0","battery-v0.2","","""event"",""trial"",""time""
""fullscreenenter"",""1"",""7507""
","
","
","""event"",""trial"",""time""
""fullscreenenter"",""1"",""7507""
","
","","","-1","","","15","5948","3447","y","elianto","#f73b6a7A"," ","-1","0","-10","[]","0","2","","","5948","53","2","3","lose","go","0"
"pit-trial","178","1279441","0.0-58.0","battery-v0.2","","""event"",""trial"",""time""
""fullscreenenter"",""1"",""7507""
","
","
","""event"",""trial"",""time""
""fullscreenenter"",""1"",""7507""
","
","","","1031.5","","","15","5948","3447","r","elianto","#3366ff99","-1"," ","0","0","[1882.6000001430511]","1","2","","","5948","54","1","2","win","no-go","0"
"pit-trial","179","1284306","0.0-59.0","battery-v0.2","","""event"",""trial"",""time""
""fullscreenenter"",""1"",""7507""
","
","
","""event"",""trial"",""time""
""fullscreenenter"",""1"",""7507""
","
","","","-1","","","15","5948","3447","h","elianto","#f73b6a7A","-1","-1","1","0","[]","0","2","","","5948","55","3","4","lose","no-go","0"
"pit-trial","180","1289169","0.0-60.0","battery-v0.2","","""event"",""trial"",""time""
""fullscreenenter"",""1"",""7507""
","
","
","""event"",""trial"",""time""
""fullscreenenter"",""1"",""7507""
","
","","","-1","","","15","5948","3447","m","elianto","#f73b6a7A"," ","-1","0","0","[]","0","2","","","5948","56","0","3","lose","go","1"
"pit-trial","181","1292642","0.0-61.0","battery-v0.2","","""event"",""trial"",""time""
""fullscreenenter"",""1"",""7507""
","
","
","""event"",""trial"",""time""
""fullscreenenter"",""1"",""7507""
","
","","","613.5","","","15","5948","3447","z","elianto","#3366ff99"," "," ","1","+10","[1464.9000000953674]","1","2","","","5948","57","4","1","win","go","0"
"pit-trial","182","1297499","0.0-62.0","battery-v0.2","","""event"",""trial"",""time""
""fullscreenenter"",""1"",""7507""
","
","
","""event"",""trial"",""time""
""fullscreenenter"",""1"",""7507""
","
","","","-1","","","15","5948","3447","m","elianto","#f73b6a7A"," ","-1","0","-10","[]","0","2","","","5948","58","0","3","lose","go","0"
"pit-trial","183","1302364","0.0-63.0","battery-v0.2","","""event"",""trial"",""time""
""fullscreenenter"",""1"",""7507""
","
","
","""event"",""trial"",""time""
""fullscreenenter"",""1"",""7507""
","
","","","-1","","","15","5948","3447","y","elianto","#f73b6a7A"," ","-1","0","-10","[]","0","2","","","5948","59","2","3","lose","go","0"
"pit-trial","184","1307228","0.0-64.0","battery-v0.2","","""event"",""trial"",""time""
""fullscreenenter"",""1"",""7507""
","
","
","""event"",""trial"",""time""
""fullscreenenter"",""1"",""7507""
","
","","","-1","","","15","5948","3447","h","elianto","#f73b6a7A","-1","-1","1","0","[]","0","2","","","5948","60","3","4","lose","no-go","0"
"pit-trial","185","1312091","0.0-65.0","battery-v0.2","","""event"",""trial"",""time""
""fullscreenenter"",""1"",""7507""
","
","
","""event"",""trial"",""time""
""fullscreenenter"",""1"",""7507""
","
","","","-1","","","15","5948","3447","r","elianto","#3366ff99","-1","-1","1","+10","[]","0","2","","","5948","61","1","2","win","no-go","0"
"pit-trial","186","1316953","0.0-66.0","battery-v0.2","","""event"",""trial"",""time""
""fullscreenenter"",""1"",""7507""
","
","
","""event"",""trial"",""time""
""fullscreenenter"",""1"",""7507""
","
","","","-1","","","15","5948","3447","y","elianto","#f73b6a7A"," ","-1","0","-10","[]","0","2","","","5948","62","2","3","lose","go","0"
"pit-trial","187","1321819","0.0-67.0","battery-v0.2","","""event"",""trial"",""time""
""fullscreenenter"",""1"",""7507""
","
","
","""event"",""trial"",""time""
""fullscreenenter"",""1"",""7507""
","
","","","-1","","","15","5948","3447","h","elianto","#f73b6a7A","-1","-1","1","0","[]","0","2","","","5948","63","3","4","lose","no-go","0"
"pit-trial","188","1325618","0.0-68.0","battery-v0.2","","""event"",""trial"",""time""
""fullscreenenter"",""1"",""7507""
","
","
","""event"",""trial"",""time""
""fullscreenenter"",""1"",""7507""
","
","","","928.6000001430511","","","15","5948","3447","z","elianto","#3366ff99"," "," ","1","+10","[1787.2000000476837]","1","2","","","5948","64","4","1","win","go","0"
"pit-trial","189","1329652","0.0-69.0","battery-v0.2","","""event"",""trial"",""time""
""fullscreenenter"",""1"",""7507""
","
","
","""event"",""trial"",""time""
""fullscreenenter"",""1"",""7507""
","
","","","1173","","","15","5948","3447","z","elianto","#3366ff99"," "," ","1","+10","[2023.5999999046326]","1","2","","","5948","65","4","1","win","go","0"
"pit-trial","190","1333092","0.0-70.0","battery-v0.2","","""event"",""trial"",""time""
""fullscreenenter"",""1"",""7507""
","
","
","""event"",""trial"",""time""
""fullscreenenter"",""1"",""7507""
","
","","","572.5","","","15","5948","3447","r","elianto","#3366ff99","-1"," ","0","0","[1430.7999999523163,1979.6999998092651,2523.7999999523163,2839]","4","2","","","5948","66","1","2","win","no-go","0"
"pit-trial","191","1337524","0.0-71.0","battery-v0.2","","""event"",""trial"",""time""
""fullscreenenter"",""1"",""7507""
","
","
","""event"",""trial"",""time""
""fullscreenenter"",""1"",""7507""
","
","","","1562.5999999046326","","","15","5948","3447","c","elianto","#3366ff99","-1"," ","0","0","[2421.2999999523163]","1","2","","","5948","67","5","2","win","no-go","0"
"pit-trial","192","1342396","0.0-72.0","battery-v0.2","","""event"",""trial"",""time""
""fullscreenenter"",""1"",""7507""
","
","
","""event"",""trial"",""time""
""fullscreenenter"",""1"",""7507""
","
","","","-1","","","15","5948","3447","h","elianto","#f73b6a7A","-1","-1","1","0","[]","0","2","","","5948","68","3","4","lose","no-go","0"
"pit-trial","193","1346044","0.0-73.0","battery-v0.2","","""event"",""trial"",""time""
""fullscreenenter"",""1"",""7507""
","
","
","""event"",""trial"",""time""
""fullscreenenter"",""1"",""7507""
","
","","","785.3999998569489","","","15","5948","3447","c","elianto","#3366ff99","-1"," ","0","0","[1636.4000000953674]","1","2","","","5948","69","5","2","win","no-go","0"
"pit-trial","194","1349788","0.0-74.0","battery-v0.2","","""event"",""trial"",""time""
""fullscreenenter"",""1"",""7507""
","
","
","""event"",""trial"",""time""
""fullscreenenter"",""1"",""7507""
","
","","","877.9000000953674","","","15","5948","3447","r","elianto","#3366ff99","-1"," ","0","0","[1730.7999999523163,2911.2000000476837]","2","2","","","5948","70","1","2","win","no-go","0"
"pit-trial","195","1353290","0.0-75.0","battery-v0.2","","""event"",""trial"",""time""
""fullscreenenter"",""1"",""7507""
","
","
","""event"",""trial"",""time""
""fullscreenenter"",""1"",""7507""
","
","","","632","","","15","5948","3447","z","elianto","#3366ff99"," "," ","1","+10","[1489.4000000953674]","1","2","","","5948","71","4","1","win","go","0"
"pit-trial","196","1358140","0.0-76.0","battery-v0.2","","""event"",""trial"",""time""
""fullscreenenter"",""1"",""7507""
","
","
","""event"",""trial"",""time""
""fullscreenenter"",""1"",""7507""
","
","","","-1","","","15","5948","3447","y","elianto","#f73b6a7A"," ","-1","0","-10","[45.09999990463257]","1","2","","","5948","72","2","3","lose","go","0"
"pit-trial","197","1362996","0.0-77.0","battery-v0.2","","""event"",""trial"",""time""
""fullscreenenter"",""1"",""7507""
","
","
","""event"",""trial"",""time""
""fullscreenenter"",""1"",""7507""
","
","","","1990.1999998092651","","","15","5948","3447","z","elianto","#3366ff99"," "," ","1","+10","[2846.7999999523163]","1","2","","","5948","73","4","1","win","go","0"
"pit-trial","198","1367860","0.0-78.0","battery-v0.2","","""event"",""trial"",""time""
""fullscreenenter"",""1"",""7507""
","
","
","""event"",""trial"",""time""
""fullscreenenter"",""1"",""7507""
","
","","","-1","","","15","5948","3447","r","elianto","#3366ff99","-1","-1","1","+10","[3111]","1","2","","","5948","74","1","2","win","no-go","0"
"pit-trial","199","1371301","0.0-79.0","battery-v0.2","","""event"",""trial"",""time""
""fullscreenenter"",""1"",""7507""
","
","
","""event"",""trial"",""time""
""fullscreenenter"",""1"",""7507""
","
","","","575.2000000476837","","","15","5948","3447","c","elianto","#3366ff99","-1"," ","0","0","[1428.2999999523163]","1","2","","","5948","75","5","2","win","no-go","0"
"pit-trial","200","1376164","0.0-80.0","battery-v0.2","","""event"",""trial"",""time""
""fullscreenenter"",""1"",""7507""
","
","
","""event"",""trial"",""time""
""fullscreenenter"",""1"",""7507""
","
","","","-1","","","15","5948","3447","h","elianto","#f73b6a7A","-1","-1","1","0","[]","0","2","","","5948","76","3","4","lose","no-go","0"
"pit-trial","201","1380051","0.0-81.0","battery-v0.2","","""event"",""trial"",""time""
""fullscreenenter"",""1"",""7507""
","
","
","""event"",""trial"",""time""
""fullscreenenter"",""1"",""7507""
","
","","","1027.4000000953674","","","15","5948","3447","z","elianto","#3366ff99"," "," ","1","+10","[1878.9000000953674]","1","2","","","5948","77","4","1","win","go","0"
"pit-trial","202","1384915","0.0-82.0","battery-v0.2","","""event"",""trial"",""time""
""fullscreenenter"",""1"",""7507""
","
","
","""event"",""trial"",""time""
""fullscreenenter"",""1"",""7507""
","
","","","-1","","","15","5948","3447","c","elianto","#3366ff99","-1","-1","1","+10","[3094.100000143051]","1","2","","","5948","78","5","2","win","no-go","0"
"pit-trial","203","1388132","0.0-83.0","battery-v0.2","","""event"",""trial"",""time""
""fullscreenenter"",""1"",""7507""
","
","
","""event"",""trial"",""time""
""fullscreenenter"",""1"",""7507""
","
","","","356","","","15","5948","3447","z","elianto","#3366ff99"," "," ","1","0","[1207.7999999523163]","1","2","","","5948","79","4","1","win","go","1"
"pit-trial","204","1392996","0.0-84.0","battery-v0.2","","""event"",""trial"",""time""
""fullscreenenter"",""1"",""7507""
","
","
","""event"",""trial"",""time""
""fullscreenenter"",""1"",""7507""
","
","","","-1","","","15","5948","3447","h","elianto","#f73b6a7A","-1","-1","1","0","[]","0","2","","","5948","80","3","4","lose","no-go","0"
"pit-trial","205","1396836","0.0-85.0","battery-v0.2","","""event"",""trial"",""time""
""fullscreenenter"",""1"",""7507""
","
","
","""event"",""trial"",""time""
""fullscreenenter"",""1"",""7507""
","
","","","979.9000000953674","","","15","5948","3447","c","elianto","#3366ff99","-1"," ","0","0","[1831.7999999523163]","1","2","","","5948","81","5","2","win","no-go","0"
"pit-trial","206","1401700","0.0-86.0","battery-v0.2","","""event"",""trial"",""time""
""fullscreenenter"",""1"",""7507""
","
","
","""event"",""trial"",""time""
""fullscreenenter"",""1"",""7507""
","
","","","-1","","","15","5948","3447","h","elianto","#f73b6a7A","-1","-1","1","0","[]","0","2","","","5948","82","3","4","lose","no-go","0"
"pit-trial","207","1406565","0.0-87.0","battery-v0.2","","""event"",""trial"",""time""
""fullscreenenter"",""1"",""7507""
","
","
","""event"",""trial"",""time""
""fullscreenenter"",""1"",""7507""
","
","","","-1","","","15","5948","3447","t","elianto","#f73b6a7A","-1","-1","1","0","[]","0","2","","","5948","83","7","4","lose","no-go","0"
"pit-trial","208","1409972","0.0-88.0","battery-v0.2","","""event"",""trial"",""time""
""fullscreenenter"",""1"",""7507""
","
","
","""event"",""trial"",""time""
""fullscreenenter"",""1"",""7507""
","
","","","540.9000000953674","","","15","5948","3447","z","elianto","#3366ff99"," "," ","1","0","[1398.7000000476837]","1","2","","","5948","84","4","1","win","go","1"
"pit-trial","209","1413444","0.0-89.0","battery-v0.2","","""event"",""trial"",""time""
""fullscreenenter"",""1"",""7507""
","
","
","""event"",""trial"",""time""
""fullscreenenter"",""1"",""7507""
","
","","","607.0999999046326","","","15","5948","3447","z","elianto","#3366ff99"," "," ","1","+10","[1460.6999998092651]","1","2","","","5948","85","4","1","win","go","0"
"pit-trial","210","1418294","0.0-90.0","battery-v0.2","","""event"",""trial"",""time""
""fullscreenenter"",""1"",""7507""
","
","
","""event"",""trial"",""time""
""fullscreenenter"",""1"",""7507""
","
","","","-1","","","15","5948","3447","b","elianto","#f73b6a7A"," ","-1","0","-10","[]","0","2","","","5948","86","6","3","lose","go","0"
"pit-trial","211","1422127","0.0-91.0","battery-v0.2","","""event"",""trial"",""time""
""fullscreenenter"",""1"",""7507""
","
","
","""event"",""trial"",""time""
""fullscreenenter"",""1"",""7507""
","
","","","972.2999999523163","","","15","5948","3447","c","elianto","#3366ff99","-1"," ","0","+10","[1823.0999999046326]","1","2","","","5948","87","5","2","win","no-go","1"
"pit-trial","212","1426998","0.0-92.0","battery-v0.2","","""event"",""trial"",""time""
""fullscreenenter"",""1"",""7507""
","
","
","""event"",""trial"",""time""
""fullscreenenter"",""1"",""7507""
","
","","","-1","","","15","5948","3447","t","elianto","#f73b6a7A","-1","-1","1","0","[]","0","2","","","5948","88","7","4","lose","no-go","0"
"pit-trial","213","1430462","0.0-93.0","battery-v0.2","","""event"",""trial"",""time""
""fullscreenenter"",""1"",""7507""
","
","
","""event"",""trial"",""time""
""fullscreenenter"",""1"",""7507""
","
","","","602.5","","","15","5948","3447","c","elianto","#3366ff99","-1"," ","0","0","[1453.2000000476837]","1","2","","","5948","89","5","2","win","no-go","0"
"pit-trial","214","1435109","0.0-94.0","battery-v0.2","","""event"",""trial"",""time""
""fullscreenenter"",""1"",""7507""
","
","
","""event"",""trial"",""time""
""fullscreenenter"",""1"",""7507""
","
","","","1787","","","15","5948","3447","b","elianto","#f73b6a7A"," "," ","1","0","[2640.2999999523163]","1","2","","","5948","90","6","3","lose","go","0"
"pit-trial","215","1439973","0.0-95.0","battery-v0.2","","""event"",""trial"",""time""
""fullscreenenter"",""1"",""7507""
","
","
","""event"",""trial"",""time""
""fullscreenenter"",""1"",""7507""
","
","","","-1","","","15","5948","3447","t","elianto","#f73b6a7A","-1","-1","1","-10","[]","0","2","","","5948","91","7","4","lose","no-go","1"
"pit-trial","216","1444846","0.0-96.0","battery-v0.2","","""event"",""trial"",""time""
""fullscreenenter"",""1"",""7507""
","
","
","""event"",""trial"",""time""
""fullscreenenter"",""1"",""7507""
","
","","","-1","","","15","5948","3447","z","elianto","#3366ff99"," ","-1","0","+10","[]","0","2","","","5948","92","4","1","win","go","1"
"pit-trial","217","1449719","0.0-97.0","battery-v0.2","","""event"",""trial"",""time""
""fullscreenenter"",""1"",""7507""
","
","
","""event"",""trial"",""time""
""fullscreenenter"",""1"",""7507""
","
","","","-1","","","15","5948","3447","f","elianto","#3366ff99"," ","-1","0","0","[]","0","2","","","5948","93","8","1","win","go","0"
"pit-trial","218","1454589","0.0-98.0","battery-v0.2","","""event"",""trial"",""time""
""fullscreenenter"",""1"",""7507""
","
","
","""event"",""trial"",""time""
""fullscreenenter"",""1"",""7507""
","
","","","-1","","","15","5948","3447","t","elianto","#f73b6a7A","-1","-1","1","0","[]","0","2","","","5948","94","7","4","lose","no-go","0"
"pit-trial","219","1459453","0.0-99.0","battery-v0.2","","""event"",""trial"",""time""
""fullscreenenter"",""1"",""7507""
","
","
","""event"",""trial"",""time""
""fullscreenenter"",""1"",""7507""
","
","","","-1","","","15","5948","3447","b","elianto","#f73b6a7A"," ","-1","0","-10","[]","0","2","","","5948","95","6","3","lose","go","0"
"pit-trial","220","1462998","0.0-100.0","battery-v0.2","","""event"",""trial"",""time""
""fullscreenenter"",""1"",""7507""
","
","
","""event"",""trial"",""time""
""fullscreenenter"",""1"",""7507""
","
","","","680.5999999046326","","","15","5948","3447","c","elianto","#3366ff99","-1"," ","0","0","[1536.7000000476837]","1","2","","","5948","96","5","2","win","no-go","0"
"pit-trial","221","1467869","0.0-101.0","battery-v0.2","","""event"",""trial"",""time""
""fullscreenenter"",""1"",""7507""
","
","
","""event"",""trial"",""time""
""fullscreenenter"",""1"",""7507""
","
","","","-1","","","15","5948","3447","b","elianto","#f73b6a7A"," ","-1","0","-10","[]","0","2","","","5948","97","6","3","lose","go","0"
"pit-trial","222","1471461","0.0-102.0","battery-v0.2","","""event"",""trial"",""time""
""fullscreenenter"",""1"",""7507""
","
","
","""event"",""trial"",""time""
""fullscreenenter"",""1"",""7507""
","
","","","731.7999999523163","","","15","5948","3447","c","elianto","#3366ff99","-1"," ","0","0","[1583.5999999046326]","1","2","","","5948","98","5","2","win","no-go","0"
"pit-trial","223","1475350","0.0-103.0","battery-v0.2","","""event"",""trial"",""time""
""fullscreenenter"",""1"",""7507""
","
","
","""event"",""trial"",""time""
""fullscreenenter"",""1"",""7507""
","
","","","1027.5999999046326","","","15","5948","3447","f","elianto","#3366ff99"," "," ","1","+10","[1880.4000000953674]","1","2","","","5948","99","8","1","win","go","0"
"pit-trial","224","1480199","0.0-104.0","battery-v0.2","","""event"",""trial"",""time""
""fullscreenenter"",""1"",""7507""
","
","
","""event"",""trial"",""time""
""fullscreenenter"",""1"",""7507""
","
","","","-1","","","15","5948","3447","t","elianto","#f73b6a7A","-1","-1","1","0","[]","0","2","","","5948","100","7","4","lose","no-go","0"
"pit-trial","225","1483694","0.0-105.0","battery-v0.2","","""event"",""trial"",""time""
""fullscreenenter"",""1"",""7507""
","
","
","""event"",""trial"",""time""
""fullscreenenter"",""1"",""7507""
","
","","","627.8999998569489","","","15","5948","3447","c","elianto","#3366ff99","-1"," ","0","0","[1485.7999999523163]","1","2","","","5948","101","5","2","win","no-go","0"
"pit-trial","226","1487054","0.0-106.0","battery-v0.2","","""event"",""trial"",""time""
""fullscreenenter"",""1"",""7507""
","
","
","""event"",""trial"",""time""
""fullscreenenter"",""1"",""7507""
","
","","","497.5","","","15","5948","3447","t","elianto","#f73b6a7A","-1"," ","0","-10","[1351.2999999523163]","1","2","","","5948","102","7","4","lose","no-go","0"
"pit-trial","227","1490591","0.0-107.0","battery-v0.2","","""event"",""trial"",""time""
""fullscreenenter"",""1"",""7507""
","
","
","""event"",""trial"",""time""
""fullscreenenter"",""1"",""7507""
","
","","","676.9000000953674","","","15","5948","3447","f","elianto","#3366ff99"," "," ","1","0","[1528.7999999523163]","1","2","","","5948","103","8","1","win","go","1"
"pit-trial","228","1494375","0.0-108.0","battery-v0.2","","""event"",""trial"",""time""
""fullscreenenter"",""1"",""7507""
","
","
","""event"",""trial"",""time""
""fullscreenenter"",""1"",""7507""
","
","","","919.0999999046326","","","15","5948","3447","n","elianto","#3366ff99"," "," ","1","+10","[1771.2000000476837]","1","2","","","5948","104","9","1","win","go","0"
"pit-trial","229","1497911","0.0-109.0","battery-v0.2","","""event"",""trial"",""time""
""fullscreenenter"",""1"",""7507""
","
","
","""event"",""trial"",""time""
""fullscreenenter"",""1"",""7507""
","
","","","673.7000000476837","","","15","5948","3447","z","elianto","#3366ff99"," "," ","1","+10","[1524]","1","2","","","5948","105","4","1","win","go","0"
"pit-trial","230","1501486","0.0-110.0","battery-v0.2","","""event"",""trial"",""time""
""fullscreenenter"",""1"",""7507""
","
","
","""event"",""trial"",""time""
""fullscreenenter"",""1"",""7507""
","
","","","713.5999999046326","","","15","5948","3447","f","elianto","#3366ff99"," "," ","1","0","[1565.7000000476837]","1","2","","","5948","106","8","1","win","go","1"
"pit-trial","231","1506351","0.0-111.0","battery-v0.2","","""event"",""trial"",""time""
""fullscreenenter"",""1"",""7507""
","
","
","""event"",""trial"",""time""
""fullscreenenter"",""1"",""7507""
","
","","","-1","","","15","5948","3447","b","elianto","#f73b6a7A"," ","-1","0","-10","[]","0","2","","","5948","107","6","3","lose","go","0"
"pit-trial","232","1509871","0.0-112.0","battery-v0.2","","""event"",""trial"",""time""
""fullscreenenter"",""1"",""7507""
","
","
","""event"",""trial"",""time""
""fullscreenenter"",""1"",""7507""
","
","","","648.5999999046326","","","15","5948","3447","n","elianto","#3366ff99"," "," ","1","+10","[1505.9000000953674]","1","2","","","5948","108","9","1","win","go","0"
"pit-trial","233","1514742","0.0-113.0","battery-v0.2","","""event"",""trial"",""time""
""fullscreenenter"",""1"",""7507""
","
","
","""event"",""trial"",""time""
""fullscreenenter"",""1"",""7507""
","
","","","-1","","","15","5948","3447","b","elianto","#f73b6a7A"," ","-1","0","-10","[]","0","2","","","5948","109","6","3","lose","go","0"
"pit-trial","234","1518199","0.0-114.0","battery-v0.2","","""event"",""trial"",""time""
""fullscreenenter"",""1"",""7507""
","
","
","""event"",""trial"",""time""
""fullscreenenter"",""1"",""7507""
","
","","","590.2999999523163","","","15","5948","3447","n","elianto","#3366ff99"," "," ","1","+10","[1443.5999999046326]","1","2","","","5948","110","9","1","win","go","0"
"pit-trial","235","1521815","0.0-115.0","battery-v0.2","","""event"",""trial"",""time""
""fullscreenenter"",""1"",""7507""
","
","
","""event"",""trial"",""time""
""fullscreenenter"",""1"",""7507""
","
","","","749.1000001430511","","","15","5948","3447","c","elianto","#3366ff99","-1"," ","0","0","[1607.5]","1","2","","","5948","111","5","2","win","no-go","0"
"pit-trial","236","1525615","0.0-116.0","battery-v0.2","","""event"",""trial"",""time""
""fullscreenenter"",""1"",""7507""
","
","
","""event"",""trial"",""time""
""fullscreenenter"",""1"",""7507""
","
","","","930.5999999046326","","","15","5948","3447","f","elianto","#3366ff99"," "," ","1","+10","[1789.2000000476837]","1","2","","","5948","112","8","1","win","go","0"
"pit-trial","237","1529039","0.0-117.0","battery-v0.2","","""event"",""trial"",""time""
""fullscreenenter"",""1"",""7507""
","
","
","""event"",""trial"",""time""
""fullscreenenter"",""1"",""7507""
","
","","","552.2999999523163","","","15","5948","3447","n","elianto","#3366ff99"," "," ","1","+10","[1409.7999999523163]","1","2","","","5948","113","9","1","win","go","0"
"pit-trial","238","1532792","0.0-118.0","battery-v0.2","","""event"",""trial"",""time""
""fullscreenenter"",""1"",""7507""
","
","
","""event"",""trial"",""time""
""fullscreenenter"",""1"",""7507""
","
","","","885.5","","","15","5948","3447","c","elianto","#3366ff99","-1"," ","0","0","[1736.7000000476837]","1","2","","","5948","114","5","2","win","no-go","0"
"pit-trial","239","1537664","0.0-119.0","battery-v0.2","","""event"",""trial"",""time""
""fullscreenenter"",""1"",""7507""
","
","
","""event"",""trial"",""time""
""fullscreenenter"",""1"",""7507""
","
","","","-1","","","15","5948","3447","f","elianto","#3366ff99"," ","-1","0","0","[]","0","2","","","5948","115","8","1","win","go","0"
"pit-trial","240","1542520","0.0-120.0","battery-v0.2","","""event"",""trial"",""time""
""fullscreenenter"",""1"",""7507""
","
","
","""event"",""trial"",""time""
""fullscreenenter"",""1"",""7507""
","
","","","-1","","","15","5948","3447","b","elianto","#f73b6a7A"," ","-1","0","0","[]","0","2","","","5948","116","6","3","lose","go","1"
"pit-trial","241","1546104","0.0-121.0","battery-v0.2","","""event"",""trial"",""time""
""fullscreenenter"",""1"",""7507""
","
","
","""event"",""trial"",""time""
""fullscreenenter"",""1"",""7507""
","
","","","720","","","15","5948","3447","f","elianto","#3366ff99"," "," ","1","+10","[1574.7999999523163]","1","2","","","5948","117","8","1","win","go","0"
"pit-trial","242","1550432","0.0-122.0","battery-v0.2","","""event"",""trial"",""time""
""fullscreenenter"",""1"",""7507""
","
","
","""event"",""trial"",""time""
""fullscreenenter"",""1"",""7507""
","
","","","1462.0999999046326","","","15","5948","3447","n","elianto","#3366ff99"," "," ","1","+10","[2315.300000190735]","1","2","","","5948","118","9","1","win","go","0"
"pit-trial","243","1553903","0.0-123.0","battery-v0.2","","""event"",""trial"",""time""
""fullscreenenter"",""1"",""7507""
","
","
","""event"",""trial"",""time""
""fullscreenenter"",""1"",""7507""
","
","","","602.5999999046326","","","15","5948","3447","c","elianto","#3366ff99","-1"," ","0","+10","[1461.4000000953674]","1","2","","","5948","119","5","2","win","no-go","1"
"pit-trial","244","1558768","0.0-124.0","battery-v0.2","","""event"",""trial"",""time""
""fullscreenenter"",""1"",""7507""
","
","
","""event"",""trial"",""time""
""fullscreenenter"",""1"",""7507""
","
","","","-1","","","15","5948","3447","b","elianto","#f73b6a7A"," ","-1","0","0","[]","0","2","","","5948","120","6","3","lose","go","1"
"pit-trial","245","1562177","0.0-125.0","battery-v0.2","","""event"",""trial"",""time""
""fullscreenenter"",""1"",""7507""
","
","
","""event"",""trial"",""time""
""fullscreenenter"",""1"",""7507""
","
","","","546","","","15","5948","3447","f","elianto","#3366ff99"," "," ","1","+10","[1397.5]","1","2","","","5948","121","8","1","win","go","0"
"pit-trial","246","1567048","0.0-126.0","battery-v0.2","","""event"",""trial"",""time""
""fullscreenenter"",""1"",""7507""
","
","
","""event"",""trial"",""time""
""fullscreenenter"",""1"",""7507""
","
","","","-1","","","15","5948","3447","t","elianto","#f73b6a7A","-1","-1","1","0","[]","0","2","","","5948","122","7","4","lose","no-go","0"
"pit-trial","247","1570448","0.0-127.0","battery-v0.2","","""event"",""trial"",""time""
""fullscreenenter"",""1"",""7507""
","
","
","""event"",""trial"",""time""
""fullscreenenter"",""1"",""7507""
","
","","","530.6000001430511","","","15","5948","3447","n","elianto","#3366ff99"," "," ","1","0","[1389.2000000476837]","1","2","","","5948","123","9","1","win","go","1"
"pit-trial","248","1575320","0.0-128.0","battery-v0.2","","""event"",""trial"",""time""
""fullscreenenter"",""1"",""7507""
","
","
","""event"",""trial"",""time""
""fullscreenenter"",""1"",""7507""
","
","","","-1","","","15","5948","3447","b","elianto","#f73b6a7A"," ","-1","0","-10","[]","0","2","","","5948","124","6","3","lose","go","0"
"pit-trial","249","1580192","0.0-129.0","battery-v0.2","","""event"",""trial"",""time""
""fullscreenenter"",""1"",""7507""
","
","
","""event"",""trial"",""time""
""fullscreenenter"",""1"",""7507""
","
","","","-1","","","15","5948","3447","t","elianto","#f73b6a7A","-1","-1","1","0","[]","0","2","","","5948","125","7","4","lose","no-go","0"
"pit-trial","250","1583527","0.0-130.0","battery-v0.2","","""event"",""trial"",""time""
""fullscreenenter"",""1"",""7507""
","
","
","""event"",""trial"",""time""
""fullscreenenter"",""1"",""7507""
","
","","","473.09999990463257","","","15","5948","3447","n","elianto","#3366ff99"," "," ","1","+10","[1323.8999998569489]","1","2","","","5948","126","9","1","win","go","0"
"pit-trial","251","1587119","0.0-131.0","battery-v0.2","","""event"",""trial"",""time""
""fullscreenenter"",""1"",""7507""
","
","
","""event"",""trial"",""time""
""fullscreenenter"",""1"",""7507""
","
","","","732.2999999523163","","","15","5948","3447","f","elianto","#3366ff99"," "," ","1","+10","[1583.7999999523163]","1","2","","","5948","127","8","1","win","go","0"
"pit-trial","252","1591984","0.0-132.0","battery-v0.2","","""event"",""trial"",""time""
""fullscreenenter"",""1"",""7507""
","
","
","""event"",""trial"",""time""
""fullscreenenter"",""1"",""7507""
","
","","","-1","","","15","5948","3447","b","elianto","#f73b6a7A"," ","-1","0","-10","[]","0","2","","","5948","128","6","3","lose","go","0"
"pit-trial","253","1596856","0.0-133.0","battery-v0.2","","""event"",""trial"",""time""
""fullscreenenter"",""1"",""7507""
","
","
","""event"",""trial"",""time""
""fullscreenenter"",""1"",""7507""
","
","","","-1","","","15","5948","3447","b","elianto","#f73b6a7A"," ","-1","0","-10","[]","0","2","","","5948","129","6","3","lose","go","0"
"pit-trial","254","1600279","0.0-134.0","battery-v0.2","","""event"",""trial"",""time""
""fullscreenenter"",""1"",""7507""
","
","
","""event"",""trial"",""time""
""fullscreenenter"",""1"",""7507""
","
","","","560.1000001430511","","","15","5948","3447","f","elianto","#3366ff99"," "," ","1","+10","[1413]","1","2","","","5948","130","8","1","win","go","0"
"pit-trial","255","1605137","0.0-135.0","battery-v0.2","","""event"",""trial"",""time""
""fullscreenenter"",""1"",""7507""
","
","
","""event"",""trial"",""time""
""fullscreenenter"",""1"",""7507""
","
","","","-1","","","15","5948","3447","t","elianto","#f73b6a7A","-1","-1","1","0","[]","0","2","","","5948","131","7","4","lose","no-go","0"
"pit-trial","256","1608953","0.0-136.0","battery-v0.2","","""event"",""trial"",""time""
""fullscreenenter"",""1"",""7507""
","
","
","""event"",""trial"",""time""
""fullscreenenter"",""1"",""7507""
","
","","","952.2999999523163","","","15","5948","3447","n","elianto","#3366ff99"," "," ","1","+10","[1803]","1","2","","","5948","132","9","1","win","go","0"
"pit-trial","257","1613010","0.0-137.0","battery-v0.2","","""event"",""trial"",""time""
""fullscreenenter"",""1"",""7507""
","
","
","""event"",""trial"",""time""
""fullscreenenter"",""1"",""7507""
","
","","","1195.6999998092651","","","15","5948","3447","f","elianto","#3366ff99"," "," ","1","0","[2046.5]","1","2","","","5948","133","8","1","win","go","1"
"pit-trial","258","1617883","0.0-138.0","battery-v0.2","","""event"",""trial"",""time""
""fullscreenenter"",""1"",""7507""
","
","
","""event"",""trial"",""time""
""fullscreenenter"",""1"",""7507""
","
","","","-1","","","15","5948","3447","t","elianto","#f73b6a7A","-1","-1","1","0","[]","0","2","","","5948","134","7","4","lose","no-go","0"
"pit-trial","259","1622753","0.0-139.0","battery-v0.2","","""event"",""trial"",""time""
""fullscreenenter"",""1"",""7507""
","
","
","""event"",""trial"",""time""
""fullscreenenter"",""1"",""7507""
","
","","","-1","","","15","5948","3447","b","elianto","#f73b6a7A"," ","-1","0","-10","[]","0","2","","","5948","135","6","3","lose","go","0"
"pit-trial","260","1626249","0.0-140.0","battery-v0.2","","""event"",""trial"",""time""
""fullscreenenter"",""1"",""7507""
","
","
","""event"",""trial"",""time""
""fullscreenenter"",""1"",""7507""
","
","","","631.2000000476837","","","15","5948","3447","n","elianto","#3366ff99"," "," ","1","+10","[1483.1000001430511]","1","2","","","5948","136","9","1","win","go","0"
"pit-trial","261","1629810","0.0-141.0","battery-v0.2","","""event"",""trial"",""time""
""fullscreenenter"",""1"",""7507""
","
","
","""event"",""trial"",""time""
""fullscreenenter"",""1"",""7507""
","
","","","695.5999999046326","","","15","5948","3447","n","elianto","#3366ff99"," "," ","1","+10","[1551.5]","1","2","","","5948","137","9","1","win","go","0"
"pit-trial","262","1633434","0.0-142.0","battery-v0.2","","""event"",""trial"",""time""
""fullscreenenter"",""1"",""7507""
","
","
","""event"",""trial"",""time""
""fullscreenenter"",""1"",""7507""
","
","","","756.4000000953674","","","15","5948","3447","f","elianto","#3366ff99"," "," ","1","+10","[1613.1999998092651]","1","2","","","5948","138","8","1","win","go","0"
"pit-trial","263","1637592","0.0-143.0","battery-v0.2","","""event"",""trial"",""time""
""fullscreenenter"",""1"",""7507""
","
","
","""event"",""trial"",""time""
""fullscreenenter"",""1"",""7507""
","
","","","1295.4000000953674","","","15","5948","3447","b","elianto","#f73b6a7A"," "," ","1","0","[2149.7999999523163]","1","2","","","5948","139","6","3","lose","go","0"
"pit-trial","264","1642458","0.0-144.0","battery-v0.2","","""event"",""trial"",""time""
""fullscreenenter"",""1"",""7507""
","
","
","""event"",""trial"",""time""
""fullscreenenter"",""1"",""7507""
","
","","","-1","","","15","5948","3447","t","elianto","#f73b6a7A","-1","-1","1","0","[]","0","2","","","5948","140","7","4","lose","no-go","0"
"pit-instructions","265","1670777","0.0-145.0","battery-v0.2","","""event"",""trial"",""time""
""fullscreenenter"",""1"",""7507""
","
","
","""event"",""trial"",""time""
""fullscreenenter"",""1"",""7507""
","
","","[{""page_index"":0,""viewing_time"":20027.10000014305},{""page_index"":1,""viewing_time"":8302.899999856949}]","28330.700000047684","","","","","","","","","","","","","","","","","","","","","","","",""
"pit-trial","266","1674659","0.0-146.0","battery-v0.2","","""event"",""trial"",""time""
""fullscreenenter"",""1"",""7507""
","
","
","""event"",""trial"",""time""
""fullscreenenter"",""1"",""7507""
","
","","","1002.5","","","15","5948","3447","l","elianto","#3366ff99"," "," ","1","0","[1861.7999999523163]","1","3","","","5948","141","1","1","win","go","1"
"pit-trial","267","1679559","0.0-147.0","battery-v0.2","","""event"",""trial"",""time""
""fullscreenenter"",""1"",""7507""
","
","
","""event"",""trial"",""time""
""fullscreenenter"",""1"",""7507""
","
","","","-1","","","15","5948","3447","u","elianto","#f73b6a7A","-1","-1","1","0","[]","0","3","","","5948","142","0","4","lose","no-go","0"
