"trial_type","trial_index","time_elapsed","internal_node_id","task_version","subject_id","interactions","blur_events","focus_events","fullscreenenter_events","fullscreenexit_events","success","view_history","rt","responses","num_errors","age","subject","participantId","rune","rune_set","hex","correct","choice","accuracy","outcome","keys","total_keys","block","practice","value","sub","trial","stimulus","robot","valence","action","sham"
"pavlovia","0","7","0.0-0.0","battery-v0.2","","""event"",""trial"",""time""
""fullscreenenter"",""1"",""2034""
","
","
","""event"",""trial"",""time""
""fullscreenenter"",""1"",""2034""
","
","","","","","","","","","","","","","","","","","","","","","","","","","","",""
"fullscreen","1","3010","0.0-1.0","battery-v0.2","","""event"",""trial"",""time""
""fullscreenenter"",""1"",""2034""
","
","
","""event"",""trial"",""time""
""fullscreenenter"",""1"",""2034""
","
","true","","","","","","","","","","","","","","","","","","","","","","","","","",""
"pit-instructions","2","10726","0.0-2.0-0.0","battery-v0.2","","""event"",""trial"",""time""
""fullscreenenter"",""1"",""2034""
","
","
","""event"",""trial"",""time""
""fullscreenenter"",""1"",""2034""
","
","","[{""page_index"":0,""viewing_time"":7712.9000000003725}]","7713.4000000003725","","","","","","","","","","","","","","","","","","","","","","","",""
"pit-comprehension","3","18874","0.0-2.0-1.0-0.0","battery-v0.2","","""event"",""trial"",""time""
""fullscreenenter"",""1"",""2034""
","
","
","""event"",""trial"",""time""
""fullscreenenter"",""1"",""2034""
","
","","","8144","[""shark""]","0","16","14688","6034","","","","","","","","","","","","","","","","","","",""
"pit-instructions","4","19992","0.0-2.0-1.0-1.0","battery-v0.2","","""event"",""trial"",""time""
""fullscreenenter"",""1"",""2034""
","
","
","""event"",""trial"",""time""
""fullscreenenter"",""1"",""2034""
","
","","[{""page_index"":0,""viewing_time"":1108.300000000745}]","1108.800000000745","","","","","","","","","","","","","","","","","","","","","","","",""
"pit-comprehension","5","25774","0.0-2.0-2.0-0.0","battery-v0.2","","""event"",""trial"",""time""
""fullscreenenter"",""1"",""2034""
","
","
","""event"",""trial"",""time""
""fullscreenenter"",""1"",""2034""
","
","","","5778.4000000003725","[""tiger""]","0","16","14688","6034","","","","","","","","","","","","","","","","","","",""
"pit-instructions","6","27118","0.0-2.0-2.0-1.0","battery-v0.2","","""event"",""trial"",""time""
""fullscreenenter"",""1"",""2034""
","
","
","""event"",""trial"",""time""
""fullscreenenter"",""1"",""2034""
","
","","[{""page_index"":0,""viewing_time"":1341.7999999988824}]","1342.2999999988824","","","","","","","","","","","","","","","","","","","","","","","",""
"pit-instructions","7","127126","0.0-2.0-3.0","battery-v0.2","","""event"",""trial"",""time""
""fullscreenenter"",""1"",""2034""
","
","
","""event"",""trial"",""time""
""fullscreenenter"",""1"",""2034""
","
","","[{""page_index"":0,""viewing_time"":10551.60000000149},{""page_index"":1,""viewing_time"":7494.0999999996275},{""page_index"":2,""viewing_time"":6287.699999999255},{""page_index"":3,""viewing_time"":5435.5999999996275},{""page_index"":4,""viewing_time"":5795.5},{""page_index"":5,""viewing_time"":5660.60000000149},{""page_index"":6,""viewing_time"":7449.799999998882},{""page_index"":7,""viewing_time"":7056.4000000003725},{""page_index"":8,""viewing_time"":6774.4000000003725},{""page_index"":9,""viewing_time"":9391.900000000373},{""page_index"":10,""viewing_time"":7361.39999999851},{""page_index"":11,""viewing_time"":8442.10000000149},{""page_index"":12,""viewing_time"":6304.0999999996275},{""page_index"":13,""viewing_time"":6001.4000000003725}]","100006.90000000037","","","","","","","","","","","","","","","","","","","","","","","",""
"pit-trial","8","130634","0.0-2.0-4.0-0.0","battery-v0.2","","""event"",""trial"",""time""
""fullscreenenter"",""1"",""2034""
","
","
","""event"",""trial"",""time""
""fullscreenenter"",""1"",""2034""
","
","","","642.2000000011176","","","16","14688","6034","&#9784;","elianto","#FFFFF080"," "," ","1","&#10004","[1495]","1","0","0","","","","","","","",""
"pit-trial","9","134075","0.0-2.0-4.1-0.1","battery-v0.2","","""event"",""trial"",""time""
""fullscreenenter"",""1"",""2034""
","
","
","""event"",""trial"",""time""
""fullscreenenter"",""1"",""2034""
","
","","","570.3000000007451","","","16","14688","6034","&#9784;","elianto","#FFFFF080"," "," ","1","&#10004","[1433.3999999985099]","1","0","0","","","","","","","",""
"pit-trial","10","137675","0.0-2.0-4.2-0.2","battery-v0.2","","""event"",""trial"",""time""
""fullscreenenter"",""1"",""2034""
","
","
","""event"",""trial"",""time""
""fullscreenenter"",""1"",""2034""
","
","","","730.4000000003725","","","16","14688","6034","&#9784;","elianto","#FFFFF080"," "," ","1","&#10004","[1583.800000000745]","1","0","0","","","","","","","",""
"pit-trial","11","141255","0.0-2.0-4.3-0.3","battery-v0.2","","""event"",""trial"",""time""
""fullscreenenter"",""1"",""2034""
","
","
","""event"",""trial"",""time""
""fullscreenenter"",""1"",""2034""
","
","","","712.1999999992549","","","16","14688","6034","&#9784;","elianto","#FFFFF080"," "," ","1","&#10004","[1563.2999999988824]","1","0","0","","","","","","","",""
"pit-trial","12","144650","0.0-2.0-4.4-0.4","battery-v0.2","","""event"",""trial"",""time""
""fullscreenenter"",""1"",""2034""
","
","
","""event"",""trial"",""time""
""fullscreenenter"",""1"",""2034""
","
","","","533.6999999992549","","","16","14688","6034","&#9784;","elianto","#FFFFF080"," "," ","1","&#10004","[1385.5]","1","0","0","","","","","","","",""
"pit-instructions","13","168815","0.0-2.0-5.0","battery-v0.2","","""event"",""trial"",""time""
""fullscreenenter"",""1"",""2034""
","
","
","""event"",""trial"",""time""
""fullscreenenter"",""1"",""2034""
","
","","[{""page_index"":0,""viewing_time"":6876.199999999255},{""page_index"":1,""viewing_time"":6388.200000001118},{""page_index"":2,""viewing_time"":5114.5},{""page_index"":3,""viewing_time"":5783.89999999851}]","24162.900000000373","","","","","","","","","","","","","","","","","","","","","","","",""
"pit-trial","14","173675","0.0-2.0-6.0-0.0","battery-v0.2","","""event"",""trial"",""time""
""fullscreenenter"",""1"",""2034""
","
","
","""event"",""trial"",""time""
""fullscreenenter"",""1"",""2034""
","
","","","-1","","","16","14688","6034","&#9854;","elianto","#FFFFF080","-1","-1","1","&#10004","[]","0","0","1","","","","","","","",""
"pit-trial","15","178543","0.0-2.0-6.1-0.1","battery-v0.2","","""event"",""trial"",""time""
""fullscreenenter"",""1"",""2034""
","
","
","""event"",""trial"",""time""
""fullscreenenter"",""1"",""2034""
","
","","","-1","","","16","14688","6034","&#9854;","elianto","#FFFFF080","-1","-1","1","&#10004","[]","0","0","1","","","","","","","",""
"pit-trial","16","183400","0.0-2.0-6.2-0.2","battery-v0.2","","""event"",""trial"",""time""
""fullscreenenter"",""1"",""2034""
","
","
","""event"",""trial"",""time""
""fullscreenenter"",""1"",""2034""
","
","","","-1","","","16","14688","6034","&#9854;","elianto","#FFFFF080","-1","-1","1","&#10004","[]","0","0","1","","","","","","","",""
"pit-trial","17","188263","0.0-2.0-6.3-0.3","battery-v0.2","","""event"",""trial"",""time""
""fullscreenenter"",""1"",""2034""
","
","
","""event"",""trial"",""time""
""fullscreenenter"",""1"",""2034""
","
","","","-1","","","16","14688","6034","&#9854;","elianto","#FFFFF080","-1","-1","1","&#10004","[]","0","0","1","","","","","","","",""
"pit-trial","18","193136","0.0-2.0-6.4-0.4","battery-v0.2","","""event"",""trial"",""time""
""fullscreenenter"",""1"",""2034""
","
","
","""event"",""trial"",""time""
""fullscreenenter"",""1"",""2034""
","
","","","-1","","","16","14688","6034","&#9854;","elianto","#FFFFF080","-1","-1","1","&#10004","[]","0","0","1","","","","","","","",""
"pit-instructions","19","316120","0.0-2.0-7.0","battery-v0.2","","""event"",""trial"",""time""
""fullscreenenter"",""1"",""2034""
","
","
","""event"",""trial"",""time""
""fullscreenenter"",""1"",""2034""
","
","","[{""page_index"":0,""viewing_time"":6115.299999998882},{""page_index"":1,""viewing_time"":8591.900000000373},{""page_index"":2,""viewing_time"":6097.5},{""page_index"":3,""viewing_time"":6377.0999999996275},{""page_index"":4,""viewing_time"":5680.4000000003725},{""page_index"":5,""viewing_time"":7101.800000000745},{""page_index"":6,""viewing_time"":5384},{""page_index"":7,""viewing_time"":8328.699999999255},{""page_index"":8,""viewing_time"":7789},{""page_index"":9,""viewing_time"":7019.5},{""page_index"":10,""viewing_time"":6656.199999999255},{""page_index"":11,""viewing_time"":4549.200000001118},{""page_index"":12,""viewing_time"":6858},{""page_index"":13,""viewing_time"":7733.699999999255},{""page_index"":14,""viewing_time"":7598.0999999996275},{""page_index"":15,""viewing_time"":6565.60000000149},{""page_index"":16,""viewing_time"":7092.299999998882},{""page_index"":17,""viewing_time"":7443.5999999996275}]","122982.29999999888","","","","","","","","","","","","","","","","","","","","","","","",""
"pit-trial","20","320012","0.0-2.0-8.0-0.0","battery-v0.2","","""event"",""trial"",""time""
""fullscreenenter"",""1"",""2034""
","
","
","""event"",""trial"",""time""
""fullscreenenter"",""1"",""2034""
","
","","","1016.5","","","16","14688","6034","&#9776;","elianto","#3366ff99"," "," ","1","+10","[1876.6000000014901]","1","0","1","","","","","","","",""
"pit-trial","21","323613","0.0-2.0-8.0-1.0","battery-v0.2","","""event"",""trial"",""time""
""fullscreenenter"",""1"",""2034""
","
","
","""event"",""trial"",""time""
""fullscreenenter"",""1"",""2034""
","
","","","724.0999999996275","","","16","14688","6034","&#9776;","elianto","#3366ff99"," "," ","1","+10","[1584.7999999988824]","1","0","1","","","","","","","",""
"pit-trial","22","327268","0.0-2.0-8.0-2.0","battery-v0.2","","""event"",""trial"",""time""
""fullscreenenter"",""1"",""2034""
","
","
","""event"",""trial"",""time""
""fullscreenenter"",""1"",""2034""
","
","","","798.5999999996275","","","16","14688","6034","&#9776;","elianto","#3366ff99"," "," ","1","+10","[1651.7999999988824]","1","0","1","","","","","","","",""
"pit-trial","23","330734","0.0-2.0-8.0-3.0","battery-v0.2","","""event"",""trial"",""time""
""fullscreenenter"",""1"",""2034""
","
","
","""event"",""trial"",""time""
""fullscreenenter"",""1"",""2034""
","
","","","607.2999999988824","","","16","14688","6034","&#9776;","elianto","#3366ff99"," "," ","1","0","[1463.2999999988824]","1","0","1","","","","","","","",""
"pit-trial","24","334441","0.0-2.0-8.0-4.0","battery-v0.2","","""event"",""trial"",""time""
""fullscreenenter"",""1"",""2034""
","
","
","""event"",""trial"",""time""
""fullscreenenter"",""1"",""2034""
","
","","","845.2000000011176","","","16","14688","6034","&#9776;","elianto","#3366ff99"," "," ","1","+10","[1697.7999999988824]","1","0","1","","","","","","","",""
"pit-trial","25","337913","0.0-2.0-8.1-0.1","battery-v0.2","","""event"",""trial"",""time""
""fullscreenenter"",""1"",""2034""
","
","
","""event"",""trial"",""time""
""fullscreenenter"",""1"",""2034""
","
","","","598.3999999985099","","","16","14688","6034","&#9776;","elianto","#3366ff99"," "," ","1","+10","[1458.7999999988824]","1","0","1","","","","","","","",""
"pit-trial","26","341443","0.0-2.0-8.1-1.1","battery-v0.2","","""event"",""trial"",""time""
""fullscreenenter"",""1"",""2034""
","
","
","""event"",""trial"",""time""
""fullscreenenter"",""1"",""2034""
","
","","","673.7000000011176","","","16","14688","6034","&#9776;","elianto","#3366ff99"," "," ","1","+10","[1526.800000000745]","1","0","1","","","","","","","",""
"pit-trial","27","344853","0.0-2.0-8.1-2.1","battery-v0.2","","""event"",""trial"",""time""
""fullscreenenter"",""1"",""2034""
","
","
","""event"",""trial"",""time""
""fullscreenenter"",""1"",""2034""
","
","","","545.8000000007451","","","16","14688","6034","&#9776;","elianto","#3366ff99"," "," ","1","+10","[1399.800000000745]","1","0","1","","","","","","","",""
"pit-trial","28","348363","0.0-2.0-8.1-3.1","battery-v0.2","","""event"",""trial"",""time""
""fullscreenenter"",""1"",""2034""
","
","
","""event"",""trial"",""time""
""fullscreenenter"",""1"",""2034""
","
","","","658","","","16","14688","6034","&#9776;","elianto","#3366ff99"," "," ","1","0","[1508.199999999255]","1","0","1","","","","","","","",""
"pit-trial","29","351929","0.0-2.0-8.1-4.1","battery-v0.2","","""event"",""trial"",""time""
""fullscreenenter"",""1"",""2034""
","
","
","""event"",""trial"",""time""
""fullscreenenter"",""1"",""2034""
","
","","","713.5","","","16","14688","6034","&#9776;","elianto","#3366ff99"," "," ","1","+10","[1564.3999999985099]","1","0","1","","","","","","","",""
"pit-trial","30","355454","0.0-2.0-8.2-0.2","battery-v0.2","","""event"",""trial"",""time""
""fullscreenenter"",""1"",""2034""
","
","
","""event"",""trial"",""time""
""fullscreenenter"",""1"",""2034""
","
","","","670.2999999988824","","","16","14688","6034","&#9776;","elianto","#3366ff99"," "," ","1","+10","[1521.8999999985099]","1","0","1","","","","","","","",""
"pit-trial","31","359033","0.0-2.0-8.2-1.2","battery-v0.2","","""event"",""trial"",""time""
""fullscreenenter"",""1"",""2034""
","
","
","""event"",""trial"",""time""
""fullscreenenter"",""1"",""2034""
","
","","","726.5","","","16","14688","6034","&#9776;","elianto","#3366ff99"," "," ","1","+10","[1577.800000000745]","1","0","1","","","","","","","",""
"pit-trial","32","362502","0.0-2.0-8.2-2.2","battery-v0.2","","""event"",""trial"",""time""
""fullscreenenter"",""1"",""2034""
","
","
","""event"",""trial"",""time""
""fullscreenenter"",""1"",""2034""
","
","","","617","","","16","14688","6034","&#9776;","elianto","#3366ff99"," "," ","1","+10","[1467]","1","0","1","","","","","","","",""
"pit-trial","33","365838","0.0-2.0-8.2-3.2","battery-v0.2","","""event"",""trial"",""time""
""fullscreenenter"",""1"",""2034""
","
","
","""event"",""trial"",""time""
""fullscreenenter"",""1"",""2034""
","
","","","482.90000000037253","","","16","14688","6034","&#9776;","elianto","#3366ff99"," "," ","1","0","[1333.7999999988824]","1","0","1","","","","","","","",""
"pit-trial","34","369245","0.0-2.0-8.2-4.2","battery-v0.2","","""event"",""trial"",""time""
""fullscreenenter"",""1"",""2034""
","
","
","""event"",""trial"",""time""
""fullscreenenter"",""1"",""2034""
","
","","","553.3999999985099","","","16","14688","6034","&#9776;","elianto","#3366ff99"," "," ","1","+10","[1404.5]","1","0","1","","","","","","","",""
"call-function","35","369247","0.0-2.0-9.0","battery-v0.2","","""event"",""trial"",""time""
""fullscreenenter"",""1"",""2034""
","
","
","""event"",""trial"",""time""
""fullscreenenter"",""1"",""2034""
","
","","","","","","","","","","","","","","","","","","","","","","","","","","",""
"pit-instructions","36","410536","0.0-2.0-10.0","battery-v0.2","","""event"",""trial"",""time""
""fullscreenenter"",""1"",""2034""
","
","
","""event"",""trial"",""time""
""fullscreenenter"",""1"",""2034""
","
","","[{""page_index"":0,""viewing_time"":6365.200000001118},{""page_index"":1,""viewing_time"":7807.5},{""page_index"":2,""viewing_time"":9664.299999998882},{""page_index"":3,""viewing_time"":9185.700000001118},{""page_index"":4,""viewing_time"":8265.900000000373}]","41288.800000000745","","","","","","","","","","","","","","","","","","","","","","","",""
"pit-trial","37","415403","0.0-2.0-11.0-0.0","battery-v0.2","","""event"",""trial"",""time""
""fullscreenenter"",""1"",""2034""
","
","
","""event"",""trial"",""time""
""fullscreenenter"",""1"",""2034""
","
","","","-1","","","16","14688","6034","&#9761;","elianto","#3366ff99","-1","-1","1","+10","[]","0","0","2","","","","","","","",""
"pit-trial","38","420279","0.0-2.0-11.0-1.0","battery-v0.2","","""event"",""trial"",""time""
""fullscreenenter"",""1"",""2034""
","
","
","""event"",""trial"",""time""
""fullscreenenter"",""1"",""2034""
","
","","","-1","","","16","14688","6034","&#9761;","elianto","#3366ff99","-1","-1","1","+10","[]","0","0","2","","","","","","","",""
"pit-trial","39","425143","0.0-2.0-11.0-2.0","battery-v0.2","","""event"",""trial"",""time""
""fullscreenenter"",""1"",""2034""
","
","
","""event"",""trial"",""time""
""fullscreenenter"",""1"",""2034""
","
","","","-1","","","16","14688","6034","&#9761;","elianto","#3366ff99","-1","-1","1","+10","[]","0","0","2","","","","","","","",""
"pit-trial","40","430018","0.0-2.0-11.0-3.0","battery-v0.2","","""event"",""trial"",""time""
""fullscreenenter"",""1"",""2034""
","
","
","""event"",""trial"",""time""
""fullscreenenter"",""1"",""2034""
","
","","","-1","","","16","14688","6034","&#9761;","elianto","#3366ff99","-1","-1","1","0","[]","0","0","2","","","","","","","",""
"pit-trial","41","434897","0.0-2.0-11.0-4.0","battery-v0.2","","""event"",""trial"",""time""
""fullscreenenter"",""1"",""2034""
","
","
","""event"",""trial"",""time""
""fullscreenenter"",""1"",""2034""
","
","","","-1","","","16","14688","6034","&#9761;","elianto","#3366ff99","-1","-1","1","+10","[]","0","0","2","","","","","","","",""
"pit-trial","42","439759","0.0-2.0-11.1-0.1","battery-v0.2","","""event"",""trial"",""time""
""fullscreenenter"",""1"",""2034""
","
","
","""event"",""trial"",""time""
""fullscreenenter"",""1"",""2034""
","
","","","-1","","","16","14688","6034","&#9761;","elianto","#3366ff99","-1","-1","1","+10","[]","0","0","2","","","","","","","",""
"pit-trial","43","444611","0.0-2.0-11.1-1.1","battery-v0.2","","""event"",""trial"",""time""
""fullscreenenter"",""1"",""2034""
","
","
","""event"",""trial"",""time""
""fullscreenenter"",""1"",""2034""
","
","","","-1","","","16","14688","6034","&#9761;","elianto","#3366ff99","-1","-1","1","+10","[]","0","0","2","","","","","","","",""
"pit-trial","44","449465","0.0-2.0-11.1-2.1","battery-v0.2","","""event"",""trial"",""time""
""fullscreenenter"",""1"",""2034""
","
","
","""event"",""trial"",""time""
""fullscreenenter"",""1"",""2034""
","
","","","-1","","","16","14688","6034","&#9761;","elianto","#3366ff99","-1","-1","1","+10","[]","0","0","2","","","","","","","",""
"pit-trial","45","454319","0.0-2.0-11.1-3.1","battery-v0.2","","""event"",""trial"",""time""
""fullscreenenter"",""1"",""2034""
","
","
","""event"",""trial"",""time""
""fullscreenenter"",""1"",""2034""
","
","","","-1","","","16","14688","6034","&#9761;","elianto","#3366ff99","-1","-1","1","0","[]","0","0","2","","","","","","","",""
"pit-trial","46","459172","0.0-2.0-11.1-4.1","battery-v0.2","","""event"",""trial"",""time""
""fullscreenenter"",""1"",""2034""
","
","
","""event"",""trial"",""time""
""fullscreenenter"",""1"",""2034""
","
","","","-1","","","16","14688","6034","&#9761;","elianto","#3366ff99","-1","-1","1","+10","[]","0","0","2","","","","","","","",""
"pit-trial","47","464025","0.0-2.0-11.2-0.2","battery-v0.2","","""event"",""trial"",""time""
""fullscreenenter"",""1"",""2034""
","
","
","""event"",""trial"",""time""
""fullscreenenter"",""1"",""2034""
","
","","","-1","","","16","14688","6034","&#9761;","elianto","#3366ff99","-1","-1","1","+10","[]","0","0","2","","","","","","","",""
"pit-trial","48","468879","0.0-2.0-11.2-1.2","battery-v0.2","","""event"",""trial"",""time""
""fullscreenenter"",""1"",""2034""
","
","
","""event"",""trial"",""time""
""fullscreenenter"",""1"",""2034""
","
","","","-1","","","16","14688","6034","&#9761;","elianto","#3366ff99","-1","-1","1","+10","[]","0","0","2","","","","","","","",""
"pit-trial","49","473735","0.0-2.0-11.2-2.2","battery-v0.2","","""event"",""trial"",""time""
""fullscreenenter"",""1"",""2034""
","
","
","""event"",""trial"",""time""
""fullscreenenter"",""1"",""2034""
","
","","","-1","","","16","14688","6034","&#9761;","elianto","#3366ff99","-1","-1","1","+10","[]","0","0","2","","","","","","","",""
"pit-trial","50","478589","0.0-2.0-11.2-3.2","battery-v0.2","","""event"",""trial"",""time""
""fullscreenenter"",""1"",""2034""
","
","
","""event"",""trial"",""time""
""fullscreenenter"",""1"",""2034""
","
","","","-1","","","16","14688","6034","&#9761;","elianto","#3366ff99","-1","-1","1","0","[]","0","0","2","","","","","","","",""
"pit-trial","51","483443","0.0-2.0-11.2-4.2","battery-v0.2","","""event"",""trial"",""time""
""fullscreenenter"",""1"",""2034""
","
","
","""event"",""trial"",""time""
""fullscreenenter"",""1"",""2034""
","
","","","-1","","","16","14688","6034","&#9761;","elianto","#3366ff99","-1","-1","1","+10","[]","0","0","2","","","","","","","",""
"pit-trial","52","488295","0.0-2.0-11.3-0.3","battery-v0.2","","""event"",""trial"",""time""
""fullscreenenter"",""1"",""2034""
","
","
","""event"",""trial"",""time""
""fullscreenenter"",""1"",""2034""
","
","","","-1","","","16","14688","6034","&#9761;","elianto","#3366ff99","-1","-1","1","+10","[]","0","0","2","","","","","","","",""
"pit-trial","53","493148","0.0-2.0-11.3-1.3","battery-v0.2","","""event"",""trial"",""time""
""fullscreenenter"",""1"",""2034""
","
","
","""event"",""trial"",""time""
""fullscreenenter"",""1"",""2034""
","
","","","-1","","","16","14688","6034","&#9761;","elianto","#3366ff99","-1","-1","1","+10","[]","0","0","2","","","","","","","",""
"pit-trial","54","498001","0.0-2.0-11.3-2.3","battery-v0.2","","""event"",""trial"",""time""
""fullscreenenter"",""1"",""2034""
","
","
","""event"",""trial"",""time""
""fullscreenenter"",""1"",""2034""
","
","","","-1","","","16","14688","6034","&#9761;","elianto","#3366ff99","-1","-1","1","+10","[]","0","0","2","","","","","","","",""
"pit-trial","55","502853","0.0-2.0-11.3-3.3","battery-v0.2","","""event"",""trial"",""time""
""fullscreenenter"",""1"",""2034""
","
","
","""event"",""trial"",""time""
""fullscreenenter"",""1"",""2034""
","
","","","-1","","","16","14688","6034","&#9761;","elianto","#3366ff99","-1","-1","1","0","[]","0","0","2","","","","","","","",""
"pit-trial","56","507707","0.0-2.0-11.3-4.3","battery-v0.2","","""event"",""trial"",""time""
""fullscreenenter"",""1"",""2034""
","
","
","""event"",""trial"",""time""
""fullscreenenter"",""1"",""2034""
","
","","","-1","","","16","14688","6034","&#9761;","elianto","#3366ff99","-1","-1","1","+10","[]","0","0","2","","","","","","","",""
"call-function","57","507708","0.0-2.0-12.0","battery-v0.2","","""event"",""trial"",""time""
""fullscreenenter"",""1"",""2034""
","
","
","""event"",""trial"",""time""
""fullscreenenter"",""1"",""2034""
","
","","","","","","","","","","","","","","","","","","","","","","","","","","",""
"pit-instructions","58","540766","0.0-2.0-13.0","battery-v0.2","","""event"",""trial"",""time""
""fullscreenenter"",""1"",""2034""
","
","
","""event"",""trial"",""time""
""fullscreenenter"",""1"",""2034""
","
","","[{""page_index"":0,""viewing_time"":5495.0999999996275},{""page_index"":1,""viewing_time"":7185.5},{""page_index"":2,""viewing_time"":4910},{""page_index"":3,""viewing_time"":10427.099999999627},{""page_index"":4,""viewing_time"":5039.0999999996275}]","33057.09999999963","","","","","","","","","","","","","","","","","","","","","","","",""
"pit-trial","59","544226","0.0-2.0-14.0-0.0","battery-v0.2","","""event"",""trial"",""time""
""fullscreenenter"",""1"",""2034""
","
","
","""event"",""trial"",""time""
""fullscreenenter"",""1"",""2034""
","
","","","595.7999999988824","","","16","14688","6034","&#9826;","elianto","#f73b6a7A","-1"," ","0","-10","[1448.5999999996275]","1","0","3","","","","","","","",""
"pit-trial","60","549090","0.0-2.0-14.0-1.0","battery-v0.2","","""event"",""trial"",""time""
""fullscreenenter"",""1"",""2034""
","
","
","""event"",""trial"",""time""
""fullscreenenter"",""1"",""2034""
","
","","","-1","","","16","14688","6034","&#9826;","elianto","#f73b6a7A","-1","-1","1","0","[]","0","0","3","","","","","","","",""
"pit-trial","61","553959","0.0-2.0-14.0-2.0","battery-v0.2","","""event"",""trial"",""time""
""fullscreenenter"",""1"",""2034""
","
","
","""event"",""trial"",""time""
""fullscreenenter"",""1"",""2034""
","
","","","-1","","","16","14688","6034","&#9826;","elianto","#f73b6a7A","-1","-1","1","0","[]","0","0","3","","","","","","","",""
"pit-trial","62","558832","0.0-2.0-14.0-3.0","battery-v0.2","","""event"",""trial"",""time""
""fullscreenenter"",""1"",""2034""
","
","
","""event"",""trial"",""time""
""fullscreenenter"",""1"",""2034""
","
","","","-1","","","16","14688","6034","&#9826;","elianto","#f73b6a7A","-1","-1","1","-10","[]","0","0","3","","","","","","","",""
"pit-trial","63","563693","0.0-2.0-14.0-4.0","battery-v0.2","","""event"",""trial"",""time""
""fullscreenenter"",""1"",""2034""
","
","
","""event"",""trial"",""time""
""fullscreenenter"",""1"",""2034""
","
","","","-1","","","16","14688","6034","&#9826;","elianto","#f73b6a7A","-1","-1","1","0","[]","0","0","3","","","","","","","",""
"pit-trial","64","568562","0.0-2.0-14.1-0.1","battery-v0.2","","""event"",""trial"",""time""
""fullscreenenter"",""1"",""2034""
","
","
","""event"",""trial"",""time""
""fullscreenenter"",""1"",""2034""
","
","","","-1","","","16","14688","6034","&#9826;","elianto","#f73b6a7A","-1","-1","1","0","[]","0","0","3","","","","","","","",""
"pit-trial","65","573416","0.0-2.0-14.1-1.1","battery-v0.2","","""event"",""trial"",""time""
""fullscreenenter"",""1"",""2034""
","
","
","""event"",""trial"",""time""
""fullscreenenter"",""1"",""2034""
","
","","","-1","","","16","14688","6034","&#9826;","elianto","#f73b6a7A","-1","-1","1","0","[]","0","0","3","","","","","","","",""
"pit-trial","66","578269","0.0-2.0-14.1-2.1","battery-v0.2","","""event"",""trial"",""time""
""fullscreenenter"",""1"",""2034""
","
","
","""event"",""trial"",""time""
""fullscreenenter"",""1"",""2034""
","
","","","-1","","","16","14688","6034","&#9826;","elianto","#f73b6a7A","-1","-1","1","0","[]","0","0","3","","","","","","","",""
"pit-trial","67","583123","0.0-2.0-14.1-3.1","battery-v0.2","","""event"",""trial"",""time""
""fullscreenenter"",""1"",""2034""
","
","
","""event"",""trial"",""time""
""fullscreenenter"",""1"",""2034""
","
","","","-1","","","16","14688","6034","&#9826;","elianto","#f73b6a7A","-1","-1","1","-10","[]","0","0","3","","","","","","","",""
"pit-trial","68","587976","0.0-2.0-14.1-4.1","battery-v0.2","","""event"",""trial"",""time""
""fullscreenenter"",""1"",""2034""
","
","
","""event"",""trial"",""time""
""fullscreenenter"",""1"",""2034""
","
","","","-1","","","16","14688","6034","&#9826;","elianto","#f73b6a7A","-1","-1","1","0","[]","0","0","3","","","","","","","",""
"pit-trial","69","592830","0.0-2.0-14.2-0.2","battery-v0.2","","""event"",""trial"",""time""
""fullscreenenter"",""1"",""2034""
","
","
","""event"",""trial"",""time""
""fullscreenenter"",""1"",""2034""
","
","","","-1","","","16","14688","6034","&#9826;","elianto","#f73b6a7A","-1","-1","1","0","[]","0","0","3","","","","","","","",""
"pit-trial","70","597683","0.0-2.0-14.2-1.2","battery-v0.2","","""event"",""trial"",""time""
""fullscreenenter"",""1"",""2034""
","
","
","""event"",""trial"",""time""
""fullscreenenter"",""1"",""2034""
","
","","","-1","","","16","14688","6034","&#9826;","elianto","#f73b6a7A","-1","-1","1","0","[]","0","0","3","","","","","","","",""
"pit-trial","71","602537","0.0-2.0-14.2-2.2","battery-v0.2","","""event"",""trial"",""time""
""fullscreenenter"",""1"",""2034""
","
","
","""event"",""trial"",""time""
""fullscreenenter"",""1"",""2034""
","
","","","-1","","","16","14688","6034","&#9826;","elianto","#f73b6a7A","-1","-1","1","0","[]","0","0","3","","","","","","","",""
"pit-trial","72","607390","0.0-2.0-14.2-3.2","battery-v0.2","","""event"",""trial"",""time""
""fullscreenenter"",""1"",""2034""
","
","
","""event"",""trial"",""time""
""fullscreenenter"",""1"",""2034""
","
","","","-1","","","16","14688","6034","&#9826;","elianto","#f73b6a7A","-1","-1","1","-10","[]","0","0","3","","","","","","","",""
"pit-trial","73","612243","0.0-2.0-14.2-4.2","battery-v0.2","","""event"",""trial"",""time""
""fullscreenenter"",""1"",""2034""
","
","
","""event"",""trial"",""time""
""fullscreenenter"",""1"",""2034""
","
","","","-1","","","16","14688","6034","&#9826;","elianto","#f73b6a7A","-1","-1","1","0","[]","0","0","3","","","","","","","",""
"pit-trial","74","617096","0.0-2.0-14.3-0.3","battery-v0.2","","""event"",""trial"",""time""
""fullscreenenter"",""1"",""2034""
","
","
","""event"",""trial"",""time""
""fullscreenenter"",""1"",""2034""
","
","","","-1","","","16","14688","6034","&#9826;","elianto","#f73b6a7A","-1","-1","1","0","[]","0","0","3","","","","","","","",""
"pit-trial","75","621950","0.0-2.0-14.3-1.3","battery-v0.2","","""event"",""trial"",""time""
""fullscreenenter"",""1"",""2034""
","
","
","""event"",""trial"",""time""
""fullscreenenter"",""1"",""2034""
","
","","","-1","","","16","14688","6034","&#9826;","elianto","#f73b6a7A","-1","-1","1","0","[]","0","0","3","","","","","","","",""
"pit-trial","76","626803","0.0-2.0-14.3-2.3","battery-v0.2","","""event"",""trial"",""time""
""fullscreenenter"",""1"",""2034""
","
","
","""event"",""trial"",""time""
""fullscreenenter"",""1"",""2034""
","
","","","-1","","","16","14688","6034","&#9826;","elianto","#f73b6a7A","-1","-1","1","0","[]","0","0","3","","","","","","","",""
"pit-trial","77","631658","0.0-2.0-14.3-3.3","battery-v0.2","","""event"",""trial"",""time""
""fullscreenenter"",""1"",""2034""
","
","
","""event"",""trial"",""time""
""fullscreenenter"",""1"",""2034""
","
","","","-1","","","16","14688","6034","&#9826;","elianto","#f73b6a7A","-1","-1","1","-10","[]","0","0","3","","","","","","","",""
"pit-trial","78","636512","0.0-2.0-14.3-4.3","battery-v0.2","","""event"",""trial"",""time""
""fullscreenenter"",""1"",""2034""
","
","
","""event"",""trial"",""time""
""fullscreenenter"",""1"",""2034""
","
","","","-1","","","16","14688","6034","&#9826;","elianto","#f73b6a7A","-1","-1","1","0","[]","0","0","3","","","","","","","",""
"call-function","79","636513","0.0-2.0-15.0","battery-v0.2","","""event"",""trial"",""time""
""fullscreenenter"",""1"",""2034""
","
","
","""event"",""trial"",""time""
""fullscreenenter"",""1"",""2034""
","
","","","","","","","","","","","","","","","","","","","","","","","","","","",""
"pit-instructions","80","662865","0.0-2.0-16.0","battery-v0.2","","""event"",""trial"",""time""
""fullscreenenter"",""1"",""2034""
","
","
","""event"",""trial"",""time""
""fullscreenenter"",""1"",""2034""
","
","","[{""page_index"":0,""viewing_time"":7326.5},{""page_index"":1,""viewing_time"":8893.099999999627},{""page_index"":2,""viewing_time"":5094.5999999996275},{""page_index"":3,""viewing_time"":5036.700000001118}]","26351.199999999255","","","","","","","","","","","","","","","","","","","","","","","",""
"pit-trial","81","666212","0.0-2.0-17.0-0.0","battery-v0.2","","""event"",""trial"",""time""
""fullscreenenter"",""1"",""2034""
","
","
","""event"",""trial"",""time""
""fullscreenenter"",""1"",""2034""
","
","","","491.5","","","16","14688","6034","&#9789;","elianto","#f73b6a7A"," "," ","1","0","[1342.0999999996275]","1","0","4","","","","","","","",""
"pit-trial","82","669165","0.0-2.0-17.0-1.0","battery-v0.2","","""event"",""trial"",""time""
""fullscreenenter"",""1"",""2034""
","
","
","""event"",""trial"",""time""
""fullscreenenter"",""1"",""2034""
","
","","","79.29999999888241","","","16","14688","6034","&#9789;","elianto","#f73b6a7A"," "," ","1","0","[940]","1","0","4","","","","","","","",""
"pit-trial","83","672192","0.0-2.0-17.0-2.0","battery-v0.2","","""event"",""trial"",""time""
""fullscreenenter"",""1"",""2034""
","
","
","""event"",""trial"",""time""
""fullscreenenter"",""1"",""2034""
","
","","","156.10000000149012","","","16","14688","6034","&#9789;","elianto","#f73b6a7A"," "," ","1","0","[1013.1000000014901]","1","0","4","","","","","","","",""
"pit-trial","84","677052","0.0-2.0-17.0-3.0","battery-v0.2","","""event"",""trial"",""time""
""fullscreenenter"",""1"",""2034""
","
","
","""event"",""trial"",""time""
""fullscreenenter"",""1"",""2034""
","
","","","-1","","","16","14688","6034","&#9789;","elianto","#f73b6a7A"," ","-1","0","0","[]","0","0","4","","","","","","","",""
"pit-trial","85","680261","0.0-2.0-17.0-4.0","battery-v0.2","","""event"",""trial"",""time""
""fullscreenenter"",""1"",""2034""
","
","
","""event"",""trial"",""time""
""fullscreenenter"",""1"",""2034""
","
","","","351.69999999925494","","","16","14688","6034","&#9789;","elianto","#f73b6a7A"," "," ","1","0","[1202]","1","0","4","","","","","","","",""
"pit-trial","86","683480","0.0-2.0-17.1-0.1","battery-v0.2","","""event"",""trial"",""time""
""fullscreenenter"",""1"",""2034""
","
","
","""event"",""trial"",""time""
""fullscreenenter"",""1"",""2034""
","
","","","352.80000000074506","","","16","14688","6034","&#9789;","elianto","#f73b6a7A"," "," ","1","0","[1204.0999999996275]","1","0","4","","","","","","","",""
"pit-trial","87","686506","0.0-2.0-17.1-1.1","battery-v0.2","","""event"",""trial"",""time""
""fullscreenenter"",""1"",""2034""
","
","
","""event"",""trial"",""time""
""fullscreenenter"",""1"",""2034""
","
","","","166.40000000037253","","","16","14688","6034","&#9789;","elianto","#f73b6a7A"," "," ","1","0","[1017.1999999992549]","1","0","4","","","","","","","",""
"pit-trial","88","689595","0.0-2.0-17.1-2.1","battery-v0.2","","""event"",""trial"",""time""
""fullscreenenter"",""1"",""2034""
","
","
","""event"",""trial"",""time""
""fullscreenenter"",""1"",""2034""
","
","","","234.2000000011176","","","16","14688","6034","&#9789;","elianto","#f73b6a7A"," "," ","1","0","[1087.5999999996275]","1","0","4","","","","","","","",""
"pit-trial","89","692551","0.0-2.0-17.1-3.1","battery-v0.2","","""event"",""trial"",""time""
""fullscreenenter"",""1"",""2034""
","
","
","""event"",""trial"",""time""
""fullscreenenter"",""1"",""2034""
","
","","","100.5","","","16","14688","6034","&#9789;","elianto","#f73b6a7A"," "," ","1","-10","[954.0999999996275]","1","0","4","","","","","","","",""
"pit-trial","90","695625","0.0-2.0-17.1-4.1","battery-v0.2","","""event"",""trial"",""time""
""fullscreenenter"",""1"",""2034""
","
","
","""event"",""trial"",""time""
""fullscreenenter"",""1"",""2034""
","
","","","221.69999999925494","","","16","14688","6034","&#9789;","elianto","#f73b6a7A"," "," ","1","0","[1072.4000000003725]","1","0","4","","","","","","","",""
"pit-trial","91","698684","0.0-2.0-17.2-0.2","battery-v0.2","","""event"",""trial"",""time""
""fullscreenenter"",""1"",""2034""
","
","
","""event"",""trial"",""time""
""fullscreenenter"",""1"",""2034""
","
","","","206","","","16","14688","6034","&#9789;","elianto","#f73b6a7A"," "," ","1","0","[1056.5999999996275]","1","0","4","","","","","","","",""
"pit-trial","92","703544","0.0-2.0-17.2-1.2","battery-v0.2","","""event"",""trial"",""time""
""fullscreenenter"",""1"",""2034""
","
","
","""event"",""trial"",""time""
""fullscreenenter"",""1"",""2034""
","
","","","-1","","","16","14688","6034","&#9789;","elianto","#f73b6a7A"," ","-1","0","-10","[835.6999999992549]","1","0","4","","","","","","","",""
"pit-trial","93","706733","0.0-2.0-17.2-2.2","battery-v0.2","","""event"",""trial"",""time""
""fullscreenenter"",""1"",""2034""
","
","
","""event"",""trial"",""time""
""fullscreenenter"",""1"",""2034""
","
","","","334.69999999925494","","","16","14688","6034","&#9789;","elianto","#f73b6a7A"," "," ","1","0","[1186.5999999996275]","1","0","4","","","","","","","",""
"pit-trial","94","709964","0.0-2.0-17.2-3.2","battery-v0.2","","""event"",""trial"",""time""
""fullscreenenter"",""1"",""2034""
","
","
","""event"",""trial"",""time""
""fullscreenenter"",""1"",""2034""
","
","","","379.90000000037253","","","16","14688","6034","&#9789;","elianto","#f73b6a7A"," "," ","1","-10","[1229.9000000003725]","1","0","4","","","","","","","",""
"pit-trial","95","712988","0.0-2.0-17.2-4.2","battery-v0.2","","""event"",""trial"",""time""
""fullscreenenter"",""1"",""2034""
","
","
","""event"",""trial"",""time""
""fullscreenenter"",""1"",""2034""
","
","","","170.5","","","16","14688","6034","&#9789;","elianto","#f73b6a7A"," "," ","1","0","[1021.5]","1","0","4","","","","","","","",""
"pit-trial","96","715888","0.0-2.0-17.3-0.3","battery-v0.2","","""event"",""trial"",""time""
""fullscreenenter"",""1"",""2034""
","
","
","""event"",""trial"",""time""
""fullscreenenter"",""1"",""2034""
","
","","","47","","","16","14688","6034","&#9789;","elianto","#f73b6a7A"," "," ","1","0","[897.7999999988824]","1","0","4","","","","","","","",""
"pit-trial","97","718979","0.0-2.0-17.3-1.3","battery-v0.2","","""event"",""trial"",""time""
""fullscreenenter"",""1"",""2034""
","
","
","""event"",""trial"",""time""
""fullscreenenter"",""1"",""2034""
","
","","","237.7000000011176","","","16","14688","6034","&#9789;","elianto","#f73b6a7A"," "," ","1","0","[1088.300000000745]","1","0","4","","","","","","","",""
"pit-trial","98","721927","0.0-2.0-17.3-2.3","battery-v0.2","","""event"",""trial"",""time""
""fullscreenenter"",""1"",""2034""
","
","
","""event"",""trial"",""time""
""fullscreenenter"",""1"",""2034""
","
","","","95","","","16","14688","6034","&#9789;","elianto","#f73b6a7A"," "," ","1","0","[945.7000000011176]","1","0","4","","","","","","","",""
"pit-trial","99","724808","0.0-2.0-17.3-3.3","battery-v0.2","","""event"",""trial"",""time""
""fullscreenenter"",""1"",""2034""
","
","
","""event"",""trial"",""time""
""fullscreenenter"",""1"",""2034""
","
","","","27.90000000037253","","","16","14688","6034","&#9789;","elianto","#f73b6a7A"," "," ","1","-10","[878.5999999996275]","1","0","4","","","","","","","",""
"pit-trial","100","727776","0.0-2.0-17.3-4.3","battery-v0.2","","""event"",""trial"",""time""
""fullscreenenter"",""1"",""2034""
","
","
","""event"",""trial"",""time""
""fullscreenenter"",""1"",""2034""
","
","","","115.80000000074506","","","16","14688","6034","&#9789;","elianto","#f73b6a7A"," "," ","1","0","[966.3000000007451]","1","0","4","","","","","","","",""
"call-function","101","727777","0.0-2.0-18.0","battery-v0.2","","""event"",""trial"",""time""
""fullscreenenter"",""1"",""2034""
","
","
","""event"",""trial"",""time""
""fullscreenenter"",""1"",""2034""
","
","","","","","","","","","","","","","","","","","","","","","","","","","","",""
"pit-instructions","102","798379","0.0-2.0-19.0","battery-v0.2","","""event"",""trial"",""time""
""fullscreenenter"",""1"",""2034""
","
","
","""event"",""trial"",""time""
""fullscreenenter"",""1"",""2034""
","
","","[{""page_index"":0,""viewing_time"":8613.699999999255},{""page_index"":1,""viewing_time"":6795.10000000149},{""page_index"":2,""viewing_time"":13275},{""page_index"":3,""viewing_time"":7352.199999999255},{""page_index"":4,""viewing_time"":8460.800000000745},{""page_index"":5,""viewing_time"":8013.39999999851},{""page_index"":6,""viewing_time"":8465.200000001118},{""page_index"":7,""viewing_time"":5861.5999999996275},{""page_index"":8,""viewing_time"":3763.0999999996275}]","70600.59999999963","","","","","","","","","","","","","","","","","","","","","","","",""
"pit-comprehension","103","803951","0.0-2.0-20.0-0.0","battery-v0.2","","""event"",""trial"",""time""
""fullscreenenter"",""1"",""2034""
","
","
","""event"",""trial"",""time""
""fullscreenenter"",""1"",""2034""
","
","","","5568.199999999255","[""SPACE""]","0","16","14688","6034","","","","","","","","","","","","","","","","","","",""
"pit-instructions","104","806569","0.0-2.0-20.0-1.0","battery-v0.2","","""event"",""trial"",""time""
""fullscreenenter"",""1"",""2034""
","
","
","""event"",""trial"",""time""
""fullscreenenter"",""1"",""2034""
","
","","[{""page_index"":0,""viewing_time"":2583.800000000745}]","2584.0999999996275","","","","","","","","","","","","","","","","","","","","","","","",""
"pit-comprehension","105","812528","0.0-2.0-21.0-0.0","battery-v0.2","","""event"",""trial"",""time""
""fullscreenenter"",""1"",""2034""
","
","
","""event"",""trial"",""time""
""fullscreenenter"",""1"",""2034""
","
","","","5956.700000001118","[""10""]","0","16","14688","6034","","","","","","","","","","","","","","","","","","",""
"pit-instructions","106","814411","0.0-2.0-21.0-1.0","battery-v0.2","","""event"",""trial"",""time""
""fullscreenenter"",""1"",""2034""
","
","
","""event"",""trial"",""time""
""fullscreenenter"",""1"",""2034""
","
","","[{""page_index"":0,""viewing_time"":1860.2000000011176}]","1860.9000000003725","","","","","","","","","","","","","","","","","","","","","","","",""
"pit-comprehension","107","820591","0.0-2.0-22.0-0.0","battery-v0.2","","""event"",""trial"",""time""
""fullscreenenter"",""1"",""2034""
","
","
","""event"",""trial"",""time""
""fullscreenenter"",""1"",""2034""
","
","","","6177.39999999851","[""0""]","0","16","14688","6034","","","","","","","","","","","","","","","","","","",""
"pit-instructions","108","822576","0.0-2.0-22.0-1.0","battery-v0.2","","""event"",""trial"",""time""
""fullscreenenter"",""1"",""2034""
","
","
","""event"",""trial"",""time""
""fullscreenenter"",""1"",""2034""
","
","","[{""page_index"":0,""viewing_time"":1960.300000000745}]","1960.5","","","","","","","","","","","","","","","","","","","","","","","",""
"pit-comprehension","109","833296","0.0-2.0-23.0-0.0","battery-v0.2","","""event"",""trial"",""time""
""fullscreenenter"",""1"",""2034""
","
","
","""event"",""trial"",""time""
""fullscreenenter"",""1"",""2034""
","
","","","10716","[""True""]","0","16","14688","6034","","","","","","","","","","","","","","","","","","",""
"pit-instructions","110","834911","0.0-2.0-23.0-1.0","battery-v0.2","","""event"",""trial"",""time""
""fullscreenenter"",""1"",""2034""
","
","
","""event"",""trial"",""time""
""fullscreenenter"",""1"",""2034""
","
","","[{""page_index"":0,""viewing_time"":1591.0999999996275}]","1591.2999999988824","","","","","","","","","","","","","","","","","","","","","","","",""
"pit-comprehension","111","842404","0.0-2.0-24.0-0.0","battery-v0.2","","""event"",""trial"",""time""
""fullscreenenter"",""1"",""2034""
","
","
","""event"",""trial"",""time""
""fullscreenenter"",""1"",""2034""
","
","","","7490.4000000003725","[""True""]","0","16","14688","6034","","","","","","","","","","","","","","","","","","",""
"pit-instructions","112","844191","0.0-2.0-24.0-1.0","battery-v0.2","","""event"",""trial"",""time""
""fullscreenenter"",""1"",""2034""
","
","
","""event"",""trial"",""time""
""fullscreenenter"",""1"",""2034""
","
","","[{""page_index"":0,""viewing_time"":1760}]","1760.4000000003725","","","","","","","","","","","","","","","","","","","","","","","",""
"pit-comprehension","113","852730","0.0-2.0-25.0-0.0","battery-v0.2","","""event"",""trial"",""time""
""fullscreenenter"",""1"",""2034""
","
","
","""event"",""trial"",""time""
""fullscreenenter"",""1"",""2034""
","
","","","8536.699999999255","[""True""]","0","16","14688","6034","","","","","","","","","","","","","","","","","","",""
"pit-instructions","114","854183","0.0-2.0-25.0-1.0","battery-v0.2","","""event"",""trial"",""time""
""fullscreenenter"",""1"",""2034""
","
","
","""event"",""trial"",""time""
""fullscreenenter"",""1"",""2034""
","
","","[{""page_index"":0,""viewing_time"":1425.5}]","1425.7999999988824","","","","","","","","","","","","","","","","","","","","","","","",""
"pit-comprehension","115","859947","0.0-2.0-26.0-0.0","battery-v0.2","","""event"",""trial"",""time""
""fullscreenenter"",""1"",""2034""
","
","
","""event"",""trial"",""time""
""fullscreenenter"",""1"",""2034""
","
","","","5761.10000000149","[""False""]","0","16","14688","6034","","","","","","","","","","","","","","","","","","",""
"pit-instructions","116","861047","0.0-2.0-26.0-1.0","battery-v0.2","","""event"",""trial"",""time""
""fullscreenenter"",""1"",""2034""
","
","
","""event"",""trial"",""time""
""fullscreenenter"",""1"",""2034""
","
","","[{""page_index"":0,""viewing_time"":1075.9000000003725}]","1076","","","","","","","","","","","","","","","","","","","","","","","",""
"pit-instructions","117","878822","0.0-3.0","battery-v0.2","","""event"",""trial"",""time""
""fullscreenenter"",""1"",""2034""
","
","
","""event"",""trial"",""time""
""fullscreenenter"",""1"",""2034""
","
","","[{""page_index"":0,""viewing_time"":4323.9000000003725},{""page_index"":1,""viewing_time"":5809.5999999996275},{""page_index"":2,""viewing_time"":7640.800000000745}]","17774.599999999627","","","","","","","","","","","","","","","","","","","","","","","",""
"pit-trial","118","882298","0.0-4.0","battery-v0.2","","""event"",""trial"",""time""
""fullscreenenter"",""1"",""2034""
","
","
","""event"",""trial"",""time""
""fullscreenenter"",""1"",""2034""
","
","","","614.2000000011176","","","16","14688","6034","&#9733;","elianto","#3366ff99","-1"," ","0","0","[1469.7000000011176]","1","1","","","14688","1","2","2","win","no-go","0"
"pit-trial","119","885913","0.0-5.0","battery-v0.2","","""event"",""trial"",""time""
""fullscreenenter"",""1"",""2034""
","
","
","""event"",""trial"",""time""
""fullscreenenter"",""1"",""2034""
","
","","","750.0999999996275","","","16","14688","6034","&#9752;","elianto","#f73b6a7A"," "," ","1","-10","[1603.5999999996275]","1","1","","","14688","2","3","3","lose","go","1"
"pit-trial","120","889893","0.0-6.0","battery-v0.2","","""event"",""trial"",""time""
""fullscreenenter"",""1"",""2034""
","
","
","""event"",""trial"",""time""
""fullscreenenter"",""1"",""2034""
","
","","","1116.6000000014901","","","16","14688","6034","&#9730;","elianto","#3366ff99"," "," ","1","+10","[1970.4000000003725]","1","1","","","14688","3","1","1","win","go","0"
"pit-trial","121","893751","0.0-7.0","battery-v0.2","","""event"",""trial"",""time""
""fullscreenenter"",""1"",""2034""
","
","
","""event"",""trial"",""time""
""fullscreenenter"",""1"",""2034""
","
","","","994.6999999992549","","","16","14688","6034","&#9728;","elianto","#f73b6a7A","-1"," ","0","0","[1849.2999999988824]","1","1","","","14688","4","0","4","lose","no-go","1"
"pit-trial","122","897851","0.0-8.0","battery-v0.2","","""event"",""trial"",""time""
""fullscreenenter"",""1"",""2034""
","
","
","""event"",""trial"",""time""
""fullscreenenter"",""1"",""2034""
","
","","","1229.5999999996275","","","16","14688","6034","&#9728;","elianto","#f73b6a7A","-1"," ","0","-10","[2089.7999999988824]","1","1","","","14688","5","0","4","lose","no-go","0"
"pit-trial","123","902714","0.0-9.0","battery-v0.2","","""event"",""trial"",""time""
""fullscreenenter"",""1"",""2034""
","
","
","""event"",""trial"",""time""
""fullscreenenter"",""1"",""2034""
","
","","","-1","","","16","14688","6034","&#9730;","elianto","#3366ff99"," ","-1","0","0","[]","0","1","","","14688","6","1","1","win","go","0"
"pit-trial","124","906513","0.0-10.0","battery-v0.2","","""event"",""trial"",""time""
""fullscreenenter"",""1"",""2034""
","
","
","""event"",""trial"",""time""
""fullscreenenter"",""1"",""2034""
","
","","","933.5999999996275","","","16","14688","6034","&#9733;","elianto","#3366ff99","-1"," ","0","0","[1791.699999999255]","1","1","","","14688","7","2","2","win","no-go","0"
"pit-trial","125","911366","0.0-11.0","battery-v0.2","","""event"",""trial"",""time""
""fullscreenenter"",""1"",""2034""
","
","
","""event"",""trial"",""time""
""fullscreenenter"",""1"",""2034""
","
","","","-1","","","16","14688","6034","&#9752;","elianto","#f73b6a7A"," ","-1","0","-10","[]","0","1","","","14688","8","3","3","lose","go","0"
"pit-trial","126","916219","0.0-12.0","battery-v0.2","","""event"",""trial"",""time""
""fullscreenenter"",""1"",""2034""
","
","
","""event"",""trial"",""time""
""fullscreenenter"",""1"",""2034""
","
","","","-1","","","16","14688","6034","&#9728;","elianto","#f73b6a7A","-1","-1","1","0","[]","0","1","","","14688","9","0","4","lose","no-go","0"
"pit-trial","127","920125","0.0-13.0","battery-v0.2","","""event"",""trial"",""time""
""fullscreenenter"",""1"",""2034""
","
","
","""event"",""trial"",""time""
""fullscreenenter"",""1"",""2034""
","
","","","1053.300000000745","","","16","14688","6034","&#9733;","elianto","#3366ff99","-1"," ","0","+10","[1903.2999999988824]","1","1","","","14688","10","2","2","win","no-go","1"
"pit-trial","128","923727","0.0-14.0","battery-v0.2","","""event"",""trial"",""time""
""fullscreenenter"",""1"",""2034""
","
","
","""event"",""trial"",""time""
""fullscreenenter"",""1"",""2034""
","
","","","748","","","16","14688","6034","&#9752;","elianto","#f73b6a7A"," "," ","1","0","[1598.8999999985099]","1","1","","","14688","11","3","3","lose","go","0"
"pit-trial","129","928581","0.0-15.0","battery-v0.2","","""event"",""trial"",""time""
""fullscreenenter"",""1"",""2034""
","
","
","""event"",""trial"",""time""
""fullscreenenter"",""1"",""2034""
","
","","","-1","","","16","14688","6034","&#9730;","elianto","#3366ff99"," ","-1","0","0","[]","0","1","","","14688","12","1","1","win","go","0"
"pit-trial","130","932380","0.0-16.0","battery-v0.2","","""event"",""trial"",""time""
""fullscreenenter"",""1"",""2034""
","
","
","""event"",""trial"",""time""
""fullscreenenter"",""1"",""2034""
","
","","","946.0999999996275","","","16","14688","6034","&#9733;","elianto","#3366ff99","-1"," ","0","0","[1796.5]","1","1","","","14688","13","2","2","win","no-go","0"
"pit-trial","131","937238","0.0-17.0","battery-v0.2","","""event"",""trial"",""time""
""fullscreenenter"",""1"",""2034""
","
","
","""event"",""trial"",""time""
""fullscreenenter"",""1"",""2034""
","
","","","-1","","","16","14688","6034","&#9728;","elianto","#f73b6a7A","-1","-1","1","0","[]","0","1","","","14688","14","0","4","lose","no-go","0"
"pit-trial","132","941463","0.0-18.0","battery-v0.2","","""event"",""trial"",""time""
""fullscreenenter"",""1"",""2034""
","
","
","""event"",""trial"",""time""
""fullscreenenter"",""1"",""2034""
","
","","","1372.5","","","16","14688","6034","&#9752;","elianto","#f73b6a7A"," "," ","1","0","[2223.2000000011176]","1","1","","","14688","15","3","3","lose","go","0"
"pit-trial","133","945306","0.0-19.0","battery-v0.2","","""event"",""trial"",""time""
""fullscreenenter"",""1"",""2034""
","
","
","""event"",""trial"",""time""
""fullscreenenter"",""1"",""2034""
","
","","","990.7999999988824","","","16","14688","6034","&#9730;","elianto","#3366ff99"," "," ","1","+10","[1841.300000000745]","1","1","","","14688","16","1","1","win","go","0"
"pit-trial","134","949361","0.0-20.0","battery-v0.2","","""event"",""trial"",""time""
""fullscreenenter"",""1"",""2034""
","
","
","""event"",""trial"",""time""
""fullscreenenter"",""1"",""2034""
","
","","","1202","","","16","14688","6034","&#9752;","elianto","#f73b6a7A"," "," ","1","0","[2052.0999999996275]","1","1","","","14688","17","3","3","lose","go","0"
"pit-trial","135","954216","0.0-21.0","battery-v0.2","","""event"",""trial"",""time""
""fullscreenenter"",""1"",""2034""
","
","
","""event"",""trial"",""time""
""fullscreenenter"",""1"",""2034""
","
","","","-1","","","16","14688","6034","&#9733;","elianto","#3366ff99","-1","-1","1","+10","[]","0","1","","","14688","18","2","2","win","no-go","0"
"pit-trial","136","957768","0.0-22.0","battery-v0.2","","""event"",""trial"",""time""
""fullscreenenter"",""1"",""2034""
","
","
","""event"",""trial"",""time""
""fullscreenenter"",""1"",""2034""
","
","","","700.1999999992549","","","16","14688","6034","&#9730;","elianto","#3366ff99"," "," ","1","+10","[1550.5]","1","1","","","14688","19","1","1","win","go","0"
"pit-trial","137","962620","0.0-23.0","battery-v0.2","","""event"",""trial"",""time""
""fullscreenenter"",""1"",""2034""
","
","
","""event"",""trial"",""time""
""fullscreenenter"",""1"",""2034""
","
","","","-1","","","16","14688","6034","&#9728;","elianto","#f73b6a7A","-1","-1","1","0","[]","0","1","","","14688","20","0","4","lose","no-go","0"
"pit-instructions","138","975334","0.0-24.0","battery-v0.2","","""event"",""trial"",""time""
""fullscreenenter"",""1"",""2034""
","
","
","""event"",""trial"",""time""
""fullscreenenter"",""1"",""2034""
","
","","[{""page_index"":0,""viewing_time"":5663.5},{""page_index"":1,""viewing_time"":7048.800000000745}]","12712.5","","","","","","","","","","","","","","","","","","","","","","","",""
"pit-trial","139","979311","0.0-25.0","battery-v0.2","","""event"",""trial"",""time""
""fullscreenenter"",""1"",""2034""
","
","
","""event"",""trial"",""time""
""fullscreenenter"",""1"",""2034""
","
","","","1116","","","16","14688","6034","f","elianto","#3366ff99"," "," ","1","+10","[1967.2999999988824]","1","2","","","14688","21","1","1","win","go","0"
"pit-trial","140","983451","0.0-26.0","battery-v0.2","","""event"",""trial"",""time""
""fullscreenenter"",""1"",""2034""
","
","
","""event"",""trial"",""time""
""fullscreenenter"",""1"",""2034""
","
","","","1271.5999999996275","","","16","14688","6034","n","elianto","#f73b6a7A","-1"," ","0","-10","[2131.9000000003725]","1","2","","","14688","22","0","4","lose","no-go","0"
"pit-trial","141","988323","0.0-27.0","battery-v0.2","","""event"",""trial"",""time""
""fullscreenenter"",""1"",""2034""
","
","
","""event"",""trial"",""time""
""fullscreenenter"",""1"",""2034""
","
","","","-1","","","16","14688","6034","t","elianto","#f73b6a7A","-1","-1","1","0","[]","0","2","","","14688","23","2","4","lose","no-go","0"
"pit-trial","142","992176","0.0-28.0","battery-v0.2","","""event"",""trial"",""time""
""fullscreenenter"",""1"",""2034""
","
","
","""event"",""trial"",""time""
""fullscreenenter"",""1"",""2034""
","
","","","984.0999999996275","","","16","14688","6034","b","elianto","#f73b6a7A"," "," ","1","0","[1845.800000000745]","1","2","","","14688","24","3","3","lose","go","0"
"pit-trial","143","995833","0.0-29.0","battery-v0.2","","""event"",""trial"",""time""
""fullscreenenter"",""1"",""2034""
","
","
","""event"",""trial"",""time""
""fullscreenenter"",""1"",""2034""
","
","","","788.3000000007451","","","16","14688","6034","f","elianto","#3366ff99"," "," ","1","+10","[1644.0999999996275]","1","2","","","14688","25","1","1","win","go","0"
"pit-trial","144","1000700","0.0-30.0","battery-v0.2","","""event"",""trial"",""time""
""fullscreenenter"",""1"",""2034""
","
","
","""event"",""trial"",""time""
""fullscreenenter"",""1"",""2034""
","
","","","-1","","","16","14688","6034","n","elianto","#f73b6a7A","-1","-1","1","0","[]","0","2","","","14688","26","0","4","lose","no-go","0"
"pit-trial","145","1004428","0.0-31.0","battery-v0.2","","""event"",""trial"",""time""
""fullscreenenter"",""1"",""2034""
","
","
","""event"",""trial"",""time""
""fullscreenenter"",""1"",""2034""
","
","","","853.4000000003725","","","16","14688","6034","b","elianto","#f73b6a7A"," "," ","1","0","[1712.9000000003725]","1","2","","","14688","27","3","3","lose","go","0"
"pit-trial","146","1009280","0.0-32.0","battery-v0.2","","""event"",""trial"",""time""
""fullscreenenter"",""1"",""2034""
","
","
","""event"",""trial"",""time""
""fullscreenenter"",""1"",""2034""
","
","","","-1","","","16","14688","6034","t","elianto","#f73b6a7A","-1","-1","1","-10","[]","0","2","","","14688","28","2","4","lose","no-go","1"
"pit-trial","147","1014133","0.0-33.0","battery-v0.2","","""event"",""trial"",""time""
""fullscreenenter"",""1"",""2034""
","
","
","""event"",""trial"",""time""
""fullscreenenter"",""1"",""2034""
","
","","","-1","","","16","14688","6034","n","elianto","#f73b6a7A","-1","-1","1","0","[]","0","2","","","14688","29","0","4","lose","no-go","0"
"pit-trial","148","1017725","0.0-34.0","battery-v0.2","","""event"",""trial"",""time""
""fullscreenenter"",""1"",""2034""
","
","
","""event"",""trial"",""time""
""fullscreenenter"",""1"",""2034""
","
","","","739.2999999988824","","","16","14688","6034","b","elianto","#f73b6a7A"," "," ","1","0","[1590.0999999996275]","1","2","","","14688","30","3","3","lose","go","0"
"pit-trial","149","1021203","0.0-35.0","battery-v0.2","","""event"",""trial"",""time""
""fullscreenenter"",""1"",""2034""
","
","
","""event"",""trial"",""time""
""fullscreenenter"",""1"",""2034""
","
","","","626.2000000011176","","","16","14688","6034","f","elianto","#3366ff99"," "," ","1","+10","[1477.0999999996275]","1","2","","","14688","31","1","1","win","go","0"
"pit-trial","150","1026068","0.0-36.0","battery-v0.2","","""event"",""trial"",""time""
""fullscreenenter"",""1"",""2034""
","
","
","""event"",""trial"",""time""
""fullscreenenter"",""1"",""2034""
","
","","","-1","","","16","14688","6034","t","elianto","#f73b6a7A","-1","-1","1","0","[]","0","2","","","14688","32","2","4","lose","no-go","0"
"pit-trial","151","1030920","0.0-37.0","battery-v0.2","","""event"",""trial"",""time""
""fullscreenenter"",""1"",""2034""
","
","
","""event"",""trial"",""time""
""fullscreenenter"",""1"",""2034""
","
","","","-1","","","16","14688","6034","t","elianto","#f73b6a7A","-1","-1","1","0","[]","0","2","","","14688","33","2","4","lose","no-go","0"
"pit-trial","152","1035772","0.0-38.0","battery-v0.2","","""event"",""trial"",""time""
""fullscreenenter"",""1"",""2034""
","
","
","""event"",""trial"",""time""
""fullscreenenter"",""1"",""2034""
","
","","","-1","","","16","14688","6034","n","elianto","#f73b6a7A","-1","-1","1","-10","[]","0","2","","","14688","34","0","4","lose","no-go","1"
"pit-trial","153","1039384","0.0-39.0","battery-v0.2","","""event"",""trial"",""time""
""fullscreenenter"",""1"",""2034""
","
","
","""event"",""trial"",""time""
""fullscreenenter"",""1"",""2034""
","
","","","759.5999999996275","","","16","14688","6034","b","elianto","#f73b6a7A"," "," ","1","0","[1609.699999999255]","1","2","","","14688","35","3","3","lose","go","0"
"pit-trial","154","1042901","0.0-40.0","battery-v0.2","","""event"",""trial"",""time""
""fullscreenenter"",""1"",""2034""
","
","
","""event"",""trial"",""time""
""fullscreenenter"",""1"",""2034""
","
","","","662","","","16","14688","6034","f","elianto","#3366ff99"," "," ","1","+10","[1513.1000000014901]","1","2","","","14688","36","1","1","win","go","0"
"pit-trial","155","1047755","0.0-41.0","battery-v0.2","","""event"",""trial"",""time""
""fullscreenenter"",""1"",""2034""
","
","
","""event"",""trial"",""time""
""fullscreenenter"",""1"",""2034""
","
","","","-1","","","16","14688","6034","t","elianto","#f73b6a7A","-1","-1","1","-10","[]","0","2","","","14688","37","2","4","lose","no-go","1"
"pit-trial","156","1051426","0.0-42.0","battery-v0.2","","""event"",""trial"",""time""
""fullscreenenter"",""1"",""2034""
","
","
","""event"",""trial"",""time""
""fullscreenenter"",""1"",""2034""
","
","","","818.5","","","16","14688","6034","f","elianto","#3366ff99"," "," ","1","+10","[1669.4000000003725]","1","2","","","14688","38","1","1","win","go","0"
"pit-trial","157","1054884","0.0-43.0","battery-v0.2","","""event"",""trial"",""time""
""fullscreenenter"",""1"",""2034""
","
","
","""event"",""trial"",""time""
""fullscreenenter"",""1"",""2034""
","
","","","603.2000000011176","","","16","14688","6034","b","elianto","#f73b6a7A"," "," ","1","-10","[1454.6000000014901]","1","2","","","14688","39","3","3","lose","go","1"
"pit-trial","158","1059738","0.0-44.0","battery-v0.2","","""event"",""trial"",""time""
""fullscreenenter"",""1"",""2034""
","
","
","""event"",""trial"",""time""
""fullscreenenter"",""1"",""2034""
","
","","","-1","","","16","14688","6034","n","elianto","#f73b6a7A","-1","-1","1","0","[]","0","2","","","14688","40","0","4","lose","no-go","0"
"pit-trial","159","1064001","0.0-45.0","battery-v0.2","","""event"",""trial"",""time""
""fullscreenenter"",""1"",""2034""
","
","
","""event"",""trial"",""time""
""fullscreenenter"",""1"",""2034""
","
","","","1409.0999999996275","","","16","14688","6034","t","elianto","#f73b6a7A","-1"," ","0","-10","[2259.5]","1","2","","","14688","41","2","4","lose","no-go","0"
"pit-trial","160","1068854","0.0-46.0","battery-v0.2","","""event"",""trial"",""time""
""fullscreenenter"",""1"",""2034""
","
","
","""event"",""trial"",""time""
""fullscreenenter"",""1"",""2034""
","
","","","-1","","","16","14688","6034","n","elianto","#f73b6a7A","-1","-1","1","0","[]","0","2","","","14688","42","0","4","lose","no-go","0"
"pit-trial","161","1072349","0.0-47.0","battery-v0.2","","""event"",""trial"",""time""
""fullscreenenter"",""1"",""2034""
","
","
","""event"",""trial"",""time""
""fullscreenenter"",""1"",""2034""
","
","","","643","","","16","14688","6034","f","elianto","#3366ff99"," "," ","1","+10","[1493.5]","1","2","","","14688","43","1","1","win","go","0"
"pit-trial","162","1075880","0.0-48.0","battery-v0.2","","""event"",""trial"",""time""
""fullscreenenter"",""1"",""2034""
","
","
","""event"",""trial"",""time""
""fullscreenenter"",""1"",""2034""
","
","","","677.8999999985099","","","16","14688","6034","b","elianto","#f73b6a7A"," "," ","1","0","[1528]","1","2","","","14688","44","3","3","lose","go","0"
"pit-trial","163","1080734","0.0-49.0","battery-v0.2","","""event"",""trial"",""time""
""fullscreenenter"",""1"",""2034""
","
","
","""event"",""trial"",""time""
""fullscreenenter"",""1"",""2034""
","
","","","-1","","","16","14688","6034","n","elianto","#f73b6a7A","-1","-1","1","0","[]","0","2","","","14688","45","0","4","lose","no-go","0"
"pit-trial","164","1084391","0.0-50.0","battery-v0.2","","""event"",""trial"",""time""
""fullscreenenter"",""1"",""2034""
","
","
","""event"",""trial"",""time""
""fullscreenenter"",""1"",""2034""
","
","","","804.9000000003725","","","16","14688","6034","b","elianto","#f73b6a7A"," "," ","1","0","[1655.2999999988824]","1","2","","","14688","46","3","3","lose","go","0"
"pit-trial","165","1088490","0.0-51.0","battery-v0.2","","""event"",""trial"",""time""
""fullscreenenter"",""1"",""2034""
","
","
","""event"",""trial"",""time""
""fullscreenenter"",""1"",""2034""
","
","","","1245.0999999996275","","","16","14688","6034","c","elianto","#3366ff99","-1"," ","0","0","[2095.300000000745]","1","2","","","14688","47","4","2","win","no-go","0"
"pit-trial","166","1093343","0.0-52.0","battery-v0.2","","""event"",""trial"",""time""
""fullscreenenter"",""1"",""2034""
","
","
","""event"",""trial"",""time""
""fullscreenenter"",""1"",""2034""
","
","","","-1","","","16","14688","6034","t","elianto","#f73b6a7A","-1","-1","1","0","[]","0","2","","","14688","48","2","4","lose","no-go","0"
"pit-trial","167","1098197","0.0-53.0","battery-v0.2","","""event"",""trial"",""time""
""fullscreenenter"",""1"",""2034""
","
","
","""event"",""trial"",""time""
""fullscreenenter"",""1"",""2034""
","
","","","-1","","","16","14688","6034","c","elianto","#3366ff99","-1","-1","1","+10","[]","0","2","","","14688","49","4","2","win","no-go","0"
"pit-trial","168","1101896","0.0-54.0","battery-v0.2","","""event"",""trial"",""time""
""fullscreenenter"",""1"",""2034""
","
","
","""event"",""trial"",""time""
""fullscreenenter"",""1"",""2034""
","
","","","846.3000000007451","","","16","14688","6034","b","elianto","#f73b6a7A"," "," ","1","0","[1696.300000000745]","1","2","","","14688","50","3","3","lose","go","0"
"pit-trial","169","1106750","0.0-55.0","battery-v0.2","","""event"",""trial"",""time""
""fullscreenenter"",""1"",""2034""
","
","
","""event"",""trial"",""time""
""fullscreenenter"",""1"",""2034""
","
","","","-1","","","16","14688","6034","n","elianto","#f73b6a7A","-1","-1","1","0","[]","0","2","","","14688","51","0","4","lose","no-go","0"
"pit-trial","170","1110231","0.0-56.0","battery-v0.2","","""event"",""trial"",""time""
""fullscreenenter"",""1"",""2034""
","
","
","""event"",""trial"",""time""
""fullscreenenter"",""1"",""2034""
","
","","","627.5","","","16","14688","6034","f","elianto","#3366ff99"," "," ","1","+10","[1478.4000000003725]","1","2","","","14688","52","1","1","win","go","0"
"pit-trial","171","1115085","0.0-57.0","battery-v0.2","","""event"",""trial"",""time""
""fullscreenenter"",""1"",""2034""
","
","
","""event"",""trial"",""time""
""fullscreenenter"",""1"",""2034""
","
","","","-1","","","16","14688","6034","n","elianto","#f73b6a7A","-1","-1","1","0","[]","0","2","","","14688","53","0","4","lose","no-go","0"
"pit-trial","172","1119938","0.0-58.0","battery-v0.2","","""event"",""trial"",""time""
""fullscreenenter"",""1"",""2034""
","
","
","""event"",""trial"",""time""
""fullscreenenter"",""1"",""2034""
","
","","","-1","","","16","14688","6034","t","elianto","#f73b6a7A","-1","-1","1","-10","[]","0","2","","","14688","54","2","4","lose","no-go","1"
"pit-trial","173","1123419","0.0-59.0","battery-v0.2","","""event"",""trial"",""time""
""fullscreenenter"",""1"",""2034""
","
","
","""event"",""trial"",""time""
""fullscreenenter"",""1"",""2034""
","
","","","627.9000000003725","","","16","14688","6034","f","elianto","#3366ff99"," "," ","1","0","[1478.8999999985099]","1","2","","","14688","55","1","1","win","go","1"
"pit-trial","174","1128272","0.0-60.0","battery-v0.2","","""event"",""trial"",""time""
""fullscreenenter"",""1"",""2034""
","
","
","""event"",""trial"",""time""
""fullscreenenter"",""1"",""2034""
","
","","","-1","","","16","14688","6034","c","elianto","#3366ff99","-1","-1","1","+10","[]","0","2","","","14688","56","4","2","win","no-go","0"
"pit-trial","175","1131790","0.0-61.0","battery-v0.2","","""event"",""trial"",""time""
""fullscreenenter"",""1"",""2034""
","
","
","""event"",""trial"",""time""
""fullscreenenter"",""1"",""2034""
","
","","","665.4000000003725","","","16","14688","6034","f","elianto","#3366ff99"," "," ","1","+10","[1516.2999999988824]","1","2","","","14688","57","1","1","win","go","0"
"pit-trial","176","1136643","0.0-62.0","battery-v0.2","","""event"",""trial"",""time""
""fullscreenenter"",""1"",""2034""
","
","
","""event"",""trial"",""time""
""fullscreenenter"",""1"",""2034""
","
","","","-1","","","16","14688","6034","n","elianto","#f73b6a7A","-1","-1","1","0","[]","0","2","","","14688","58","0","4","lose","no-go","0"
"pit-trial","177","1141495","0.0-63.0","battery-v0.2","","""event"",""trial"",""time""
""fullscreenenter"",""1"",""2034""
","
","
","""event"",""trial"",""time""
""fullscreenenter"",""1"",""2034""
","
","","","-1","","","16","14688","6034","c","elianto","#3366ff99","-1","-1","1","+10","[]","0","2","","","14688","59","4","2","win","no-go","0"
"pit-trial","178","1145144","0.0-64.0","battery-v0.2","","""event"",""trial"",""time""
""fullscreenenter"",""1"",""2034""
","
","
","""event"",""trial"",""time""
""fullscreenenter"",""1"",""2034""
","
","","","796.0999999996275","","","16","14688","6034","b","elianto","#f73b6a7A"," "," ","1","-10","[1646.9000000003725]","1","2","","","14688","60","3","3","lose","go","1"
"pit-trial","179","1149998","0.0-65.0","battery-v0.2","","""event"",""trial"",""time""
""fullscreenenter"",""1"",""2034""
","
","
","""event"",""trial"",""time""
""fullscreenenter"",""1"",""2034""
","
","","","-1","","","16","14688","6034","t","elianto","#f73b6a7A","-1","-1","1","0","[]","0","2","","","14688","61","2","4","lose","no-go","0"
"pit-trial","180","1154851","0.0-66.0","battery-v0.2","","""event"",""trial"",""time""
""fullscreenenter"",""1"",""2034""
","
","
","""event"",""trial"",""time""
""fullscreenenter"",""1"",""2034""
","
","","","-1","","","16","14688","6034","c","elianto","#3366ff99","-1","-1","1","0","[]","0","2","","","14688","62","4","2","win","no-go","1"
"pit-trial","181","1158480","0.0-67.0","battery-v0.2","","""event"",""trial"",""time""
""fullscreenenter"",""1"",""2034""
","
","
","""event"",""trial"",""time""
""fullscreenenter"",""1"",""2034""
","
","","","775.4000000003725","","","16","14688","6034","f","elianto","#3366ff99"," "," ","1","+10","[1625.8999999985099]","1","2","","","14688","63","1","1","win","go","0"
"pit-trial","182","1161960","0.0-68.0","battery-v0.2","","""event"",""trial"",""time""
""fullscreenenter"",""1"",""2034""
","
","
","""event"",""trial"",""time""
""fullscreenenter"",""1"",""2034""
","
","","","628.2999999988824","","","16","14688","6034","b","elianto","#f73b6a7A"," "," ","1","0","[1478.9000000003725]","1","2","","","14688","64","3","3","lose","go","0"
"pit-trial","183","1166813","0.0-69.0","battery-v0.2","","""event"",""trial"",""time""
""fullscreenenter"",""1"",""2034""
","
","
","""event"",""trial"",""time""
""fullscreenenter"",""1"",""2034""
","
","","","-1","","","16","14688","6034","t","elianto","#f73b6a7A","-1","-1","1","0","[]","0","2","","","14688","65","2","4","lose","no-go","0"
"pit-trial","184","1170514","0.0-70.0","battery-v0.2","","""event"",""trial"",""time""
""fullscreenenter"",""1"",""2034""
","
","
","""event"",""trial"",""time""
""fullscreenenter"",""1"",""2034""
","
","","","846.4000000003725","","","16","14688","6034","f","elianto","#3366ff99"," "," ","1","0","[1697.5999999996275]","1","2","","","14688","66","1","1","win","go","1"
"pit-trial","185","1173967","0.0-71.0","battery-v0.2","","""event"",""trial"",""time""
""fullscreenenter"",""1"",""2034""
","
","
","""event"",""trial"",""time""
""fullscreenenter"",""1"",""2034""
","
","","","599.9000000003725","","","16","14688","6034","b","elianto","#f73b6a7A"," "," ","1","0","[1450.800000000745]","1","2","","","14688","67","3","3","lose","go","0"
"pit-trial","186","1178821","0.0-72.0","battery-v0.2","","""event"",""trial"",""time""
""fullscreenenter"",""1"",""2034""
","
","
","""event"",""trial"",""time""
""fullscreenenter"",""1"",""2034""
","
","","","-1","","","16","14688","6034","c","elianto","#3366ff99","-1","-1","1","+10","[]","0","2","","","14688","68","4","2","win","no-go","0"
"pit-trial","187","1182419","0.0-73.0","battery-v0.2","","""event"",""trial"",""time""
""fullscreenenter"",""1"",""2034""
","
","
","""event"",""trial"",""time""
""fullscreenenter"",""1"",""2034""
","
","","","744.5","","","16","14688","6034","f","elianto","#3366ff99"," "," ","1","+10","[1595]","1","2","","","14688","69","1","1","win","go","0"
"pit-trial","188","1187272","0.0-74.0","battery-v0.2","","""event"",""trial"",""time""
""fullscreenenter"",""1"",""2034""
","
","
","""event"",""trial"",""time""
""fullscreenenter"",""1"",""2034""
","
","","","-1","","","16","14688","6034","z","elianto","#3366ff99"," ","-1","0","0","[]","0","2","","","14688","70","5","1","win","go","0"
"pit-trial","189","1190871","0.0-75.0","battery-v0.2","","""event"",""trial"",""time""
""fullscreenenter"",""1"",""2034""
","
","
","""event"",""trial"",""time""
""fullscreenenter"",""1"",""2034""
","
","","","746.1999999992549","","","16","14688","6034","b","elianto","#f73b6a7A"," "," ","1","0","[1596.5]","1","2","","","14688","71","3","3","lose","go","0"
"pit-trial","190","1195725","0.0-76.0","battery-v0.2","","""event"",""trial"",""time""
""fullscreenenter"",""1"",""2034""
","
","
","""event"",""trial"",""time""
""fullscreenenter"",""1"",""2034""
","
","","","-1","","","16","14688","6034","c","elianto","#3366ff99","-1","-1","1","+10","[]","0","2","","","14688","72","4","2","win","no-go","0"
"pit-trial","191","1199198","0.0-77.0","battery-v0.2","","""event"",""trial"",""time""
""fullscreenenter"",""1"",""2034""
","
","
","""event"",""trial"",""time""
""fullscreenenter"",""1"",""2034""
","
","","","617.9000000003725","","","16","14688","6034","z","elianto","#3366ff99"," "," ","1","+10","[1469.800000000745]","1","2","","","14688","73","5","1","win","go","0"
"pit-trial","192","1202602","0.0-78.0","battery-v0.2","","""event"",""trial"",""time""
""fullscreenenter"",""1"",""2034""
","
","
","""event"",""trial"",""time""
""fullscreenenter"",""1"",""2034""
","
","","","551.4000000003725","","","16","14688","6034","b","elianto","#f73b6a7A"," "," ","1","0","[1401.9000000003725]","1","2","","","14688","74","3","3","lose","go","0"
"pit-trial","193","1206052","0.0-79.0","battery-v0.2","","""event"",""trial"",""time""
""fullscreenenter"",""1"",""2034""
","
","
","""event"",""trial"",""time""
""fullscreenenter"",""1"",""2034""
","
","","","597.1000000014901","","","16","14688","6034","f","elianto","#3366ff99"," "," ","1","+10","[1447.7999999988824]","1","2","","","14688","75","1","1","win","go","0"
"pit-trial","194","1210904","0.0-80.0","battery-v0.2","","""event"",""trial"",""time""
""fullscreenenter"",""1"",""2034""
","
","
","""event"",""trial"",""time""
""fullscreenenter"",""1"",""2034""
","
","","","-1","","","16","14688","6034","c","elianto","#3366ff99","-1","-1","1","0","[]","0","2","","","14688","76","4","2","win","no-go","1"
"pit-trial","195","1215757","0.0-81.0","battery-v0.2","","""event"",""trial"",""time""
""fullscreenenter"",""1"",""2034""
","
","
","""event"",""trial"",""time""
""fullscreenenter"",""1"",""2034""
","
","","","-1","","","16","14688","6034","h","elianto","#f73b6a7A","-1","-1","1","0","[]","0","2","","","14688","77","6","4","lose","no-go","0"
"pit-trial","196","1220611","0.0-82.0","battery-v0.2","","""event"",""trial"",""time""
""fullscreenenter"",""1"",""2034""
","
","
","""event"",""trial"",""time""
""fullscreenenter"",""1"",""2034""
","
","","","-1","","","16","14688","6034","c","elianto","#3366ff99","-1","-1","1","0","[]","0","2","","","14688","78","4","2","win","no-go","1"
"pit-trial","197","1224418","0.0-83.0","battery-v0.2","","""event"",""trial"",""time""
""fullscreenenter"",""1"",""2034""
","
","
","""event"",""trial"",""time""
""fullscreenenter"",""1"",""2034""
","
","","","953.1000000014901","","","16","14688","6034","z","elianto","#3366ff99"," "," ","1","0","[1804.4000000003725]","1","2","","","14688","79","5","1","win","go","1"
"pit-trial","198","1228166","0.0-84.0","battery-v0.2","","""event"",""trial"",""time""
""fullscreenenter"",""1"",""2034""
","
","
","""event"",""trial"",""time""
""fullscreenenter"",""1"",""2034""
","
","","","894.3000000007451","","","16","14688","6034","b","elianto","#f73b6a7A"," "," ","1","0","[1745.300000000745]","1","2","","","14688","80","3","3","lose","go","0"
"pit-trial","199","1231799","0.0-85.0","battery-v0.2","","""event"",""trial"",""time""
""fullscreenenter"",""1"",""2034""
","
","
","""event"",""trial"",""time""
""fullscreenenter"",""1"",""2034""
","
","","","780.6999999992549","","","16","14688","6034","c","elianto","#3366ff99","-1"," ","0","+10","[1631.2999999988824]","1","2","","","14688","81","4","2","win","no-go","1"
"pit-trial","200","1236654","0.0-86.0","battery-v0.2","","""event"",""trial"",""time""
""fullscreenenter"",""1"",""2034""
","
","
","""event"",""trial"",""time""
""fullscreenenter"",""1"",""2034""
","
","","","-1","","","16","14688","6034","y","elianto","#f73b6a7A"," ","-1","0","-10","[]","0","2","","","14688","82","7","3","lose","go","0"
"pit-trial","201","1240341","0.0-87.0","battery-v0.2","","""event"",""trial"",""time""
""fullscreenenter"",""1"",""2034""
","
","
","""event"",""trial"",""time""
""fullscreenenter"",""1"",""2034""
","
","","","834.1999999992549","","","16","14688","6034","z","elianto","#3366ff99"," "," ","1","+10","[1685]","1","2","","","14688","83","5","1","win","go","0"
"pit-trial","202","1244035","0.0-88.0","battery-v0.2","","""event"",""trial"",""time""
""fullscreenenter"",""1"",""2034""
","
","
","""event"",""trial"",""time""
""fullscreenenter"",""1"",""2034""
","
","","","841.5999999996275","","","16","14688","6034","h","elianto","#f73b6a7A","-1"," ","0","0","[1692.300000000745]","1","2","","","14688","84","6","4","lose","no-go","1"
"pit-trial","203","1248889","0.0-89.0","battery-v0.2","","""event"",""trial"",""time""
""fullscreenenter"",""1"",""2034""
","
","
","""event"",""trial"",""time""
""fullscreenenter"",""1"",""2034""
","
","","","-1","","","16","14688","6034","c","elianto","#3366ff99","-1","-1","1","+10","[]","0","2","","","14688","85","4","2","win","no-go","0"
"pit-trial","204","1252759","0.0-90.0","battery-v0.2","","""event"",""trial"",""time""
""fullscreenenter"",""1"",""2034""
","
","
","""event"",""trial"",""time""
""fullscreenenter"",""1"",""2034""
","
","","","1018.5","","","16","14688","6034","y","elianto","#f73b6a7A"," "," ","1","-10","[1868.9000000003725]","1","2","","","14688","86","7","3","lose","go","1"
"pit-trial","205","1256400","0.0-91.0","battery-v0.2","","""event"",""trial"",""time""
""fullscreenenter"",""1"",""2034""
","
","
","""event"",""trial"",""time""
""fullscreenenter"",""1"",""2034""
","
","","","785.9000000003725","","","16","14688","6034","z","elianto","#3366ff99"," "," ","1","0","[1637.300000000745]","1","2","","","14688","87","5","1","win","go","1"
"pit-trial","206","1260108","0.0-92.0","battery-v0.2","","""event"",""trial"",""time""
""fullscreenenter"",""1"",""2034""
","
","
","""event"",""trial"",""time""
""fullscreenenter"",""1"",""2034""
","
","","","853.4000000003725","","","16","14688","6034","h","elianto","#f73b6a7A","-1"," ","0","-10","[1704.7999999988824]","1","2","","","14688","88","6","4","lose","no-go","0"
"pit-trial","207","1264962","0.0-93.0","battery-v0.2","","""event"",""trial"",""time""
""fullscreenenter"",""1"",""2034""
","
","
","""event"",""trial"",""time""
""fullscreenenter"",""1"",""2034""
","
","","","-1","","","16","14688","6034","c","elianto","#3366ff99","-1","-1","1","+10","[]","0","2","","","14688","89","4","2","win","no-go","0"
"pit-trial","208","1268472","0.0-94.0","battery-v0.2","","""event"",""trial"",""time""
""fullscreenenter"",""1"",""2034""
","
","
","""event"",""trial"",""time""
""fullscreenenter"",""1"",""2034""
","
","","","658.1999999992549","","","16","14688","6034","h","elianto","#f73b6a7A","-1"," ","0","-10","[1508.3999999985099]","1","2","","","14688","90","6","4","lose","no-go","0"
"pit-trial","209","1272147","0.0-95.0","battery-v0.2","","""event"",""trial"",""time""
""fullscreenenter"",""1"",""2034""
","
","
","""event"",""trial"",""time""
""fullscreenenter"",""1"",""2034""
","
","","","820.1999999992549","","","16","14688","6034","z","elianto","#3366ff99"," "," ","1","+10","[1671.699999999255]","1","2","","","14688","91","5","1","win","go","0"
"pit-trial","210","1277001","0.0-96.0","battery-v0.2","","""event"",""trial"",""time""
""fullscreenenter"",""1"",""2034""
","
","
","""event"",""trial"",""time""
""fullscreenenter"",""1"",""2034""
","
","","","-1","","","16","14688","6034","y","elianto","#f73b6a7A"," ","-1","0","0","[2965.4000000003725]","1","2","","","14688","92","7","3","lose","go","1"
"pit-trial","211","1281853","0.0-97.0","battery-v0.2","","""event"",""trial"",""time""
""fullscreenenter"",""1"",""2034""
","
","
","""event"",""trial"",""time""
""fullscreenenter"",""1"",""2034""
","
","","","-1","","","16","14688","6034","h","elianto","#f73b6a7A","-1","-1","1","0","[]","0","2","","","14688","93","6","4","lose","no-go","0"
"pit-trial","212","1285572","0.0-98.0","battery-v0.2","","""event"",""trial"",""time""
""fullscreenenter"",""1"",""2034""
","
","
","""event"",""trial"",""time""
""fullscreenenter"",""1"",""2034""
","
","","","866.5999999996275","","","16","14688","6034","z","elianto","#3366ff99"," "," ","1","+10","[1716.9000000003725]","1","2","","","14688","94","5","1","win","go","0"
"pit-trial","213","1290078","0.0-99.0","battery-v0.2","","""event"",""trial"",""time""
""fullscreenenter"",""1"",""2034""
","
","
","""event"",""trial"",""time""
""fullscreenenter"",""1"",""2034""
","
","","","1652.6000000014901","","","16","14688","6034","r","elianto","#3366ff99","-1"," ","0","0","[2503.39999999851]","1","2","","","14688","95","8","2","win","no-go","0"
"pit-trial","214","1294931","0.0-100.0","battery-v0.2","","""event"",""trial"",""time""
""fullscreenenter"",""1"",""2034""
","
","
","""event"",""trial"",""time""
""fullscreenenter"",""1"",""2034""
","
","","","-1","","","16","14688","6034","y","elianto","#f73b6a7A"," ","-1","0","-10","[]","0","2","","","14688","96","7","3","lose","go","0"
"pit-trial","215","1299785","0.0-101.0","battery-v0.2","","""event"",""trial"",""time""
""fullscreenenter"",""1"",""2034""
","
","
","""event"",""trial"",""time""
""fullscreenenter"",""1"",""2034""
","
","","","-1","","","16","14688","6034","r","elianto","#3366ff99","-1","-1","1","+10","[]","0","2","","","14688","97","8","2","win","no-go","0"
"pit-trial","216","1303529","0.0-102.0","battery-v0.2","","""event"",""trial"",""time""
""fullscreenenter"",""1"",""2034""
","
","
","""event"",""trial"",""time""
""fullscreenenter"",""1"",""2034""
","
","","","890.5999999996275","","","16","14688","6034","y","elianto","#f73b6a7A"," "," ","1","0","[1741.6000000014901]","1","2","","","14688","98","7","3","lose","go","0"
"pit-trial","217","1308382","0.0-103.0","battery-v0.2","","""event"",""trial"",""time""
""fullscreenenter"",""1"",""2034""
","
","
","""event"",""trial"",""time""
""fullscreenenter"",""1"",""2034""
","
","","","-1","","","16","14688","6034","h","elianto","#f73b6a7A","-1","-1","1","0","[]","0","2","","","14688","99","6","4","lose","no-go","0"
"pit-trial","218","1312185","0.0-104.0","battery-v0.2","","""event"",""trial"",""time""
""fullscreenenter"",""1"",""2034""
","
","
","""event"",""trial"",""time""
""fullscreenenter"",""1"",""2034""
","
","","","949.9000000003725","","","16","14688","6034","z","elianto","#3366ff99"," "," ","1","+10","[1800.0999999996275]","1","2","","","14688","100","5","1","win","go","0"
"pit-trial","219","1315697","0.0-105.0","battery-v0.2","","""event"",""trial"",""time""
""fullscreenenter"",""1"",""2034""
","
","
","""event"",""trial"",""time""
""fullscreenenter"",""1"",""2034""
","
","","","660.1000000014901","","","16","14688","6034","z","elianto","#3366ff99"," "," ","1","+10","[1510.0999999996275]","1","2","","","14688","101","5","1","win","go","0"
"pit-trial","220","1320550","0.0-106.0","battery-v0.2","","""event"",""trial"",""time""
""fullscreenenter"",""1"",""2034""
","
","
","""event"",""trial"",""time""
""fullscreenenter"",""1"",""2034""
","
","","","-1","","","16","14688","6034","h","elianto","#f73b6a7A","-1","-1","1","-10","[]","0","2","","","14688","102","6","4","lose","no-go","1"
"pit-trial","221","1325403","0.0-107.0","battery-v0.2","","""event"",""trial"",""time""
""fullscreenenter"",""1"",""2034""
","
","
","""event"",""trial"",""time""
""fullscreenenter"",""1"",""2034""
","
","","","-1","","","16","14688","6034","m","elianto","#3366ff99","-1","-1","1","+10","[]","0","2","","","14688","103","9","2","win","no-go","0"
"pit-trial","222","1330256","0.0-108.0","battery-v0.2","","""event"",""trial"",""time""
""fullscreenenter"",""1"",""2034""
","
","
","""event"",""trial"",""time""
""fullscreenenter"",""1"",""2034""
","
","","","-1","","","16","14688","6034","r","elianto","#3366ff99","-1","-1","1","+10","[]","0","2","","","14688","104","8","2","win","no-go","0"
"pit-trial","223","1333841","0.0-109.0","battery-v0.2","","""event"",""trial"",""time""
""fullscreenenter"",""1"",""2034""
","
","
","""event"",""trial"",""time""
""fullscreenenter"",""1"",""2034""
","
","","","732","","","16","14688","6034","z","elianto","#3366ff99"," "," ","1","0","[1583]","1","2","","","14688","105","5","1","win","go","1"
"pit-trial","224","1338695","0.0-110.0","battery-v0.2","","""event"",""trial"",""time""
""fullscreenenter"",""1"",""2034""
","
","
","""event"",""trial"",""time""
""fullscreenenter"",""1"",""2034""
","
","","","-1","","","16","14688","6034","r","elianto","#3366ff99","-1","-1","1","+10","[]","0","2","","","14688","106","8","2","win","no-go","0"
"pit-trial","225","1343547","0.0-111.0","battery-v0.2","","""event"",""trial"",""time""
""fullscreenenter"",""1"",""2034""
","
","
","""event"",""trial"",""time""
""fullscreenenter"",""1"",""2034""
","
","","","-1","","","16","14688","6034","h","elianto","#f73b6a7A","-1","-1","1","0","[]","0","2","","","14688","107","6","4","lose","no-go","0"
"pit-trial","226","1348415","0.0-112.0","battery-v0.2","","""event"",""trial"",""time""
""fullscreenenter"",""1"",""2034""
","
","
","""event"",""trial"",""time""
""fullscreenenter"",""1"",""2034""
","
","","","-1","","","16","14688","6034","m","elianto","#3366ff99","-1","-1","1","+10","[]","0","2","","","14688","108","9","2","win","no-go","0"
"pit-trial","227","1353268","0.0-113.0","battery-v0.2","","""event"",""trial"",""time""
""fullscreenenter"",""1"",""2034""
","
","
","""event"",""trial"",""time""
""fullscreenenter"",""1"",""2034""
","
","","","-1","","","16","14688","6034","r","elianto","#3366ff99","-1","-1","1","+10","[]","0","2","","","14688","109","8","2","win","no-go","0"
"pit-trial","228","1357253","0.0-114.0","battery-v0.2","","""event"",""trial"",""time""
""fullscreenenter"",""1"",""2034""
","
","
","""event"",""trial"",""time""
""fullscreenenter"",""1"",""2034""
","
","","","1132.0999999996275","","","16","14688","6034","z","elianto","#3366ff99"," "," ","1","+10","[1983.4000000003725]","1","2","","","14688","110","5","1","win","go","0"
"pit-trial","229","1362106","0.0-115.0","battery-v0.2","","""event"",""trial"",""time""
""fullscreenenter"",""1"",""2034""
","
","
","""event"",""trial"",""time""
""fullscreenenter"",""1"",""2034""
","
","","","-1","","","16","14688","6034","m","elianto","#3366ff99","-1","-1","1","+10","[]","0","2","","","14688","111","9","2","win","no-go","0"
"pit-trial","230","1366960","0.0-116.0","battery-v0.2","","""event"",""trial"",""time""
""fullscreenenter"",""1"",""2034""
","
","
","""event"",""trial"",""time""
""fullscreenenter"",""1"",""2034""
","
","","","-1","","","16","14688","6034","h","elianto","#f73b6a7A","-1","-1","1","0","[]","0","2","","","14688","112","6","4","lose","no-go","0"
"pit-trial","231","1371813","0.0-117.0","battery-v0.2","","""event"",""trial"",""time""
""fullscreenenter"",""1"",""2034""
","
","
","""event"",""trial"",""time""
""fullscreenenter"",""1"",""2034""
","
","","","-1","","","16","14688","6034","y","elianto","#f73b6a7A"," ","-1","0","0","[]","0","2","","","14688","113","7","3","lose","go","1"
"pit-trial","232","1376666","0.0-118.0","battery-v0.2","","""event"",""trial"",""time""
""fullscreenenter"",""1"",""2034""
","
","
","""event"",""trial"",""time""
""fullscreenenter"",""1"",""2034""
","
","","","-1","","","16","14688","6034","r","elianto","#3366ff99","-1","-1","1","+10","[]","0","2","","","14688","114","8","2","win","no-go","0"
"pit-trial","233","1380340","0.0-119.0","battery-v0.2","","""event"",""trial"",""time""
""fullscreenenter"",""1"",""2034""
","
","
","""event"",""trial"",""time""
""fullscreenenter"",""1"",""2034""
","
","","","820.6999999992549","","","16","14688","6034","z","elianto","#3366ff99"," "," ","1","+10","[1671.7999999988824]","1","2","","","14688","115","5","1","win","go","0"
"pit-trial","234","1385193","0.0-120.0","battery-v0.2","","""event"",""trial"",""time""
""fullscreenenter"",""1"",""2034""
","
","
","""event"",""trial"",""time""
""fullscreenenter"",""1"",""2034""
","
","","","-1","","","16","14688","6034","m","elianto","#3366ff99","-1","-1","1","+10","[]","0","2","","","14688","116","9","2","win","no-go","0"
"pit-trial","235","1390054","0.0-121.0","battery-v0.2","","""event"",""trial"",""time""
""fullscreenenter"",""1"",""2034""
","
","
","""event"",""trial"",""time""
""fullscreenenter"",""1"",""2034""
","
","","","-1","","","16","14688","6034","m","elianto","#3366ff99","-1","-1","1","+10","[]","0","2","","","14688","117","9","2","win","no-go","0"
"pit-trial","236","1394906","0.0-122.0","battery-v0.2","","""event"",""trial"",""time""
""fullscreenenter"",""1"",""2034""
","
","
","""event"",""trial"",""time""
""fullscreenenter"",""1"",""2034""
","
","","","-1","","","16","14688","6034","r","elianto","#3366ff99","-1","-1","1","+10","[]","0","2","","","14688","118","8","2","win","no-go","0"
"pit-trial","237","1398592","0.0-123.0","battery-v0.2","","""event"",""trial"",""time""
""fullscreenenter"",""1"",""2034""
","
","
","""event"",""trial"",""time""
""fullscreenenter"",""1"",""2034""
","
","","","832.5999999996275","","","16","14688","6034","z","elianto","#3366ff99"," "," ","1","+10","[1683.5]","1","2","","","14688","119","5","1","win","go","0"
"pit-trial","238","1403446","0.0-124.0","battery-v0.2","","""event"",""trial"",""time""
""fullscreenenter"",""1"",""2034""
","
","
","""event"",""trial"",""time""
""fullscreenenter"",""1"",""2034""
","
","","","-1","","","16","14688","6034","h","elianto","#f73b6a7A","-1","-1","1","0","[]","0","2","","","14688","120","6","4","lose","no-go","0"
"pit-trial","239","1408299","0.0-125.0","battery-v0.2","","""event"",""trial"",""time""
""fullscreenenter"",""1"",""2034""
","
","
","""event"",""trial"",""time""
""fullscreenenter"",""1"",""2034""
","
","","","-1","","","16","14688","6034","m","elianto","#3366ff99","-1","-1","1","+10","[]","0","2","","","14688","121","9","2","win","no-go","0"
"pit-trial","240","1413153","0.0-126.0","battery-v0.2","","""event"",""trial"",""time""
""fullscreenenter"",""1"",""2034""
","
","
","""event"",""trial"",""time""
""fullscreenenter"",""1"",""2034""
","
","","","-1","","","16","14688","6034","r","elianto","#3366ff99","-1","-1","1","+10","[]","0","2","","","14688","122","8","2","win","no-go","0"
"pit-trial","241","1417206","0.0-127.0","battery-v0.2","","""event"",""trial"",""time""
""fullscreenenter"",""1"",""2034""
","
","
","""event"",""trial"",""time""
""fullscreenenter"",""1"",""2034""
","
","","","1197.9000000003725","","","16","14688","6034","z","elianto","#3366ff99"," "," ","1","+10","[2048.9000000003725]","1","2","","","14688","123","5","1","win","go","0"
"pit-trial","242","1422059","0.0-128.0","battery-v0.2","","""event"",""trial"",""time""
""fullscreenenter"",""1"",""2034""
","
","
","""event"",""trial"",""time""
""fullscreenenter"",""1"",""2034""
","
","","","-1","","","16","14688","6034","y","elianto","#f73b6a7A"," ","-1","0","-10","[]","0","2","","","14688","124","7","3","lose","go","0"
"pit-trial","243","1426913","0.0-129.0","battery-v0.2","","""event"",""trial"",""time""
""fullscreenenter"",""1"",""2034""
","
","
","""event"",""trial"",""time""
""fullscreenenter"",""1"",""2034""
","
","","","-1","","","16","14688","6034","y","elianto","#f73b6a7A"," ","-1","0","-10","[]","0","2","","","14688","125","7","3","lose","go","0"
"pit-trial","244","1431765","0.0-130.0","battery-v0.2","","""event"",""trial"",""time""
""fullscreenenter"",""1"",""2034""
","
","
","""event"",""trial"",""time""
""fullscreenenter"",""1"",""2034""
","
","","","-1","","","16","14688","6034","r","elianto","#3366ff99","-1","-1","1","+10","[]","0","2","","","14688","126","8","2","win","no-go","0"
"pit-trial","245","1436619","0.0-131.0","battery-v0.2","","""event"",""trial"",""time""
""fullscreenenter"",""1"",""2034""
","
","
","""event"",""trial"",""time""
""fullscreenenter"",""1"",""2034""
","
","","","-1","","","16","14688","6034","h","elianto","#f73b6a7A","-1","-1","1","-10","[]","0","2","","","14688","127","6","4","lose","no-go","1"
"pit-trial","246","1441477","0.0-132.0","battery-v0.2","","""event"",""trial"",""time""
""fullscreenenter"",""1"",""2034""
","
","
","""event"",""trial"",""time""
""fullscreenenter"",""1"",""2034""
","
","","","-1","","","16","14688","6034","m","elianto","#3366ff99","-1","-1","1","0","[]","0","2","","","14688","128","9","2","win","no-go","1"
"pit-trial","247","1446331","0.0-133.0","battery-v0.2","","""event"",""trial"",""time""
""fullscreenenter"",""1"",""2034""
","
","
","""event"",""trial"",""time""
""fullscreenenter"",""1"",""2034""
","
","","","-1","","","16","14688","6034","y","elianto","#f73b6a7A"," ","-1","0","0","[]","0","2","","","14688","129","7","3","lose","go","1"
"pit-trial","248","1451184","0.0-134.0","battery-v0.2","","""event"",""trial"",""time""
""fullscreenenter"",""1"",""2034""
","
","
","""event"",""trial"",""time""
""fullscreenenter"",""1"",""2034""
","
","","","-1","","","16","14688","6034","h","elianto","#f73b6a7A","-1","-1","1","0","[]","0","2","","","14688","130","6","4","lose","no-go","0"
"pit-trial","249","1456037","0.0-135.0","battery-v0.2","","""event"",""trial"",""time""
""fullscreenenter"",""1"",""2034""
","
","
","""event"",""trial"",""time""
""fullscreenenter"",""1"",""2034""
","
","","","-1","","","16","14688","6034","r","elianto","#3366ff99","-1","-1","1","0","[]","0","2","","","14688","131","8","2","win","no-go","1"
"pit-trial","250","1460891","0.0-136.0","battery-v0.2","","""event"",""trial"",""time""
""fullscreenenter"",""1"",""2034""
","
","
","""event"",""trial"",""time""
""fullscreenenter"",""1"",""2034""
","
","","","-1","","","16","14688","6034","m","elianto","#3366ff99","-1","-1","1","+10","[]","0","2","","","14688","132","9","2","win","no-go","0"
"pit-trial","251","1465743","0.0-137.0","battery-v0.2","","""event"",""trial"",""time""
""fullscreenenter"",""1"",""2034""
","
","
","""event"",""trial"",""time""
""fullscreenenter"",""1"",""2034""
","
","","","-1","","","16","14688","6034","y","elianto","#f73b6a7A"," ","-1","0","-10","[]","0","2","","","14688","133","7","3","lose","go","0"
"pit-trial","252","1470596","0.0-138.0","battery-v0.2","","""event"",""trial"",""time""
""fullscreenenter"",""1"",""2034""
","
","
","""event"",""trial"",""time""
""fullscreenenter"",""1"",""2034""
","
","","","-1","","","16","14688","6034","m","elianto","#3366ff99","-1","-1","1","+10","[]","0","2","","","14688","134","9","2","win","no-go","0"
"pit-trial","253","1475450","0.0-139.0","battery-v0.2","","""event"",""trial"",""time""
""fullscreenenter"",""1"",""2034""
","
","
","""event"",""trial"",""time""
""fullscreenenter"",""1"",""2034""
","
","","","-1","","","16","14688","6034","r","elianto","#3366ff99","-1","-1","1","+10","[]","0","2","","","14688","135","8","2","win","no-go","0"
"pit-trial","254","1480303","0.0-140.0","battery-v0.2","","""event"",""trial"",""time""
""fullscreenenter"",""1"",""2034""
","
","
","""event"",""trial"",""time""
""fullscreenenter"",""1"",""2034""
","
","","","-1","","","16","14688","6034","h","elianto","#f73b6a7A","-1","-1","1","0","[]","0","2","","","14688","136","6","4","lose","no-go","0"
"pit-trial","255","1485158","0.0-141.0","battery-v0.2","","""event"",""trial"",""time""
""fullscreenenter"",""1"",""2034""
","
","
","""event"",""trial"",""time""
""fullscreenenter"",""1"",""2034""
","
","","","-1","","","16","14688","6034","m","elianto","#3366ff99","-1","-1","1","+10","[]","0","2","","","14688","137","9","2","win","no-go","0"
"pit-trial","256","1490010","0.0-142.0","battery-v0.2","","""event"",""trial"",""time""
""fullscreenenter"",""1"",""2034""
","
","
","""event"",""trial"",""time""
""fullscreenenter"",""1"",""2034""
","
","","","-1","","","16","14688","6034","h","elianto","#f73b6a7A","-1","-1","1","-10","[]","0","2","","","14688","138","6","4","lose","no-go","1"
"pit-trial","257","1494864","0.0-143.0","battery-v0.2","","""event"",""trial"",""time""
""fullscreenenter"",""1"",""2034""
","
","
","""event"",""trial"",""time""
""fullscreenenter"",""1"",""2034""
","
","","","-1","","","16","14688","6034","r","elianto","#3366ff99","-1","-1","1","+10","[]","0","2","","","14688","139","8","2","win","no-go","0"
"pit-trial","258","1498416","0.0-144.0","battery-v0.2","","""event"",""trial"",""time""
""fullscreenenter"",""1"",""2034""
","
","
","""event"",""trial"",""time""
""fullscreenenter"",""1"",""2034""
","
","","","699.3000000007451","","","16","14688","6034","y","elianto","#f73b6a7A"," "," ","1","0","[1549.5]","1","2","","","14688","140","7","3","lose","go","0"
"pit-instructions","259","1573349","0.0-145.0","battery-v0.2","","""event"",""trial"",""time""
""fullscreenenter"",""1"",""2034""
","
","
","""event"",""trial"",""time""
""fullscreenenter"",""1"",""2034""
","
","","[{""page_index"":0,""viewing_time"":66154.90000000037},{""page_index"":1,""viewing_time"":8776}]","74931.40000000037","","","","","","","","","","","","","","","","","","","","","","","",""
"pit-trial","260","1577417","0.0-146.0","battery-v0.2","","""event"",""trial"",""time""
""fullscreenenter"",""1"",""2034""
","
","
","""event"",""trial"",""time""
""fullscreenenter"",""1"",""2034""
","
","","","1194.0999999996275","","","16","14688","6034","l","elianto","#3366ff99","-1"," ","0","+10","[2051.0999999996275]","1","3","","","14688","141","1","2","win","no-go","1"
"pit-trial","261","1582280","0.0-147.0","battery-v0.2","","""event"",""trial"",""time""
""fullscreenenter"",""1"",""2034""
","
","
","""event"",""trial"",""time""
""fullscreenenter"",""1"",""2034""
","
","","","-1","","","16","14688","6034","u","elianto","#f73b6a7A"," ","-1","0","-10","[]","0","3","","","14688","142","0","3","lose","go","0"
"pit-trial","262","1587159","0.0-148.0","battery-v0.2","","""event"",""trial"",""time""
""fullscreenenter"",""1"",""2034""
","
","
","""event"",""trial"",""time""
""fullscreenenter"",""1"",""2034""
","
","","","-1","","","16","14688","6034","a","elianto","#f73b6a7A"," ","-1","0","-10","[]","0","3","","","14688","143","2","3","lose","go","0"
"pit-trial","263","1590852","0.0-149.0","battery-v0.2","","""event"",""trial"",""time""
""fullscreenenter"",""1"",""2034""
","
","
","""event"",""trial"",""time""
""fullscreenenter"",""1"",""2034""
","
","","","826.8000000007451","","","16","14688","6034","g","elianto","#f73b6a7A","-1"," ","0","-10","[1678.300000000745]","1","3","","","14688","144","3","4","lose","no-go","0"
"pit-trial","264","1594400","0.0-150.0","battery-v0.2","","""event"",""trial"",""time""
""fullscreenenter"",""1"",""2034""
","
","
","""event"",""trial"",""time""
""fullscreenenter"",""1"",""2034""
","
","","","670.5","","","16","14688","6034","l","elianto","#3366ff99","-1"," ","0","0","[1535.300000000745]","1","3","","","14688","145","1","2","win","no-go","0"
"pit-trial","265","1598309","0.0-151.0","battery-v0.2","","""event"",""trial"",""time""
""fullscreenenter"",""1"",""2034""
","
","
","""event"",""trial"",""time""
""fullscreenenter"",""1"",""2034""
","
","","","1049.4000000003725","","","16","14688","6034","a","elianto","#f73b6a7A"," "," ","1","-10","[1899.4000000003725]","1","3","","","14688","146","2","3","lose","go","1"
"pit-trial","266","1601939","0.0-152.0","battery-v0.2","","""event"",""trial"",""time""
""fullscreenenter"",""1"",""2034""
","
","
","""event"",""trial"",""time""
""fullscreenenter"",""1"",""2034""
","
","","","767.1999999992549","","","16","14688","6034","u","elianto","#f73b6a7A"," "," ","1","0","[1617.5]","1","3","","","14688","147","0","3","lose","go","0"
"pit-trial","267","1606792","0.0-153.0","battery-v0.2","","""event"",""trial"",""time""
""fullscreenenter"",""1"",""2034""
","
","
","""event"",""trial"",""time""
""fullscreenenter"",""1"",""2034""
","
","","","-1","","","16","14688","6034","g","elianto","#f73b6a7A","-1","-1","1","0","[]","0","3","","","14688","148","3","4","lose","no-go","0"
"pit-trial","268","1611646","0.0-154.0","battery-v0.2","","""event"",""trial"",""time""
