"trial_type","trial_index","time_elapsed","internal_node_id","task_version","subject_id","interactions","blur_events","focus_events","fullscreenenter_events","fullscreenexit_events","success","view_history","rt","responses","num_errors","age","subject","participantId","rune","rune_set","hex","correct","choice","accuracy","outcome","keys","total_keys","block","practice","value","sub","trial","stimulus","robot","valence","action","sham"
"pavlovia","0","8","0.0-0.0","battery-v0.2","","""event"",""trial"",""time""
""fullscreenenter"",""1"",""3587""
""fullscreenenter"",""1"",""3587""
","
","
","""event"",""trial"",""time""
""fullscreenenter"",""1"",""3587""
""fullscreenenter"",""1"",""3587""
","
","","","","","","","","","","","","","","","","","","","","","","","","","","",""
"fullscreen","1","4508","0.0-1.0","battery-v0.2","","""event"",""trial"",""time""
""fullscreenenter"",""1"",""3587""
""fullscreenenter"",""1"",""3587""
","
","
","""event"",""trial"",""time""
""fullscreenenter"",""1"",""3587""
""fullscreenenter"",""1"",""3587""
","
","true","","","","","","","","","","","","","","","","","","","","","","","","","",""
"pit-instructions","2","15611","0.0-2.0-0.0","battery-v0.2","","""event"",""trial"",""time""
""fullscreenenter"",""1"",""3587""
""fullscreenenter"",""1"",""3587""
","
","
","""event"",""trial"",""time""
""fullscreenenter"",""1"",""3587""
""fullscreenenter"",""1"",""3587""
","
","","[{""page_index"":0,""viewing_time"":11098}]","11099","","","","","","","","","","","","","","","","","","","","","","","",""
"pit-comprehension","3","18999","0.0-2.0-1.0-0.0","battery-v0.2","","""event"",""trial"",""time""
""fullscreenenter"",""1"",""3587""
""fullscreenenter"",""1"",""3587""
","
","
","""event"",""trial"",""time""
""fullscreenenter"",""1"",""3587""
""fullscreenenter"",""1"",""3587""
","
","","","3294.9999999999964","[""shark""]","0","21","10847","4907","","","","","","","","","","","","","","","","","","",""
"pit-instructions","4","21970","0.0-2.0-1.0-1.0","battery-v0.2","","""event"",""trial"",""time""
""fullscreenenter"",""1"",""3587""
""fullscreenenter"",""1"",""3587""
","
","
","""event"",""trial"",""time""
""fullscreenenter"",""1"",""3587""
""fullscreenenter"",""1"",""3587""
","
","","[{""page_index"":0,""viewing_time"":2957}]","2957","","","","","","","","","","","","","","","","","","","","","","","",""
"pit-comprehension","5","24958","0.0-2.0-2.0-0.0","battery-v0.2","","""event"",""trial"",""time""
""fullscreenenter"",""1"",""3587""
""fullscreenenter"",""1"",""3587""
","
","
","""event"",""trial"",""time""
""fullscreenenter"",""1"",""3587""
""fullscreenenter"",""1"",""3587""
","
","","","2983","[""tiger""]","0","21","10847","4907","","","","","","","","","","","","","","","","","","",""
"pit-instructions","6","25875","0.0-2.0-2.0-1.0","battery-v0.2","","""event"",""trial"",""time""
""fullscreenenter"",""1"",""3587""
""fullscreenenter"",""1"",""3587""
","
","
","""event"",""trial"",""time""
""fullscreenenter"",""1"",""3587""
""fullscreenenter"",""1"",""3587""
","
","","[{""page_index"":0,""viewing_time"":911}]","911","","","","","","","","","","","","","","","","","","","","","","","",""
"pit-instructions","7","123753","0.0-2.0-3.0","battery-v0.2","","""event"",""trial"",""time""
""fullscreenenter"",""1"",""3587""
""fullscreenenter"",""1"",""3587""
","
","
","""event"",""trial"",""time""
""fullscreenenter"",""1"",""3587""
""fullscreenenter"",""1"",""3587""
","
","","[{""page_index"":0,""viewing_time"":8149.000000000007},{""page_index"":1,""viewing_time"":5820.999999999993},{""page_index"":2,""viewing_time"":8856},{""page_index"":3,""viewing_time"":5253},{""page_index"":4,""viewing_time"":5667},{""page_index"":5,""viewing_time"":6125},{""page_index"":6,""viewing_time"":7422},{""page_index"":7,""viewing_time"":7023},{""page_index"":8,""viewing_time"":7561},{""page_index"":9,""viewing_time"":7816},{""page_index"":10,""viewing_time"":7841.000000000015},{""page_index"":11,""viewing_time"":7512},{""page_index"":12,""viewing_time"":8001.999999999985},{""page_index"":13,""viewing_time"":4824}]","97872","","","","","","","","","","","","","","","","","","","","","","","",""
"pit-trial","8","127199","0.0-2.0-4.0-0.0","battery-v0.2","","""event"",""trial"",""time""
""fullscreenenter"",""1"",""3587""
""fullscreenenter"",""1"",""3587""
","
","
","""event"",""trial"",""time""
""fullscreenenter"",""1"",""3587""
""fullscreenenter"",""1"",""3587""
","
","","","590","","","21","10847","4907","&#9784;","elianto","#FFFFF080"," "," ","1","&#10004","[1440]","1","0","0","","","","","","","",""
"pit-trial","9","130882","0.0-2.0-4.1-0.1","battery-v0.2","","""event"",""trial"",""time""
""fullscreenenter"",""1"",""3587""
""fullscreenenter"",""1"",""3587""
","
","
","""event"",""trial"",""time""
""fullscreenenter"",""1"",""3587""
""fullscreenenter"",""1"",""3587""
","
","","","825.9999999999854","","","21","10847","4907","&#9784;","elianto","#FFFFF080"," "," ","1","&#10004","[1676.9999999999854]","1","0","0","","","","","","","",""
"pit-trial","10","134360","0.0-2.0-4.2-0.2","battery-v0.2","","""event"",""trial"",""time""
""fullscreenenter"",""1"",""3587""
""fullscreenenter"",""1"",""3587""
","
","
","""event"",""trial"",""time""
""fullscreenenter"",""1"",""3587""
""fullscreenenter"",""1"",""3587""
","
","","","623.0000000000291","","","21","10847","4907","&#9784;","elianto","#FFFFF080"," "," ","1","&#10004","[1474.000000000029]","1","0","0","","","","","","","",""
"pit-trial","11","137822","0.0-2.0-4.3-0.3","battery-v0.2","","""event"",""trial"",""time""
""fullscreenenter"",""1"",""3587""
""fullscreenenter"",""1"",""3587""
","
","
","""event"",""trial"",""time""
""fullscreenenter"",""1"",""3587""
""fullscreenenter"",""1"",""3587""
","
","","","606","","","21","10847","4907","&#9784;","elianto","#FFFFF080"," "," ","1","&#10004","[1456]","1","0","0","","","","","","","",""
"pit-trial","12","141220","0.0-2.0-4.4-0.4","battery-v0.2","","""event"",""trial"",""time""
""fullscreenenter"",""1"",""3587""
""fullscreenenter"",""1"",""3587""
","
","
","""event"",""trial"",""time""
""fullscreenenter"",""1"",""3587""
""fullscreenenter"",""1"",""3587""
","
","","","543","","","21","10847","4907","&#9784;","elianto","#FFFFF080"," "," ","1","&#10004","[1393]","1","0","0","","","","","","","",""
"pit-instructions","13","163124","0.0-2.0-5.0","battery-v0.2","","""event"",""trial"",""time""
""fullscreenenter"",""1"",""3587""
""fullscreenenter"",""1"",""3587""
","
","
","""event"",""trial"",""time""
""fullscreenenter"",""1"",""3587""
""fullscreenenter"",""1"",""3587""
","
","","[{""page_index"":0,""viewing_time"":5018},{""page_index"":1,""viewing_time"":5059},{""page_index"":2,""viewing_time"":4719},{""page_index"":3,""viewing_time"":7102}]","21898","","","","","","","","","","","","","","","","","","","","","","","",""
"pit-trial","14","167979","0.0-2.0-6.0-0.0","battery-v0.2","","""event"",""trial"",""time""
""fullscreenenter"",""1"",""3587""
""fullscreenenter"",""1"",""3587""
","
","
","""event"",""trial"",""time""
""fullscreenenter"",""1"",""3587""
""fullscreenenter"",""1"",""3587""
","
","","","-1","","","21","10847","4907","&#9854;","elianto","#FFFFF080","-1","-1","1","&#10004","[]","0","0","1","","","","","","","",""
"pit-trial","15","172835","0.0-2.0-6.1-0.1","battery-v0.2","","""event"",""trial"",""time""
""fullscreenenter"",""1"",""3587""
""fullscreenenter"",""1"",""3587""
","
","
","""event"",""trial"",""time""
""fullscreenenter"",""1"",""3587""
""fullscreenenter"",""1"",""3587""
","
","","","-1","","","21","10847","4907","&#9854;","elianto","#FFFFF080","-1","-1","1","&#10004","[]","0","0","1","","","","","","","",""
"pit-trial","16","177691","0.0-2.0-6.2-0.2","battery-v0.2","","""event"",""trial"",""time""
""fullscreenenter"",""1"",""3587""
""fullscreenenter"",""1"",""3587""
","
","
","""event"",""trial"",""time""
""fullscreenenter"",""1"",""3587""
""fullscreenenter"",""1"",""3587""
","
","","","-1","","","21","10847","4907","&#9854;","elianto","#FFFFF080","-1","-1","1","&#10004","[]","0","0","1","","","","","","","",""
"pit-trial","17","182546","0.0-2.0-6.3-0.3","battery-v0.2","","""event"",""trial"",""time""
""fullscreenenter"",""1"",""3587""
""fullscreenenter"",""1"",""3587""
","
","
","""event"",""trial"",""time""
""fullscreenenter"",""1"",""3587""
""fullscreenenter"",""1"",""3587""
","
","","","-1","","","21","10847","4907","&#9854;","elianto","#FFFFF080","-1","-1","1","&#10004","[]","0","0","1","","","","","","","",""
"pit-trial","18","187404","0.0-2.0-6.4-0.4","battery-v0.2","","""event"",""trial"",""time""
""fullscreenenter"",""1"",""3587""
""fullscreenenter"",""1"",""3587""
","
","
","""event"",""trial"",""time""
""fullscreenenter"",""1"",""3587""
""fullscreenenter"",""1"",""3587""
","
","","","-1","","","21","10847","4907","&#9854;","elianto","#FFFFF080","-1","-1","1","&#10004","[]","0","0","1","","","","","","","",""
"pit-instructions","19","309103","0.0-2.0-7.0","battery-v0.2","","""event"",""trial"",""time""
""fullscreenenter"",""1"",""3587""
""fullscreenenter"",""1"",""3587""
","
","
","""event"",""trial"",""time""
""fullscreenenter"",""1"",""3587""
""fullscreenenter"",""1"",""3587""
","
","","[{""page_index"":0,""viewing_time"":5879},{""page_index"":1,""viewing_time"":11765},{""page_index"":2,""viewing_time"":5826},{""page_index"":3,""viewing_time"":6142.000000000029},{""page_index"":4,""viewing_time"":5923.999999999971},{""page_index"":5,""viewing_time"":5046.000000000029},{""page_index"":6,""viewing_time"":6662.999999999971},{""page_index"":7,""viewing_time"":8026},{""page_index"":8,""viewing_time"":6368},{""page_index"":9,""viewing_time"":6639},{""page_index"":10,""viewing_time"":6562},{""page_index"":11,""viewing_time"":4050},{""page_index"":12,""viewing_time"":6999},{""page_index"":13,""viewing_time"":7337},{""page_index"":14,""viewing_time"":7234.000000000058},{""page_index"":15,""viewing_time"":7224.999999999942},{""page_index"":16,""viewing_time"":6841},{""page_index"":17,""viewing_time"":7169}]","121695","","","","","","","","","","","","","","","","","","","","","","","",""
"pit-trial","20","312492","0.0-2.0-8.0-0.0","battery-v0.2","","""event"",""trial"",""time""
""fullscreenenter"",""1"",""3587""
""fullscreenenter"",""1"",""3587""
","
","
","""event"",""trial"",""time""
""fullscreenenter"",""1"",""3587""
""fullscreenenter"",""1"",""3587""
","
","","","533","","","21","10847","4907","&#9776;","elianto","#3366ff99"," "," ","1","+10","[1383]","1","0","1","","","","","","","",""
"pit-trial","21","316050","0.0-2.0-8.0-1.0","battery-v0.2","","""event"",""trial"",""time""
""fullscreenenter"",""1"",""3587""
""fullscreenenter"",""1"",""3587""
","
","
","""event"",""trial"",""time""
""fullscreenenter"",""1"",""3587""
""fullscreenenter"",""1"",""3587""
","
","","","704","","","21","10847","4907","&#9776;","elianto","#3366ff99"," "," ","1","+10","[1554]","1","0","1","","","","","","","",""
"pit-trial","22","320546","0.0-2.0-8.0-2.0","battery-v0.2","","""event"",""trial"",""time""
""fullscreenenter"",""1"",""3587""
""fullscreenenter"",""1"",""3587""
","
","
","""event"",""trial"",""time""
""fullscreenenter"",""1"",""3587""
""fullscreenenter"",""1"",""3587""
","
","","","1640","","","21","10847","4907","&#9776;","elianto","#3366ff99"," "," ","1","+10","[2491]","1","0","1","","","","","","","",""
"pit-trial","23","324148","0.0-2.0-8.0-3.0","battery-v0.2","","""event"",""trial"",""time""
""fullscreenenter"",""1"",""3587""
""fullscreenenter"",""1"",""3587""
","
","
","""event"",""trial"",""time""
""fullscreenenter"",""1"",""3587""
""fullscreenenter"",""1"",""3587""
","
","","","747","","","21","10847","4907","&#9776;","elianto","#3366ff99"," "," ","1","0","[1597]","1","0","1","","","","","","","",""
"pit-trial","24","327651","0.0-2.0-8.0-4.0","battery-v0.2","","""event"",""trial"",""time""
""fullscreenenter"",""1"",""3587""
""fullscreenenter"",""1"",""3587""
","
","
","""event"",""trial"",""time""
""fullscreenenter"",""1"",""3587""
""fullscreenenter"",""1"",""3587""
","
","","","646","","","21","10847","4907","&#9776;","elianto","#3366ff99"," "," ","1","+10","[1498]","1","0","1","","","","","","","",""
"pit-trial","25","331199","0.0-2.0-8.1-0.1","battery-v0.2","","""event"",""trial"",""time""
""fullscreenenter"",""1"",""3587""
""fullscreenenter"",""1"",""3587""
","
","
","""event"",""trial"",""time""
""fullscreenenter"",""1"",""3587""
""fullscreenenter"",""1"",""3587""
","
","","","687","","","21","10847","4907","&#9776;","elianto","#3366ff99"," "," ","1","+10","[1537]","1","0","1","","","","","","","",""
"pit-trial","26","334548","0.0-2.0-8.1-1.1","battery-v0.2","","""event"",""trial"",""time""
""fullscreenenter"",""1"",""3587""
""fullscreenenter"",""1"",""3587""
","
","
","""event"",""trial"",""time""
""fullscreenenter"",""1"",""3587""
""fullscreenenter"",""1"",""3587""
","
","","","494.9999999999418","","","21","10847","4907","&#9776;","elianto","#3366ff99"," "," ","1","+10","[1344]","1","0","1","","","","","","","",""
"pit-trial","27","337876","0.0-2.0-8.1-2.1","battery-v0.2","","""event"",""trial"",""time""
""fullscreenenter"",""1"",""3587""
""fullscreenenter"",""1"",""3587""
","
","
","""event"",""trial"",""time""
""fullscreenenter"",""1"",""3587""
""fullscreenenter"",""1"",""3587""
","
","","","473","","","21","10847","4907","&#9776;","elianto","#3366ff99"," "," ","1","+10","[1323,2012]","2","0","1","","","","","","","",""
"pit-trial","28","341308","0.0-2.0-8.1-3.1","battery-v0.2","","""event"",""trial"",""time""
""fullscreenenter"",""1"",""3587""
""fullscreenenter"",""1"",""3587""
","
","
","""event"",""trial"",""time""
""fullscreenenter"",""1"",""3587""
""fullscreenenter"",""1"",""3587""
","
","","","578","","","21","10847","4907","&#9776;","elianto","#3366ff99"," "," ","1","0","[1427.9999999999418]","1","0","1","","","","","","","",""
"pit-trial","29","344560","0.0-2.0-8.1-4.1","battery-v0.2","","""event"",""trial"",""time""
""fullscreenenter"",""1"",""3587""
""fullscreenenter"",""1"",""3587""
","
","
","""event"",""trial"",""time""
""fullscreenenter"",""1"",""3587""
""fullscreenenter"",""1"",""3587""
","
","","","398","","","21","10847","4907","&#9776;","elianto","#3366ff99"," "," ","1","+10","[1248]","1","0","1","","","","","","","",""
"pit-trial","30","349170","0.0-2.0-8.2-0.2","battery-v0.2","","""event"",""trial"",""time""
""fullscreenenter"",""1"",""3587""
""fullscreenenter"",""1"",""3587""
","
","
","""event"",""trial"",""time""
""fullscreenenter"",""1"",""3587""
""fullscreenenter"",""1"",""3587""
","
","","","1755","","","21","10847","4907","&#9776;","elianto","#3366ff99"," "," ","1","+10","[2604.999999999942]","1","0","1","","","","","","","",""
"pit-trial","31","352605","0.0-2.0-8.2-1.2","battery-v0.2","","""event"",""trial"",""time""
""fullscreenenter"",""1"",""3587""
""fullscreenenter"",""1"",""3587""
","
","
","""event"",""trial"",""time""
""fullscreenenter"",""1"",""3587""
""fullscreenenter"",""1"",""3587""
","
","","","579","","","21","10847","4907","&#9776;","elianto","#3366ff99"," "," ","1","+10","[1429]","1","0","1","","","","","","","",""
"pit-trial","32","356021","0.0-2.0-8.2-2.2","battery-v0.2","","""event"",""trial"",""time""
""fullscreenenter"",""1"",""3587""
""fullscreenenter"",""1"",""3587""
","
","
","""event"",""trial"",""time""
""fullscreenenter"",""1"",""3587""
""fullscreenenter"",""1"",""3587""
","
","","","560","","","21","10847","4907","&#9776;","elianto","#3366ff99"," "," ","1","+10","[1410]","1","0","1","","","","","","","",""
"pit-trial","33","359691","0.0-2.0-8.2-3.2","battery-v0.2","","""event"",""trial"",""time""
""fullscreenenter"",""1"",""3587""
""fullscreenenter"",""1"",""3587""
","
","
","""event"",""trial"",""time""
""fullscreenenter"",""1"",""3587""
""fullscreenenter"",""1"",""3587""
","
","","","814","","","21","10847","4907","&#9776;","elianto","#3366ff99"," "," ","1","0","[1664.0000000000582]","1","0","1","","","","","","","",""
"pit-trial","34","362942","0.0-2.0-8.2-4.2","battery-v0.2","","""event"",""trial"",""time""
""fullscreenenter"",""1"",""3587""
""fullscreenenter"",""1"",""3587""
","
","
","""event"",""trial"",""time""
""fullscreenenter"",""1"",""3587""
""fullscreenenter"",""1"",""3587""
","
","","","395","","","21","10847","4907","&#9776;","elianto","#3366ff99"," "," ","1","+10","[1246]","1","0","1","","","","","","","",""
"call-function","35","362946","0.0-2.0-9.0","battery-v0.2","","""event"",""trial"",""time""
""fullscreenenter"",""1"",""3587""
""fullscreenenter"",""1"",""3587""
","
","
","""event"",""trial"",""time""
""fullscreenenter"",""1"",""3587""
""fullscreenenter"",""1"",""3587""
","
","","","","","","","","","","","","","","","","","","","","","","","","","","",""
"pit-instructions","36","403901","0.0-2.0-10.0","battery-v0.2","","""event"",""trial"",""time""
""fullscreenenter"",""1"",""3587""
""fullscreenenter"",""1"",""3587""
","
","
","""event"",""trial"",""time""
""fullscreenenter"",""1"",""3587""
""fullscreenenter"",""1"",""3587""
","
","","[{""page_index"":0,""viewing_time"":5869},{""page_index"":1,""viewing_time"":7003},{""page_index"":2,""viewing_time"":11823.000000000058},{""page_index"":3,""viewing_time"":8858.999999999942},{""page_index"":4,""viewing_time"":7400}]","40955","","","","","","","","","","","","","","","","","","","","","","","",""
"pit-trial","37","407244","0.0-2.0-11.0-0.0","battery-v0.2","","""event"",""trial"",""time""
""fullscreenenter"",""1"",""3587""
""fullscreenenter"",""1"",""3587""
","
","
","""event"",""trial"",""time""
""fullscreenenter"",""1"",""3587""
""fullscreenenter"",""1"",""3587""
","
","","","486.0000000000582","","","21","10847","4907","&#9761;","elianto","#3366ff99","-1"," ","0","0","[1337.0000000000582]","1","0","2","","","","","","","",""
"pit-trial","38","410373","0.0-2.0-11.0-1.0","battery-v0.2","","""event"",""trial"",""time""
""fullscreenenter"",""1"",""3587""
""fullscreenenter"",""1"",""3587""
","
","
","""event"",""trial"",""time""
""fullscreenenter"",""1"",""3587""
""fullscreenenter"",""1"",""3587""
","
","","","273","","","21","10847","4907","&#9761;","elianto","#3366ff99","-1"," ","0","0","[1123,1589,2381.000000000058,2778,3058]","5","0","2","","","","","","","",""
"pit-trial","39","413810","0.0-2.0-11.0-2.0","battery-v0.2","","""event"",""trial"",""time""
""fullscreenenter"",""1"",""3587""
""fullscreenenter"",""1"",""3587""
","
","
","""event"",""trial"",""time""
""fullscreenenter"",""1"",""3587""
""fullscreenenter"",""1"",""3587""
","
","","","581","","","21","10847","4907","&#9761;","elianto","#3366ff99","-1"," ","0","0","[1431]","1","0","2","","","","","","","",""
"pit-trial","40","418666","0.0-2.0-11.0-3.0","battery-v0.2","","""event"",""trial"",""time""
""fullscreenenter"",""1"",""3587""
""fullscreenenter"",""1"",""3587""
","
","
","""event"",""trial"",""time""
""fullscreenenter"",""1"",""3587""
""fullscreenenter"",""1"",""3587""
","
","","","-1","","","21","10847","4907","&#9761;","elianto","#3366ff99","-1","-1","1","0","[3280.999999999942]","1","0","2","","","","","","","",""
"pit-trial","41","421978","0.0-2.0-11.0-4.0","battery-v0.2","","""event"",""trial"",""time""
""fullscreenenter"",""1"",""3587""
""fullscreenenter"",""1"",""3587""
","
","
","""event"",""trial"",""time""
""fullscreenenter"",""1"",""3587""
""fullscreenenter"",""1"",""3587""
","
","","","456","","","21","10847","4907","&#9761;","elianto","#3366ff99","-1"," ","0","0","[1307]","1","0","2","","","","","","","",""
"pit-trial","42","426835","0.0-2.0-11.1-0.1","battery-v0.2","","""event"",""trial"",""time""
""fullscreenenter"",""1"",""3587""
""fullscreenenter"",""1"",""3587""
","
","
","""event"",""trial"",""time""
""fullscreenenter"",""1"",""3587""
""fullscreenenter"",""1"",""3587""
","
","","","-1","","","21","10847","4907","&#9761;","elianto","#3366ff99","-1","-1","1","+10","[]","0","0","2","","","","","","","",""
"pit-trial","43","431690","0.0-2.0-11.1-1.1","battery-v0.2","","""event"",""trial"",""time""
""fullscreenenter"",""1"",""3587""
""fullscreenenter"",""1"",""3587""
","
","
","""event"",""trial"",""time""
""fullscreenenter"",""1"",""3587""
""fullscreenenter"",""1"",""3587""
","
","","","-1","","","21","10847","4907","&#9761;","elianto","#3366ff99","-1","-1","1","+10","[]","0","0","2","","","","","","","",""
"pit-trial","44","436545","0.0-2.0-11.1-2.1","battery-v0.2","","""event"",""trial"",""time""
""fullscreenenter"",""1"",""3587""
""fullscreenenter"",""1"",""3587""
","
","
","""event"",""trial"",""time""
""fullscreenenter"",""1"",""3587""
""fullscreenenter"",""1"",""3587""
","
","","","-1","","","21","10847","4907","&#9761;","elianto","#3366ff99","-1","-1","1","+10","[]","0","0","2","","","","","","","",""
"pit-trial","45","441401","0.0-2.0-11.1-3.1","battery-v0.2","","""event"",""trial"",""time""
""fullscreenenter"",""1"",""3587""
""fullscreenenter"",""1"",""3587""
","
","
","""event"",""trial"",""time""
""fullscreenenter"",""1"",""3587""
""fullscreenenter"",""1"",""3587""
","
","","","-1","","","21","10847","4907","&#9761;","elianto","#3366ff99","-1","-1","1","0","[]","0","0","2","","","","","","","",""
"pit-trial","46","446257","0.0-2.0-11.1-4.1","battery-v0.2","","""event"",""trial"",""time""
""fullscreenenter"",""1"",""3587""
""fullscreenenter"",""1"",""3587""
","
","
","""event"",""trial"",""time""
""fullscreenenter"",""1"",""3587""
""fullscreenenter"",""1"",""3587""
","
","","","-1","","","21","10847","4907","&#9761;","elianto","#3366ff99","-1","-1","1","+10","[]","0","0","2","","","","","","","",""
"pit-trial","47","451113","0.0-2.0-11.2-0.2","battery-v0.2","","""event"",""trial"",""time""
""fullscreenenter"",""1"",""3587""
""fullscreenenter"",""1"",""3587""
","
","
","""event"",""trial"",""time""
""fullscreenenter"",""1"",""3587""
""fullscreenenter"",""1"",""3587""
","
","","","-1","","","21","10847","4907","&#9761;","elianto","#3366ff99","-1","-1","1","+10","[]","0","0","2","","","","","","","",""
"pit-trial","48","455969","0.0-2.0-11.2-1.2","battery-v0.2","","""event"",""trial"",""time""
""fullscreenenter"",""1"",""3587""
""fullscreenenter"",""1"",""3587""
","
","
","""event"",""trial"",""time""
""fullscreenenter"",""1"",""3587""
""fullscreenenter"",""1"",""3587""
","
","","","-1","","","21","10847","4907","&#9761;","elianto","#3366ff99","-1","-1","1","+10","[]","0","0","2","","","","","","","",""
"pit-trial","49","460825","0.0-2.0-11.2-2.2","battery-v0.2","","""event"",""trial"",""time""
""fullscreenenter"",""1"",""3587""
""fullscreenenter"",""1"",""3587""
","
","
","""event"",""trial"",""time""
""fullscreenenter"",""1"",""3587""
""fullscreenenter"",""1"",""3587""
","
","","","-1","","","21","10847","4907","&#9761;","elianto","#3366ff99","-1","-1","1","+10","[]","0","0","2","","","","","","","",""
"pit-trial","50","465680","0.0-2.0-11.2-3.2","battery-v0.2","","""event"",""trial"",""time""
""fullscreenenter"",""1"",""3587""
""fullscreenenter"",""1"",""3587""
","
","
","""event"",""trial"",""time""
""fullscreenenter"",""1"",""3587""
""fullscreenenter"",""1"",""3587""
","
","","","-1","","","21","10847","4907","&#9761;","elianto","#3366ff99","-1","-1","1","0","[]","0","0","2","","","","","","","",""
"pit-trial","51","470535","0.0-2.0-11.2-4.2","battery-v0.2","","""event"",""trial"",""time""
""fullscreenenter"",""1"",""3587""
""fullscreenenter"",""1"",""3587""
","
","
","""event"",""trial"",""time""
""fullscreenenter"",""1"",""3587""
""fullscreenenter"",""1"",""3587""
","
","","","-1","","","21","10847","4907","&#9761;","elianto","#3366ff99","-1","-1","1","+10","[]","0","0","2","","","","","","","",""
"pit-trial","52","475392","0.0-2.0-11.3-0.3","battery-v0.2","","""event"",""trial"",""time""
""fullscreenenter"",""1"",""3587""
""fullscreenenter"",""1"",""3587""
","
","
","""event"",""trial"",""time""
""fullscreenenter"",""1"",""3587""
""fullscreenenter"",""1"",""3587""
","
","","","-1","","","21","10847","4907","&#9761;","elianto","#3366ff99","-1","-1","1","+10","[]","0","0","2","","","","","","","",""
"pit-trial","53","480247","0.0-2.0-11.3-1.3","battery-v0.2","","""event"",""trial"",""time""
""fullscreenenter"",""1"",""3587""
""fullscreenenter"",""1"",""3587""
","
","
","""event"",""trial"",""time""
""fullscreenenter"",""1"",""3587""
""fullscreenenter"",""1"",""3587""
","
","","","-1","","","21","10847","4907","&#9761;","elianto","#3366ff99","-1","-1","1","+10","[]","0","0","2","","","","","","","",""
"pit-trial","54","485102","0.0-2.0-11.3-2.3","battery-v0.2","","""event"",""trial"",""time""
""fullscreenenter"",""1"",""3587""
""fullscreenenter"",""1"",""3587""
","
","
","""event"",""trial"",""time""
""fullscreenenter"",""1"",""3587""
""fullscreenenter"",""1"",""3587""
","
","","","-1","","","21","10847","4907","&#9761;","elianto","#3366ff99","-1","-1","1","+10","[]","0","0","2","","","","","","","",""
"pit-trial","55","489958","0.0-2.0-11.3-3.3","battery-v0.2","","""event"",""trial"",""time""
""fullscreenenter"",""1"",""3587""
""fullscreenenter"",""1"",""3587""
","
","
","""event"",""trial"",""time""
""fullscreenenter"",""1"",""3587""
""fullscreenenter"",""1"",""3587""
","
","","","-1","","","21","10847","4907","&#9761;","elianto","#3366ff99","-1","-1","1","0","[]","0","0","2","","","","","","","",""
"pit-trial","56","494814","0.0-2.0-11.3-4.3","battery-v0.2","","""event"",""trial"",""time""
""fullscreenenter"",""1"",""3587""
""fullscreenenter"",""1"",""3587""
","
","
","""event"",""trial"",""time""
""fullscreenenter"",""1"",""3587""
""fullscreenenter"",""1"",""3587""
","
","","","-1","","","21","10847","4907","&#9761;","elianto","#3366ff99","-1","-1","1","+10","[]","0","0","2","","","","","","","",""
"call-function","57","494819","0.0-2.0-12.0","battery-v0.2","","""event"",""trial"",""time""
""fullscreenenter"",""1"",""3587""
""fullscreenenter"",""1"",""3587""
","
","
","""event"",""trial"",""time""
""fullscreenenter"",""1"",""3587""
""fullscreenenter"",""1"",""3587""
","
","","","","","","","","","","","","","","","","","","","","","","","","","","",""
"pit-instructions","58","525623","0.0-2.0-13.0","battery-v0.2","","""event"",""trial"",""time""
""fullscreenenter"",""1"",""3587""
""fullscreenenter"",""1"",""3587""
","
","
","""event"",""trial"",""time""
""fullscreenenter"",""1"",""3587""
""fullscreenenter"",""1"",""3587""
","
","","[{""page_index"":0,""viewing_time"":5057},{""page_index"":1,""viewing_time"":7073},{""page_index"":2,""viewing_time"":3537.000000000058},{""page_index"":3,""viewing_time"":10508.999999999884},{""page_index"":4,""viewing_time"":4629.000000000058}]","30805","","","","","","","","","","","","","","","","","","","","","","","",""
"pit-trial","59","528991","0.0-2.0-14.0-0.0","battery-v0.2","","""event"",""trial"",""time""
""fullscreenenter"",""1"",""3587""
""fullscreenenter"",""1"",""3587""
","
","
","""event"",""trial"",""time""
""fullscreenenter"",""1"",""3587""
""fullscreenenter"",""1"",""3587""
","
","","","511","","","21","10847","4907","&#9826;","elianto","#f73b6a7A","-1"," ","0","-10","[1361]","1","0","3","","","","","","","",""
"pit-trial","60","533847","0.0-2.0-14.0-1.0","battery-v0.2","","""event"",""trial"",""time""
""fullscreenenter"",""1"",""3587""
""fullscreenenter"",""1"",""3587""
","
","
","""event"",""trial"",""time""
""fullscreenenter"",""1"",""3587""
""fullscreenenter"",""1"",""3587""
","
","","","-1","","","21","10847","4907","&#9826;","elianto","#f73b6a7A","-1","-1","1","0","[]","0","0","3","","","","","","","",""
"pit-trial","61","538703","0.0-2.0-14.0-2.0","battery-v0.2","","""event"",""trial"",""time""
""fullscreenenter"",""1"",""3587""
""fullscreenenter"",""1"",""3587""
","
","
","""event"",""trial"",""time""
""fullscreenenter"",""1"",""3587""
""fullscreenenter"",""1"",""3587""
","
","","","-1","","","21","10847","4907","&#9826;","elianto","#f73b6a7A","-1","-1","1","0","[]","0","0","3","","","","","","","",""
"pit-trial","62","543557","0.0-2.0-14.0-3.0","battery-v0.2","","""event"",""trial"",""time""
""fullscreenenter"",""1"",""3587""
""fullscreenenter"",""1"",""3587""
","
","
","""event"",""trial"",""time""
""fullscreenenter"",""1"",""3587""
""fullscreenenter"",""1"",""3587""
","
","","","-1","","","21","10847","4907","&#9826;","elianto","#f73b6a7A","-1","-1","1","-10","[]","0","0","3","","","","","","","",""
"pit-trial","63","548413","0.0-2.0-14.0-4.0","battery-v0.2","","""event"",""trial"",""time""
""fullscreenenter"",""1"",""3587""
""fullscreenenter"",""1"",""3587""
","
","
","""event"",""trial"",""time""
""fullscreenenter"",""1"",""3587""
""fullscreenenter"",""1"",""3587""
","
","","","-1","","","21","10847","4907","&#9826;","elianto","#f73b6a7A","-1","-1","1","0","[]","0","0","3","","","","","","","",""
"pit-trial","64","553269","0.0-2.0-14.1-0.1","battery-v0.2","","""event"",""trial"",""time""
""fullscreenenter"",""1"",""3587""
""fullscreenenter"",""1"",""3587""
","
","
","""event"",""trial"",""time""
""fullscreenenter"",""1"",""3587""
""fullscreenenter"",""1"",""3587""
","
","","","-1","","","21","10847","4907","&#9826;","elianto","#f73b6a7A","-1","-1","1","0","[]","0","0","3","","","","","","","",""
"pit-trial","65","558124","0.0-2.0-14.1-1.1","battery-v0.2","","""event"",""trial"",""time""
""fullscreenenter"",""1"",""3587""
""fullscreenenter"",""1"",""3587""
","
","
","""event"",""trial"",""time""
""fullscreenenter"",""1"",""3587""
""fullscreenenter"",""1"",""3587""
","
","","","-1","","","21","10847","4907","&#9826;","elianto","#f73b6a7A","-1","-1","1","0","[]","0","0","3","","","","","","","",""
"pit-trial","66","562981","0.0-2.0-14.1-2.1","battery-v0.2","","""event"",""trial"",""time""
""fullscreenenter"",""1"",""3587""
""fullscreenenter"",""1"",""3587""
","
","
","""event"",""trial"",""time""
""fullscreenenter"",""1"",""3587""
""fullscreenenter"",""1"",""3587""
","
","","","-1","","","21","10847","4907","&#9826;","elianto","#f73b6a7A","-1","-1","1","0","[]","0","0","3","","","","","","","",""
"pit-trial","67","567837","0.0-2.0-14.1-3.1","battery-v0.2","","""event"",""trial"",""time""
""fullscreenenter"",""1"",""3587""
""fullscreenenter"",""1"",""3587""
","
","
","""event"",""trial"",""time""
""fullscreenenter"",""1"",""3587""
""fullscreenenter"",""1"",""3587""
","
","","","-1","","","21","10847","4907","&#9826;","elianto","#f73b6a7A","-1","-1","1","-10","[]","0","0","3","","","","","","","",""
"pit-trial","68","572692","0.0-2.0-14.1-4.1","battery-v0.2","","""event"",""trial"",""time""
""fullscreenenter"",""1"",""3587""
""fullscreenenter"",""1"",""3587""
","
","
","""event"",""trial"",""time""
""fullscreenenter"",""1"",""3587""
""fullscreenenter"",""1"",""3587""
","
","","","-1","","","21","10847","4907","&#9826;","elianto","#f73b6a7A","-1","-1","1","0","[]","0","0","3","","","","","","","",""
"pit-trial","69","577548","0.0-2.0-14.2-0.2","battery-v0.2","","""event"",""trial"",""time""
""fullscreenenter"",""1"",""3587""
""fullscreenenter"",""1"",""3587""
","
","
","""event"",""trial"",""time""
""fullscreenenter"",""1"",""3587""
""fullscreenenter"",""1"",""3587""
","
","","","-1","","","21","10847","4907","&#9826;","elianto","#f73b6a7A","-1","-1","1","0","[]","0","0","3","","","","","","","",""
"pit-trial","70","582403","0.0-2.0-14.2-1.2","battery-v0.2","","""event"",""trial"",""time""
""fullscreenenter"",""1"",""3587""
""fullscreenenter"",""1"",""3587""
","
","
","""event"",""trial"",""time""
""fullscreenenter"",""1"",""3587""
""fullscreenenter"",""1"",""3587""
","
","","","-1","","","21","10847","4907","&#9826;","elianto","#f73b6a7A","-1","-1","1","0","[]","0","0","3","","","","","","","",""
"pit-trial","71","587260","0.0-2.0-14.2-2.2","battery-v0.2","","""event"",""trial"",""time""
""fullscreenenter"",""1"",""3587""
""fullscreenenter"",""1"",""3587""
","
","
","""event"",""trial"",""time""
""fullscreenenter"",""1"",""3587""
""fullscreenenter"",""1"",""3587""
","
","","","-1","","","21","10847","4907","&#9826;","elianto","#f73b6a7A","-1","-1","1","0","[]","0","0","3","","","","","","","",""
"pit-trial","72","592116","0.0-2.0-14.2-3.2","battery-v0.2","","""event"",""trial"",""time""
""fullscreenenter"",""1"",""3587""
""fullscreenenter"",""1"",""3587""
","
","
","""event"",""trial"",""time""
""fullscreenenter"",""1"",""3587""
""fullscreenenter"",""1"",""3587""
","
","","","-1","","","21","10847","4907","&#9826;","elianto","#f73b6a7A","-1","-1","1","-10","[]","0","0","3","","","","","","","",""
"pit-trial","73","596978","0.0-2.0-14.2-4.2","battery-v0.2","","""event"",""trial"",""time""
""fullscreenenter"",""1"",""3587""
""fullscreenenter"",""1"",""3587""
","
","
","""event"",""trial"",""time""
""fullscreenenter"",""1"",""3587""
""fullscreenenter"",""1"",""3587""
","
","","","-1","","","21","10847","4907","&#9826;","elianto","#f73b6a7A","-1","-1","1","0","[]","0","0","3","","","","","","","",""
"pit-trial","74","601834","0.0-2.0-14.3-0.3","battery-v0.2","","""event"",""trial"",""time""
""fullscreenenter"",""1"",""3587""
""fullscreenenter"",""1"",""3587""
","
","
","""event"",""trial"",""time""
""fullscreenenter"",""1"",""3587""
""fullscreenenter"",""1"",""3587""
","
","","","-1","","","21","10847","4907","&#9826;","elianto","#f73b6a7A","-1","-1","1","0","[]","0","0","3","","","","","","","",""
"pit-trial","75","606691","0.0-2.0-14.3-1.3","battery-v0.2","","""event"",""trial"",""time""
""fullscreenenter"",""1"",""3587""
""fullscreenenter"",""1"",""3587""
","
","
","""event"",""trial"",""time""
""fullscreenenter"",""1"",""3587""
""fullscreenenter"",""1"",""3587""
","
","","","-1","","","21","10847","4907","&#9826;","elianto","#f73b6a7A","-1","-1","1","0","[]","0","0","3","","","","","","","",""
"pit-trial","76","611547","0.0-2.0-14.3-2.3","battery-v0.2","","""event"",""trial"",""time""
""fullscreenenter"",""1"",""3587""
""fullscreenenter"",""1"",""3587""
","
","
","""event"",""trial"",""time""
""fullscreenenter"",""1"",""3587""
""fullscreenenter"",""1"",""3587""
","
","","","-1","","","21","10847","4907","&#9826;","elianto","#f73b6a7A","-1","-1","1","0","[]","0","0","3","","","","","","","",""
"pit-trial","77","616403","0.0-2.0-14.3-3.3","battery-v0.2","","""event"",""trial"",""time""
""fullscreenenter"",""1"",""3587""
""fullscreenenter"",""1"",""3587""
","
","
","""event"",""trial"",""time""
""fullscreenenter"",""1"",""3587""
""fullscreenenter"",""1"",""3587""
","
","","","-1","","","21","10847","4907","&#9826;","elianto","#f73b6a7A","-1","-1","1","-10","[]","0","0","3","","","","","","","",""
"pit-trial","78","621259","0.0-2.0-14.3-4.3","battery-v0.2","","""event"",""trial"",""time""
""fullscreenenter"",""1"",""3587""
""fullscreenenter"",""1"",""3587""
","
","
","""event"",""trial"",""time""
""fullscreenenter"",""1"",""3587""
""fullscreenenter"",""1"",""3587""
","
","","","-1","","","21","10847","4907","&#9826;","elianto","#f73b6a7A","-1","-1","1","0","[]","0","0","3","","","","","","","",""
"call-function","79","621263","0.0-2.0-15.0","battery-v0.2","","""event"",""trial"",""time""
""fullscreenenter"",""1"",""3587""
""fullscreenenter"",""1"",""3587""
","
","
","""event"",""trial"",""time""
""fullscreenenter"",""1"",""3587""
""fullscreenenter"",""1"",""3587""
","
","","","","","","","","","","","","","","","","","","","","","","","","","","",""
"pit-instructions","80","647288","0.0-2.0-16.0","battery-v0.2","","""event"",""trial"",""time""
""fullscreenenter"",""1"",""3587""
""fullscreenenter"",""1"",""3587""
","
","
","""event"",""trial"",""time""
""fullscreenenter"",""1"",""3587""
""fullscreenenter"",""1"",""3587""
","
","","[{""page_index"":0,""viewing_time"":6434},{""page_index"":1,""viewing_time"":9804},{""page_index"":2,""viewing_time"":4986},{""page_index"":3,""viewing_time"":4800}]","26024","","","","","","","","","","","","","","","","","","","","","","","",""
"pit-trial","81","650680","0.0-2.0-17.0-0.0","battery-v0.2","","""event"",""trial"",""time""
""fullscreenenter"",""1"",""3587""
""fullscreenenter"",""1"",""3587""
","
","
","""event"",""trial"",""time""
""fullscreenenter"",""1"",""3587""
""fullscreenenter"",""1"",""3587""
","
","","","538","","","21","10847","4907","&#9789;","elianto","#f73b6a7A"," "," ","1","0","[1388]","1","0","4","","","","","","","",""
"pit-trial","82","654009","0.0-2.0-17.0-1.0","battery-v0.2","","""event"",""trial"",""time""
""fullscreenenter"",""1"",""3587""
""fullscreenenter"",""1"",""3587""
","
","
","""event"",""trial"",""time""
""fullscreenenter"",""1"",""3587""
""fullscreenenter"",""1"",""3587""
","
","","","474.0000000001164","","","21","10847","4907","&#9789;","elianto","#f73b6a7A"," "," ","1","0","[1324.0000000001164]","1","0","4","","","","","","","",""
"pit-trial","83","657460","0.0-2.0-17.0-2.0","battery-v0.2","","""event"",""trial"",""time""
""fullscreenenter"",""1"",""3587""
""fullscreenenter"",""1"",""3587""
","
","
","""event"",""trial"",""time""
""fullscreenenter"",""1"",""3587""
""fullscreenenter"",""1"",""3587""
","
","","","596","","","21","10847","4907","&#9789;","elianto","#f73b6a7A"," "," ","1","0","[1446]","1","0","4","","","","","","","",""
"pit-trial","84","660799","0.0-2.0-17.0-3.0","battery-v0.2","","""event"",""trial"",""time""
""fullscreenenter"",""1"",""3587""
""fullscreenenter"",""1"",""3587""
","
","
","""event"",""trial"",""time""
""fullscreenenter"",""1"",""3587""
""fullscreenenter"",""1"",""3587""
","
","","","482","","","21","10847","4907","&#9789;","elianto","#f73b6a7A"," "," ","1","-10","[1333]","1","0","4","","","","","","","",""
"pit-trial","85","664431","0.0-2.0-17.0-4.0","battery-v0.2","","""event"",""trial"",""time""
""fullscreenenter"",""1"",""3587""
""fullscreenenter"",""1"",""3587""
","
","
","""event"",""trial"",""time""
""fullscreenenter"",""1"",""3587""
""fullscreenenter"",""1"",""3587""
","
","","","777","","","21","10847","4907","&#9789;","elianto","#f73b6a7A"," "," ","1","0","[1628]","1","0","4","","","","","","","",""
"pit-trial","86","667760","0.0-2.0-17.1-0.1","battery-v0.2","","""event"",""trial"",""time""
""fullscreenenter"",""1"",""3587""
""fullscreenenter"",""1"",""3587""
","
","
","""event"",""trial"",""time""
""fullscreenenter"",""1"",""3587""
""fullscreenenter"",""1"",""3587""
","
","","","471.0000000001164","","","21","10847","4907","&#9789;","elianto","#f73b6a7A"," "," ","1","0","[1322.0000000001164]","1","0","4","","","","","","","",""
"pit-trial","87","671165","0.0-2.0-17.1-1.1","battery-v0.2","","""event"",""trial"",""time""
""fullscreenenter"",""1"",""3587""
""fullscreenenter"",""1"",""3587""
","
","
","""event"",""trial"",""time""
""fullscreenenter"",""1"",""3587""
""fullscreenenter"",""1"",""3587""
","
","","","550","","","21","10847","4907","&#9789;","elianto","#f73b6a7A"," "," ","1","0","[1401]","1","0","4","","","","","","","",""
"pit-trial","88","674589","0.0-2.0-17.1-2.1","battery-v0.2","","""event"",""trial"",""time""
""fullscreenenter"",""1"",""3587""
""fullscreenenter"",""1"",""3587""
","
","
","""event"",""trial"",""time""
""fullscreenenter"",""1"",""3587""
""fullscreenenter"",""1"",""3587""
","
","","","568","","","21","10847","4907","&#9789;","elianto","#f73b6a7A"," "," ","1","0","[1419]","1","0","4","","","","","","","",""
"pit-trial","89","678084","0.0-2.0-17.1-3.1","battery-v0.2","","""event"",""trial"",""time""
""fullscreenenter"",""1"",""3587""
""fullscreenenter"",""1"",""3587""
","
","
","""event"",""trial"",""time""
""fullscreenenter"",""1"",""3587""
""fullscreenenter"",""1"",""3587""
","
","","","640","","","21","10847","4907","&#9789;","elianto","#f73b6a7A"," "," ","1","-10","[1490]","1","0","4","","","","","","","",""
"pit-trial","90","681538","0.0-2.0-17.1-4.1","battery-v0.2","","""event"",""trial"",""time""
""fullscreenenter"",""1"",""3587""
""fullscreenenter"",""1"",""3587""
","
","
","""event"",""trial"",""time""
""fullscreenenter"",""1"",""3587""
""fullscreenenter"",""1"",""3587""
","
","","","597","","","21","10847","4907","&#9789;","elianto","#f73b6a7A"," "," ","1","0","[1448]","1","0","4","","","","","","","",""
"pit-trial","91","685068","0.0-2.0-17.2-0.2","battery-v0.2","","""event"",""trial"",""time""
""fullscreenenter"",""1"",""3587""
""fullscreenenter"",""1"",""3587""
","
","
","""event"",""trial"",""time""
""fullscreenenter"",""1"",""3587""
""fullscreenenter"",""1"",""3587""
","
","","","674","","","21","10847","4907","&#9789;","elianto","#f73b6a7A"," "," ","1","0","[1524]","1","0","4","","","","","","","",""
"pit-trial","92","688509","0.0-2.0-17.2-1.2","battery-v0.2","","""event"",""trial"",""time""
""fullscreenenter"",""1"",""3587""
""fullscreenenter"",""1"",""3587""
","
","
","""event"",""trial"",""time""
""fullscreenenter"",""1"",""3587""
""fullscreenenter"",""1"",""3587""
","
","","","587","","","21","10847","4907","&#9789;","elianto","#f73b6a7A"," "," ","1","0","[1437.0000000001164]","1","0","4","","","","","","","",""
"pit-trial","93","691978","0.0-2.0-17.2-2.2","battery-v0.2","","""event"",""trial"",""time""
""fullscreenenter"",""1"",""3587""
""fullscreenenter"",""1"",""3587""
","
","
","""event"",""trial"",""time""
""fullscreenenter"",""1"",""3587""
""fullscreenenter"",""1"",""3587""
","
","","","616","","","21","10847","4907","&#9789;","elianto","#f73b6a7A"," "," ","1","0","[1465]","1","0","4","","","","","","","",""
"pit-trial","94","695579","0.0-2.0-17.2-3.2","battery-v0.2","","""event"",""trial"",""time""
""fullscreenenter"",""1"",""3587""
""fullscreenenter"",""1"",""3587""
","
","
","""event"",""trial"",""time""
""fullscreenenter"",""1"",""3587""
""fullscreenenter"",""1"",""3587""
","
","","","745","","","21","10847","4907","&#9789;","elianto","#f73b6a7A"," "," ","1","-10","[1595]","1","0","4","","","","","","","",""
"pit-trial","95","699118","0.0-2.0-17.2-4.2","battery-v0.2","","""event"",""trial"",""time""
""fullscreenenter"",""1"",""3587""
""fullscreenenter"",""1"",""3587""
","
","
","""event"",""trial"",""time""
""fullscreenenter"",""1"",""3587""
""fullscreenenter"",""1"",""3587""
","
","","","684","","","21","10847","4907","&#9789;","elianto","#f73b6a7A"," "," ","1","0","[1534]","1","0","4","","","","","","","",""
"pit-trial","96","702465","0.0-2.0-17.3-0.3","battery-v0.2","","""event"",""trial"",""time""
""fullscreenenter"",""1"",""3587""
""fullscreenenter"",""1"",""3587""
","
","
","""event"",""trial"",""time""
""fullscreenenter"",""1"",""3587""
""fullscreenenter"",""1"",""3587""
","
","","","492","","","21","10847","4907","&#9789;","elianto","#f73b6a7A"," "," ","1","0","[1342]","1","0","4","","","","","","","",""
"pit-trial","97","705952","0.0-2.0-17.3-1.3","battery-v0.2","","""event"",""trial"",""time""
""fullscreenenter"",""1"",""3587""
""fullscreenenter"",""1"",""3587""
","
","
","""event"",""trial"",""time""
""fullscreenenter"",""1"",""3587""
""fullscreenenter"",""1"",""3587""
","
","","","633","","","21","10847","4907","&#9789;","elianto","#f73b6a7A"," "," ","1","0","[1483]","1","0","4","","","","","","","",""
"pit-trial","98","709390","0.0-2.0-17.3-2.3","battery-v0.2","","""event"",""trial"",""time""
""fullscreenenter"",""1"",""3587""
""fullscreenenter"",""1"",""3587""
","
","
","""event"",""trial"",""time""
""fullscreenenter"",""1"",""3587""
""fullscreenenter"",""1"",""3587""
","
","","","581.9999999998836","","","21","10847","4907","&#9789;","elianto","#f73b6a7A"," "," ","1","0","[1432]","1","0","4","","","","","","","",""
"pit-trial","99","712925","0.0-2.0-17.3-3.3","battery-v0.2","","""event"",""trial"",""time""
""fullscreenenter"",""1"",""3587""
""fullscreenenter"",""1"",""3587""
","
","
","""event"",""trial"",""time""
""fullscreenenter"",""1"",""3587""
""fullscreenenter"",""1"",""3587""
","
","","","680","","","21","10847","4907","&#9789;","elianto","#f73b6a7A"," "," ","1","-10","[1530]","1","0","4","","","","","","","",""
"pit-trial","100","716339","0.0-2.0-17.3-4.3","battery-v0.2","","""event"",""trial"",""time""
""fullscreenenter"",""1"",""3587""
""fullscreenenter"",""1"",""3587""
","
","
","""event"",""trial"",""time""
""fullscreenenter"",""1"",""3587""
""fullscreenenter"",""1"",""3587""
","
","","","559","","","21","10847","4907","&#9789;","elianto","#f73b6a7A"," "," ","1","0","[1410]","1","0","4","","","","","","","",""
"call-function","101","716343","0.0-2.0-18.0","battery-v0.2","","""event"",""trial"",""time""
""fullscreenenter"",""1"",""3587""
""fullscreenenter"",""1"",""3587""
","
","
","""event"",""trial"",""time""
""fullscreenenter"",""1"",""3587""
""fullscreenenter"",""1"",""3587""
","
","","","","","","","","","","","","","","","","","","","","","","","","","","",""
"pit-instructions","102","785699","0.0-2.0-19.0","battery-v0.2","","""event"",""trial"",""time""
""fullscreenenter"",""1"",""3587""
""fullscreenenter"",""1"",""3587""
","
","
","""event"",""trial"",""time""
""fullscreenenter"",""1"",""3587""
""fullscreenenter"",""1"",""3587""
","
","","[{""page_index"":0,""viewing_time"":6473},{""page_index"":1,""viewing_time"":6648},{""page_index"":2,""viewing_time"":13374},{""page_index"":3,""viewing_time"":7387},{""page_index"":4,""viewing_time"":8236},{""page_index"":5,""viewing_time"":8712},{""page_index"":6,""viewing_time"":8220},{""page_index"":7,""viewing_time"":6233},{""page_index"":8,""viewing_time"":3777}]","69060","","","","","","","","","","","","","","","","","","","","","","","",""
"pit-comprehension","103","790230","0.0-2.0-20.0-0.0","battery-v0.2","","""event"",""trial"",""time""
""fullscreenenter"",""1"",""3587""
""fullscreenenter"",""1"",""3587""
","
","
","""event"",""trial"",""time""
""fullscreenenter"",""1"",""3587""
""fullscreenenter"",""1"",""3587""
","
","","","4525","[""SPACE""]","0","21","10847","4907","","","","","","","","","","","","","","","","","","",""
"pit-instructions","104","794604","0.0-2.0-20.0-1.0","battery-v0.2","","""event"",""trial"",""time""
""fullscreenenter"",""1"",""3587""
""fullscreenenter"",""1"",""3587""
","
","
","""event"",""trial"",""time""
""fullscreenenter"",""1"",""3587""
""fullscreenenter"",""1"",""3587""
","
","","[{""page_index"":0,""viewing_time"":4338}]","4339","","","","","","","","","","","","","","","","","","","","","","","",""
"pit-comprehension","105","800680","0.0-2.0-21.0-0.0","battery-v0.2","","""event"",""trial"",""time""
""fullscreenenter"",""1"",""3587""
""fullscreenenter"",""1"",""3587""
","
","
","""event"",""trial"",""time""
""fullscreenenter"",""1"",""3587""
""fullscreenenter"",""1"",""3587""
","
","","","6070","[""10""]","0","21","10847","4907","","","","","","","","","","","","","","","","","","",""
"pit-instructions","106","802219","0.0-2.0-21.0-1.0","battery-v0.2","","""event"",""trial"",""time""
""fullscreenenter"",""1"",""3587""
""fullscreenenter"",""1"",""3587""
","
","
","""event"",""trial"",""time""
""fullscreenenter"",""1"",""3587""
""fullscreenenter"",""1"",""3587""
","
","","[{""page_index"":0,""viewing_time"":1504}]","1504","","","","","","","","","","","","","","","","","","","","","","","",""
"pit-comprehension","107","808799","0.0-2.0-22.0-0.0","battery-v0.2","","""event"",""trial"",""time""
""fullscreenenter"",""1"",""3587""
""fullscreenenter"",""1"",""3587""
","
","
","""event"",""trial"",""time""
""fullscreenenter"",""1"",""3587""
""fullscreenenter"",""1"",""3587""
","
","","","6575.000000000116","[""0""]","0","21","10847","4907","","","","","","","","","","","","","","","","","","",""
"pit-instructions","108","810368","0.0-2.0-22.0-1.0","battery-v0.2","","""event"",""trial"",""time""
""fullscreenenter"",""1"",""3587""
""fullscreenenter"",""1"",""3587""
","
","
","""event"",""trial"",""time""
""fullscreenenter"",""1"",""3587""
""fullscreenenter"",""1"",""3587""
","
","","[{""page_index"":0,""viewing_time"":1531}]","1531","","","","","","","","","","","","","","","","","","","","","","","",""
"pit-comprehension","109","818939","0.0-2.0-23.0-0.0","battery-v0.2","","""event"",""trial"",""time""
""fullscreenenter"",""1"",""3587""
""fullscreenenter"",""1"",""3587""
","
","
","""event"",""trial"",""time""
""fullscreenenter"",""1"",""3587""
""fullscreenenter"",""1"",""3587""
","
","","","8564","[""True""]","0","21","10847","4907","","","","","","","","","","","","","","","","","","",""
"pit-instructions","110","820583","0.0-2.0-23.0-1.0","battery-v0.2","","""event"",""trial"",""time""
""fullscreenenter"",""1"",""3587""
""fullscreenenter"",""1"",""3587""
","
","
","""event"",""trial"",""time""
""fullscreenenter"",""1"",""3587""
""fullscreenenter"",""1"",""3587""
","
","","[{""page_index"":0,""viewing_time"":1609}]","1609","","","","","","","","","","","","","","","","","","","","","","","",""
"pit-comprehension","111","828753","0.0-2.0-24.0-0.0","battery-v0.2","","""event"",""trial"",""time""
""fullscreenenter"",""1"",""3587""
""fullscreenenter"",""1"",""3587""
","
","
","""event"",""trial"",""time""
""fullscreenenter"",""1"",""3587""
""fullscreenenter"",""1"",""3587""
","
","","","8162","[""True""]","0","21","10847","4907","","","","","","","","","","","","","","","","","","",""
"pit-instructions","112","830264","0.0-2.0-24.0-1.0","battery-v0.2","","""event"",""trial"",""time""
""fullscreenenter"",""1"",""3587""
""fullscreenenter"",""1"",""3587""
","
","
","""event"",""trial"",""time""
""fullscreenenter"",""1"",""3587""
""fullscreenenter"",""1"",""3587""
","
","","[{""page_index"":0,""viewing_time"":1477}]","1478.0000000001164","","","","","","","","","","","","","","","","","","","","","","","",""
"pit-comprehension","113","836740","0.0-2.0-25.0-0.0","battery-v0.2","","""event"",""trial"",""time""
""fullscreenenter"",""1"",""3587""
""fullscreenenter"",""1"",""3587""
","
","
","""event"",""trial"",""time""
""fullscreenenter"",""1"",""3587""
""fullscreenenter"",""1"",""3587""
","
","","","6468.999999999884","[""True""]","0","21","10847","4907","","","","","","","","","","","","","","","","","","",""
"pit-instructions","114","838305","0.0-2.0-25.0-1.0","battery-v0.2","","""event"",""trial"",""time""
""fullscreenenter"",""1"",""3587""
""fullscreenenter"",""1"",""3587""
","
","
","""event"",""trial"",""time""
""fullscreenenter"",""1"",""3587""
""fullscreenenter"",""1"",""3587""
","
","","[{""page_index"":0,""viewing_time"":1529.9999999998836}]","1529.9999999998836","","","","","","","","","","","","","","","","","","","","","","","",""
"pit-comprehension","115","843259","0.0-2.0-26.0-0.0","battery-v0.2","","""event"",""trial"",""time""
""fullscreenenter"",""1"",""3587""
""fullscreenenter"",""1"",""3587""
","
","
","""event"",""trial"",""time""
""fullscreenenter"",""1"",""3587""
""fullscreenenter"",""1"",""3587""
","
","","","4948","[""False""]","0","21","10847","4907","","","","","","","","","","","","","","","","","","",""
"pit-instructions","116","845032","0.0-2.0-26.0-1.0","battery-v0.2","","""event"",""trial"",""time""
""fullscreenenter"",""1"",""3587""
""fullscreenenter"",""1"",""3587""
","
","
","""event"",""trial"",""time""
""fullscreenenter"",""1"",""3587""
""fullscreenenter"",""1"",""3587""
","
","","[{""page_index"":0,""viewing_time"":1732}]","1732","","","","","","","","","","","","","","","","","","","","","","","",""
"pit-instructions","117","861264","0.0-3.0","battery-v0.2","","""event"",""trial"",""time""
""fullscreenenter"",""1"",""3587""
""fullscreenenter"",""1"",""3587""
","
","
","""event"",""trial"",""time""
""fullscreenenter"",""1"",""3587""
""fullscreenenter"",""1"",""3587""
","
","","[{""page_index"":0,""viewing_time"":4027},{""page_index"":1,""viewing_time"":5067},{""page_index"":2,""viewing_time"":7133}]","16227","","","","","","","","","","","","","","","","","","","","","","","",""
"pit-trial","118","864659","0.0-4.0","battery-v0.2","","""event"",""trial"",""time""
""fullscreenenter"",""1"",""3587""
""fullscreenenter"",""1"",""3587""
","
","
","""event"",""trial"",""time""
""fullscreenenter"",""1"",""3587""
""fullscreenenter"",""1"",""3587""
","
","","","536","","","21","10847","4907","&#9728;","elianto","#f73b6a7A","-1"," ","0","0","[1388]","1","1","","","10847","1","0","4","lose","no-go","1"
"pit-trial","119","868403","0.0-5.0","battery-v0.2","","""event"",""trial"",""time""
""fullscreenenter"",""1"",""3587""
""fullscreenenter"",""1"",""3587""
","
","
","""event"",""trial"",""time""
""fullscreenenter"",""1"",""3587""
""fullscreenenter"",""1"",""3587""
","
","","","889","","","21","10847","4907","&#9733;","elianto","#3366ff99","-1"," ","0","0","[1739]","1","1","","","10847","2","2","2","win","no-go","0"
"pit-trial","120","872256","0.0-6.0","battery-v0.2","","""event"",""trial"",""time""
""fullscreenenter"",""1"",""3587""
""fullscreenenter"",""1"",""3587""
","
","
","""event"",""trial"",""time""
""fullscreenenter"",""1"",""3587""
""fullscreenenter"",""1"",""3587""
","
","","","998","","","21","10847","4907","&#9752;","elianto","#f73b6a7A"," "," ","1","0","[1848]","1","1","","","10847","3","3","3","lose","go","0"
"pit-trial","121","876066","0.0-7.0","battery-v0.2","","""event"",""trial"",""time""
""fullscreenenter"",""1"",""3587""
""fullscreenenter"",""1"",""3587""
","
","
","""event"",""trial"",""time""
""fullscreenenter"",""1"",""3587""
""fullscreenenter"",""1"",""3587""
","
","","","955","","","21","10847","4907","&#9730;","elianto","#3366ff99"," "," ","1","+10","[1805]","1","1","","","10847","4","1","1","win","go","0"
"pit-trial","122","880922","0.0-8.0","battery-v0.2","","""event"",""trial"",""time""
""fullscreenenter"",""1"",""3587""
""fullscreenenter"",""1"",""3587""
","
","
","""event"",""trial"",""time""
""fullscreenenter"",""1"",""3587""
""fullscreenenter"",""1"",""3587""
","
","","","-1","","","21","10847","4907","&#9752;","elianto","#f73b6a7A"," ","-1","0","-10","[]","0","1","","","10847","5","3","3","lose","go","0"
"pit-trial","123","885778","0.0-9.0","battery-v0.2","","""event"",""trial"",""time""
""fullscreenenter"",""1"",""3587""
""fullscreenenter"",""1"",""3587""
","
","
","""event"",""trial"",""time""
""fullscreenenter"",""1"",""3587""
""fullscreenenter"",""1"",""3587""
","
","","","-1","","","21","10847","4907","&#9728;","elianto","#f73b6a7A","-1","-1","1","0","[]","0","1","","","10847","6","0","4","lose","no-go","0"
"pit-trial","124","889213","0.0-10.0","battery-v0.2","","""event"",""trial"",""time""
""fullscreenenter"",""1"",""3587""
""fullscreenenter"",""1"",""3587""
","
","
","""event"",""trial"",""time""
""fullscreenenter"",""1"",""3587""
""fullscreenenter"",""1"",""3587""
","
","","","577","","","21","10847","4907","&#9730;","elianto","#3366ff99"," "," ","1","+10","[1427]","1","1","","","10847","7","1","1","win","go","0"
"pit-trial","125","893081","0.0-11.0","battery-v0.2","","""event"",""trial"",""time""
""fullscreenenter"",""1"",""3587""
""fullscreenenter"",""1"",""3587""
","
","
","""event"",""trial"",""time""
""fullscreenenter"",""1"",""3587""
""fullscreenenter"",""1"",""3587""
","
","","","1009","","","21","10847","4907","&#9733;","elianto","#3366ff99","-1"," ","0","0","[1858.9999999998836]","1","1","","","10847","8","2","2","win","no-go","0"
"pit-trial","126","896924","0.0-12.0","battery-v0.2","","""event"",""trial"",""time""
""fullscreenenter"",""1"",""3587""
""fullscreenenter"",""1"",""3587""
","
","
","""event"",""trial"",""time""
""fullscreenenter"",""1"",""3587""
""fullscreenenter"",""1"",""3587""
","
","","","986","","","21","10847","4907","&#9730;","elianto","#3366ff99"," "," ","1","0","[1837]","1","1","","","10847","9","1","1","win","go","1"
"pit-trial","127","901780","0.0-13.0","battery-v0.2","","""event"",""trial"",""time""
""fullscreenenter"",""1"",""3587""
""fullscreenenter"",""1"",""3587""
","
","
","""event"",""trial"",""time""
""fullscreenenter"",""1"",""3587""
""fullscreenenter"",""1"",""3587""
","
","","","-1","","","21","10847","4907","&#9752;","elianto","#f73b6a7A"," ","-1","0","-10","[]","0","1","","","10847","10","3","3","lose","go","0"
"pit-trial","128","906636","0.0-14.0","battery-v0.2","","""event"",""trial"",""time""
""fullscreenenter"",""1"",""3587""
""fullscreenenter"",""1"",""3587""
","
","
","""event"",""trial"",""time""
""fullscreenenter"",""1"",""3587""
""fullscreenenter"",""1"",""3587""
","
","","","-1","","","21","10847","4907","&#9728;","elianto","#f73b6a7A","-1","-1","1","-10","[]","0","1","","","10847","11","0","4","lose","no-go","1"
"pit-trial","129","910220","0.0-15.0","battery-v0.2","","""event"",""trial"",""time""
""fullscreenenter"",""1"",""3587""
""fullscreenenter"",""1"",""3587""
","
","
","""event"",""trial"",""time""
""fullscreenenter"",""1"",""3587""
""fullscreenenter"",""1"",""3587""
","
","","","727.9999999998836","","","21","10847","4907","&#9733;","elianto","#3366ff99","-1"," ","0","+10","[1578]","1","1","","","10847","12","2","2","win","no-go","1"
"pit-trial","130","913986","0.0-16.0","battery-v0.2","","""event"",""trial"",""time""
""fullscreenenter"",""1"",""3587""
""fullscreenenter"",""1"",""3587""
","
","
","""event"",""trial"",""time""
""fullscreenenter"",""1"",""3587""
""fullscreenenter"",""1"",""3587""
","
","","","909","","","21","10847","4907","&#9752;","elianto","#f73b6a7A"," "," ","1","0","[1760]","1","1","","","10847","13","3","3","lose","go","0"
"pit-trial","131","917626","0.0-17.0","battery-v0.2","","""event"",""trial"",""time""
""fullscreenenter"",""1"",""3587""
""fullscreenenter"",""1"",""3587""
","
","
","""event"",""trial"",""time""
""fullscreenenter"",""1"",""3587""
""fullscreenenter"",""1"",""3587""
","
","","","783","","","21","10847","4907","&#9730;","elianto","#3366ff99"," "," ","1","+10","[1634]","1","1","","","10847","14","1","1","win","go","0"
"pit-trial","132","922482","0.0-18.0","battery-v0.2","","""event"",""trial"",""time""
""fullscreenenter"",""1"",""3587""
""fullscreenenter"",""1"",""3587""
","
","
","""event"",""trial"",""time""
""fullscreenenter"",""1"",""3587""
""fullscreenenter"",""1"",""3587""
","
","","","-1","","","21","10847","4907","&#9728;","elianto","#f73b6a7A","-1","-1","1","0","[]","0","1","","","10847","15","0","4","lose","no-go","0"
"pit-trial","133","925906","0.0-19.0","battery-v0.2","","""event"",""trial"",""time""
""fullscreenenter"",""1"",""3587""
""fullscreenenter"",""1"",""3587""
","
","
","""event"",""trial"",""time""
""fullscreenenter"",""1"",""3587""
""fullscreenenter"",""1"",""3587""
","
","","","567.0000000001164","","","21","10847","4907","&#9733;","elianto","#3366ff99","-1"," ","0","0","[1419.0000000001164]","1","1","","","10847","16","2","2","win","no-go","0"
"pit-trial","134","930763","0.0-20.0","battery-v0.2","","""event"",""trial"",""time""
""fullscreenenter"",""1"",""3587""
""fullscreenenter"",""1"",""3587""
","
","
","""event"",""trial"",""time""
""fullscreenenter"",""1"",""3587""
""fullscreenenter"",""1"",""3587""
","
","","","-1","","","21","10847","4907","&#9733;","elianto","#3366ff99","-1","-1","1","+10","[]","0","1","","","10847","17","2","2","win","no-go","0"
"pit-trial","135","934581","0.0-21.0","battery-v0.2","","""event"",""trial"",""time""
""fullscreenenter"",""1"",""3587""
""fullscreenenter"",""1"",""3587""
","
","
","""event"",""trial"",""time""
""fullscreenenter"",""1"",""3587""
""fullscreenenter"",""1"",""3587""
","
","","","962","","","21","10847","4907","&#9730;","elianto","#3366ff99"," "," ","1","+10","[1813]","1","1","","","10847","18","1","1","win","go","0"
"pit-trial","136","939378","0.0-22.0","battery-v0.2","","""event"",""trial"",""time""
""fullscreenenter"",""1"",""3587""
""fullscreenenter"",""1"",""3587""
","
","
","""event"",""trial"",""time""
""fullscreenenter"",""1"",""3587""
""fullscreenenter"",""1"",""3587""
","
","","","1941","","","21","10847","4907","&#9752;","elianto","#f73b6a7A"," "," ","1","-10","[2792]","1","1","","","10847","19","3","3","lose","go","1"
"pit-trial","137","943593","0.0-23.0","battery-v0.2","","""event"",""trial"",""time""
""fullscreenenter"",""1"",""3587""
""fullscreenenter"",""1"",""3587""
","
","
","""event"",""trial"",""time""
""fullscreenenter"",""1"",""3587""
""fullscreenenter"",""1"",""3587""
","
","","","1357","","","21","10847","4907","&#9728;","elianto","#f73b6a7A","-1"," ","0","-10","[2207]","1","1","","","10847","20","0","4","lose","no-go","0"
"pit-instructions","138","955886","0.0-24.0","battery-v0.2","","""event"",""trial"",""time""
""fullscreenenter"",""1"",""3587""
""fullscreenenter"",""1"",""3587""
","
","
","""event"",""trial"",""time""
""fullscreenenter"",""1"",""3587""
""fullscreenenter"",""1"",""3587""
","
","","[{""page_index"":0,""viewing_time"":5618},{""page_index"":1,""viewing_time"":6669}]","12288","","","","","","","","","","","","","","","","","","","","","","","",""
"pit-trial","139","959321","0.0-25.0","battery-v0.2","","""event"",""trial"",""time""
""fullscreenenter"",""1"",""3587""
""fullscreenenter"",""1"",""3587""
","
","
","""event"",""trial"",""time""
""fullscreenenter"",""1"",""3587""
""fullscreenenter"",""1"",""3587""
","
","","","576","","","21","10847","4907","t","elianto","#f73b6a7A"," "," ","1","0","[1427]","1","2","","","10847","21","2","3","lose","go","0"
"pit-trial","140","962900","0.0-26.0","battery-v0.2","","""event"",""trial"",""time""
""fullscreenenter"",""1"",""3587""
""fullscreenenter"",""1"",""3587""
","
","
","""event"",""trial"",""time""
""fullscreenenter"",""1"",""3587""
""fullscreenenter"",""1"",""3587""
","
","","","722","","","21","10847","4907","b","elianto","#f73b6a7A","-1"," ","0","-10","[1572]","1","2","","","10847","22","3","4","lose","no-go","0"
"pit-trial","141","966830","0.0-27.0","battery-v0.2","","""event"",""trial"",""time""
""fullscreenenter"",""1"",""3587""
""fullscreenenter"",""1"",""3587""
","
","
","""event"",""trial"",""time""
""fullscreenenter"",""1"",""3587""
""fullscreenenter"",""1"",""3587""
","
","","","1073","","","21","10847","4907","f","elianto","#3366ff99","-1"," ","0","+10","[1923.9999999998836]","1","2","","","10847","23","1","2","win","no-go","1"
"pit-trial","142","970609","0.0-28.0","battery-v0.2","","""event"",""trial"",""time""
""fullscreenenter"",""1"",""3587""
""fullscreenenter"",""1"",""3587""
","
","
","""event"",""trial"",""time""
""fullscreenenter"",""1"",""3587""
""fullscreenenter"",""1"",""3587""
","
","","","924","","","21","10847","4907","n","elianto","#f73b6a7A"," "," ","1","0","[1774]","1","2","","","10847","24","0","3","lose","go","0"
"pit-trial","143","974999","0.0-29.0","battery-v0.2","","""event"",""trial"",""time""
""fullscreenenter"",""1"",""3587""
""fullscreenenter"",""1"",""3587""
","
","
","""event"",""trial"",""time""
""fullscreenenter"",""1"",""3587""
""fullscreenenter"",""1"",""3587""
","
","","","1534","","","21","10847","4907","t","elianto","#f73b6a7A"," "," ","1","-10","[2385]","1","2","","","10847","25","2","3","lose","go","1"
"pit-trial","144","978948","0.0-30.0","battery-v0.2","","""event"",""trial"",""time""
""fullscreenenter"",""1"",""3587""
""fullscreenenter"",""1"",""3587""
","
","
","""event"",""trial"",""time""
""fullscreenenter"",""1"",""3587""
""fullscreenenter"",""1"",""3587""
","
","","","1094.0000000001164","","","21","10847","4907","f","elianto","#3366ff99","-1"," ","0","0","[1944.0000000001164]","1","2","","","10847","26","1","2","win","no-go","0"
"pit-trial","145","982874","0.0-31.0","battery-v0.2","","""event"",""trial"",""time""
""fullscreenenter"",""1"",""3587""
""fullscreenenter"",""1"",""3587""
","
","
","""event"",""trial"",""time""
""fullscreenenter"",""1"",""3587""
""fullscreenenter"",""1"",""3587""
","
","","","1069","","","21","10847","4907","n","elianto","#f73b6a7A"," "," ","1","0","[1918.9999999998836]","1","2","","","10847","27","0","3","lose","go","0"
"pit-trial","146","987731","0.0-32.0","battery-v0.2","","""event"",""trial"",""time""
""fullscreenenter"",""1"",""3587""
""fullscreenenter"",""1"",""3587""
","
","
","""event"",""trial"",""time""
""fullscreenenter"",""1"",""3587""
""fullscreenenter"",""1"",""3587""
","
","","","-1","","","21","10847","4907","b","elianto","#f73b6a7A","-1","-1","1","-10","[]","0","2","","","10847","28","3","4","lose","no-go","1"
"pit-trial","147","991764","0.0-33.0","battery-v0.2","","""event"",""trial"",""time""
""fullscreenenter"",""1"",""3587""
""fullscreenenter"",""1"",""3587""
","
","
","""event"",""trial"",""time""
""fullscreenenter"",""1"",""3587""
""fullscreenenter"",""1"",""3587""
","
","","","1177","","","21","10847","4907","n","elianto","#f73b6a7A"," "," ","1","0","[2028]","1","2","","","10847","29","0","3","lose","go","0"
"pit-trial","148","995586","0.0-34.0","battery-v0.2","","""event"",""trial"",""time""
""fullscreenenter"",""1"",""3587""
""fullscreenenter"",""1"",""3587""
","
","
","""event"",""trial"",""time""
""fullscreenenter"",""1"",""3587""
""fullscreenenter"",""1"",""3587""
","
","","","965","","","21","10847","4907","f","elianto","#3366ff99","-1"," ","0","+10","[1816]","1","2","","","10847","30","1","2","win","no-go","1"
"pit-trial","149","1000188","0.0-35.0","battery-v0.2","","""event"",""trial"",""time""
""fullscreenenter"",""1"",""3587""
""fullscreenenter"",""1"",""3587""
","
","
","""event"",""trial"",""time""
""fullscreenenter"",""1"",""3587""
""fullscreenenter"",""1"",""3587""
","
","","","1745","","","21","10847","4907","b","elianto","#f73b6a7A","-1"," ","0","-10","[2594.9999999998836]","1","2","","","10847","31","3","4","lose","no-go","0"
"pit-trial","150","1005044","0.0-36.0","battery-v0.2","","""event"",""trial"",""time""
""fullscreenenter"",""1"",""3587""
""fullscreenenter"",""1"",""3587""
","
","
","""event"",""trial"",""time""
""fullscreenenter"",""1"",""3587""
""fullscreenenter"",""1"",""3587""
","
","","","-1","","","21","10847","4907","t","elianto","#f73b6a7A"," ","-1","0","-10","[]","0","2","","","10847","32","2","3","lose","go","0"
"pit-trial","151","1008924","0.0-37.0","battery-v0.2","","""event"",""trial"",""time""
""fullscreenenter"",""1"",""3587""
""fullscreenenter"",""1"",""3587""
","
","
","""event"",""trial"",""time""
""fullscreenenter"",""1"",""3587""
""fullscreenenter"",""1"",""3587""
","
","","","1022.9999999998836","","","21","10847","4907","b","elianto","#f73b6a7A","-1"," ","0","-10","[1873.9999999998836]","1","2","","","10847","33","3","4","lose","no-go","0"
"pit-trial","152","1012811","0.0-38.0","battery-v0.2","","""event"",""trial"",""time""
""fullscreenenter"",""1"",""3587""
""fullscreenenter"",""1"",""3587""
","
","
","""event"",""trial"",""time""
""fullscreenenter"",""1"",""3587""
""fullscreenenter"",""1"",""3587""
","
","","","1031","","","21","10847","4907","t","elianto","#f73b6a7A"," "," ","1","0","[1880.9999999998836]","1","2","","","10847","34","2","3","lose","go","0"
"pit-trial","153","1016651","0.0-39.0","battery-v0.2","","""event"",""trial"",""time""
""fullscreenenter"",""1"",""3587""
""fullscreenenter"",""1"",""3587""
","
","
","""event"",""trial"",""time""
""fullscreenenter"",""1"",""3587""
""fullscreenenter"",""1"",""3587""
","
","","","984.0000000001164","","","21","10847","4907","f","elianto","#3366ff99","-1"," ","0","0","[1835.0000000001164]","1","2","","","10847","35","1","2","win","no-go","0"
"pit-trial","154","1021508","0.0-40.0","battery-v0.2","","""event"",""trial"",""time""
""fullscreenenter"",""1"",""3587""
""fullscreenenter"",""1"",""3587""
","
","
","""event"",""trial"",""time""
""fullscreenenter"",""1"",""3587""
""fullscreenenter"",""1"",""3587""
","
","","","-1","","","21","10847","4907","n","elianto","#f73b6a7A"," ","-1","0","-10","[2997.9999999998836]","1","2","","","10847","36","0","3","lose","go","0"
"pit-trial","155","1026365","0.0-41.0","battery-v0.2","","""event"",""trial"",""time""
""fullscreenenter"",""1"",""3587""
""fullscreenenter"",""1"",""3587""
","
","
","""event"",""trial"",""time""
""fullscreenenter"",""1"",""3587""
""fullscreenenter"",""1"",""3587""
","
","","","-1","","","21","10847","4907","n","elianto","#f73b6a7A"," ","-1","0","-10","[]","0","2","","","10847","37","0","3","lose","go","0"
"pit-trial","156","1031222","0.0-42.0","battery-v0.2","","""event"",""trial"",""time""
""fullscreenenter"",""1"",""3587""
""fullscreenenter"",""1"",""3587""
","
","
","""event"",""trial"",""time""
""fullscreenenter"",""1"",""3587""
""fullscreenenter"",""1"",""3587""
","
","","","-1","","","21","10847","4907","f","elianto","#3366ff99","-1","-1","1","0","[]","0","2","","","10847","38","1","2","win","no-go","1"
"pit-trial","157","1035351","0.0-43.0","battery-v0.2","","""event"",""trial"",""time""
""fullscreenenter"",""1"",""3587""
""fullscreenenter"",""1"",""3587""
","
","
","""event"",""trial"",""time""
""fullscreenenter"",""1"",""3587""
""fullscreenenter"",""1"",""3587""
","
","","","1274.0000000001164","","","21","10847","4907","b","elianto","#f73b6a7A","-1"," ","0","-10","[2124]","1","2","","","10847","39","3","4","lose","no-go","0"
"pit-trial","158","1040207","0.0-44.0","battery-v0.2","","""event"",""trial"",""time""
""fullscreenenter"",""1"",""3587""
""fullscreenenter"",""1"",""3587""
","
","
","""event"",""trial"",""time""
""fullscreenenter"",""1"",""3587""
""fullscreenenter"",""1"",""3587""
","
","","","-1","","","21","10847","4907","t","elianto","#f73b6a7A"," ","-1","0","-10","[]","0","2","","","10847","40","2","3","lose","go","0"
"pit-trial","159","1044534","0.0-45.0","battery-v0.2","","""event"",""trial"",""time""
""fullscreenenter"",""1"",""3587""
""fullscreenenter"",""1"",""3587""
","
","
","""event"",""trial"",""time""
""fullscreenenter"",""1"",""3587""
""fullscreenenter"",""1"",""3587""
","
","","","1471","","","21","10847","4907","n","elianto","#f73b6a7A"," "," ","1","-10","[2321.0000000001164]","1","2","","","10847","41","0","3","lose","go","1"
"pit-trial","160","1048267","0.0-46.0","battery-v0.2","","""event"",""trial"",""time""
""fullscreenenter"",""1"",""3587""
""fullscreenenter"",""1"",""3587""
","
","
","""event"",""trial"",""time""
""fullscreenenter"",""1"",""3587""
""fullscreenenter"",""1"",""3587""
","
","","","876.9999999998836","","","21","10847","4907","t","elianto","#f73b6a7A"," "," ","1","0","[1727]","1","2","","","10847","42","2","3","lose","go","0"
"pit-trial","161","1053123","0.0-47.0","battery-v0.2","","""event"",""trial"",""time""
""fullscreenenter"",""1"",""3587""
""fullscreenenter"",""1"",""3587""
","
","
","""event"",""trial"",""time""
""fullscreenenter"",""1"",""3587""
""fullscreenenter"",""1"",""3587""
","
","","","-1","","","21","10847","4907","b","elianto","#f73b6a7A","-1","-1","1","-10","[]","0","2","","","10847","43","3","4","lose","no-go","1"
"pit-trial","162","1056823","0.0-48.0","battery-v0.2","","""event"",""trial"",""time""
""fullscreenenter"",""1"",""3587""
""fullscreenenter"",""1"",""3587""
","
","
","""event"",""trial"",""time""
""fullscreenenter"",""1"",""3587""
""fullscreenenter"",""1"",""3587""
","
","","","844","","","21","10847","4907","f","elianto","#3366ff99","-1"," ","0","+10","[1693.9999999997672]","1","2","","","10847","44","1","2","win","no-go","1"
"pit-trial","163","1060562","0.0-49.0","battery-v0.2","","""event"",""trial"",""time""
""fullscreenenter"",""1"",""3587""
""fullscreenenter"",""1"",""3587""
","
","
","""event"",""trial"",""time""
""fullscreenenter"",""1"",""3587""
""fullscreenenter"",""1"",""3587""
","
","","","884","","","21","10847","4907","f","elianto","#3366ff99","-1"," ","0","0","[1734]","1","2","","","10847","45","1","2","win","no-go","0"
"pit-trial","164","1065419","0.0-50.0","battery-v0.2","","""event"",""trial"",""time""
""fullscreenenter"",""1"",""3587""
""fullscreenenter"",""1"",""3587""
","
","
","""event"",""trial"",""time""
""fullscreenenter"",""1"",""3587""
""fullscreenenter"",""1"",""3587""
","
","","","-1","","","21","10847","4907","b","elianto","#f73b6a7A","-1","-1","1","0","[]","0","2","","","10847","46","3","4","lose","no-go","0"
"pit-trial","165","1069956","0.0-51.0","battery-v0.2","","""event"",""trial"",""time""
""fullscreenenter"",""1"",""3587""
""fullscreenenter"",""1"",""3587""
","
","
","""event"",""trial"",""time""
""fullscreenenter"",""1"",""3587""
""fullscreenenter"",""1"",""3587""
","
","","","1679","","","21","10847","4907","n","elianto","#f73b6a7A"," "," ","1","0","[2531]","1","2","","","10847","47","0","3","lose","go","0"
"pit-trial","166","1074813","0.0-52.0","battery-v0.2","","""event"",""trial"",""time""
""fullscreenenter"",""1"",""3587""
""fullscreenenter"",""1"",""3587""
","
","
","""event"",""trial"",""time""
""fullscreenenter"",""1"",""3587""
""fullscreenenter"",""1"",""3587""
","
","","","-1","","","21","10847","4907","t","elianto","#f73b6a7A"," ","-1","0","-10","[]","0","2","","","10847","48","2","3","lose","go","0"
"pit-trial","167","1079669","0.0-53.0","battery-v0.2","","""event"",""trial"",""time""
""fullscreenenter"",""1"",""3587""
""fullscreenenter"",""1"",""3587""
","
","
","""event"",""trial"",""time""
""fullscreenenter"",""1"",""3587""
""fullscreenenter"",""1"",""3587""
","
","","","-1","","","21","10847","4907","f","elianto","#3366ff99","-1","-1","1","+10","[]","0","2","","","10847","49","1","2","win","no-go","0"
"pit-trial","168","1083987","0.0-54.0","battery-v0.2","","""event"",""trial"",""time""
""fullscreenenter"",""1"",""3587""
""fullscreenenter"",""1"",""3587""
","
","
","""event"",""trial"",""time""
""fullscreenenter"",""1"",""3587""
""fullscreenenter"",""1"",""3587""
","
","","","1462","","","21","10847","4907","t","elianto","#f73b6a7A"," "," ","1","0","[2312]","1","2","","","10847","50","2","3","lose","go","0"
"pit-trial","169","1088234","0.0-55.0","battery-v0.2","","""event"",""trial"",""time""
""fullscreenenter"",""1"",""3587""
""fullscreenenter"",""1"",""3587""
","
","
","""event"",""trial"",""time""
""fullscreenenter"",""1"",""3587""
""fullscreenenter"",""1"",""3587""
","
","","","1390","","","21","10847","4907","n","elianto","#f73b6a7A"," "," ","1","-10","[2240]","1","2","","","10847","51","0","3","lose","go","1"
"pit-trial","170","1092107","0.0-56.0","battery-v0.2","","""event"",""trial"",""time""
""fullscreenenter"",""1"",""3587""
""fullscreenenter"",""1"",""3587""
","
","
","""event"",""trial"",""time""
""fullscreenenter"",""1"",""3587""
""fullscreenenter"",""1"",""3587""
","
","","","1014","","","21","10847","4907","b","elianto","#f73b6a7A","-1"," ","0","-10","[1866]","1","2","","","10847","52","3","4","lose","no-go","0"
"pit-trial","171","1096963","0.0-57.0","battery-v0.2","","""event"",""trial"",""time""
""fullscreenenter"",""1"",""3587""
""fullscreenenter"",""1"",""3587""
","
","
","""event"",""trial"",""time""
""fullscreenenter"",""1"",""3587""
""fullscreenenter"",""1"",""3587""
","
","","","-1","","","21","10847","4907","f","elianto","#3366ff99","-1","-1","1","+10","[]","0","2","","","10847","53","1","2","win","no-go","0"
"pit-trial","172","1101818","0.0-58.0","battery-v0.2","","""event"",""trial"",""time""
""fullscreenenter"",""1"",""3587""
""fullscreenenter"",""1"",""3587""
","
","
","""event"",""trial"",""time""
""fullscreenenter"",""1"",""3587""
""fullscreenenter"",""1"",""3587""
","
","","","-1","","","21","10847","4907","b","elianto","#f73b6a7A","-1","-1","1","0","[]","0","2","","","10847","54","3","4","lose","no-go","0"
"pit-trial","173","1105591","0.0-59.0","battery-v0.2","","""event"",""trial"",""time""
""fullscreenenter"",""1"",""3587""
""fullscreenenter"",""1"",""3587""
","
","
","""event"",""trial"",""time""
""fullscreenenter"",""1"",""3587""
""fullscreenenter"",""1"",""3587""
","
","","","917.0000000002328","","","21","10847","4907","n","elianto","#f73b6a7A"," "," ","1","0","[1767.0000000002328]","1","2","","","10847","55","0","3","lose","go","0"
"pit-trial","174","1110020","0.0-60.0","battery-v0.2","","""event"",""trial"",""time""
""fullscreenenter"",""1"",""3587""
""fullscreenenter"",""1"",""3587""
","
","
","""event"",""trial"",""time""
""fullscreenenter"",""1"",""3587""
""fullscreenenter"",""1"",""3587""
","
","","","1573","","","21","10847","4907","t","elianto","#f73b6a7A"," "," ","1","0","[2423]","1","2","","","10847","56","2","3","lose","go","0"
"pit-trial","175","1114876","0.0-61.0","battery-v0.2","","""event"",""trial"",""time""
""fullscreenenter"",""1"",""3587""
""fullscreenenter"",""1"",""3587""
","
","
","""event"",""trial"",""time""
""fullscreenenter"",""1"",""3587""
""fullscreenenter"",""1"",""3587""
","
","","","-1","","","21","10847","4907","b","elianto","#f73b6a7A","-1","-1","1","0","[]","0","2","","","10847","57","3","4","lose","no-go","0"
"pit-trial","176","1119665","0.0-62.0","battery-v0.2","","""event"",""trial"",""time""
""fullscreenenter"",""1"",""3587""
""fullscreenenter"",""1"",""3587""
","
","
","""event"",""trial"",""time""
""fullscreenenter"",""1"",""3587""
""fullscreenenter"",""1"",""3587""
","
","","","1933","","","21","10847","4907","t","elianto","#f73b6a7A"," "," ","1","0","[2784]","1","2","","","10847","58","2","3","lose","go","0"
"pit-trial","177","1123823","0.0-63.0","battery-v0.2","","""event"",""trial"",""time""
""fullscreenenter"",""1"",""3587""
""fullscreenenter"",""1"",""3587""
","
","
","""event"",""trial"",""time""
""fullscreenenter"",""1"",""3587""
""fullscreenenter"",""1"",""3587""
","
","","","1302","","","21","10847","4907","c","elianto","#3366ff99"," "," ","1","0","[2152]","1","2","","","10847","59","4","1","win","go","1"
"pit-trial","178","1128235","0.0-64.0","battery-v0.2","","""event"",""trial"",""time""
""fullscreenenter"",""1"",""3587""
""fullscreenenter"",""1"",""3587""
","
","
","""event"",""trial"",""time""
""fullscreenenter"",""1"",""3587""
""fullscreenenter"",""1"",""3587""
","
","","","1554","","","21","10847","4907","n","elianto","#f73b6a7A"," "," ","1","-10","[2404]","1","2","","","10847","60","0","3","lose","go","1"
"pit-trial","179","1132772","0.0-65.0","battery-v0.2","","""event"",""trial"",""time""
""fullscreenenter"",""1"",""3587""
""fullscreenenter"",""1"",""3587""
","
","
","""event"",""trial"",""time""
""fullscreenenter"",""1"",""3587""
""fullscreenenter"",""1"",""3587""
","
","","","1679.9999999997672","","","21","10847","4907","c","elianto","#3366ff99"," "," ","1","+10","[2530]","1","2","","","10847","61","4","1","win","go","0"
"pit-trial","180","1137627","0.0-66.0","battery-v0.2","","""event"",""trial"",""time""
""fullscreenenter"",""1"",""3587""
""fullscreenenter"",""1"",""3587""
","
","
","""event"",""trial"",""time""
""fullscreenenter"",""1"",""3587""
""fullscreenenter"",""1"",""3587""
","
","","","-1","","","21","10847","4907","b","elianto","#f73b6a7A","-1","-1","1","0","[]","0","2","","","10847","62","3","4","lose","no-go","0"
"pit-trial","181","1141771","0.0-67.0","battery-v0.2","","""event"",""trial"",""time""
""fullscreenenter"",""1"",""3587""
""fullscreenenter"",""1"",""3587""
","
","
","""event"",""trial"",""time""
""fullscreenenter"",""1"",""3587""
""fullscreenenter"",""1"",""3587""
","
","","","1288","","","21","10847","4907","f","elianto","#3366ff99","-1"," ","0","0","[2138]","1","2","","","10847","63","1","2","win","no-go","0"
"pit-trial","182","1146626","0.0-68.0","battery-v0.2","","""event"",""trial"",""time""
""fullscreenenter"",""1"",""3587""
""fullscreenenter"",""1"",""3587""
","
","
","""event"",""trial"",""time""
""fullscreenenter"",""1"",""3587""
""fullscreenenter"",""1"",""3587""
","
","","","-1","","","21","10847","4907","t","elianto","#f73b6a7A"," ","-1","0","-10","[]","0","2","","","10847","64","2","3","lose","go","0"
"pit-trial","183","1150653","0.0-69.0","battery-v0.2","","""event"",""trial"",""time""
""fullscreenenter"",""1"",""3587""
""fullscreenenter"",""1"",""3587""
","
","
","""event"",""trial"",""time""
""fullscreenenter"",""1"",""3587""
""fullscreenenter"",""1"",""3587""
","
","","","1171","","","21","10847","4907","z","elianto","#3366ff99","-1"," ","0","0","[2021]","1","2","","","10847","65","5","2","win","no-go","0"
"pit-trial","184","1155508","0.0-70.0","battery-v0.2","","""event"",""trial"",""time""
""fullscreenenter"",""1"",""3587""
""fullscreenenter"",""1"",""3587""
","
","
","""event"",""trial"",""time""
""fullscreenenter"",""1"",""3587""
""fullscreenenter"",""1"",""3587""
","
","","","-1","","","21","10847","4907","b","elianto","#f73b6a7A","-1","-1","1","0","[]","0","2","","","10847","66","3","4","lose","no-go","0"
"pit-trial","185","1159719","0.0-71.0","battery-v0.2","","""event"",""trial"",""time""
""fullscreenenter"",""1"",""3587""
""fullscreenenter"",""1"",""3587""
","
","
","""event"",""trial"",""time""
""fullscreenenter"",""1"",""3587""
""fullscreenenter"",""1"",""3587""
","
","","","1355","","","21","10847","4907","f","elianto","#3366ff99","-1"," ","0","0","[2204.999999999767]","1","2","","","10847","67","1","2","win","no-go","0"
"pit-trial","186","1163233","0.0-72.0","battery-v0.2","","""event"",""trial"",""time""
""fullscreenenter"",""1"",""3587""
""fullscreenenter"",""1"",""3587""
","
","
","""event"",""trial"",""time""
""fullscreenenter"",""1"",""3587""
""fullscreenenter"",""1"",""3587""
","
","","","656","","","21","10847","4907","c","elianto","#3366ff99"," "," ","1","0","[1506]","1","2","","","10847","68","4","1","win","go","1"
"pit-trial","187","1168090","0.0-73.0","battery-v0.2","","""event"",""trial"",""time""
""fullscreenenter"",""1"",""3587""
""fullscreenenter"",""1"",""3587""
","
","
","""event"",""trial"",""time""
""fullscreenenter"",""1"",""3587""
""fullscreenenter"",""1"",""3587""
","
","","","-1","","","21","10847","4907","f","elianto","#3366ff99","-1","-1","1","+10","[]","0","2","","","10847","69","1","2","win","no-go","0"
"pit-trial","188","1172946","0.0-74.0","battery-v0.2","","""event"",""trial"",""time""
""fullscreenenter"",""1"",""3587""
""fullscreenenter"",""1"",""3587""
","
","
","""event"",""trial"",""time""
""fullscreenenter"",""1"",""3587""
""fullscreenenter"",""1"",""3587""
","
","","","-1","","","21","10847","4907","c","elianto","#3366ff99"," ","-1","0","0","[]","0","2","","","10847","70","4","1","win","go","0"
"pit-trial","189","1177804","0.0-75.0","battery-v0.2","","""event"",""trial"",""time""
""fullscreenenter"",""1"",""3587""
""fullscreenenter"",""1"",""3587""
","
","
","""event"",""trial"",""time""
""fullscreenenter"",""1"",""3587""
""fullscreenenter"",""1"",""3587""
","
","","","-1","","","21","10847","4907","t","elianto","#f73b6a7A"," ","-1","0","-10","[]","0","2","","","10847","71","2","3","lose","go","0"
"pit-trial","190","1181537","0.0-76.0","battery-v0.2","","""event"",""trial"",""time""
""fullscreenenter"",""1"",""3587""
""fullscreenenter"",""1"",""3587""
","
","
","""event"",""trial"",""time""
""fullscreenenter"",""1"",""3587""
""fullscreenenter"",""1"",""3587""
","
","","","878","","","21","10847","4907","z","elianto","#3366ff99","-1"," ","0","+10","[1728]","1","2","","","10847","72","5","2","win","no-go","1"
"pit-trial","191","1185679","0.0-77.0","battery-v0.2","","""event"",""trial"",""time""
""fullscreenenter"",""1"",""3587""
""fullscreenenter"",""1"",""3587""
","
","
","""event"",""trial"",""time""
""fullscreenenter"",""1"",""3587""
""fullscreenenter"",""1"",""3587""
","
","","","1286","","","21","10847","4907","z","elianto","#3366ff99","-1"," ","0","+10","[2136]","1","2","","","10847","73","5","2","win","no-go","1"
"pit-trial","192","1190536","0.0-78.0","battery-v0.2","","""event"",""trial"",""time""
""fullscreenenter"",""1"",""3587""
""fullscreenenter"",""1"",""3587""
","
","
","""event"",""trial"",""time""
""fullscreenenter"",""1"",""3587""
""fullscreenenter"",""1"",""3587""
","
","","","-1","","","21","10847","4907","f","elianto","#3366ff99","-1","-1","1","+10","[]","0","2","","","10847","74","1","2","win","no-go","0"
"pit-trial","193","1194321","0.0-79.0","battery-v0.2","","""event"",""trial"",""time""
""fullscreenenter"",""1"",""3587""
""fullscreenenter"",""1"",""3587""
","
","
","""event"",""trial"",""time""
""fullscreenenter"",""1"",""3587""
""fullscreenenter"",""1"",""3587""
","
","","","926","","","21","10847","4907","b","elianto","#f73b6a7A","-1"," ","0","0","[1778]","1","2","","","10847","75","3","4","lose","no-go","1"
"pit-trial","194","1198210","0.0-80.0","battery-v0.2","","""event"",""trial"",""time""
""fullscreenenter"",""1"",""3587""
""fullscreenenter"",""1"",""3587""
","
","
","""event"",""trial"",""time""
""fullscreenenter"",""1"",""3587""
""fullscreenenter"",""1"",""3587""
","
","","","1032.9999999997672","","","21","10847","4907","c","elianto","#3366ff99"," "," ","1","+10","[1884]","1","2","","","10847","76","4","1","win","go","0"
"pit-trial","195","1202127","0.0-81.0","battery-v0.2","","""event"",""trial"",""time""
""fullscreenenter"",""1"",""3587""
""fullscreenenter"",""1"",""3587""
","
","
","""event"",""trial"",""time""
""fullscreenenter"",""1"",""3587""
""fullscreenenter"",""1"",""3587""
","
","","","1061","","","21","10847","4907","b","elianto","#f73b6a7A","-1"," ","0","0","[1912]","1","2","","","10847","77","3","4","lose","no-go","1"
"pit-trial","196","1205647","0.0-82.0","battery-v0.2","","""event"",""trial"",""time""
""fullscreenenter"",""1"",""3587""
""fullscreenenter"",""1"",""3587""
","
","
","""event"",""trial"",""time""
""fullscreenenter"",""1"",""3587""
""fullscreenenter"",""1"",""3587""
","
","","","663","","","21","10847","4907","c","elianto","#3366ff99"," "," ","1","+10","[1514]","1","2","","","10847","78","4","1","win","go","0"
"pit-trial","197","1209368","0.0-83.0","battery-v0.2","","""event"",""trial"",""time""
""fullscreenenter"",""1"",""3587""
""fullscreenenter"",""1"",""3587""
","
","
","""event"",""trial"",""time""
""fullscreenenter"",""1"",""3587""
""fullscreenenter"",""1"",""3587""
","
","","","865","","","21","10847","4907","c","elianto","#3366ff99"," "," ","1","+10","[1716]","1","2","","","10847","79","4","1","win","go","0"
"pit-trial","198","1213250","0.0-84.0","battery-v0.2","","""event"",""trial"",""time""
""fullscreenenter"",""1"",""3587""
""fullscreenenter"",""1"",""3587""
","
","
","""event"",""trial"",""time""
""fullscreenenter"",""1"",""3587""
""fullscreenenter"",""1"",""3587""
","
","","","1026","","","21","10847","4907","z","elianto","#3366ff99","-1"," ","0","+10","[1876]","1","2","","","10847","80","5","2","win","no-go","1"
"pit-trial","199","1217519","0.0-85.0","battery-v0.2","","""event"",""trial"",""time""
""fullscreenenter"",""1"",""3587""
""fullscreenenter"",""1"",""3587""
","
","
","""event"",""trial"",""time""
""fullscreenenter"",""1"",""3587""
""fullscreenenter"",""1"",""3587""
","
","","","1414","","","21","10847","4907","b","elianto","#f73b6a7A","-1"," ","0","-10","[2264]","1","2","","","10847","81","3","4","lose","no-go","0"
"pit-trial","200","1221168","0.0-86.0","battery-v0.2","","""event"",""trial"",""time""
""fullscreenenter"",""1"",""3587""
""fullscreenenter"",""1"",""3587""
","
","
","""event"",""trial"",""time""
""fullscreenenter"",""1"",""3587""
""fullscreenenter"",""1"",""3587""
","
","","","792","","","21","10847","4907","z","elianto","#3366ff99","-1"," ","0","0","[1642]","1","2","","","10847","82","5","2","win","no-go","0"
"pit-trial","201","1224816","0.0-87.0","battery-v0.2","","""event"",""trial"",""time""
""fullscreenenter"",""1"",""3587""
""fullscreenenter"",""1"",""3587""
","
","
","""event"",""trial"",""time""
""fullscreenenter"",""1"",""3587""
""fullscreenenter"",""1"",""3587""
","
","","","790","","","21","10847","4907","c","elianto","#3366ff99"," "," ","1","+10","[1640]","1","2","","","10847","83","4","1","win","go","0"
"pit-trial","202","1229177","0.0-88.0","battery-v0.2","","""event"",""trial"",""time""
""fullscreenenter"",""1"",""3587""
""fullscreenenter"",""1"",""3587""
","
","
","""event"",""trial"",""time""
""fullscreenenter"",""1"",""3587""
""fullscreenenter"",""1"",""3587""
","
","","","1504","","","21","10847","4907","y","elianto","#f73b6a7A","-1"," ","0","-10","[2354]","1","2","","","10847","84","7","4","lose","no-go","0"
"pit-trial","203","1232762","0.0-89.0","battery-v0.2","","""event"",""trial"",""time""
""fullscreenenter"",""1"",""3587""
""fullscreenenter"",""1"",""3587""
","
","
","""event"",""trial"",""time""
""fullscreenenter"",""1"",""3587""
""fullscreenenter"",""1"",""3587""
","
","","","727","","","21","10847","4907","c","elianto","#3366ff99"," "," ","1","+10","[1577]","1","2","","","10847","85","4","1","win","go","0"
"pit-trial","204","1237619","0.0-90.0","battery-v0.2","","""event"",""trial"",""time""
""fullscreenenter"",""1"",""3587""
""fullscreenenter"",""1"",""3587""
","
","
","""event"",""trial"",""time""
""fullscreenenter"",""1"",""3587""
""fullscreenenter"",""1"",""3587""
","
","","","-1","","","21","10847","4907","y","elianto","#f73b6a7A","-1","-1","1","0","[]","0","2","","","10847","86","7","4","lose","no-go","0"
"pit-trial","205","1241519","0.0-91.0","battery-v0.2","","""event"",""trial"",""time""
""fullscreenenter"",""1"",""3587""
""fullscreenenter"",""1"",""3587""
","
","
","""event"",""trial"",""time""
""fullscreenenter"",""1"",""3587""
""fullscreenenter"",""1"",""3587""
","
","","","1045","","","21","10847","4907","h","elianto","#f73b6a7A"," "," ","1","0","[1895]","1","2","","","10847","87","6","3","lose","go","0"
"pit-trial","206","1245708","0.0-92.0","battery-v0.2","","""event"",""trial"",""time""
""fullscreenenter"",""1"",""3587""
""fullscreenenter"",""1"",""3587""
","
","
","""event"",""trial"",""time""
""fullscreenenter"",""1"",""3587""
""fullscreenenter"",""1"",""3587""
","
","","","1333","","","21","10847","4907","z","elianto","#3366ff99","-1"," ","0","0","[2183]","1","2","","","10847","88","5","2","win","no-go","0"
"pit-trial","207","1250564","0.0-93.0","battery-v0.2","","""event"",""trial"",""time""
""fullscreenenter"",""1"",""3587""
""fullscreenenter"",""1"",""3587""
","
","
","""event"",""trial"",""time""
""fullscreenenter"",""1"",""3587""
""fullscreenenter"",""1"",""3587""
","
","","","-1","","","21","10847","4907","h","elianto","#f73b6a7A"," ","-1","0","-10","[]","0","2","","","10847","89","6","3","lose","go","0"
"pit-trial","208","1254099","0.0-94.0","battery-v0.2","","""event"",""trial"",""time""
""fullscreenenter"",""1"",""3587""
""fullscreenenter"",""1"",""3587""
","
","
","""event"",""trial"",""time""
""fullscreenenter"",""1"",""3587""
""fullscreenenter"",""1"",""3587""
","
","","","680","","","21","10847","4907","c","elianto","#3366ff99"," "," ","1","+10","[1530]","1","2","","","10847","90","4","1","win","go","0"
"pit-trial","209","1257745","0.0-95.0","battery-v0.2","","""event"",""trial"",""time""
""fullscreenenter"",""1"",""3587""
""fullscreenenter"",""1"",""3587""
","
","
","""event"",""trial"",""time""
""fullscreenenter"",""1"",""3587""
""fullscreenenter"",""1"",""3587""
","
","","","790.0000000002328","","","21","10847","4907","z","elianto","#3366ff99","-1"," ","0","0","[1640.0000000002328]","1","2","","","10847","91","5","2","win","no-go","0"
"pit-trial","210","1262602","0.0-96.0","battery-v0.2","","""event"",""trial"",""time""
""fullscreenenter"",""1"",""3587""
""fullscreenenter"",""1"",""3587""
","
","
","""event"",""trial"",""time""
""fullscreenenter"",""1"",""3587""
""fullscreenenter"",""1"",""3587""
","
","","","-1","","","21","10847","4907","y","elianto","#f73b6a7A","-1","-1","1","0","[]","0","2","","","10847","92","7","4","lose","no-go","0"
"pit-trial","211","1267037","0.0-97.0","battery-v0.2","","""event"",""trial"",""time""
""fullscreenenter"",""1"",""3587""
""fullscreenenter"",""1"",""3587""
","
","
","""event"",""trial"",""time""
""fullscreenenter"",""1"",""3587""
""fullscreenenter"",""1"",""3587""
","
","","","1579","","","21","10847","4907","z","elianto","#3366ff99","-1"," ","0","0","[2429]","1","2","","","10847","93","5","2","win","no-go","0"
"pit-trial","212","1271894","0.0-98.0","battery-v0.2","","""event"",""trial"",""time""
""fullscreenenter"",""1"",""3587""
""fullscreenenter"",""1"",""3587""
","
","
","""event"",""trial"",""time""
""fullscreenenter"",""1"",""3587""
""fullscreenenter"",""1"",""3587""
","
","","","-1","","","21","10847","4907","h","elianto","#f73b6a7A"," ","-1","0","-10","[]","0","2","","","10847","94","6","3","lose","go","0"
"pit-trial","213","1276750","0.0-99.0","battery-v0.2","","""event"",""trial"",""time""
""fullscreenenter"",""1"",""3587""
""fullscreenenter"",""1"",""3587""
","
","
","""event"",""trial"",""time""
""fullscreenenter"",""1"",""3587""
""fullscreenenter"",""1"",""3587""
","
","","","-1","","","21","10847","4907","y","elianto","#f73b6a7A","-1","-1","1","-10","[]","0","2","","","10847","95","7","4","lose","no-go","1"
"pit-trial","214","1280526","0.0-100.0","battery-v0.2","","""event"",""trial"",""time""
""fullscreenenter"",""1"",""3587""
""fullscreenenter"",""1"",""3587""
","
","
","""event"",""trial"",""time""
""fullscreenenter"",""1"",""3587""
""fullscreenenter"",""1"",""3587""
","
","","","920","","","21","10847","4907","r","elianto","#3366ff99"," "," ","1","+10","[1770]","1","2","","","10847","96","8","1","win","go","0"
"pit-trial","215","1285383","0.0-101.0","battery-v0.2","","""event"",""trial"",""time""
""fullscreenenter"",""1"",""3587""
""fullscreenenter"",""1"",""3587""
","
","
","""event"",""trial"",""time""
""fullscreenenter"",""1"",""3587""
""fullscreenenter"",""1"",""3587""
","
","","","-1","","","21","10847","4907","h","elianto","#f73b6a7A"," ","-1","0","-10","[]","0","2","","","10847","97","6","3","lose","go","0"
"pit-trial","216","1289130","0.0-102.0","battery-v0.2","","""event"",""trial"",""time""
""fullscreenenter"",""1"",""3587""
""fullscreenenter"",""1"",""3587""
","
","
","""event"",""trial"",""time""
""fullscreenenter"",""1"",""3587""
""fullscreenenter"",""1"",""3587""
","
","","","892","","","21","10847","4907","r","elianto","#3366ff99"," "," ","1","+10","[1741.0000000002328]","1","2","","","10847","98","8","1","win","go","0"
"pit-trial","217","1293986","0.0-103.0","battery-v0.2","","""event"",""trial"",""time""
""fullscreenenter"",""1"",""3587""
""fullscreenenter"",""1"",""3587""
","
","
","""event"",""trial"",""time""
""fullscreenenter"",""1"",""3587""
""fullscreenenter"",""1"",""3587""
","
","","","-1","","","21","10847","4907","y","elianto","#f73b6a7A","-1","-1","1","0","[]","0","2","","","10847","99","7","4","lose","no-go","0"
"pit-trial","218","1298140","0.0-104.0","battery-v0.2","","""event"",""trial"",""time""
""fullscreenenter"",""1"",""3587""
""fullscreenenter"",""1"",""3587""
","
","
","""event"",""trial"",""time""
""fullscreenenter"",""1"",""3587""
""fullscreenenter"",""1"",""3587""
","
","","","1298","","","21","10847","4907","z","elianto","#3366ff99","-1"," ","0","0","[2148]","1","2","","","10847","100","5","2","win","no-go","0"
"pit-trial","219","1302999","0.0-105.0","battery-v0.2","","""event"",""trial"",""time""
""fullscreenenter"",""1"",""3587""
""fullscreenenter"",""1"",""3587""
","
","
","""event"",""trial"",""time""
""fullscreenenter"",""1"",""3587""
""fullscreenenter"",""1"",""3587""
","
","","","-1","","","21","10847","4907","z","elianto","#3366ff99","-1","-1","1","+10","[]","0","2","","","10847","101","5","2","win","no-go","0"
"pit-trial","220","1307855","0.0-106.0","battery-v0.2","","""event"",""trial"",""time""
""fullscreenenter"",""1"",""3587""
""fullscreenenter"",""1"",""3587""
","
","
","""event"",""trial"",""time""
""fullscreenenter"",""1"",""3587""
""fullscreenenter"",""1"",""3587""
","
","","","-1","","","21","10847","4907","r","elianto","#3366ff99"," ","-1","0","+10","[]","0","2","","","10847","102","8","1","win","go","1"
"pit-trial","221","1311536","0.0-107.0","battery-v0.2","","""event"",""trial"",""time""
""fullscreenenter"",""1"",""3587""
""fullscreenenter"",""1"",""3587""
","
","
","""event"",""trial"",""time""
""fullscreenenter"",""1"",""3587""
""fullscreenenter"",""1"",""3587""
","
","","","824","","","21","10847","4907","m","elianto","#3366ff99"," "," ","1","+10","[1674]","1","2","","","10847","103","9","1","win","go","0"
"pit-trial","222","1316392","0.0-108.0","battery-v0.2","","""event"",""trial"",""time""
""fullscreenenter"",""1"",""3587""
""fullscreenenter"",""1"",""3587""
","
","
","""event"",""trial"",""time""
""fullscreenenter"",""1"",""3587""
""fullscreenenter"",""1"",""3587""
","
","","","-1","","","21","10847","4907","y","elianto","#f73b6a7A","-1","-1","1","0","[]","0","2","","","10847","104","7","4","lose","no-go","0"
"pit-trial","223","1321248","0.0-109.0","battery-v0.2","","""event"",""trial"",""time""
""fullscreenenter"",""1"",""3587""
""fullscreenenter"",""1"",""3587""
","
","
","""event"",""trial"",""time""
""fullscreenenter"",""1"",""3587""
""fullscreenenter"",""1"",""3587""
","
","","","-1","","","21","10847","4907","h","elianto","#f73b6a7A"," ","-1","0","-10","[]","0","2","","","10847","105","6","3","lose","go","0"
"pit-trial","224","1326103","0.0-110.0","battery-v0.2","","""event"",""trial"",""time""
""fullscreenenter"",""1"",""3587""
""fullscreenenter"",""1"",""3587""
","
","
","""event"",""trial"",""time""
""fullscreenenter"",""1"",""3587""
""fullscreenenter"",""1"",""3587""
","
","","","-1","","","21","10847","4907","c","elianto","#3366ff99"," ","-1","0","+10","[2956]","1","2","","","10847","106","4","1","win","go","1"
"pit-trial","225","1330960","0.0-111.0","battery-v0.2","","""event"",""trial"",""time""
""fullscreenenter"",""1"",""3587""
""fullscreenenter"",""1"",""3587""
","
","
","""event"",""trial"",""time""
""fullscreenenter"",""1"",""3587""
""fullscreenenter"",""1"",""3587""
","
","","","-1","","","21","10847","4907","r","elianto","#3366ff99"," ","-1","0","0","[]","0","2","","","10847","107","8","1","win","go","0"
"pit-trial","226","1335816","0.0-112.0","battery-v0.2","","""event"",""trial"",""time""
""fullscreenenter"",""1"",""3587""
""fullscreenenter"",""1"",""3587""
","
","
","""event"",""trial"",""time""
""fullscreenenter"",""1"",""3587""
""fullscreenenter"",""1"",""3587""
","
","","","-1","","","21","10847","4907","m","elianto","#3366ff99"," ","-1","0","0","[]","0","2","","","10847","108","9","1","win","go","0"
"pit-trial","227","1340674","0.0-113.0","battery-v0.2","","""event"",""trial"",""time""
""fullscreenenter"",""1"",""3587""
""fullscreenenter"",""1"",""3587""
","
","
","""event"",""trial"",""time""
""fullscreenenter"",""1"",""3587""
""fullscreenenter"",""1"",""3587""
","
","","","-1","","","21","10847","4907","h","elianto","#f73b6a7A"," ","-1","0","-10","[]","0","2","","","10847","109","6","3","lose","go","0"
"pit-trial","228","1344508","0.0-114.0","battery-v0.2","","""event"",""trial"",""time""
""fullscreenenter"",""1"",""3587""
""fullscreenenter"",""1"",""3587""
","
","
","""event"",""trial"",""time""
""fullscreenenter"",""1"",""3587""
""fullscreenenter"",""1"",""3587""
","
","","","979","","","21","10847","4907","m","elianto","#3366ff99"," "," ","1","+10","[1829]","1","2","","","10847","110","9","1","win","go","0"
