"trial_type","trial_index","time_elapsed","internal_node_id","task_version","subject_id","interactions","blur_events","focus_events","fullscreenenter_events","fullscreenexit_events","success","view_history","rt","responses","num_errors","age","subject","participantId","rune","rune_set","hex","correct","choice","accuracy","outcome","keys","total_keys","block","practice","value","sub","trial","stimulus","robot","valence","action","sham"
"pavlovia","0","17","0.0-0.0","battery-v0.2","","""event"",""trial"",""time""
""fullscreenenter"",""1"",""2926""
","
","
","""event"",""trial"",""time""
""fullscreenenter"",""1"",""2926""
","
","","","","","","","","","","","","","","","","","","","","","","","","","","",""
"fullscreen","1","3918","0.0-1.0","battery-v0.2","","""event"",""trial"",""time""
""fullscreenenter"",""1"",""2926""
","
","
","""event"",""trial"",""time""
""fullscreenenter"",""1"",""2926""
","
","true","","","","","","","","","","","","","","","","","","","","","","","","","",""
"pit-instructions","2","9820","0.0-2.0-0.0","battery-v0.2","","""event"",""trial"",""time""
""fullscreenenter"",""1"",""2926""
","
","
","""event"",""trial"",""time""
""fullscreenenter"",""1"",""2926""
","
","","[{""page_index"":0,""viewing_time"":5897.100000023842}]","5897.700000017881","","","","","","","","","","","","","","","","","","","","","","","",""
"pit-comprehension","3","12641","0.0-2.0-1.0-0.0","battery-v0.2","","""event"",""trial"",""time""
""fullscreenenter"",""1"",""2926""
","
","
","""event"",""trial"",""time""
""fullscreenenter"",""1"",""2926""
","
","","","2816.5999999940395","[""shark""]","0","21","10838","5139","","","","","","","","","","","","","","","","","","",""
"pit-instructions","4","14468","0.0-2.0-1.0-1.0","battery-v0.2","","""event"",""trial"",""time""
""fullscreenenter"",""1"",""2926""
","
","
","""event"",""trial"",""time""
""fullscreenenter"",""1"",""2926""
","
","","[{""page_index"":0,""viewing_time"":1798.5}]","1798.9000000059605","","","","","","","","","","","","","","","","","","","","","","","",""
"pit-comprehension","5","16879","0.0-2.0-2.0-0.0","battery-v0.2","","""event"",""trial"",""time""
""fullscreenenter"",""1"",""2926""
","
","
","""event"",""trial"",""time""
""fullscreenenter"",""1"",""2926""
","
","","","2406.0999999940395","[""tiger""]","0","21","10838","5139","","","","","","","","","","","","","","","","","","",""
"pit-instructions","6","17924","0.0-2.0-2.0-1.0","battery-v0.2","","""event"",""trial"",""time""
""fullscreenenter"",""1"",""2926""
","
","
","""event"",""trial"",""time""
""fullscreenenter"",""1"",""2926""
","
","","[{""page_index"":0,""viewing_time"":1040.699999988079}]","1041","","","","","","","","","","","","","","","","","","","","","","","",""
"pit-instructions","7","143656","0.0-2.0-3.0","battery-v0.2","","""event"",""trial"",""time""
""fullscreenenter"",""1"",""2926""
","
","
","""event"",""trial"",""time""
""fullscreenenter"",""1"",""2926""
","
","","[{""page_index"":0,""viewing_time"":7836.200000017881},{""page_index"":1,""viewing_time"":35029.90000000596},{""page_index"":2,""viewing_time"":6176.0999999940395},{""page_index"":3,""viewing_time"":5191.9000000059605},{""page_index"":4,""viewing_time"":6687.799999982119},{""page_index"":5,""viewing_time"":6276.300000011921},{""page_index"":6,""viewing_time"":7306},{""page_index"":7,""viewing_time"":6657.199999988079},{""page_index"":8,""viewing_time"":6546.9000000059605},{""page_index"":9,""viewing_time"":9453.59999999404},{""page_index"":10,""viewing_time"":7531.9000000059605},{""page_index"":11,""viewing_time"":7050.5},{""page_index"":12,""viewing_time"":6733.800000011921},{""page_index"":13,""viewing_time"":7251.799999982119}]","125730.30000001192","","","","","","","","","","","","","","","","","","","","","","","",""
"pit-trial","8","146977","0.0-2.0-4.0-0.0","battery-v0.2","","""event"",""trial"",""time""
""fullscreenenter"",""1"",""2926""
","
","
","""event"",""trial"",""time""
""fullscreenenter"",""1"",""2926""
","
","","","465.09999999403954","","","21","10838","5139","&#9784;","elianto","#FFFFF080"," "," ","1","&#10004","[1315.5999999940395]","1","0","0","","","","","","","",""
"pit-trial","9","150358","0.0-2.0-4.1-0.1","battery-v0.2","","""event"",""trial"",""time""
""fullscreenenter"",""1"",""2926""
","
","
","""event"",""trial"",""time""
""fullscreenenter"",""1"",""2926""
","
","","","522.3000000119209","","","21","10838","5139","&#9784;","elianto","#FFFFF080"," "," ","1","&#10004","[1373.7000000178814]","1","0","0","","","","","","","",""
"pit-trial","10","153787","0.0-2.0-4.2-0.2","battery-v0.2","","""event"",""trial"",""time""
""fullscreenenter"",""1"",""2926""
","
","
","""event"",""trial"",""time""
""fullscreenenter"",""1"",""2926""
","
","","","572.5","","","21","10838","5139","&#9784;","elianto","#FFFFF080"," "," ","1","&#10004","[1422.699999988079]","1","0","0","","","","","","","",""
"pit-trial","11","157190","0.0-2.0-4.3-0.3","battery-v0.2","","""event"",""trial"",""time""
""fullscreenenter"",""1"",""2926""
","
","
","""event"",""trial"",""time""
""fullscreenenter"",""1"",""2926""
","
","","","545.1999999880791","","","21","10838","5139","&#9784;","elianto","#FFFFF080"," "," ","1","&#10004","[1396.5]","1","0","0","","","","","","","",""
"pit-trial","12","160548","0.0-2.0-4.4-0.4","battery-v0.2","","""event"",""trial"",""time""
""fullscreenenter"",""1"",""2926""
","
","
","""event"",""trial"",""time""
""fullscreenenter"",""1"",""2926""
","
","","","497.69999998807907","","","21","10838","5139","&#9784;","elianto","#FFFFF080"," "," ","1","&#10004","[1349.300000011921]","1","0","0","","","","","","","",""
"pit-instructions","13","183966","0.0-2.0-5.0","battery-v0.2","","""event"",""trial"",""time""
""fullscreenenter"",""1"",""2926""
","
","
","""event"",""trial"",""time""
""fullscreenenter"",""1"",""2926""
","
","","[{""page_index"":0,""viewing_time"":5874.200000017881},{""page_index"":1,""viewing_time"":5191},{""page_index"":2,""viewing_time"":6392.9000000059605},{""page_index"":3,""viewing_time"":5957.199999988079}]","23415.5","","","","","","","","","","","","","","","","","","","","","","","",""
"pit-trial","14","188827","0.0-2.0-6.0-0.0","battery-v0.2","","""event"",""trial"",""time""
""fullscreenenter"",""1"",""2926""
","
","
","""event"",""trial"",""time""
""fullscreenenter"",""1"",""2926""
","
","","","-1","","","21","10838","5139","&#9854;","elianto","#FFFFF080","-1","-1","1","&#10004","[]","0","0","1","","","","","","","",""
"pit-trial","15","193685","0.0-2.0-6.1-0.1","battery-v0.2","","""event"",""trial"",""time""
""fullscreenenter"",""1"",""2926""
","
","
","""event"",""trial"",""time""
""fullscreenenter"",""1"",""2926""
","
","","","-1","","","21","10838","5139","&#9854;","elianto","#FFFFF080","-1","-1","1","&#10004","[]","0","0","1","","","","","","","",""
"pit-trial","16","198546","0.0-2.0-6.2-0.2","battery-v0.2","","""event"",""trial"",""time""
""fullscreenenter"",""1"",""2926""
","
","
","""event"",""trial"",""time""
""fullscreenenter"",""1"",""2926""
","
","","","-1","","","21","10838","5139","&#9854;","elianto","#FFFFF080","-1","-1","1","&#10004","[]","0","0","1","","","","","","","",""
"pit-trial","17","203408","0.0-2.0-6.3-0.3","battery-v0.2","","""event"",""trial"",""time""
""fullscreenenter"",""1"",""2926""
","
","
","""event"",""trial"",""time""
""fullscreenenter"",""1"",""2926""
","
","","","-1","","","21","10838","5139","&#9854;","elianto","#FFFFF080","-1","-1","1","&#10004","[]","0","0","1","","","","","","","",""
"pit-trial","18","208271","0.0-2.0-6.4-0.4","battery-v0.2","","""event"",""trial"",""time""
""fullscreenenter"",""1"",""2926""
","
","
","""event"",""trial"",""time""
""fullscreenenter"",""1"",""2926""
","
","","","-1","","","21","10838","5139","&#9854;","elianto","#FFFFF080","-1","-1","1","&#10004","[]","0","0","1","","","","","","","",""
"pit-instructions","19","338949","0.0-2.0-7.0","battery-v0.2","","""event"",""trial"",""time""
""fullscreenenter"",""1"",""2926""
","
","
","""event"",""trial"",""time""
""fullscreenenter"",""1"",""2926""
","
","","[{""page_index"":0,""viewing_time"":6621.0999999940395},{""page_index"":1,""viewing_time"":6376.0999999940395},{""page_index"":2,""viewing_time"":9104.100000023842},{""page_index"":3,""viewing_time"":10182},{""page_index"":4,""viewing_time"":12929.899999976158},{""page_index"":5,""viewing_time"":5346.100000023842},{""page_index"":6,""viewing_time"":5013.899999976158},{""page_index"":7,""viewing_time"":7228.100000023842},{""page_index"":8,""viewing_time"":6494},{""page_index"":9,""viewing_time"":5664},{""page_index"":10,""viewing_time"":7995.699999988079},{""page_index"":11,""viewing_time"":4864.0999999940395},{""page_index"":12,""viewing_time"":6982.300000011921},{""page_index"":13,""viewing_time"":8343.90000000596},{""page_index"":14,""viewing_time"":7060.299999982119},{""page_index"":15,""viewing_time"":6243.5999999940395},{""page_index"":16,""viewing_time"":7664.200000017881},{""page_index"":17,""viewing_time"":6562}]","130675.69999998808","","","","","","","","","","","","","","","","","","","","","","","",""
"pit-trial","20","342517","0.0-2.0-8.0-0.0","battery-v0.2","","""event"",""trial"",""time""
""fullscreenenter"",""1"",""2926""
","
","
","""event"",""trial"",""time""
""fullscreenenter"",""1"",""2926""
","
","","","710.3000000119209","","","21","10838","5139","&#9776;","elianto","#3366ff99"," "," ","1","+10","[1561.300000011921]","1","0","1","","","","","","","",""
"pit-trial","21","345912","0.0-2.0-8.0-1.0","battery-v0.2","","""event"",""trial"",""time""
""fullscreenenter"",""1"",""2926""
","
","
","""event"",""trial"",""time""
""fullscreenenter"",""1"",""2926""
","
","","","540.5","","","21","10838","5139","&#9776;","elianto","#3366ff99"," "," ","1","+10","[1391.5999999940395]","1","0","1","","","","","","","",""
"pit-trial","22","349266","0.0-2.0-8.0-2.0","battery-v0.2","","""event"",""trial"",""time""
""fullscreenenter"",""1"",""2926""
","
","
","""event"",""trial"",""time""
""fullscreenenter"",""1"",""2926""
","
","","","499.19999998807907","","","21","10838","5139","&#9776;","elianto","#3366ff99"," "," ","1","+10","[1350.5]","1","0","1","","","","","","","",""
"pit-trial","23","352394","0.0-2.0-8.0-3.0","battery-v0.2","","""event"",""trial"",""time""
""fullscreenenter"",""1"",""2926""
","
","
","""event"",""trial"",""time""
""fullscreenenter"",""1"",""2926""
","
","","","273.80000001192093","","","21","10838","5139","&#9776;","elianto","#3366ff99"," "," ","1","0","[1124.800000011921]","1","0","1","","","","","","","",""
"pit-trial","24","357252","0.0-2.0-8.0-4.0","battery-v0.2","","""event"",""trial"",""time""
""fullscreenenter"",""1"",""2926""
","
","
","""event"",""trial"",""time""
""fullscreenenter"",""1"",""2926""
","
","","","-1","","","21","10838","5139","&#9776;","elianto","#3366ff99"," ","-1","0","0","[3825.5999999940395]","1","0","1","","","","","","","",""
"pit-trial","25","360355","0.0-2.0-8.1-0.1","battery-v0.2","","""event"",""trial"",""time""
""fullscreenenter"",""1"",""2926""
","
","
","""event"",""trial"",""time""
""fullscreenenter"",""1"",""2926""
","
","","","243.5","","","21","10838","5139","&#9776;","elianto","#3366ff99"," "," ","1","+10","[1094.199999988079]","1","0","1","","","","","","","",""
"pit-trial","26","364125","0.0-2.0-8.1-1.1","battery-v0.2","","""event"",""trial"",""time""
""fullscreenenter"",""1"",""2926""
","
","
","""event"",""trial"",""time""
""fullscreenenter"",""1"",""2926""
","
","","","914","","","21","10838","5139","&#9776;","elianto","#3366ff99"," "," ","1","+10","[1765.699999988079]","1","0","1","","","","","","","",""
"pit-trial","27","367395","0.0-2.0-8.1-2.1","battery-v0.2","","""event"",""trial"",""time""
""fullscreenenter"",""1"",""2926""
","
","
","""event"",""trial"",""time""
""fullscreenenter"",""1"",""2926""
","
","","","412.89999997615814","","","21","10838","5139","&#9776;","elianto","#3366ff99"," "," ","1","+10","[1263.199999988079]","1","0","1","","","","","","","",""
"pit-trial","28","370750","0.0-2.0-8.1-3.1","battery-v0.2","","""event"",""trial"",""time""
""fullscreenenter"",""1"",""2926""
","
","
","""event"",""trial"",""time""
""fullscreenenter"",""1"",""2926""
","
","","","497.2999999821186","","","21","10838","5139","&#9776;","elianto","#3366ff99"," "," ","1","0","[1348.699999988079]","1","0","1","","","","","","","",""
"pit-trial","29","374008","0.0-2.0-8.1-4.1","battery-v0.2","","""event"",""trial"",""time""
""fullscreenenter"",""1"",""2926""
","
","
","""event"",""trial"",""time""
""fullscreenenter"",""1"",""2926""
","
","","","403.69999998807907","","","21","10838","5139","&#9776;","elianto","#3366ff99"," "," ","1","+10","[1255.0999999940395]","1","0","1","","","","","","","",""
"pit-trial","30","378871","0.0-2.0-8.2-0.2","battery-v0.2","","""event"",""trial"",""time""
""fullscreenenter"",""1"",""2926""
","
","
","""event"",""trial"",""time""
""fullscreenenter"",""1"",""2926""
","
","","","-1","","","21","10838","5139","&#9776;","elianto","#3366ff99"," ","-1","0","0","[]","0","0","1","","","","","","","",""
"pit-trial","31","383731","0.0-2.0-8.2-1.2","battery-v0.2","","""event"",""trial"",""time""
""fullscreenenter"",""1"",""2926""
","
","
","""event"",""trial"",""time""
""fullscreenenter"",""1"",""2926""
","
","","","-1","","","21","10838","5139","&#9776;","elianto","#3366ff99"," ","-1","0","0","[]","0","0","1","","","","","","","",""
"pit-trial","32","387112","0.0-2.0-8.2-2.2","battery-v0.2","","""event"",""trial"",""time""
""fullscreenenter"",""1"",""2926""
","
","
","""event"",""trial"",""time""
""fullscreenenter"",""1"",""2926""
","
","","","524.8999999761581","","","21","10838","5139","&#9776;","elianto","#3366ff99"," "," ","1","+10","[1375.5999999940395]","1","0","1","","","","","","","",""
"pit-trial","33","390413","0.0-2.0-8.2-3.2","battery-v0.2","","""event"",""trial"",""time""
""fullscreenenter"",""1"",""2926""
","
","
","""event"",""trial"",""time""
""fullscreenenter"",""1"",""2926""
","
","","","442.2000000178814","","","21","10838","5139","&#9776;","elianto","#3366ff99"," "," ","1","0","[1293.9000000059605]","1","0","1","","","","","","","",""
"pit-trial","34","395272","0.0-2.0-8.2-4.2","battery-v0.2","","""event"",""trial"",""time""
""fullscreenenter"",""1"",""2926""
","
","
","""event"",""trial"",""time""
""fullscreenenter"",""1"",""2926""
","
","","","-1","","","21","10838","5139","&#9776;","elianto","#3366ff99"," ","-1","0","0","[]","0","0","1","","","","","","","",""
"call-function","35","395274","0.0-2.0-9.0","battery-v0.2","","""event"",""trial"",""time""
""fullscreenenter"",""1"",""2926""
","
","
","""event"",""trial"",""time""
""fullscreenenter"",""1"",""2926""
","
","","","","","","","","","","","","","","","","","","","","","","","","","","",""
"pit-instructions","36","448869","0.0-2.0-10.0","battery-v0.2","","""event"",""trial"",""time""
""fullscreenenter"",""1"",""2926""
","
","
","""event"",""trial"",""time""
""fullscreenenter"",""1"",""2926""
","
","","[{""page_index"":0,""viewing_time"":5713.0999999940395},{""page_index"":1,""viewing_time"":6871.699999988079},{""page_index"":2,""viewing_time"":9298.200000017881},{""page_index"":3,""viewing_time"":11708},{""page_index"":4,""viewing_time"":20004}]","53595.39999997616","","","","","","","","","","","","","","","","","","","","","","","",""
"pit-trial","37","453729","0.0-2.0-11.0-0.0","battery-v0.2","","""event"",""trial"",""time""
""fullscreenenter"",""1"",""2926""
","
","
","""event"",""trial"",""time""
""fullscreenenter"",""1"",""2926""
","
","","","-1","","","21","10838","5139","&#9761;","elianto","#3366ff99","-1","-1","1","+10","[]","0","0","2","","","","","","","",""
"pit-trial","38","457042","0.0-2.0-11.0-1.0","battery-v0.2","","""event"",""trial"",""time""
""fullscreenenter"",""1"",""2926""
","
","
","""event"",""trial"",""time""
""fullscreenenter"",""1"",""2926""
","
","","","456.5","","","21","10838","5139","&#9761;","elianto","#3366ff99","-1"," ","0","0","[1307.9000000059605]","1","0","2","","","","","","","",""
"pit-trial","39","461895","0.0-2.0-11.0-2.0","battery-v0.2","","""event"",""trial"",""time""
""fullscreenenter"",""1"",""2926""
","
","
","""event"",""trial"",""time""
""fullscreenenter"",""1"",""2926""
","
","","","-1","","","21","10838","5139","&#9761;","elianto","#3366ff99","-1","-1","1","+10","[]","0","0","2","","","","","","","",""
"pit-trial","40","466754","0.0-2.0-11.0-3.0","battery-v0.2","","""event"",""trial"",""time""
""fullscreenenter"",""1"",""2926""
","
","
","""event"",""trial"",""time""
""fullscreenenter"",""1"",""2926""
","
","","","-1","","","21","10838","5139","&#9761;","elianto","#3366ff99","-1","-1","1","0","[]","0","0","2","","","","","","","",""
"pit-trial","41","469895","0.0-2.0-11.0-4.0","battery-v0.2","","""event"",""trial"",""time""
""fullscreenenter"",""1"",""2926""
","
","
","""event"",""trial"",""time""
""fullscreenenter"",""1"",""2926""
","
","","","282.80000001192093","","","21","10838","5139","&#9761;","elianto","#3366ff99","-1"," ","0","0","[1133.4000000059605]","1","0","2","","","","","","","",""
"pit-trial","42","474759","0.0-2.0-11.1-0.1","battery-v0.2","","""event"",""trial"",""time""
""fullscreenenter"",""1"",""2926""
","
","
","""event"",""trial"",""time""
""fullscreenenter"",""1"",""2926""
","
","","","-1","","","21","10838","5139","&#9761;","elianto","#3366ff99","-1","-1","1","+10","[]","0","0","2","","","","","","","",""
"pit-trial","43","479620","0.0-2.0-11.1-1.1","battery-v0.2","","""event"",""trial"",""time""
""fullscreenenter"",""1"",""2926""
","
","
","""event"",""trial"",""time""
""fullscreenenter"",""1"",""2926""
","
","","","-1","","","21","10838","5139","&#9761;","elianto","#3366ff99","-1","-1","1","+10","[]","0","0","2","","","","","","","",""
"pit-trial","44","484481","0.0-2.0-11.1-2.1","battery-v0.2","","""event"",""trial"",""time""
""fullscreenenter"",""1"",""2926""
","
","
","""event"",""trial"",""time""
""fullscreenenter"",""1"",""2926""
","
","","","-1","","","21","10838","5139","&#9761;","elianto","#3366ff99","-1","-1","1","+10","[]","0","0","2","","","","","","","",""
"pit-trial","45","489343","0.0-2.0-11.1-3.1","battery-v0.2","","""event"",""trial"",""time""
""fullscreenenter"",""1"",""2926""
","
","
","""event"",""trial"",""time""
""fullscreenenter"",""1"",""2926""
","
","","","-1","","","21","10838","5139","&#9761;","elianto","#3366ff99","-1","-1","1","0","[]","0","0","2","","","","","","","",""
"pit-trial","46","494204","0.0-2.0-11.1-4.1","battery-v0.2","","""event"",""trial"",""time""
""fullscreenenter"",""1"",""2926""
","
","
","""event"",""trial"",""time""
""fullscreenenter"",""1"",""2926""
","
","","","-1","","","21","10838","5139","&#9761;","elianto","#3366ff99","-1","-1","1","+10","[]","0","0","2","","","","","","","",""
"pit-trial","47","499067","0.0-2.0-11.2-0.2","battery-v0.2","","""event"",""trial"",""time""
""fullscreenenter"",""1"",""2926""
","
","
","""event"",""trial"",""time""
""fullscreenenter"",""1"",""2926""
","
","","","-1","","","21","10838","5139","&#9761;","elianto","#3366ff99","-1","-1","1","+10","[]","0","0","2","","","","","","","",""
"pit-trial","48","503924","0.0-2.0-11.2-1.2","battery-v0.2","","""event"",""trial"",""time""
""fullscreenenter"",""1"",""2926""
","
","
","""event"",""trial"",""time""
""fullscreenenter"",""1"",""2926""
","
","","","-1","","","21","10838","5139","&#9761;","elianto","#3366ff99","-1","-1","1","+10","[]","0","0","2","","","","","","","",""
"pit-trial","49","508785","0.0-2.0-11.2-2.2","battery-v0.2","","""event"",""trial"",""time""
""fullscreenenter"",""1"",""2926""
","
","
","""event"",""trial"",""time""
""fullscreenenter"",""1"",""2926""
","
","","","-1","","","21","10838","5139","&#9761;","elianto","#3366ff99","-1","-1","1","+10","[]","0","0","2","","","","","","","",""
"pit-trial","50","513643","0.0-2.0-11.2-3.2","battery-v0.2","","""event"",""trial"",""time""
""fullscreenenter"",""1"",""2926""
","
","
","""event"",""trial"",""time""
""fullscreenenter"",""1"",""2926""
","
","","","-1","","","21","10838","5139","&#9761;","elianto","#3366ff99","-1","-1","1","0","[]","0","0","2","","","","","","","",""
"pit-trial","51","518505","0.0-2.0-11.2-4.2","battery-v0.2","","""event"",""trial"",""time""
""fullscreenenter"",""1"",""2926""
","
","
","""event"",""trial"",""time""
""fullscreenenter"",""1"",""2926""
","
","","","-1","","","21","10838","5139","&#9761;","elianto","#3366ff99","-1","-1","1","+10","[]","0","0","2","","","","","","","",""
"pit-trial","52","523365","0.0-2.0-11.3-0.3","battery-v0.2","","""event"",""trial"",""time""
""fullscreenenter"",""1"",""2926""
","
","
","""event"",""trial"",""time""
""fullscreenenter"",""1"",""2926""
","
","","","-1","","","21","10838","5139","&#9761;","elianto","#3366ff99","-1","-1","1","+10","[]","0","0","2","","","","","","","",""
"pit-trial","53","528224","0.0-2.0-11.3-1.3","battery-v0.2","","""event"",""trial"",""time""
""fullscreenenter"",""1"",""2926""
","
","
","""event"",""trial"",""time""
""fullscreenenter"",""1"",""2926""
","
","","","-1","","","21","10838","5139","&#9761;","elianto","#3366ff99","-1","-1","1","+10","[]","0","0","2","","","","","","","",""
"pit-trial","54","533086","0.0-2.0-11.3-2.3","battery-v0.2","","""event"",""trial"",""time""
""fullscreenenter"",""1"",""2926""
","
","
","""event"",""trial"",""time""
""fullscreenenter"",""1"",""2926""
","
","","","-1","","","21","10838","5139","&#9761;","elianto","#3366ff99","-1","-1","1","+10","[]","0","0","2","","","","","","","",""
"pit-trial","55","537946","0.0-2.0-11.3-3.3","battery-v0.2","","""event"",""trial"",""time""
""fullscreenenter"",""1"",""2926""
","
","
","""event"",""trial"",""time""
""fullscreenenter"",""1"",""2926""
","
","","","-1","","","21","10838","5139","&#9761;","elianto","#3366ff99","-1","-1","1","0","[]","0","0","2","","","","","","","",""
"pit-trial","56","542810","0.0-2.0-11.3-4.3","battery-v0.2","","""event"",""trial"",""time""
""fullscreenenter"",""1"",""2926""
","
","
","""event"",""trial"",""time""
""fullscreenenter"",""1"",""2926""
","
","","","-1","","","21","10838","5139","&#9761;","elianto","#3366ff99","-1","-1","1","+10","[]","0","0","2","","","","","","","",""
"call-function","57","542812","0.0-2.0-12.0","battery-v0.2","","""event"",""trial"",""time""
""fullscreenenter"",""1"",""2926""
","
","
","""event"",""trial"",""time""
""fullscreenenter"",""1"",""2926""
","
","","","","","","","","","","","","","","","","","","","","","","","","","","",""
"pit-instructions","58","608363","0.0-2.0-13.0","battery-v0.2","","""event"",""trial"",""time""
""fullscreenenter"",""1"",""2926""
","
","
","""event"",""trial"",""time""
""fullscreenenter"",""1"",""2926""
","
","","[{""page_index"":0,""viewing_time"":37222.70000001788},{""page_index"":1,""viewing_time"":8428.5},{""page_index"":2,""viewing_time"":4128.0999999940395},{""page_index"":3,""viewing_time"":10565.699999988079},{""page_index"":4,""viewing_time"":5206.200000017881}]","65551.5","","","","","","","","","","","","","","","","","","","","","","","",""
"pit-trial","59","611717","0.0-2.0-14.0-0.0","battery-v0.2","","""event"",""trial"",""time""
""fullscreenenter"",""1"",""2926""
","
","
","""event"",""trial"",""time""
""fullscreenenter"",""1"",""2926""
","
","","","499.5","","","21","10838","5139","&#9826;","elianto","#f73b6a7A","-1"," ","0","-10","[1349.9000000059605]","1","0","3","","","","","","","",""
"pit-trial","60","616575","0.0-2.0-14.0-1.0","battery-v0.2","","""event"",""trial"",""time""
""fullscreenenter"",""1"",""2926""
","
","
","""event"",""trial"",""time""
""fullscreenenter"",""1"",""2926""
","
","","","-1","","","21","10838","5139","&#9826;","elianto","#f73b6a7A","-1","-1","1","0","[]","0","0","3","","","","","","","",""
"pit-trial","61","621434","0.0-2.0-14.0-2.0","battery-v0.2","","""event"",""trial"",""time""
""fullscreenenter"",""1"",""2926""
","
","
","""event"",""trial"",""time""
""fullscreenenter"",""1"",""2926""
","
","","","-1","","","21","10838","5139","&#9826;","elianto","#f73b6a7A","-1","-1","1","0","[]","0","0","3","","","","","","","",""
"pit-trial","62","626288","0.0-2.0-14.0-3.0","battery-v0.2","","""event"",""trial"",""time""
""fullscreenenter"",""1"",""2926""
","
","
","""event"",""trial"",""time""
""fullscreenenter"",""1"",""2926""
","
","","","-1","","","21","10838","5139","&#9826;","elianto","#f73b6a7A","-1","-1","1","-10","[]","0","0","3","","","","","","","",""
"pit-trial","63","631146","0.0-2.0-14.0-4.0","battery-v0.2","","""event"",""trial"",""time""
""fullscreenenter"",""1"",""2926""
","
","
","""event"",""trial"",""time""
""fullscreenenter"",""1"",""2926""
","
","","","-1","","","21","10838","5139","&#9826;","elianto","#f73b6a7A","-1","-1","1","0","[]","0","0","3","","","","","","","",""
"pit-trial","64","636005","0.0-2.0-14.1-0.1","battery-v0.2","","""event"",""trial"",""time""
""fullscreenenter"",""1"",""2926""
","
","
","""event"",""trial"",""time""
""fullscreenenter"",""1"",""2926""
","
","","","-1","","","21","10838","5139","&#9826;","elianto","#f73b6a7A","-1","-1","1","0","[]","0","0","3","","","","","","","",""
"pit-trial","65","640863","0.0-2.0-14.1-1.1","battery-v0.2","","""event"",""trial"",""time""
""fullscreenenter"",""1"",""2926""
","
","
","""event"",""trial"",""time""
""fullscreenenter"",""1"",""2926""
","
","","","-1","","","21","10838","5139","&#9826;","elianto","#f73b6a7A","-1","-1","1","0","[]","0","0","3","","","","","","","",""
"pit-trial","66","645721","0.0-2.0-14.1-2.1","battery-v0.2","","""event"",""trial"",""time""
""fullscreenenter"",""1"",""2926""
","
","
","""event"",""trial"",""time""
""fullscreenenter"",""1"",""2926""
","
","","","-1","","","21","10838","5139","&#9826;","elianto","#f73b6a7A","-1","-1","1","0","[]","0","0","3","","","","","","","",""
"pit-trial","67","650582","0.0-2.0-14.1-3.1","battery-v0.2","","""event"",""trial"",""time""
""fullscreenenter"",""1"",""2926""
","
","
","""event"",""trial"",""time""
""fullscreenenter"",""1"",""2926""
","
","","","-1","","","21","10838","5139","&#9826;","elianto","#f73b6a7A","-1","-1","1","-10","[]","0","0","3","","","","","","","",""
"pit-trial","68","655443","0.0-2.0-14.1-4.1","battery-v0.2","","""event"",""trial"",""time""
""fullscreenenter"",""1"",""2926""
","
","
","""event"",""trial"",""time""
""fullscreenenter"",""1"",""2926""
","
","","","-1","","","21","10838","5139","&#9826;","elianto","#f73b6a7A","-1","-1","1","0","[]","0","0","3","","","","","","","",""
"pit-trial","69","658545","0.0-2.0-14.2-0.2","battery-v0.2","","""event"",""trial"",""time""
""fullscreenenter"",""1"",""2926""
","
","
","""event"",""trial"",""time""
""fullscreenenter"",""1"",""2926""
","
","","","242.80000001192093","","","21","10838","5139","&#9826;","elianto","#f73b6a7A","-1"," ","0","-10","[1094.1000000238419]","1","0","3","","","","","","","",""
"pit-trial","70","661459","0.0-2.0-14.2-1.2","battery-v0.2","","""event"",""trial"",""time""
""fullscreenenter"",""1"",""2926""
","
","
","""event"",""trial"",""time""
""fullscreenenter"",""1"",""2926""
","
","","","58.79999998211861","","","21","10838","5139","&#9826;","elianto","#f73b6a7A","-1"," ","0","-10","[909.6999999880791]","1","0","3","","","","","","","",""
"pit-trial","71","666319","0.0-2.0-14.2-2.2","battery-v0.2","","""event"",""trial"",""time""
""fullscreenenter"",""1"",""2926""
","
","
","""event"",""trial"",""time""
""fullscreenenter"",""1"",""2926""
","
","","","-1","","","21","10838","5139","&#9826;","elianto","#f73b6a7A","-1","-1","1","0","[]","0","0","3","","","","","","","",""
"pit-trial","72","671179","0.0-2.0-14.2-3.2","battery-v0.2","","""event"",""trial"",""time""
""fullscreenenter"",""1"",""2926""
","
","
","""event"",""trial"",""time""
""fullscreenenter"",""1"",""2926""
","
","","","-1","","","21","10838","5139","&#9826;","elianto","#f73b6a7A","-1","-1","1","-10","[]","0","0","3","","","","","","","",""
"pit-trial","73","676038","0.0-2.0-14.2-4.2","battery-v0.2","","""event"",""trial"",""time""
""fullscreenenter"",""1"",""2926""
","
","
","""event"",""trial"",""time""
""fullscreenenter"",""1"",""2926""
","
","","","-1","","","21","10838","5139","&#9826;","elianto","#f73b6a7A","-1","-1","1","0","[]","0","0","3","","","","","","","",""
"pit-trial","74","680899","0.0-2.0-14.3-0.3","battery-v0.2","","""event"",""trial"",""time""
""fullscreenenter"",""1"",""2926""
","
","
","""event"",""trial"",""time""
""fullscreenenter"",""1"",""2926""
","
","","","-1","","","21","10838","5139","&#9826;","elianto","#f73b6a7A","-1","-1","1","0","[]","0","0","3","","","","","","","",""
"pit-trial","75","685758","0.0-2.0-14.3-1.3","battery-v0.2","","""event"",""trial"",""time""
""fullscreenenter"",""1"",""2926""
","
","
","""event"",""trial"",""time""
""fullscreenenter"",""1"",""2926""
","
","","","-1","","","21","10838","5139","&#9826;","elianto","#f73b6a7A","-1","-1","1","0","[]","0","0","3","","","","","","","",""
"pit-trial","76","690618","0.0-2.0-14.3-2.3","battery-v0.2","","""event"",""trial"",""time""
""fullscreenenter"",""1"",""2926""
","
","
","""event"",""trial"",""time""
""fullscreenenter"",""1"",""2926""
","
","","","-1","","","21","10838","5139","&#9826;","elianto","#f73b6a7A","-1","-1","1","0","[]","0","0","3","","","","","","","",""
"pit-trial","77","695477","0.0-2.0-14.3-3.3","battery-v0.2","","""event"",""trial"",""time""
""fullscreenenter"",""1"",""2926""
","
","
","""event"",""trial"",""time""
""fullscreenenter"",""1"",""2926""
","
","","","-1","","","21","10838","5139","&#9826;","elianto","#f73b6a7A","-1","-1","1","-10","[]","0","0","3","","","","","","","",""
"pit-trial","78","700339","0.0-2.0-14.3-4.3","battery-v0.2","","""event"",""trial"",""time""
""fullscreenenter"",""1"",""2926""
","
","
","""event"",""trial"",""time""
""fullscreenenter"",""1"",""2926""
","
","","","-1","","","21","10838","5139","&#9826;","elianto","#f73b6a7A","-1","-1","1","0","[]","0","0","3","","","","","","","",""
"call-function","79","700341","0.0-2.0-15.0","battery-v0.2","","""event"",""trial"",""time""
""fullscreenenter"",""1"",""2926""
","
","
","""event"",""trial"",""time""
""fullscreenenter"",""1"",""2926""
","
","","","","","","","","","","","","","","","","","","","","","","","","","","",""
"pit-instructions","80","742903","0.0-2.0-16.0","battery-v0.2","","""event"",""trial"",""time""
""fullscreenenter"",""1"",""2926""
","
","
","""event"",""trial"",""time""
""fullscreenenter"",""1"",""2926""
","
","","[{""page_index"":0,""viewing_time"":9673},{""page_index"":1,""viewing_time"":10326},{""page_index"":2,""viewing_time"":4763.5999999940395},{""page_index"":3,""viewing_time"":17798.30000001192}]","42561.29999998212","","","","","","","","","","","","","","","","","","","","","","","",""
"pit-trial","81","747586","0.0-2.0-17.0-0.0","battery-v0.2","","""event"",""trial"",""time""
""fullscreenenter"",""1"",""2926""
","
","
","""event"",""trial"",""time""
""fullscreenenter"",""1"",""2926""
","
","","","1826.699999988079","","","21","10838","5139","&#9789;","elianto","#f73b6a7A"," "," ","1","0","[2678.5]","1","0","4","","","","","","","",""
"pit-trial","82","750679","0.0-2.0-17.0-1.0","battery-v0.2","","""event"",""trial"",""time""
""fullscreenenter"",""1"",""2926""
","
","
","""event"",""trial"",""time""
""fullscreenenter"",""1"",""2926""
","
","","","234.40000000596046","","","21","10838","5139","&#9789;","elianto","#f73b6a7A"," "," ","1","0","[1087.7000000178814]","1","0","4","","","","","","","",""
"pit-trial","83","755538","0.0-2.0-17.0-2.0","battery-v0.2","","""event"",""trial"",""time""
""fullscreenenter"",""1"",""2926""
","
","
","""event"",""trial"",""time""
""fullscreenenter"",""1"",""2926""
","
","","","-1","","","21","10838","5139","&#9789;","elianto","#f73b6a7A"," ","-1","0","-10","[]","0","0","4","","","","","","","",""
"pit-trial","84","758684","0.0-2.0-17.0-3.0","battery-v0.2","","""event"",""trial"",""time""
""fullscreenenter"",""1"",""2926""
","
","
","""event"",""trial"",""time""
""fullscreenenter"",""1"",""2926""
","
","","","290.60000002384186","","","21","10838","5139","&#9789;","elianto","#f73b6a7A"," "," ","1","-10","[1141.6000000238419]","1","0","4","","","","","","","",""
"pit-trial","85","761629","0.0-2.0-17.0-4.0","battery-v0.2","","""event"",""trial"",""time""
""fullscreenenter"",""1"",""2926""
","
","
","""event"",""trial"",""time""
""fullscreenenter"",""1"",""2926""
","
","","","88.5","","","21","10838","5139","&#9789;","elianto","#f73b6a7A"," "," ","1","0","[940.0999999940395]","1","0","4","","","","","","","",""
"pit-trial","86","764498","0.0-2.0-17.1-0.1","battery-v0.2","","""event"",""trial"",""time""
""fullscreenenter"",""1"",""2926""
","
","
","""event"",""trial"",""time""
""fullscreenenter"",""1"",""2926""
","
","","","13.5","","","21","10838","5139","&#9789;","elianto","#f73b6a7A"," "," ","1","0","[863.8000000119209]","1","0","4","","","","","","","",""
"pit-trial","87","767774","0.0-2.0-17.1-1.1","battery-v0.2","","""event"",""trial"",""time""
""fullscreenenter"",""1"",""2926""
","
","
","""event"",""trial"",""time""
""fullscreenenter"",""1"",""2926""
","
","","","417","","","21","10838","5139","&#9789;","elianto","#f73b6a7A"," "," ","1","0","[1268.4000000059605]","1","0","4","","","","","","","",""
"pit-trial","88","770801","0.0-2.0-17.1-2.1","battery-v0.2","","""event"",""trial"",""time""
""fullscreenenter"",""1"",""2926""
","
","
","""event"",""trial"",""time""
""fullscreenenter"",""1"",""2926""
","
","","","174.5","","","21","10838","5139","&#9789;","elianto","#f73b6a7A"," "," ","1","0","[1025.199999988079]","1","0","4","","","","","","","",""
"pit-trial","89","773768","0.0-2.0-17.1-3.1","battery-v0.2","","""event"",""trial"",""time""
""fullscreenenter"",""1"",""2926""
","
","
","""event"",""trial"",""time""
""fullscreenenter"",""1"",""2926""
","
","","","109.09999999403954","","","21","10838","5139","&#9789;","elianto","#f73b6a7A"," "," ","1","-10","[961.2000000178814]","1","0","4","","","","","","","",""
"pit-trial","90","778621","0.0-2.0-17.1-4.1","battery-v0.2","","""event"",""trial"",""time""
""fullscreenenter"",""1"",""2926""
","
","
","""event"",""trial"",""time""
""fullscreenenter"",""1"",""2926""
","
","","","-1","","","21","10838","5139","&#9789;","elianto","#f73b6a7A"," ","-1","0","-10","[]","0","0","4","","","","","","","",""
"pit-trial","91","783479","0.0-2.0-17.2-0.2","battery-v0.2","","""event"",""trial"",""time""
""fullscreenenter"",""1"",""2926""
","
","
","""event"",""trial"",""time""
""fullscreenenter"",""1"",""2926""
","
","","","-1","","","21","10838","5139","&#9789;","elianto","#f73b6a7A"," ","-1","0","-10","[]","0","0","4","","","","","","","",""
"pit-trial","92","786477","0.0-2.0-17.2-1.2","battery-v0.2","","""event"",""trial"",""time""
""fullscreenenter"",""1"",""2926""
","
","
","""event"",""trial"",""time""
""fullscreenenter"",""1"",""2926""
","
","","","139.90000000596046","","","21","10838","5139","&#9789;","elianto","#f73b6a7A"," "," ","1","0","[991.2000000178814]","1","0","4","","","","","","","",""
"pit-trial","93","791335","0.0-2.0-17.2-2.2","battery-v0.2","","""event"",""trial"",""time""
""fullscreenenter"",""1"",""2926""
","
","
","""event"",""trial"",""time""
""fullscreenenter"",""1"",""2926""
","
","","","-1","","","21","10838","5139","&#9789;","elianto","#f73b6a7A"," ","-1","0","-10","[]","0","0","4","","","","","","","",""
"pit-trial","94","796195","0.0-2.0-17.2-3.2","battery-v0.2","","""event"",""trial"",""time""
""fullscreenenter"",""1"",""2926""
","
","
","""event"",""trial"",""time""
""fullscreenenter"",""1"",""2926""
","
","","","-1","","","21","10838","5139","&#9789;","elianto","#f73b6a7A"," ","-1","0","0","[]","0","0","4","","","","","","","",""
"pit-trial","95","801020","0.0-2.0-17.2-4.2","battery-v0.2","","""event"",""trial"",""time""
""fullscreenenter"",""1"",""2926""
","
","
","""event"",""trial"",""time""
""fullscreenenter"",""1"",""2926""
","
","","","1969.2999999821186","","","21","10838","5139","&#9789;","elianto","#f73b6a7A"," "," ","1","0","[2820.2999999821186]","1","0","4","","","","","","","",""
"pit-trial","96","804164","0.0-2.0-17.3-0.3","battery-v0.2","","""event"",""trial"",""time""
""fullscreenenter"",""1"",""2926""
","
","
","""event"",""trial"",""time""
""fullscreenenter"",""1"",""2926""
","
","","","288.39999997615814","","","21","10838","5139","&#9789;","elianto","#f73b6a7A"," "," ","1","0","[1139.7999999821186]","1","0","4","","","","","","","",""
"pit-trial","97","807393","0.0-2.0-17.3-1.3","battery-v0.2","","""event"",""trial"",""time""
""fullscreenenter"",""1"",""2926""
","
","
","""event"",""trial"",""time""
""fullscreenenter"",""1"",""2926""
","
","","","373.69999998807907","","","21","10838","5139","&#9789;","elianto","#f73b6a7A"," "," ","1","0","[1225.2999999821186]","1","0","4","","","","","","","",""
"pit-trial","98","812253","0.0-2.0-17.3-2.3","battery-v0.2","","""event"",""trial"",""time""
""fullscreenenter"",""1"",""2926""
","
","
","""event"",""trial"",""time""
""fullscreenenter"",""1"",""2926""
","
","","","-1","","","21","10838","5139","&#9789;","elianto","#f73b6a7A"," ","-1","0","-10","[3271.0999999940395,4295.799999982119,4786.9000000059605]","3","0","4","","","","","","","",""
"pit-trial","99","815308","0.0-2.0-17.3-3.3","battery-v0.2","","""event"",""trial"",""time""
""fullscreenenter"",""1"",""2926""
","
","
","""event"",""trial"",""time""
""fullscreenenter"",""1"",""2926""
","
","","","196.90000000596046","","","21","10838","5139","&#9789;","elianto","#f73b6a7A"," "," ","1","-10","[130.59999999403954,325.30000001192093,1047.800000011921]","3","0","4","","","","","","","",""
"pit-trial","100","818530","0.0-2.0-17.3-4.3","battery-v0.2","","""event"",""trial"",""time""
""fullscreenenter"",""1"",""2926""
","
","
","""event"",""trial"",""time""
""fullscreenenter"",""1"",""2926""
","
","","","364.60000002384186","","","21","10838","5139","&#9789;","elianto","#f73b6a7A"," "," ","1","0","[1216.4000000059605]","1","0","4","","","","","","","",""
"call-function","101","818532","0.0-2.0-18.0","battery-v0.2","","""event"",""trial"",""time""
""fullscreenenter"",""1"",""2926""
","
","
","""event"",""trial"",""time""
""fullscreenenter"",""1"",""2926""
","
","","","","","","","","","","","","","","","","","","","","","","","","","","",""
"pit-instructions","102","899543","0.0-2.0-19.0","battery-v0.2","","""event"",""trial"",""time""
""fullscreenenter"",""1"",""2926""
","
","
","""event"",""trial"",""time""
""fullscreenenter"",""1"",""2926""
","
","","[{""page_index"":0,""viewing_time"":6770.4000000059605},{""page_index"":1,""viewing_time"":5964.200000017881},{""page_index"":2,""viewing_time"":14161.899999976158},{""page_index"":3,""viewing_time"":9497.5},{""page_index"":4,""viewing_time"":8910.5},{""page_index"":5,""viewing_time"":8459.700000017881},{""page_index"":6,""viewing_time"":12046.40000000596},{""page_index"":7,""viewing_time"":10636},{""page_index"":8,""viewing_time"":4562.0999999940395}]","81011.20000001788","","","","","","","","","","","","","","","","","","","","","","","",""
"pit-comprehension","103","906639","0.0-2.0-20.0-0.0","battery-v0.2","","""event"",""trial"",""time""
""fullscreenenter"",""1"",""2926""
","
","
","""event"",""trial"",""time""
""fullscreenenter"",""1"",""2926""
","
","","","7077.299999982119","[""SPACE""]","0","21","10838","5139","","","","","","","","","","","","","","","","","","",""
"pit-instructions","104","910144","0.0-2.0-20.0-1.0","battery-v0.2","","""event"",""trial"",""time""
""fullscreenenter"",""1"",""2926""
","
","
","""event"",""trial"",""time""
""fullscreenenter"",""1"",""2926""
","
","","[{""page_index"":0,""viewing_time"":3456.4000000059605}]","3456.7999999821186","","","","","","","","","","","","","","","","","","","","","","","",""
"pit-comprehension","105","915405","0.0-2.0-21.0-0.0","battery-v0.2","","""event"",""trial"",""time""
""fullscreenenter"",""1"",""2926""
","
","
","""event"",""trial"",""time""
""fullscreenenter"",""1"",""2926""
","
","","","5256.5","[""10""]","0","21","10838","5139","","","","","","","","","","","","","","","","","","",""
"pit-instructions","106","918154","0.0-2.0-21.0-1.0","battery-v0.2","","""event"",""trial"",""time""
""fullscreenenter"",""1"",""2926""
","
","
","""event"",""trial"",""time""
""fullscreenenter"",""1"",""2926""
","
","","[{""page_index"":0,""viewing_time"":2707.899999976158}]","2708.199999988079","","","","","","","","","","","","","","","","","","","","","","","",""
"pit-comprehension","107","924877","0.0-2.0-22.0-0.0","battery-v0.2","","""event"",""trial"",""time""
""fullscreenenter"",""1"",""2926""
","
","
","""event"",""trial"",""time""
""fullscreenenter"",""1"",""2926""
","
","","","6718.799999982119","[""0""]","0","21","10838","5139","","","","","","","","","","","","","","","","","","",""
"pit-instructions","108","928038","0.0-2.0-22.0-1.0","battery-v0.2","","""event"",""trial"",""time""
""fullscreenenter"",""1"",""2926""
","
","
","""event"",""trial"",""time""
""fullscreenenter"",""1"",""2926""
","
","","[{""page_index"":0,""viewing_time"":3120.300000011921}]","3120.5999999940395","","","","","","","","","","","","","","","","","","","","","","","",""
"pit-comprehension","109","936545","0.0-2.0-23.0-0.0","battery-v0.2","","""event"",""trial"",""time""
""fullscreenenter"",""1"",""2926""
","
","
","""event"",""trial"",""time""
""fullscreenenter"",""1"",""2926""
","
","","","8501.59999999404","[""True""]","0","21","10838","5139","","","","","","","","","","","","","","","","","","",""
"pit-instructions","110","939348","0.0-2.0-23.0-1.0","battery-v0.2","","""event"",""trial"",""time""
""fullscreenenter"",""1"",""2926""
","
","
","""event"",""trial"",""time""
""fullscreenenter"",""1"",""2926""
","
","","[{""page_index"":0,""viewing_time"":2761.5}]","2762","","","","","","","","","","","","","","","","","","","","","","","",""
"pit-comprehension","111","947496","0.0-2.0-24.0-0.0","battery-v0.2","","""event"",""trial"",""time""
""fullscreenenter"",""1"",""2926""
","
","
","""event"",""trial"",""time""
""fullscreenenter"",""1"",""2926""
","
","","","8144.9000000059605","[""True""]","0","21","10838","5139","","","","","","","","","","","","","","","","","","",""
"pit-instructions","112","952662","0.0-2.0-24.0-1.0","battery-v0.2","","""event"",""trial"",""time""
""fullscreenenter"",""1"",""2926""
","
","
","""event"",""trial"",""time""
""fullscreenenter"",""1"",""2926""
","
","","[{""page_index"":0,""viewing_time"":5122.600000023842}]","5122.9000000059605","","","","","","","","","","","","","","","","","","","","","","","",""
"pit-comprehension","113","959176","0.0-2.0-25.0-0.0","battery-v0.2","","""event"",""trial"",""time""
""fullscreenenter"",""1"",""2926""
","
","
","""event"",""trial"",""time""
""fullscreenenter"",""1"",""2926""
","
","","","6510.5999999940395","[""True""]","0","21","10838","5139","","","","","","","","","","","","","","","","","","",""
"pit-instructions","114","963048","0.0-2.0-25.0-1.0","battery-v0.2","","""event"",""trial"",""time""
""fullscreenenter"",""1"",""2926""
","
","
","""event"",""trial"",""time""
""fullscreenenter"",""1"",""2926""
","
","","[{""page_index"":0,""viewing_time"":3828.300000011921}]","3828.5","","","","","","","","","","","","","","","","","","","","","","","",""
"pit-comprehension","115","970902","0.0-2.0-26.0-0.0","battery-v0.2","","""event"",""trial"",""time""
""fullscreenenter"",""1"",""2926""
","
","
","""event"",""trial"",""time""
""fullscreenenter"",""1"",""2926""
","
","","","7850.5","[""False""]","0","21","10838","5139","","","","","","","","","","","","","","","","","","",""
"pit-instructions","116","973171","0.0-2.0-26.0-1.0","battery-v0.2","","""event"",""trial"",""time""
""fullscreenenter"",""1"",""2926""
","
","
","""event"",""trial"",""time""
""fullscreenenter"",""1"",""2926""
","
","","[{""page_index"":0,""viewing_time"":2225.5}]","2225.800000011921","","","","","","","","","","","","","","","","","","","","","","","",""
"pit-instructions","117","990025","0.0-3.0","battery-v0.2","","""event"",""trial"",""time""
""fullscreenenter"",""1"",""2926""
","
","
","""event"",""trial"",""time""
""fullscreenenter"",""1"",""2926""
","
","","[{""page_index"":0,""viewing_time"":4241.0999999940395},{""page_index"":1,""viewing_time"":5524},{""page_index"":2,""viewing_time"":7086}]","16851.5","","","","","","","","","","","","","","","","","","","","","","","",""
"pit-trial","118","993743","0.0-4.0","battery-v0.2","","""event"",""trial"",""time""
""fullscreenenter"",""1"",""2926""
","
","
","""event"",""trial"",""time""
""fullscreenenter"",""1"",""2926""
","
","","","856.2999999821186","","","21","10838","5139","&#9730;","elianto","#3366ff99"," "," ","1","+10","[1707.199999988079]","1","1","","","10838","1","1","1","win","go","0"
"pit-trial","119","997246","0.0-5.0","battery-v0.2","","""event"",""trial"",""time""
""fullscreenenter"",""1"",""2926""
","
","
","""event"",""trial"",""time""
""fullscreenenter"",""1"",""2926""
","
","","","646.0999999940395","","","21","10838","5139","&#9733;","elianto","#3366ff99","-1"," ","0","+10","[1497.0999999940395]","1","1","","","10838","2","2","2","win","no-go","1"
"pit-trial","120","1000825","0.0-6.0","battery-v0.2","","""event"",""trial"",""time""
""fullscreenenter"",""1"",""2926""
","
","
","""event"",""trial"",""time""
""fullscreenenter"",""1"",""2926""
","
","","","721.6999999880791","","","21","10838","5139","&#9728;","elianto","#f73b6a7A","-1"," ","0","-10","[1572.4000000059605]","1","1","","","10838","3","0","4","lose","no-go","0"
"pit-trial","121","1005684","0.0-7.0","battery-v0.2","","""event"",""trial"",""time""
""fullscreenenter"",""1"",""2926""
","
","
","""event"",""trial"",""time""
""fullscreenenter"",""1"",""2926""
","
","","","-1","","","21","10838","5139","&#9752;","elianto","#f73b6a7A"," ","-1","0","-10","[]","0","1","","","10838","4","3","3","lose","go","0"
"pit-trial","122","1009318","0.0-8.0","battery-v0.2","","""event"",""trial"",""time""
""fullscreenenter"",""1"",""2926""
","
","
","""event"",""trial"",""time""
""fullscreenenter"",""1"",""2926""
","
","","","780.1999999880791","","","21","10838","5139","&#9752;","elianto","#f73b6a7A"," "," ","1","0","[1630.7999999821186]","1","1","","","10838","5","3","3","lose","go","0"
"pit-trial","123","1012622","0.0-9.0","battery-v0.2","","""event"",""trial"",""time""
""fullscreenenter"",""1"",""2926""
","
","
","""event"",""trial"",""time""
""fullscreenenter"",""1"",""2926""
","
","","","448.40000000596046","","","21","10838","5139","&#9733;","elianto","#3366ff99","-1"," ","0","0","[1300.9000000059605]","1","1","","","10838","6","2","2","win","no-go","0"
"pit-trial","124","1016292","0.0-10.0","battery-v0.2","","""event"",""trial"",""time""
""fullscreenenter"",""1"",""2926""
","
","
","""event"",""trial"",""time""
""fullscreenenter"",""1"",""2926""
","
","","","811","","","21","10838","5139","&#9728;","elianto","#f73b6a7A","-1"," ","0","-10","[1661.9000000059605]","1","1","","","10838","7","0","4","lose","no-go","0"
"pit-trial","125","1019795","0.0-11.0","battery-v0.2","","""event"",""trial"",""time""
""fullscreenenter"",""1"",""2926""
","
","
","""event"",""trial"",""time""
""fullscreenenter"",""1"",""2926""
","
","","","649.8000000119209","","","21","10838","5139","&#9730;","elianto","#3366ff99"," "," ","1","+10","[1500.0999999940395]","1","1","","","10838","8","1","1","win","go","0"
"pit-trial","126","1024654","0.0-12.0","battery-v0.2","","""event"",""trial"",""time""
""fullscreenenter"",""1"",""2926""
","
","
","""event"",""trial"",""time""
""fullscreenenter"",""1"",""2926""
","
","","","-1","","","21","10838","5139","&#9752;","elianto","#f73b6a7A"," ","-1","0","-10","[]","0","1","","","10838","9","3","3","lose","go","0"
"pit-trial","127","1028116","0.0-13.0","battery-v0.2","","""event"",""trial"",""time""
""fullscreenenter"",""1"",""2926""
","
","
","""event"",""trial"",""time""
""fullscreenenter"",""1"",""2926""
","
","","","603.3000000119209","","","21","10838","5139","&#9728;","elianto","#f73b6a7A","-1"," ","0","-10","[1455.5999999940395]","1","1","","","10838","10","0","4","lose","no-go","0"
"pit-trial","128","1031353","0.0-14.0","battery-v0.2","","""event"",""trial"",""time""
""fullscreenenter"",""1"",""2926""
","
","
","""event"",""trial"",""time""
""fullscreenenter"",""1"",""2926""
","
","","","378.69999998807907","","","21","10838","5139","&#9730;","elianto","#3366ff99"," "," ","1","+10","[1230.199999988079]","1","1","","","10838","11","1","1","win","go","0"
"pit-trial","129","1034781","0.0-15.0","battery-v0.2","","""event"",""trial"",""time""
""fullscreenenter"",""1"",""2926""
","
","
","""event"",""trial"",""time""
""fullscreenenter"",""1"",""2926""
","
","","","569.9000000059605","","","21","10838","5139","&#9733;","elianto","#3366ff99","-1"," ","0","0","[1421]","1","1","","","10838","12","2","2","win","no-go","0"
"pit-trial","130","1038222","0.0-16.0","battery-v0.2","","""event"",""trial"",""time""
""fullscreenenter"",""1"",""2926""
","
","
","""event"",""trial"",""time""
""fullscreenenter"",""1"",""2926""
","
","","","586.2999999821186","","","21","10838","5139","&#9733;","elianto","#3366ff99","-1"," ","0","0","[1439.0999999940395]","1","1","","","10838","13","2","2","win","no-go","0"
"pit-trial","131","1041636","0.0-17.0","battery-v0.2","","""event"",""trial"",""time""
""fullscreenenter"",""1"",""2926""
","
","
","""event"",""trial"",""time""
""fullscreenenter"",""1"",""2926""
","
","","","556.5999999940395","","","21","10838","5139","&#9730;","elianto","#3366ff99"," "," ","1","+10","[1408.0999999940395]","1","1","","","10838","14","1","1","win","go","0"
"pit-trial","132","1045006","0.0-18.0","battery-v0.2","","""event"",""trial"",""time""
""fullscreenenter"",""1"",""2926""
","
","
","""event"",""trial"",""time""
""fullscreenenter"",""1"",""2926""
","
","","","512","","","21","10838","5139","&#9752;","elianto","#f73b6a7A"," "," ","1","0","[1363]","1","1","","","10838","15","3","3","lose","go","0"
"pit-trial","133","1049865","0.0-19.0","battery-v0.2","","""event"",""trial"",""time""
""fullscreenenter"",""1"",""2926""
","
","
","""event"",""trial"",""time""
""fullscreenenter"",""1"",""2926""
","
","","","-1","","","21","10838","5139","&#9728;","elianto","#f73b6a7A","-1","-1","1","0","[]","0","1","","","10838","16","0","4","lose","no-go","0"
"pit-trial","134","1053353","0.0-20.0","battery-v0.2","","""event"",""trial"",""time""
""fullscreenenter"",""1"",""2926""
","
","
","""event"",""trial"",""time""
""fullscreenenter"",""1"",""2926""
","
","","","631.4000000059605","","","21","10838","5139","&#9733;","elianto","#3366ff99","-1"," ","0","0","[1482.5]","1","1","","","10838","17","2","2","win","no-go","0"
"pit-trial","135","1058211","0.0-21.0","battery-v0.2","","""event"",""trial"",""time""
""fullscreenenter"",""1"",""2926""
","
","
","""event"",""trial"",""time""
""fullscreenenter"",""1"",""2926""
","
","","","-1","","","21","10838","5139","&#9728;","elianto","#f73b6a7A","-1","-1","1","0","[3211.5]","1","1","","","10838","18","0","4","lose","no-go","0"
"pit-trial","136","1062313","0.0-22.0","battery-v0.2","","""event"",""trial"",""time""
""fullscreenenter"",""1"",""2926""
","
","
","""event"",""trial"",""time""
""fullscreenenter"",""1"",""2926""
","
","","","1245.800000011921","","","21","10838","5139","&#9730;","elianto","#3366ff99"," "," ","1","+10","[2096.699999988079]","1","1","","","10838","19","1","1","win","go","0"
"pit-trial","137","1067171","0.0-23.0","battery-v0.2","","""event"",""trial"",""time""
""fullscreenenter"",""1"",""2926""
","
","
","""event"",""trial"",""time""
""fullscreenenter"",""1"",""2926""
","
","","","-1","","","21","10838","5139","&#9752;","elianto","#f73b6a7A"," ","-1","0","-10","[]","0","1","","","10838","20","3","3","lose","go","0"
"pit-instructions","138","1080828","0.0-24.0","battery-v0.2","","""event"",""trial"",""time""
""fullscreenenter"",""1"",""2926""
","
","
","""event"",""trial"",""time""
""fullscreenenter"",""1"",""2926""
","
","","[{""page_index"":0,""viewing_time"":6062.5},{""page_index"":1,""viewing_time"":7591.9000000059605}]","13654.800000011921","","","","","","","","","","","","","","","","","","","","","","","",""
"pit-trial","139","1084754","0.0-25.0","battery-v0.2","","""event"",""trial"",""time""
""fullscreenenter"",""1"",""2926""
","
","
","""event"",""trial"",""time""
""fullscreenenter"",""1"",""2926""
","
","","","1069.199999988079","","","21","10838","5139","u","elianto","#f73b6a7A","-1"," ","0","0","[1921.699999988079]","1","2","","","10838","21","0","4","lose","no-go","1"
"pit-trial","140","1088376","0.0-26.0","battery-v0.2","","""event"",""trial"",""time""
""fullscreenenter"",""1"",""2926""
","
","
","""event"",""trial"",""time""
""fullscreenenter"",""1"",""2926""
","
","","","765.6999999880791","","","21","10838","5139","g","elianto","#f73b6a7A"," "," ","1","0","[1617.4000000059605]","1","2","","","10838","22","3","3","lose","go","0"
"pit-trial","141","1092190","0.0-27.0","battery-v0.2","","""event"",""trial"",""time""
""fullscreenenter"",""1"",""2926""
","
","
","""event"",""trial"",""time""
""fullscreenenter"",""1"",""2926""
","
","","","955.5","","","21","10838","5139","a","elianto","#f73b6a7A","-1"," ","0","-10","[1808.199999988079]","1","2","","","10838","23","2","4","lose","no-go","0"
"pit-trial","142","1095624","0.0-28.0","battery-v0.2","","""event"",""trial"",""time""
""fullscreenenter"",""1"",""2926""
","
","
","""event"",""trial"",""time""
""fullscreenenter"",""1"",""2926""
","
","","","574.4000000059605","","","21","10838","5139","l","elianto","#3366ff99"," "," ","1","+10","[1427.4000000059605]","1","2","","","10838","24","1","1","win","go","0"
"pit-trial","143","1099037","0.0-29.0","battery-v0.2","","""event"",""trial"",""time""
""fullscreenenter"",""1"",""2926""
","
","
","""event"",""trial"",""time""
""fullscreenenter"",""1"",""2926""
","
","","","554.5","","","21","10838","5139","a","elianto","#f73b6a7A","-1"," ","0","-10","[1405.9000000059605]","1","2","","","10838","25","2","4","lose","no-go","0"
"pit-trial","144","1102467","0.0-30.0","battery-v0.2","","""event"",""trial"",""time""
""fullscreenenter"",""1"",""2926""
","
","
","""event"",""trial"",""time""
""fullscreenenter"",""1"",""2926""
","
","","","572.6999999880791","","","21","10838","5139","u","elianto","#f73b6a7A","-1"," ","0","-10","[1423.5]","1","2","","","10838","26","0","4","lose","no-go","0"
"pit-trial","145","1106002","0.0-31.0","battery-v0.2","","""event"",""trial"",""time""
""fullscreenenter"",""1"",""2926""
","
","
","""event"",""trial"",""time""
""fullscreenenter"",""1"",""2926""
","
","","","679.5","","","21","10838","5139","g","elianto","#f73b6a7A"," "," ","1","0","[1529.800000011921]","1","2","","","10838","27","3","3","lose","go","0"
"pit-trial","146","1109576","0.0-32.0","battery-v0.2","","""event"",""trial"",""time""
""fullscreenenter"",""1"",""2926""
","
","
","""event"",""trial"",""time""
""fullscreenenter"",""1"",""2926""
","
","","","719.3000000119209","","","21","10838","5139","l","elianto","#3366ff99"," "," ","1","+10","[1570.9000000059605]","1","2","","","10838","28","1","1","win","go","0"
"pit-trial","147","1113832","0.0-33.0","battery-v0.2","","""event"",""trial"",""time""
""fullscreenenter"",""1"",""2926""
","
","
","""event"",""trial"",""time""
""fullscreenenter"",""1"",""2926""
","
","","","1397","","","21","10838","5139","g","elianto","#f73b6a7A"," "," ","1","0","[2249.899999976158]","1","2","","","10838","29","3","3","lose","go","0"
"pit-trial","148","1118692","0.0-34.0","battery-v0.2","","""event"",""trial"",""time""
""fullscreenenter"",""1"",""2926""
","
","
","""event"",""trial"",""time""
""fullscreenenter"",""1"",""2926""
","
","","","-1","","","21","10838","5139","u","elianto","#f73b6a7A","-1","-1","1","0","[]","0","2","","","10838","30","0","4","lose","no-go","0"
"pit-trial","149","1123554","0.0-35.0","battery-v0.2","","""event"",""trial"",""time""
""fullscreenenter"",""1"",""2926""
","
","
","""event"",""trial"",""time""
""fullscreenenter"",""1"",""2926""
","
","","","-1","","","21","10838","5139","a","elianto","#f73b6a7A","-1","-1","1","0","[]","0","2","","","10838","31","2","4","lose","no-go","0"
"pit-trial","150","1126948","0.0-36.0","battery-v0.2","","""event"",""trial"",""time""
""fullscreenenter"",""1"",""2926""
","
","
","""event"",""trial"",""time""
""fullscreenenter"",""1"",""2926""
","
","","","534.5","","","21","10838","5139","l","elianto","#3366ff99"," "," ","1","+10","[1387.5999999940395]","1","2","","","10838","32","1","1","win","go","0"
"pit-trial","151","1131807","0.0-37.0","battery-v0.2","","""event"",""trial"",""time""
""fullscreenenter"",""1"",""2926""
","
","
","""event"",""trial"",""time""
""fullscreenenter"",""1"",""2926""
","
","","","-1","","","21","10838","5139","a","elianto","#f73b6a7A","-1","-1","1","0","[]","0","2","","","10838","33","2","4","lose","no-go","0"
"pit-trial","152","1136669","0.0-38.0","battery-v0.2","","""event"",""trial"",""time""
""fullscreenenter"",""1"",""2926""
","
","
","""event"",""trial"",""time""
""fullscreenenter"",""1"",""2926""
","
","","","-1","","","21","10838","5139","g","elianto","#f73b6a7A"," ","-1","0","-10","[]","0","2","","","10838","34","3","3","lose","go","0"
"pit-trial","153","1140804","0.0-39.0","battery-v0.2","","""event"",""trial"",""time""
""fullscreenenter"",""1"",""2926""
","
","
","""event"",""trial"",""time""
""fullscreenenter"",""1"",""2926""
","
","","","1277.5999999940395","","","21","10838","5139","l","elianto","#3366ff99"," "," ","1","+10","[2128.4000000059605,2318.800000011921]","2","2","","","10838","35","1","1","win","go","0"
"pit-trial","154","1145662","0.0-40.0","battery-v0.2","","""event"",""trial"",""time""
""fullscreenenter"",""1"",""2926""
","
","
","""event"",""trial"",""time""
""fullscreenenter"",""1"",""2926""
","
","","","-1","","","21","10838","5139","u","elianto","#f73b6a7A","-1","-1","1","0","[]","0","2","","","10838","36","0","4","lose","no-go","0"
"pit-trial","155","1149159","0.0-41.0","battery-v0.2","","""event"",""trial"",""time""
""fullscreenenter"",""1"",""2926""
","
","
","""event"",""trial"",""time""
""fullscreenenter"",""1"",""2926""
","
","","","639.5999999940395","","","21","10838","5139","l","elianto","#3366ff99"," "," ","1","0","[1489.5999999940395]","1","2","","","10838","37","1","1","win","go","1"
"pit-trial","156","1152585","0.0-42.0","battery-v0.2","","""event"",""trial"",""time""
""fullscreenenter"",""1"",""2926""
","
","
","""event"",""trial"",""time""
""fullscreenenter"",""1"",""2926""
","
","","","568.7000000178814","","","21","10838","5139","g","elianto","#f73b6a7A"," "," ","1","0","[1420.8999999761581]","1","2","","","10838","38","3","3","lose","go","0"
"pit-trial","157","1157447","0.0-43.0","battery-v0.2","","""event"",""trial"",""time""
""fullscreenenter"",""1"",""2926""
","
","
","""event"",""trial"",""time""
""fullscreenenter"",""1"",""2926""
","
","","","-1","","","21","10838","5139","a","elianto","#f73b6a7A","-1","-1","1","0","[]","0","2","","","10838","39","2","4","lose","no-go","0"
"pit-trial","158","1162308","0.0-44.0","battery-v0.2","","""event"",""trial"",""time""
""fullscreenenter"",""1"",""2926""
","
","
","""event"",""trial"",""time""
""fullscreenenter"",""1"",""2926""
","
","","","-1","","","21","10838","5139","u","elianto","#f73b6a7A","-1","-1","1","0","[]","0","2","","","10838","40","0","4","lose","no-go","0"
"pit-trial","159","1165774","0.0-45.0","battery-v0.2","","""event"",""trial"",""time""
""fullscreenenter"",""1"",""2926""
","
","
","""event"",""trial"",""time""
""fullscreenenter"",""1"",""2926""
","
","","","611.4000000059605","","","21","10838","5139","l","elianto","#3366ff99"," "," ","1","+10","[1462.5999999940395]","1","2","","","10838","41","1","1","win","go","0"
"pit-trial","160","1169307","0.0-46.0","battery-v0.2","","""event"",""trial"",""time""
""fullscreenenter"",""1"",""2926""
","
","
","""event"",""trial"",""time""
""fullscreenenter"",""1"",""2926""
","
","","","679.1999999880791","","","21","10838","5139","g","elianto","#f73b6a7A"," "," ","1","0","[1530]","1","2","","","10838","42","3","3","lose","go","0"
"pit-trial","161","1174169","0.0-47.0","battery-v0.2","","""event"",""trial"",""time""
""fullscreenenter"",""1"",""2926""
","
","
","""event"",""trial"",""time""
""fullscreenenter"",""1"",""2926""
","
","","","-1","","","21","10838","5139","u","elianto","#f73b6a7A","-1","-1","1","-10","[]","0","2","","","10838","43","0","4","lose","no-go","1"
"pit-trial","162","1179031","0.0-48.0","battery-v0.2","","""event"",""trial"",""time""
""fullscreenenter"",""1"",""2926""
","
","
","""event"",""trial"",""time""
""fullscreenenter"",""1"",""2926""
","
","","","-1","","","21","10838","5139","a","elianto","#f73b6a7A","-1","-1","1","-10","[]","0","2","","","10838","44","2","4","lose","no-go","1"
"pit-trial","163","1183889","0.0-49.0","battery-v0.2","","""event"",""trial"",""time""
""fullscreenenter"",""1"",""2926""
","
","
","""event"",""trial"",""time""
""fullscreenenter"",""1"",""2926""
","
","","","-1","","","21","10838","5139","u","elianto","#f73b6a7A","-1","-1","1","-10","[]","0","2","","","10838","45","0","4","lose","no-go","1"
"pit-trial","164","1187553","0.0-50.0","battery-v0.2","","""event"",""trial"",""time""
""fullscreenenter"",""1"",""2926""
","
","
","""event"",""trial"",""time""
""fullscreenenter"",""1"",""2926""
","
","","","806.8000000119209","","","21","10838","5139","p","elianto","#3366ff99","-1"," ","0","+10","[1657.9000000059605]","1","2","","","10838","46","4","2","win","no-go","1"
"pit-trial","165","1191041","0.0-51.0","battery-v0.2","","""event"",""trial"",""time""
""fullscreenenter"",""1"",""2926""
","
","
","""event"",""trial"",""time""
""fullscreenenter"",""1"",""2926""
","
","","","628.5","","","21","10838","5139","a","elianto","#f73b6a7A","-1"," ","0","-10","[1480.800000011921]","1","2","","","10838","47","2","4","lose","no-go","0"
"pit-trial","166","1194398","0.0-52.0","battery-v0.2","","""event"",""trial"",""time""
""fullscreenenter"",""1"",""2926""
","
","
","""event"",""trial"",""time""
""fullscreenenter"",""1"",""2926""
","
","","","499.2999999821186","","","21","10838","5139","g","elianto","#f73b6a7A"," "," ","1","-10","[1350.0999999940395]","1","2","","","10838","48","3","3","lose","go","1"
"pit-trial","167","1197849","0.0-53.0","battery-v0.2","","""event"",""trial"",""time""
""fullscreenenter"",""1"",""2926""
","
","
","""event"",""trial"",""time""
""fullscreenenter"",""1"",""2926""
","
","","","591.3999999761581","","","21","10838","5139","l","elianto","#3366ff99"," "," ","1","0","[1441.699999988079]","1","2","","","10838","49","1","1","win","go","1"
"pit-trial","168","1201480","0.0-54.0","battery-v0.2","","""event"",""trial"",""time""
""fullscreenenter"",""1"",""2926""
","
","
","""event"",""trial"",""time""
""fullscreenenter"",""1"",""2926""
","
","","","761.5","","","21","10838","5139","g","elianto","#f73b6a7A"," "," ","1","0","[1611.9000000059605]","1","2","","","10838","50","3","3","lose","go","0"
"pit-trial","169","1204952","0.0-55.0","battery-v0.2","","""event"",""trial"",""time""
""fullscreenenter"",""1"",""2926""
","
","
","""event"",""trial"",""time""
""fullscreenenter"",""1"",""2926""
","
","","","613.5","","","21","10838","5139","u","elianto","#f73b6a7A","-1"," ","0","-10","[1464.3999999761581]","1","2","","","10838","51","0","4","lose","no-go","0"
"pit-trial","170","1208483","0.0-56.0","battery-v0.2","","""event"",""trial"",""time""
""fullscreenenter"",""1"",""2926""
","
","
","""event"",""trial"",""time""
""fullscreenenter"",""1"",""2926""
","
","","","672.5","","","21","10838","5139","p","elianto","#3366ff99","-1"," ","0","0","[1522.7000000178814]","1","2","","","10838","52","4","2","win","no-go","0"
"pit-trial","171","1213341","0.0-57.0","battery-v0.2","","""event"",""trial"",""time""
""fullscreenenter"",""1"",""2926""
","
","
","""event"",""trial"",""time""
""fullscreenenter"",""1"",""2926""
","
","","","-1","","","21","10838","5139","u","elianto","#f73b6a7A","-1","-1","1","-10","[]","0","2","","","10838","53","0","4","lose","no-go","1"
"pit-trial","172","1216963","0.0-58.0","battery-v0.2","","""event"",""trial"",""time""
""fullscreenenter"",""1"",""2926""
","
","
","""event"",""trial"",""time""
""fullscreenenter"",""1"",""2926""
","
","","","762.4000000059605","","","21","10838","5139","p","elianto","#3366ff99","-1"," ","0","0","[1613.7999999821186]","1","2","","","10838","54","4","2","win","no-go","0"
"pit-trial","173","1220440","0.0-59.0","battery-v0.2","","""event"",""trial"",""time""
""fullscreenenter"",""1"",""2926""
","
","
","""event"",""trial"",""time""
""fullscreenenter"",""1"",""2926""
","
","","","622.9000000059605","","","21","10838","5139","l","elianto","#3366ff99"," "," ","1","+10","[1473.300000011921]","1","2","","","10838","55","1","1","win","go","0"
"pit-trial","174","1224106","0.0-60.0","battery-v0.2","","""event"",""trial"",""time""
""fullscreenenter"",""1"",""2926""
","
","
","""event"",""trial"",""time""
""fullscreenenter"",""1"",""2926""
","
","","","809.7000000178814","","","21","10838","5139","a","elianto","#f73b6a7A","-1"," ","0","-10","[1660.1000000238419]","1","2","","","10838","56","2","4","lose","no-go","0"
"pit-trial","175","1228968","0.0-61.0","battery-v0.2","","""event"",""trial"",""time""
""fullscreenenter"",""1"",""2926""
","
","
","""event"",""trial"",""time""
""fullscreenenter"",""1"",""2926""
","
","","","-1","","","21","10838","5139","u","elianto","#f73b6a7A","-1","-1","1","-10","[]","0","2","","","10838","57","0","4","lose","no-go","1"
"pit-trial","176","1232877","0.0-62.0","battery-v0.2","","""event"",""trial"",""time""
""fullscreenenter"",""1"",""2926""
","
","
","""event"",""trial"",""time""
""fullscreenenter"",""1"",""2926""
","
","","","1050.5999999940395","","","21","10838","5139","g","elianto","#f73b6a7A"," "," ","1","0","[1901.9000000059605]","1","2","","","10838","58","3","3","lose","go","0"
"pit-trial","177","1236523","0.0-63.0","battery-v0.2","","""event"",""trial"",""time""
""fullscreenenter"",""1"",""2926""
","
","
","""event"",""trial"",""time""
""fullscreenenter"",""1"",""2926""
","
","","","787.5999999940395","","","21","10838","5139","l","elianto","#3366ff99"," "," ","1","+10","[1638.5999999940395]","1","2","","","10838","59","1","1","win","go","0"
"pit-trial","178","1240107","0.0-64.0","battery-v0.2","","""event"",""trial"",""time""
""fullscreenenter"",""1"",""2926""
","
","
","""event"",""trial"",""time""
""fullscreenenter"",""1"",""2926""
","
","","","726.8000000119209","","","21","10838","5139","p","elianto","#3366ff99","-1"," ","0","+10","[1577.5]","1","2","","","10838","60","4","2","win","no-go","1"
"pit-trial","179","1243613","0.0-65.0","battery-v0.2","","""event"",""trial"",""time""
""fullscreenenter"",""1"",""2926""
","
","
","""event"",""trial"",""time""
""fullscreenenter"",""1"",""2926""
","
","","","649.1999999880791","","","21","10838","5139","l","elianto","#3366ff99"," "," ","1","+10","[1499.4000000059605]","1","2","","","10838","61","1","1","win","go","0"
"pit-trial","180","1248475","0.0-66.0","battery-v0.2","","""event"",""trial"",""time""
""fullscreenenter"",""1"",""2926""
","
","
","""event"",""trial"",""time""
""fullscreenenter"",""1"",""2926""
","
","","","-1","","","21","10838","5139","a","elianto","#f73b6a7A","-1","-1","1","0","[]","0","2","","","10838","62","2","4","lose","no-go","0"
"pit-trial","181","1252048","0.0-67.0","battery-v0.2","","""event"",""trial"",""time""
""fullscreenenter"",""1"",""2926""
","
","
","""event"",""trial"",""time""
""fullscreenenter"",""1"",""2926""
","
","","","713.9000000059605","","","21","10838","5139","p","elianto","#3366ff99","-1"," ","0","+10","[1565.300000011921]","1","2","","","10838","63","4","2","win","no-go","1"
"pit-trial","182","1256906","0.0-68.0","battery-v0.2","","""event"",""trial"",""time""
""fullscreenenter"",""1"",""2926""
","
","
","""event"",""trial"",""time""
""fullscreenenter"",""1"",""2926""
","
","","","-1","","","21","10838","5139","g","elianto","#f73b6a7A"," ","-1","0","-10","[]","0","2","","","10838","64","3","3","lose","go","0"
"pit-trial","183","1261765","0.0-69.0","battery-v0.2","","""event"",""trial"",""time""
""fullscreenenter"",""1"",""2926""
","
","
","""event"",""trial"",""time""
""fullscreenenter"",""1"",""2926""
","
","","","-1","","","21","10838","5139","a","elianto","#f73b6a7A","-1","-1","1","0","[]","0","2","","","10838","65","2","4","lose","no-go","0"
"pit-trial","184","1265253","0.0-70.0","battery-v0.2","","""event"",""trial"",""time""
""fullscreenenter"",""1"",""2926""
","
","
","""event"",""trial"",""time""
""fullscreenenter"",""1"",""2926""
","
","","","629.4000000059605","","","21","10838","5139","l","elianto","#3366ff99"," "," ","1","0","[1480]","1","2","","","10838","66","1","1","win","go","1"
"pit-trial","185","1268786","0.0-71.0","battery-v0.2","","""event"",""trial"",""time""
""fullscreenenter"",""1"",""2926""
","
","
","""event"",""trial"",""time""
""fullscreenenter"",""1"",""2926""
","
","","","675.5","","","21","10838","5139","g","elianto","#f73b6a7A"," "," ","1","0","[1527]","1","2","","","10838","67","3","3","lose","go","0"
"pit-trial","186","1272213","0.0-72.0","battery-v0.2","","""event"",""trial"",""time""
""fullscreenenter"",""1"",""2926""
","
","
","""event"",""trial"",""time""
""fullscreenenter"",""1"",""2926""
","
","","","569.3000000119209","","","21","10838","5139","p","elianto","#3366ff99","-1"," ","0","0","[1420.800000011921]","1","2","","","10838","68","4","2","win","no-go","0"
"pit-trial","187","1275639","0.0-73.0","battery-v0.2","","""event"",""trial"",""time""
""fullscreenenter"",""1"",""2926""
","
","
","""event"",""trial"",""time""
""fullscreenenter"",""1"",""2926""
","
","","","569.2000000178814","","","21","10838","5139","l","elianto","#3366ff99"," "," ","1","+10","[1420.2000000178814]","1","2","","","10838","69","1","1","win","go","0"
"pit-trial","188","1279936","0.0-74.0","battery-v0.2","","""event"",""trial"",""time""
""fullscreenenter"",""1"",""2926""
","
","
","""event"",""trial"",""time""
""fullscreenenter"",""1"",""2926""
","
","","","1439","","","21","10838","5139","g","elianto","#f73b6a7A"," "," ","1","0","[2289.800000011921]","1","2","","","10838","70","3","3","lose","go","0"
"pit-trial","189","1283404","0.0-75.0","battery-v0.2","","""event"",""trial"",""time""
""fullscreenenter"",""1"",""2926""
","
","
","""event"",""trial"",""time""
""fullscreenenter"",""1"",""2926""
","
","","","610.2000000178814","","","21","10838","5139","p","elianto","#3366ff99","-1"," ","0","0","[1461.4000000059605]","1","2","","","10838","71","4","2","win","no-go","0"
"pit-trial","190","1286810","0.0-76.0","battery-v0.2","","""event"",""trial"",""time""
""fullscreenenter"",""1"",""2926""
","
","
","""event"",""trial"",""time""
""fullscreenenter"",""1"",""2926""
","
","","","550.1000000238419","","","21","10838","5139","s","elianto","#3366ff99"," "," ","1","0","[1400.2999999821186]","1","2","","","10838","72","5","1","win","go","1"
"pit-trial","191","1290343","0.0-77.0","battery-v0.2","","""event"",""trial"",""time""
""fullscreenenter"",""1"",""2926""
","
","
","""event"",""trial"",""time""
""fullscreenenter"",""1"",""2926""
","
","","","674.9000000059605","","","21","10838","5139","l","elianto","#3366ff99"," "," ","1","+10","[1525.9000000059605]","1","2","","","10838","73","1","1","win","go","0"
"pit-trial","192","1293955","0.0-78.0","battery-v0.2","","""event"",""trial"",""time""
""fullscreenenter"",""1"",""2926""
","
","
","""event"",""trial"",""time""
""fullscreenenter"",""1"",""2926""
","
","","","752.4000000059605","","","21","10838","5139","g","elianto","#f73b6a7A"," "," ","1","0","[1606]","1","2","","","10838","74","3","3","lose","go","0"
"pit-trial","193","1298817","0.0-79.0","battery-v0.2","","""event"",""trial"",""time""
""fullscreenenter"",""1"",""2926""
","
","
","""event"",""trial"",""time""
""fullscreenenter"",""1"",""2926""
","
","","","-1","","","21","10838","5139","s","elianto","#3366ff99"," ","-1","0","+10","[]","0","2","","","10838","75","5","1","win","go","1"
"pit-trial","194","1302394","0.0-80.0","battery-v0.2","","""event"",""trial"",""time""
""fullscreenenter"",""1"",""2926""
","
","
","""event"",""trial"",""time""
""fullscreenenter"",""1"",""2926""
","
","","","718.7999999821186","","","21","10838","5139","p","elianto","#3366ff99","-1"," ","0","0","[1569.800000011921]","1","2","","","10838","76","4","2","win","no-go","0"
"pit-trial","195","1307255","0.0-81.0","battery-v0.2","","""event"",""trial"",""time""
""fullscreenenter"",""1"",""2926""
","
","
","""event"",""trial"",""time""
""fullscreenenter"",""1"",""2926""
","
","","","-1","","","21","10838","5139","p","elianto","#3366ff99","-1","-1","1","0","[]","0","2","","","10838","77","4","2","win","no-go","1"
"pit-trial","196","1311185","0.0-82.0","battery-v0.2","","""event"",""trial"",""time""
""fullscreenenter"",""1"",""2926""
","
","
","""event"",""trial"",""time""
""fullscreenenter"",""1"",""2926""
","
","","","1073.6000000238419","","","21","10838","5139","w","elianto","#f73b6a7A","-1"," ","0","-10","[1926.7000000178814]","1","2","","","10838","78","6","4","lose","no-go","0"
"pit-trial","197","1316047","0.0-83.0","battery-v0.2","","""event"",""trial"",""time""
""fullscreenenter"",""1"",""2926""
","
","
","""event"",""trial"",""time""
""fullscreenenter"",""1"",""2926""
","
","","","-1","","","21","10838","5139","s","elianto","#3366ff99"," ","-1","0","0","[]","0","2","","","10838","79","5","1","win","go","0"
"pit-trial","198","1319759","0.0-84.0","battery-v0.2","","""event"",""trial"",""time""
""fullscreenenter"",""1"",""2926""
","
","
","""event"",""trial"",""time""
""fullscreenenter"",""1"",""2926""
","
","","","854.7000000178814","","","21","10838","5139","g","elianto","#f73b6a7A"," "," ","1","0","[1705.699999988079]","1","2","","","10838","80","3","3","lose","go","0"
"pit-trial","199","1323925","0.0-85.0","battery-v0.2","","""event"",""trial"",""time""
""fullscreenenter"",""1"",""2926""
","
","
","""event"",""trial"",""time""
""fullscreenenter"",""1"",""2926""
","
","","","1309","","","21","10838","5139","s","elianto","#3366ff99"," "," ","1","+10","[2160]","1","2","","","10838","81","5","1","win","go","0"
"pit-trial","200","1327641","0.0-86.0","battery-v0.2","","""event"",""trial"",""time""
""fullscreenenter"",""1"",""2926""
","
","
","""event"",""trial"",""time""
""fullscreenenter"",""1"",""2926""
","
","","","858.7000000178814","","","21","10838","5139","e","elianto","#f73b6a7A"," "," ","1","0","[1710.2000000178814]","1","2","","","10838","82","7","3","lose","go","0"
"pit-trial","201","1332500","0.0-87.0","battery-v0.2","","""event"",""trial"",""time""
""fullscreenenter"",""1"",""2926""
","
","
","""event"",""trial"",""time""
""fullscreenenter"",""1"",""2926""
","
","","","-1","","","21","10838","5139","w","elianto","#f73b6a7A","-1","-1","1","0","[]","0","2","","","10838","83","6","4","lose","no-go","0"
"pit-trial","202","1336054","0.0-88.0","battery-v0.2","","""event"",""trial"",""time""
""fullscreenenter"",""1"",""2926""
","
","
","""event"",""trial"",""time""
""fullscreenenter"",""1"",""2926""
","
","","","693.5999999940395","","","21","10838","5139","p","elianto","#3366ff99","-1"," ","0","+10","[1546.800000011921]","1","2","","","10838","84","4","2","win","no-go","1"
"pit-trial","203","1339524","0.0-89.0","battery-v0.2","","""event"",""trial"",""time""
""fullscreenenter"",""1"",""2926""
","
","
","""event"",""trial"",""time""
""fullscreenenter"",""1"",""2926""
","
","","","612.8000000119209","","","21","10838","5139","s","elianto","#3366ff99"," "," ","1","+10","[1463.800000011921]","1","2","","","10838","85","5","1","win","go","0"
"pit-trial","204","1344385","0.0-90.0","battery-v0.2","","""event"",""trial"",""time""
""fullscreenenter"",""1"",""2926""
","
","
","""event"",""trial"",""time""
""fullscreenenter"",""1"",""2926""
","
","","","-1","","","21","10838","5139","w","elianto","#f73b6a7A","-1","-1","1","0","[]","0","2","","","10838","86","6","4","lose","no-go","0"
"pit-trial","205","1348126","0.0-91.0","battery-v0.2","","""event"",""trial"",""time""
""fullscreenenter"",""1"",""2926""
","
","
","""event"",""trial"",""time""
""fullscreenenter"",""1"",""2926""
","
","","","882.7000000178814","","","21","10838","5139","p","elianto","#3366ff99","-1"," ","0","0","[1734.1000000238419]","1","2","","","10838","87","4","2","win","no-go","0"
"pit-trial","206","1352985","0.0-92.0","battery-v0.2","","""event"",""trial"",""time""
""fullscreenenter"",""1"",""2926""
","
","
","""event"",""trial"",""time""
""fullscreenenter"",""1"",""2926""
","
","","","-1","","","21","10838","5139","e","elianto","#f73b6a7A"," ","-1","0","-10","[]","0","2","","","10838","88","7","3","lose","go","0"
"pit-trial","207","1356617","0.0-93.0","battery-v0.2","","""event"",""trial"",""time""
""fullscreenenter"",""1"",""2926""
","
","
","""event"",""trial"",""time""
""fullscreenenter"",""1"",""2926""
","
","","","775.4000000059605","","","21","10838","5139","s","elianto","#3366ff99"," "," ","1","+10","[1625.7000000178814]","1","2","","","10838","89","5","1","win","go","0"
"pit-trial","208","1360011","0.0-94.0","battery-v0.2","","""event"",""trial"",""time""
""fullscreenenter"",""1"",""2926""
","
","
","""event"",""trial"",""time""
""fullscreenenter"",""1"",""2926""
","
","","","536.5","","","21","10838","5139","e","elianto","#f73b6a7A"," "," ","1","0","[1387.7999999821186]","1","2","","","10838","90","7","3","lose","go","0"
"pit-trial","209","1363860","0.0-95.0","battery-v0.2","","""event"",""trial"",""time""
""fullscreenenter"",""1"",""2926""
","
","
","""event"",""trial"",""time""
""fullscreenenter"",""1"",""2926""
","
","","","990.1999999880791","","","21","10838","5139","p","elianto","#3366ff99","-1"," ","0","+10","[1841.7999999821186]","1","2","","","10838","91","4","2","win","no-go","1"
"pit-trial","210","1368720","0.0-96.0","battery-v0.2","","""event"",""trial"",""time""
""fullscreenenter"",""1"",""2926""
","
","
","""event"",""trial"",""time""
""fullscreenenter"",""1"",""2926""
","
","","","-1","","","21","10838","5139","w","elianto","#f73b6a7A","-1","-1","1","0","[]","0","2","","","10838","92","6","4","lose","no-go","0"
"pit-trial","211","1373582","0.0-97.0","battery-v0.2","","""event"",""trial"",""time""
""fullscreenenter"",""1"",""2926""
","
","
","""event"",""trial"",""time""
""fullscreenenter"",""1"",""2926""
","
","","","-1","","","21","10838","5139","w","elianto","#f73b6a7A","-1","-1","1","0","[]","0","2","","","10838","93","6","4","lose","no-go","0"
"pit-trial","212","1377014","0.0-98.0","battery-v0.2","","""event"",""trial"",""time""
""fullscreenenter"",""1"",""2926""
","
","
","""event"",""trial"",""time""
""fullscreenenter"",""1"",""2926""
","
","","","573.7999999821186","","","21","10838","5139","e","elianto","#f73b6a7A"," "," ","1","0","[1425.199999988079]","1","2","","","10838","94","7","3","lose","go","0"
"pit-trial","213","1380685","0.0-99.0","battery-v0.2","","""event"",""trial"",""time""
""fullscreenenter"",""1"",""2926""
","
","
","""event"",""trial"",""time""
""fullscreenenter"",""1"",""2926""
","
","","","818.0999999940395","","","21","10838","5139","d","elianto","#3366ff99","-1"," ","0","0","[1669.5999999940395]","1","2","","","10838","95","8","2","win","no-go","0"
"pit-trial","214","1384575","0.0-100.0","battery-v0.2","","""event"",""trial"",""time""
""fullscreenenter"",""1"",""2926""
","
","
","""event"",""trial"",""time""
""fullscreenenter"",""1"",""2926""
","
","","","1032.9000000059605","","","21","10838","5139","s","elianto","#3366ff99"," "," ","1","0","[1885.2000000178814]","1","2","","","10838","96","5","1","win","go","1"
"pit-trial","215","1387995","0.0-101.0","battery-v0.2","","""event"",""trial"",""time""
""fullscreenenter"",""1"",""2926""
","
","
","""event"",""trial"",""time""
""fullscreenenter"",""1"",""2926""
","
","","","563.1000000238419","","","21","10838","5139","s","elianto","#3366ff99"," "," ","1","+10","[1413.9000000059605]","1","2","","","10838","97","5","1","win","go","0"
"pit-trial","216","1392856","0.0-102.0","battery-v0.2","","""event"",""trial"",""time""
""fullscreenenter"",""1"",""2926""
","
","
","""event"",""trial"",""time""
""fullscreenenter"",""1"",""2926""
","
","","","-1","","","21","10838","5139","e","elianto","#f73b6a7A"," ","-1","0","-10","[]","0","2","","","10838","98","7","3","lose","go","0"
"pit-trial","217","1397717","0.0-103.0","battery-v0.2","","""event"",""trial"",""time""
""fullscreenenter"",""1"",""2926""
","
","
","""event"",""trial"",""time""
""fullscreenenter"",""1"",""2926""
","
","","","-1","","","21","10838","5139","w","elianto","#f73b6a7A","-1","-1","1","-10","[]","0","2","","","10838","99","6","4","lose","no-go","1"
"pit-trial","218","1401352","0.0-104.0","battery-v0.2","","""event"",""trial"",""time""
""fullscreenenter"",""1"",""2926""
","
","
","""event"",""trial"",""time""
""fullscreenenter"",""1"",""2926""
","
","","","778.5","","","21","10838","5139","d","elianto","#3366ff99","-1"," ","0","0","[1629.199999988079]","1","2","","","10838","100","8","2","win","no-go","0"
"pit-trial","219","1404915","0.0-105.0","battery-v0.2","","""event"",""trial"",""time""
""fullscreenenter"",""1"",""2926""
","
","
","""event"",""trial"",""time""
""fullscreenenter"",""1"",""2926""
","
","","","703.6999999880791","","","21","10838","5139","s","elianto","#3366ff99"," "," ","1","+10","[1555.7999999821186]","1","2","","","10838","101","5","1","win","go","0"
"pit-trial","220","1408485","0.0-106.0","battery-v0.2","","""event"",""trial"",""time""
""fullscreenenter"",""1"",""2926""
","
","
","""event"",""trial"",""time""
""fullscreenenter"",""1"",""2926""
","
","","","711.6999999880791","","","21","10838","5139","d","elianto","#3366ff99","-1"," ","0","0","[1562.3999999761581]","1","2","","","10838","102","8","2","win","no-go","0"
"pit-trial","221","1412042","0.0-107.0","battery-v0.2","","""event"",""trial"",""time""
""fullscreenenter"",""1"",""2926""
","
","
","""event"",""trial"",""time""
""fullscreenenter"",""1"",""2926""
","
","","","702.5","","","21","10838","5139","j","elianto","#3366ff99","-1"," ","0","0","[1552.5]","1","2","","","10838","103","9","2","win","no-go","0"
"pit-trial","222","1416904","0.0-108.0","battery-v0.2","","""event"",""trial"",""time""
""fullscreenenter"",""1"",""2926""
","
","
","""event"",""trial"",""time""
""fullscreenenter"",""1"",""2926""
","
","","","-1","","","21","10838","5139","w","elianto","#f73b6a7A","-1","-1","1","0","[]","0","2","","","10838","104","6","4","lose","no-go","0"
"pit-trial","223","1421765","0.0-109.0","battery-v0.2","","""event"",""trial"",""time""
""fullscreenenter"",""1"",""2926""
","
","
","""event"",""trial"",""time""
""fullscreenenter"",""1"",""2926""
","
","","","-1","","","21","10838","5139","j","elianto","#3366ff99","-1","-1","1","+10","[]","0","2","","","10838","105","9","2","win","no-go","0"
"pit-trial","224","1426626","0.0-110.0","battery-v0.2","","""event"",""trial"",""time""
""fullscreenenter"",""1"",""2926""
","
","
","""event"",""trial"",""time""
""fullscreenenter"",""1"",""2926""
","
","","","-1","","","21","10838","5139","w","elianto","#f73b6a7A","-1","-1","1","0","[]","0","2","","","10838","106","6","4","lose","no-go","0"
"pit-trial","225","1430277","0.0-111.0","battery-v0.2","","""event"",""trial"",""time""
""fullscreenenter"",""1"",""2926""
","
","
","""event"",""trial"",""time""
""fullscreenenter"",""1"",""2926""
","
","","","793.4000000059605","","","21","10838","5139","s","elianto","#3366ff99"," "," ","1","+10","[1643.300000011921]","1","2","","","10838","107","5","1","win","go","0"
"pit-trial","226","1435139","0.0-112.0","battery-v0.2","","""event"",""trial"",""time""
""fullscreenenter"",""1"",""2926""
","
","
","""event"",""trial"",""time""
""fullscreenenter"",""1"",""2926""
","
","","","-1","","","21","10838","5139","d","elianto","#3366ff99","-1","-1","1","+10","[]","0","2","","","10838","108","8","2","win","no-go","0"
"pit-trial","227","1439999","0.0-113.0","battery-v0.2","","""event"",""trial"",""time""
""fullscreenenter"",""1"",""2926""
","
","
","""event"",""trial"",""time""
""fullscreenenter"",""1"",""2926""
","
","","","-1","","","21","10838","5139","w","elianto","#f73b6a7A","-1","-1","1","0","[]","0","2","","","10838","109","6","4","lose","no-go","0"
"pit-trial","228","1443956","0.0-114.0","battery-v0.2","","""event"",""trial"",""time""
""fullscreenenter"",""1"",""2926""
","
","
","""event"",""trial"",""time""
""fullscreenenter"",""1"",""2926""
","
","","","1101.199999988079","","","21","10838","5139","s","elianto","#3366ff99"," "," ","1","+10","[1952.4000000059605]","1","2","","","10838","110","5","1","win","go","0"
"pit-trial","229","1448815","0.0-115.0","battery-v0.2","","""event"",""trial"",""time""
""fullscreenenter"",""1"",""2926""
","
","
","""event"",""trial"",""time""
""fullscreenenter"",""1"",""2926""
","
","","","-1","","","21","10838","5139","d","elianto","#3366ff99","-1","-1","1","+10","[]","0","2","","","10838","111","8","2","win","no-go","0"
"pit-trial","230","1453672","0.0-116.0","battery-v0.2","","""event"",""trial"",""time""
""fullscreenenter"",""1"",""2926""
","
","
","""event"",""trial"",""time""
""fullscreenenter"",""1"",""2926""
","
","","","-1","","","21","10838","5139","j","elianto","#3366ff99","-1","-1","1","0","[]","0","2","","","10838","112","9","2","win","no-go","1"
"pit-trial","231","1458532","0.0-117.0","battery-v0.2","","""event"",""trial"",""time""
""fullscreenenter"",""1"",""2926""
","
","
","""event"",""trial"",""time""
""fullscreenenter"",""1"",""2926""
","
","","","-1","","","21","10838","5139","j","elianto","#3366ff99","-1","-1","1","+10","[]","0","2","","","10838","113","9","2","win","no-go","0"
"pit-trial","232","1462500","0.0-118.0","battery-v0.2","","""event"",""trial"",""time""
""fullscreenenter"",""1"",""2926""
","
","
","""event"",""trial"",""time""
""fullscreenenter"",""1"",""2926""
","
","","","1109.5","","","21","10838","5139","e","elianto","#f73b6a7A"," "," ","1","0","[1960.699999988079]","1","2","","","10838","114","7","3","lose","go","0"
"pit-trial","233","1467362","0.0-119.0","battery-v0.2","","""event"",""trial"",""time""
""fullscreenenter"",""1"",""2926""
","
","
","""event"",""trial"",""time""
""fullscreenenter"",""1"",""2926""
","
","","","-1","","","21","10838","5139","s","elianto","#3366ff99"," ","-1","0","0","[]","0","2","","","10838","115","5","1","win","go","0"
"pit-trial","234","1472223","0.0-120.0","battery-v0.2","","""event"",""trial"",""time""
""fullscreenenter"",""1"",""2926""
","
","
","""event"",""trial"",""time""
""fullscreenenter"",""1"",""2926""
","
","","","-1","","","21","10838","5139","d","elianto","#3366ff99","-1","-1","1","+10","[]","0","2","","","10838","116","8","2","win","no-go","0"
"pit-trial","235","1477081","0.0-121.0","battery-v0.2","","""event"",""trial"",""time""
""fullscreenenter"",""1"",""2926""
","
","
","""event"",""trial"",""time""
""fullscreenenter"",""1"",""2926""
","
","","","-1","","","21","10838","5139","d","elianto","#3366ff99","-1","-1","1","+10","[]","0","2","","","10838","117","8","2","win","no-go","0"
"pit-trial","236","1481079","0.0-122.0","battery-v0.2","","""event"",""trial"",""time""
""fullscreenenter"",""1"",""2926""
","
","
","""event"",""trial"",""time""
""fullscreenenter"",""1"",""2926""
","
","","","1142.300000011921","","","21","10838","5139","s","elianto","#3366ff99"," "," ","1","+10","[1993.4000000059605]","1","2","","","10838","118","5","1","win","go","0"
"pit-trial","237","1485938","0.0-123.0","battery-v0.2","","""event"",""trial"",""time""
""fullscreenenter"",""1"",""2926""
","
","
","""event"",""trial"",""time""
""fullscreenenter"",""1"",""2926""
","
","","","-1","","","21","10838","5139","j","elianto","#3366ff99","-1","-1","1","0","[]","0","2","","","10838","119","9","2","win","no-go","1"
"pit-trial","238","1490797","0.0-124.0","battery-v0.2","","""event"",""trial"",""time""
""fullscreenenter"",""1"",""2926""
","
","
","""event"",""trial"",""time""
""fullscreenenter"",""1"",""2926""
","
","","","-1","","","21","10838","5139","w","elianto","#f73b6a7A","-1","-1","1","0","[]","0","2","","","10838","120","6","4","lose","no-go","0"
"pit-trial","239","1494683","0.0-125.0","battery-v0.2","","""event"",""trial"",""time""
""fullscreenenter"",""1"",""2926""
","
","
","""event"",""trial"",""time""
""fullscreenenter"",""1"",""2926""
","
","","","1032.800000011921","","","21","10838","5139","e","elianto","#f73b6a7A"," "," ","1","0","[1884.0999999940395]","1","2","","","10838","121","7","3","lose","go","0"
"pit-trial","240","1498306","0.0-126.0","battery-v0.2","","""event"",""trial"",""time""
""fullscreenenter"",""1"",""2926""
","
","
","""event"",""trial"",""time""
""fullscreenenter"",""1"",""2926""
","
","","","763.0999999940395","","","21","10838","5139","s","elianto","#3366ff99"," "," ","1","+10","[1614.5999999940395]","1","2","","","10838","122","5","1","win","go","0"
"pit-trial","241","1503161","0.0-127.0","battery-v0.2","","""event"",""trial"",""time""
""fullscreenenter"",""1"",""2926""
","
","
","""event"",""trial"",""time""
""fullscreenenter"",""1"",""2926""
","
","","","-1","","","21","10838","5139","d","elianto","#3366ff99","-1","-1","1","+10","[]","0","2","","","10838","123","8","2","win","no-go","0"
"pit-trial","242","1508022","0.0-128.0","battery-v0.2","","""event"",""trial"",""time""
""fullscreenenter"",""1"",""2926""
","
","
","""event"",""trial"",""time""
""fullscreenenter"",""1"",""2926""
","
","","","-1","","","21","10838","5139","j","elianto","#3366ff99","-1","-1","1","0","[]","0","2","","","10838","124","9","2","win","no-go","1"
"pit-trial","243","1512189","0.0-129.0","battery-v0.2","","""event"",""trial"",""time""
""fullscreenenter"",""1"",""2926""
","
","
","""event"",""trial"",""time""
""fullscreenenter"",""1"",""2926""
","
","","","1309.4000000059605","","","21","10838","5139","e","elianto","#f73b6a7A"," "," ","1","0","[2159.9000000059605]","1","2","","","10838","125","7","3","lose","go","0"
"pit-trial","244","1517047","0.0-130.0","battery-v0.2","","""event"",""trial"",""time""
""fullscreenenter"",""1"",""2926""
","
","
","""event"",""trial"",""time""
""fullscreenenter"",""1"",""2926""
","
","","","-1","","","21","10838","5139","w","elianto","#f73b6a7A","-1","-1","1","0","[]","0","2","","","10838","126","6","4","lose","no-go","0"
"pit-trial","245","1521907","0.0-131.0","battery-v0.2","","""event"",""trial"",""time""
""fullscreenenter"",""1"",""2926""
","
","
","""event"",""trial"",""time""
""fullscreenenter"",""1"",""2926""
","
","","","-1","","","21","10838","5139","d","elianto","#3366ff99","-1","-1","1","+10","[]","0","2","","","10838","127","8","2","win","no-go","0"
"pit-trial","246","1526766","0.0-132.0","battery-v0.2","","""event"",""trial"",""time""
""fullscreenenter"",""1"",""2926""
","
","
","""event"",""trial"",""time""
""fullscreenenter"",""1"",""2926""
","
","","","-1","","","21","10838","5139","j","elianto","#3366ff99","-1","-1","1","+10","[]","0","2","","","10838","128","9","2","win","no-go","0"
"pit-trial","247","1531628","0.0-133.0","battery-v0.2","","""event"",""trial"",""time""
""fullscreenenter"",""1"",""2926""
","
","
","""event"",""trial"",""time""
""fullscreenenter"",""1"",""2926""
","
","","","-1","","","21","10838","5139","w","elianto","#f73b6a7A","-1","-1","1","-10","[]","0","2","","","10838","129","6","4","lose","no-go","1"
"pit-trial","248","1536489","0.0-134.0","battery-v0.2","","""event"",""trial"",""time""
""fullscreenenter"",""1"",""2926""
","
","
","""event"",""trial"",""time""
""fullscreenenter"",""1"",""2926""
","
","","","-1","","","21","10838","5139","d","elianto","#3366ff99","-1","-1","1","+10","[]","0","2","","","10838","130","8","2","win","no-go","0"
"pit-trial","249","1541350","0.0-135.0","battery-v0.2","","""event"",""trial"",""time""
""fullscreenenter"",""1"",""2926""
","
","
","""event"",""trial"",""time""
""fullscreenenter"",""1"",""2926""
","
","","","-1","","","21","10838","5139","j","elianto","#3366ff99","-1","-1","1","0","[]","0","2","","","10838","131","9","2","win","no-go","1"
"pit-trial","250","1545574","0.0-136.0","battery-v0.2","","""event"",""trial"",""time""
""fullscreenenter"",""1"",""2926""
","
","
","""event"",""trial"",""time""
""fullscreenenter"",""1"",""2926""
","
","","","1365.5999999940395","","","21","10838","5139","e","elianto","#f73b6a7A"," "," ","1","0","[2217.600000023842,2479,2622]","3","2","","","10838","132","7","3","lose","go","0"
"pit-trial","251","1550431","0.0-137.0","battery-v0.2","","""event"",""trial"",""time""
""fullscreenenter"",""1"",""2926""
","
","
","""event"",""trial"",""time""
""fullscreenenter"",""1"",""2926""
","
","","","-1","","","21","10838","5139","e","elianto","#f73b6a7A"," ","-1","0","-10","[]","0","2","","","10838","133","7","3","lose","go","0"
"pit-trial","252","1555294","0.0-138.0","battery-v0.2","","""event"",""trial"",""time""
""fullscreenenter"",""1"",""2926""
","
","
","""event"",""trial"",""time""
""fullscreenenter"",""1"",""2926""
","
","","","-1","","","21","10838","5139","d","elianto","#3366ff99","-1","-1","1","+10","[]","0","2","","","10838","134","8","2","win","no-go","0"
"pit-trial","253","1560156","0.0-139.0","battery-v0.2","","""event"",""trial"",""time""
""fullscreenenter"",""1"",""2926""
","
","
","""event"",""trial"",""time""
""fullscreenenter"",""1"",""2926""
","
","","","-1","","","21","10838","5139","j","elianto","#3366ff99","-1","-1","1","+10","[]","0","2","","","10838","135","9","2","win","no-go","0"
"pit-trial","254","1565016","0.0-140.0","battery-v0.2","","""event"",""trial"",""time""
""fullscreenenter"",""1"",""2926""
","
","
","""event"",""trial"",""time""
""fullscreenenter"",""1"",""2926""
","
","","","-1","","","21","10838","5139","w","elianto","#f73b6a7A","-1","-1","1","0","[]","0","2","","","10838","136","6","4","lose","no-go","0"
"pit-trial","255","1569877","0.0-141.0","battery-v0.2","","""event"",""trial"",""time""
""fullscreenenter"",""1"",""2926""
","
","
","""event"",""trial"",""time""
""fullscreenenter"",""1"",""2926""
","
","","","-1","","","21","10838","5139","j","elianto","#3366ff99","-1","-1","1","+10","[]","0","2","","","10838","137","9","2","win","no-go","0"
"pit-trial","256","1574737","0.0-142.0","battery-v0.2","","""event"",""trial"",""time""
""fullscreenenter"",""1"",""2926""
","
","
","""event"",""trial"",""time""
""fullscreenenter"",""1"",""2926""
","
","","","-1","","","21","10838","5139","d","elianto","#3366ff99","-1","-1","1","+10","[]","0","2","","","10838","138","8","2","win","no-go","0"
"pit-trial","257","1578321","0.0-143.0","battery-v0.2","","""event"",""trial"",""time""
""fullscreenenter"",""1"",""2926""
","
","
","""event"",""trial"",""time""
""fullscreenenter"",""1"",""2926""
","
","","","726","","","21","10838","5139","e","elianto","#f73b6a7A"," "," ","1","0","[1576.199999988079]","1","2","","","10838","139","7","3","lose","go","0"
"pit-trial","258","1583176","0.0-144.0","battery-v0.2","","""event"",""trial"",""time""
""fullscreenenter"",""1"",""2926""
","
","
","""event"",""trial"",""time""
""fullscreenenter"",""1"",""2926""
","
","","","-1","","","21","10838","5139","w","elianto","#f73b6a7A","-1","-1","1","0","[]","0","2","","","10838","140","6","4","lose","no-go","0"
"pit-instructions","259","1615224","0.0-145.0","battery-v0.2","","""event"",""trial"",""time""
""fullscreenenter"",""1"",""2926""
","
","
","""event"",""trial"",""time""
""fullscreenenter"",""1"",""2926""
","
","","[{""page_index"":0,""viewing_time"":22418.59999999404},{""page_index"":1,""viewing_time"":9627.600000023842}]","32046.5","","","","","","","","","","","","","","","","","","","","","","","",""
"pit-trial","260","1619114","0.0-146.0","battery-v0.2","","""event"",""trial"",""time""
""fullscreenenter"",""1"",""2926""
","
","
","""event"",""trial"",""time""
""fullscreenenter"",""1"",""2926""
","
","","","1032.699999988079","","","21","10838","5139","h","elianto","#f73b6a7A","-1"," ","0","0","[1883.4000000059605]","1","3","","","10838","141","3","4","lose","no-go","1"
"pit-trial","261","1622800","0.0-147.0","battery-v0.2","","""event"",""trial"",""time""
""fullscreenenter"",""1"",""2926""
","
","
","""event"",""trial"",""time""
""fullscreenenter"",""1"",""2926""
","
","","","828.1999999880791","","","21","10838","5139","m","elianto","#f73b6a7A"," "," ","1","0","[1678.5]","1","3","","","10838","142","0","3","lose","go","0"
"pit-trial","262","1626320","0.0-148.0","battery-v0.2","","""event"",""trial"",""time""
""fullscreenenter"",""1"",""2926""
","
","
","""event"",""trial"",""time""
""fullscreenenter"",""1"",""2926""
","
","","","665.7000000178814","","","21","10838","5139","y","elianto","#f73b6a7A"," "," ","1","0","[1516.7000000178814]","1","3","","","10838","143","2","3","lose","go","0"
"pit-trial","263","1629889","0.0-149.0","battery-v0.2","","""event"",""trial"",""time""
""fullscreenenter"",""1"",""2926""
","
","
","""event"",""trial"",""time""
""fullscreenenter"",""1"",""2926""
","
","","","713.5","","","21","10838","5139","r","elianto","#3366ff99","-1"," ","0","+10","[1565]","1","3","","","10838","144","1","2","win","no-go","1"
"pit-trial","264","1633220","0.0-150.0","battery-v0.2","","""event"",""trial"",""time""
""fullscreenenter"",""1"",""2926""
","
","
","""event"",""trial"",""time""
""fullscreenenter"",""1"",""2926""
","
","","","473.89999997615814","","","21","10838","5139","r","elianto","#3366ff99","-1"," ","0","0","[1325.0999999940395]","1","3","","","10838","145","1","2","win","no-go","0"
"pit-trial","265","1636709","0.0-151.0","battery-v0.2","","""event"",""trial"",""time""
""fullscreenenter"",""1"",""2926""
","
","
","""event"",""trial"",""time""
""fullscreenenter"",""1"",""2926""
","
","","","630.6999999880791","","","21","10838","5139","m","elianto","#f73b6a7A"," "," ","1","0","[1482.5]","1","3","","","10838","146","0","3","lose","go","0"
"pit-trial","266","1640085","0.0-152.0","battery-v0.2","","""event"",""trial"",""time""
""fullscreenenter"",""1"",""2926""
","
","
","""event"",""trial"",""time""
""fullscreenenter"",""1"",""2926""
","
