"trial_type","trial_index","time_elapsed","internal_node_id","task_version","subject_id","interactions","blur_events","focus_events","fullscreenenter_events","fullscreenexit_events","success","view_history","rt","responses","num_errors","age","subject","participantId","rune","rune_set","hex","correct","choice","accuracy","outcome","keys","total_keys","block","practice","value","sub","trial","stimulus","robot","valence","action","sham"
"pavlovia","0","9","0.0-0.0","battery-v0.2","","""event"",""trial"",""time""
""fullscreenenter"",""1"",""13879""
","
","
","""event"",""trial"",""time""
""fullscreenenter"",""1"",""13879""
","
","","","","","","","","","","","","","","","","","","","","","","","","","","",""
"fullscreen","1","14854","0.0-1.0","battery-v0.2","","""event"",""trial"",""time""
""fullscreenenter"",""1"",""13879""
","
","
","""event"",""trial"",""time""
""fullscreenenter"",""1"",""13879""
","
","true","","","","","","","","","","","","","","","","","","","","","","","","","",""
"pit-instructions","2","19297","0.0-2.0-0.0","battery-v0.2","","""event"",""trial"",""time""
""fullscreenenter"",""1"",""13879""
","
","
","""event"",""trial"",""time""
""fullscreenenter"",""1"",""13879""
","
","","[{""page_index"":0,""viewing_time"":4435.5}]","4436.299999952316","","","","","","","","","","","","","","","","","","","","","","","",""
"pit-comprehension","3","24202","0.0-2.0-1.0-0.0","battery-v0.2","","""event"",""trial"",""time""
""fullscreenenter"",""1"",""13879""
","
","
","""event"",""trial"",""time""
""fullscreenenter"",""1"",""13879""
","
","","","4898.699999809265","[""shark""]","0","17","15331","5998","","","","","","","","","","","","","","","","","","",""
"pit-instructions","4","26833","0.0-2.0-1.0-1.0","battery-v0.2","","""event"",""trial"",""time""
""fullscreenenter"",""1"",""13879""
","
","
","""event"",""trial"",""time""
""fullscreenenter"",""1"",""13879""
","
","","[{""page_index"":0,""viewing_time"":2618.4000000953674}]","2618.7000000476837","","","","","","","","","","","","","","","","","","","","","","","",""
"pit-comprehension","5","31334","0.0-2.0-2.0-0.0","battery-v0.2","","""event"",""trial"",""time""
""fullscreenenter"",""1"",""13879""
","
","
","""event"",""trial"",""time""
""fullscreenenter"",""1"",""13879""
","
","","","4494.600000143051","[""tiger""]","0","17","15331","5998","","","","","","","","","","","","","","","","","","",""
"pit-instructions","6","32815","0.0-2.0-2.0-1.0","battery-v0.2","","""event"",""trial"",""time""
""fullscreenenter"",""1"",""13879""
","
","
","""event"",""trial"",""time""
""fullscreenenter"",""1"",""13879""
","
","","[{""page_index"":0,""viewing_time"":1475.3999998569489}]","1476.5","","","","","","","","","","","","","","","","","","","","","","","",""
"pit-instructions","7","145261","0.0-2.0-3.0","battery-v0.2","","""event"",""trial"",""time""
""fullscreenenter"",""1"",""13879""
","
","
","""event"",""trial"",""time""
""fullscreenenter"",""1"",""13879""
","
","","[{""page_index"":0,""viewing_time"":16968.400000095367},{""page_index"":1,""viewing_time"":7959.5},{""page_index"":2,""viewing_time"":6252.299999952316},{""page_index"":3,""viewing_time"":5885.700000047684},{""page_index"":4,""viewing_time"":7269.299999952316},{""page_index"":5,""viewing_time"":6936.700000047684},{""page_index"":6,""viewing_time"":8202.799999952316},{""page_index"":7,""viewing_time"":8113},{""page_index"":8,""viewing_time"":6474},{""page_index"":9,""viewing_time"":8219.5},{""page_index"":10,""viewing_time"":7013.900000095367},{""page_index"":11,""viewing_time"":8587.099999904633},{""page_index"":12,""viewing_time"":6255.599999904633},{""page_index"":13,""viewing_time"":8300.100000143051}]","112439.79999995232","","","","","","","","","","","","","","","","","","","","","","","",""
"pit-trial","8","150046","0.0-2.0-4.0-0.0","battery-v0.2","","""event"",""trial"",""time""
""fullscreenenter"",""1"",""13879""
","
","
","""event"",""trial"",""time""
""fullscreenenter"",""1"",""13879""
","
","","","1920.6000001430511","","","17","15331","5998","&#9784;","elianto","#FFFFF080"," "," ","1","&#10004","[2774.899999856949,4287.099999904633]","2","0","0","","","","","","","",""
"pit-trial","9","153295","0.0-2.0-4.1-0.1","battery-v0.2","","""event"",""trial"",""time""
""fullscreenenter"",""1"",""13879""
","
","
","""event"",""trial"",""time""
""fullscreenenter"",""1"",""13879""
","
","","","377.2000000476837","","","17","15331","5998","&#9784;","elianto","#FFFFF080"," "," ","1","&#10004","[1227.5]","1","0","0","","","","","","","",""
"pit-trial","10","157545","0.0-2.0-4.2-0.2","battery-v0.2","","""event"",""trial"",""time""
""fullscreenenter"",""1"",""13879""
","
","
","""event"",""trial"",""time""
""fullscreenenter"",""1"",""13879""
","
","","","1386.2000000476837","","","17","15331","5998","&#9784;","elianto","#FFFFF080"," "," ","1","&#10004","[2237.800000190735]","1","0","0","","","","","","","",""
"pit-trial","11","160555","0.0-2.0-4.3-0.3","battery-v0.2","","""event"",""trial"",""time""
""fullscreenenter"",""1"",""13879""
","
","
","""event"",""trial"",""time""
""fullscreenenter"",""1"",""13879""
","
","","","152.59999990463257","","","17","15331","5998","&#9784;","elianto","#FFFFF080"," "," ","1","&#10004","[197.40000009536743,1005.1000001430511,1637.6000001430511,1863.4000000953674,2162.100000143051,2410.7000000476837]","6","0","0","","","","","","","",""
"pit-trial","12","163936","0.0-2.0-4.4-0.4","battery-v0.2","","""event"",""trial"",""time""
""fullscreenenter"",""1"",""13879""
","
","
","""event"",""trial"",""time""
""fullscreenenter"",""1"",""13879""
","
","","","515.4000000953674","","","17","15331","5998","&#9784;","elianto","#FFFFF080"," "," ","1","&#10004","[30.700000047683716,1367.7000000476837]","2","0","0","","","","","","","",""
"pit-instructions","13","190794","0.0-2.0-5.0","battery-v0.2","","""event"",""trial"",""time""
""fullscreenenter"",""1"",""13879""
","
","
","""event"",""trial"",""time""
""fullscreenenter"",""1"",""13879""
","
","","[{""page_index"":0,""viewing_time"":6057.099999904633},{""page_index"":1,""viewing_time"":6474.400000095367},{""page_index"":2,""viewing_time"":9115.099999904633},{""page_index"":3,""viewing_time"":5204.799999952316}]","26851.89999985695","","","","","","","","","","","","","","","","","","","","","","","",""
"pit-trial","14","195659","0.0-2.0-6.0-0.0","battery-v0.2","","""event"",""trial"",""time""
""fullscreenenter"",""1"",""13879""
","
","
","""event"",""trial"",""time""
""fullscreenenter"",""1"",""13879""
","
","","","-1","","","17","15331","5998","&#9854;","elianto","#FFFFF080","-1","-1","1","&#10004","[]","0","0","1","","","","","","","",""
"pit-trial","15","200544","0.0-2.0-6.1-0.1","battery-v0.2","","""event"",""trial"",""time""
""fullscreenenter"",""1"",""13879""
","
","
","""event"",""trial"",""time""
""fullscreenenter"",""1"",""13879""
","
","","","-1","","","17","15331","5998","&#9854;","elianto","#FFFFF080","-1","-1","1","&#10004","[]","0","0","1","","","","","","","",""
"pit-trial","16","205423","0.0-2.0-6.2-0.2","battery-v0.2","","""event"",""trial"",""time""
""fullscreenenter"",""1"",""13879""
","
","
","""event"",""trial"",""time""
""fullscreenenter"",""1"",""13879""
","
","","","-1","","","17","15331","5998","&#9854;","elianto","#FFFFF080","-1","-1","1","&#10004","[]","0","0","1","","","","","","","",""
"pit-trial","17","210289","0.0-2.0-6.3-0.3","battery-v0.2","","""event"",""trial"",""time""
""fullscreenenter"",""1"",""13879""
","
","
","""event"",""trial"",""time""
""fullscreenenter"",""1"",""13879""
","
","","","-1","","","17","15331","5998","&#9854;","elianto","#FFFFF080","-1","-1","1","&#10004","[]","0","0","1","","","","","","","",""
"pit-trial","18","215176","0.0-2.0-6.4-0.4","battery-v0.2","","""event"",""trial"",""time""
""fullscreenenter"",""1"",""13879""
","
","
","""event"",""trial"",""time""
""fullscreenenter"",""1"",""13879""
","
","","","-1","","","17","15331","5998","&#9854;","elianto","#FFFFF080","-1","-1","1","&#10004","[]","0","0","1","","","","","","","",""
"pit-instructions","19","362772","0.0-2.0-7.0","battery-v0.2","","""event"",""trial"",""time""
""fullscreenenter"",""1"",""13879""
","
","
","""event"",""trial"",""time""
""fullscreenenter"",""1"",""13879""
","
","","[{""page_index"":0,""viewing_time"":9641.399999856949},{""page_index"":1,""viewing_time"":8562.100000143051},{""page_index"":2,""viewing_time"":6947.899999856949},{""page_index"":3,""viewing_time"":7308.700000047684},{""page_index"":4,""viewing_time"":5790.100000143051},{""page_index"":5,""viewing_time"":8153.299999952316},{""page_index"":6,""viewing_time"":11768.5},{""page_index"":7,""viewing_time"":7688.099999904633},{""page_index"":8,""viewing_time"":6556.299999952316},{""page_index"":9,""viewing_time"":5622.100000143051},{""page_index"":10,""viewing_time"":7501.899999856949},{""page_index"":11,""viewing_time"":10017.900000095367},{""page_index"":12,""viewing_time"":8177.700000047684},{""page_index"":13,""viewing_time"":8062},{""page_index"":14,""viewing_time"":9446.5},{""page_index"":15,""viewing_time"":11064.099999904633},{""page_index"":16,""viewing_time"":7070.100000143051},{""page_index"":17,""viewing_time"":8210.099999904633}]","147590","","","","","","","","","","","","","","","","","","","","","","","",""
"pit-trial","20","366468","0.0-2.0-8.0-0.0","battery-v0.2","","""event"",""trial"",""time""
""fullscreenenter"",""1"",""13879""
","
","
","""event"",""trial"",""time""
""fullscreenenter"",""1"",""13879""
","
","","","822.7999999523163","","","17","15331","5998","&#9776;","elianto","#3366ff99"," "," ","1","+10","[1676.5999999046326]","1","0","1","","","","","","","",""
"pit-trial","21","370402","0.0-2.0-8.0-1.0","battery-v0.2","","""event"",""trial"",""time""
""fullscreenenter"",""1"",""13879""
","
","
","""event"",""trial"",""time""
""fullscreenenter"",""1"",""13879""
","
","","","1071.3999998569489","","","17","15331","5998","&#9776;","elianto","#3366ff99"," "," ","1","+10","[1921.5]","1","0","1","","","","","","","",""
"pit-trial","22","373542","0.0-2.0-8.0-2.0","battery-v0.2","","""event"",""trial"",""time""
""fullscreenenter"",""1"",""13879""
","
","
","""event"",""trial"",""time""
""fullscreenenter"",""1"",""13879""
","
","","","286.09999990463257","","","17","15331","5998","&#9776;","elianto","#3366ff99"," "," ","1","+10","[71.20000004768372,1136.5,1510.4000000953674,1738.4000000953674,1940.7999999523163,3001.100000143051]","6","0","1","","","","","","","",""
"pit-trial","23","377569","0.0-2.0-8.0-3.0","battery-v0.2","","""event"",""trial"",""time""
""fullscreenenter"",""1"",""13879""
","
","
","""event"",""trial"",""time""
""fullscreenenter"",""1"",""13879""
","
","","","1163.4000000953674","","","17","15331","5998","&#9776;","elianto","#3366ff99"," "," ","1","0","[104.10000014305115,2016.9000000953674]","2","0","1","","","","","","","",""
"pit-trial","24","381269","0.0-2.0-8.0-4.0","battery-v0.2","","""event"",""trial"",""time""
""fullscreenenter"",""1"",""13879""
","
","
","""event"",""trial"",""time""
""fullscreenenter"",""1"",""13879""
","
","","","839.6000001430511","","","17","15331","5998","&#9776;","elianto","#3366ff99"," "," ","1","+10","[1693.0999999046326]","1","0","1","","","","","","","",""
"pit-trial","25","386144","0.0-2.0-8.1-0.1","battery-v0.2","","""event"",""trial"",""time""
""fullscreenenter"",""1"",""13879""
","
","
","""event"",""trial"",""time""
""fullscreenenter"",""1"",""13879""
","
","","","-1","","","17","15331","5998","&#9776;","elianto","#3366ff99"," ","-1","0","0","[]","0","0","1","","","","","","","",""
"pit-trial","26","389311","0.0-2.0-8.1-1.1","battery-v0.2","","""event"",""trial"",""time""
""fullscreenenter"",""1"",""13879""
","
","
","""event"",""trial"",""time""
""fullscreenenter"",""1"",""13879""
","
","","","304.40000009536743","","","17","15331","5998","&#9776;","elianto","#3366ff99"," "," ","1","+10","[1154.5]","1","0","1","","","","","","","",""
"pit-trial","27","394167","0.0-2.0-8.1-2.1","battery-v0.2","","""event"",""trial"",""time""
""fullscreenenter"",""1"",""13879""
","
","
","""event"",""trial"",""time""
""fullscreenenter"",""1"",""13879""
","
","","","-1","","","17","15331","5998","&#9776;","elianto","#3366ff99"," ","-1","0","0","[]","0","0","1","","","","","","","",""
"pit-trial","28","397548","0.0-2.0-8.1-3.1","battery-v0.2","","""event"",""trial"",""time""
""fullscreenenter"",""1"",""13879""
","
","
","""event"",""trial"",""time""
""fullscreenenter"",""1"",""13879""
","
","","","526","","","17","15331","5998","&#9776;","elianto","#3366ff99"," "," ","1","0","[1376.9000000953674]","1","0","1","","","","","","","",""
"pit-trial","29","400940","0.0-2.0-8.1-4.1","battery-v0.2","","""event"",""trial"",""time""
""fullscreenenter"",""1"",""13879""
","
","
","""event"",""trial"",""time""
""fullscreenenter"",""1"",""13879""
","
","","","536.7000000476837","","","17","15331","5998","&#9776;","elianto","#3366ff99"," "," ","1","+10","[1388]","1","0","1","","","","","","","",""
"pit-trial","30","405798","0.0-2.0-8.2-0.2","battery-v0.2","","""event"",""trial"",""time""
""fullscreenenter"",""1"",""13879""
","
","
","""event"",""trial"",""time""
""fullscreenenter"",""1"",""13879""
","
","","","-1","","","17","15331","5998","&#9776;","elianto","#3366ff99"," ","-1","0","0","[]","0","0","1","","","","","","","",""
"pit-trial","31","410654","0.0-2.0-8.2-1.2","battery-v0.2","","""event"",""trial"",""time""
""fullscreenenter"",""1"",""13879""
","
","
","""event"",""trial"",""time""
""fullscreenenter"",""1"",""13879""
","
","","","-1","","","17","15331","5998","&#9776;","elianto","#3366ff99"," ","-1","0","0","[]","0","0","1","","","","","","","",""
"pit-trial","32","415510","0.0-2.0-8.2-2.2","battery-v0.2","","""event"",""trial"",""time""
""fullscreenenter"",""1"",""13879""
","
","
","""event"",""trial"",""time""
""fullscreenenter"",""1"",""13879""
","
","","","-1","","","17","15331","5998","&#9776;","elianto","#3366ff99"," ","-1","0","0","[]","0","0","1","","","","","","","",""
"pit-trial","33","420381","0.0-2.0-8.2-3.2","battery-v0.2","","""event"",""trial"",""time""
""fullscreenenter"",""1"",""13879""
","
","
","""event"",""trial"",""time""
""fullscreenenter"",""1"",""13879""
","
","","","-1","","","17","15331","5998","&#9776;","elianto","#3366ff99"," ","-1","0","+10","[]","0","0","1","","","","","","","",""
"pit-trial","34","425237","0.0-2.0-8.2-4.2","battery-v0.2","","""event"",""trial"",""time""
""fullscreenenter"",""1"",""13879""
","
","
","""event"",""trial"",""time""
""fullscreenenter"",""1"",""13879""
","
","","","-1","","","17","15331","5998","&#9776;","elianto","#3366ff99"," ","-1","0","0","[]","0","0","1","","","","","","","",""
"call-function","35","425243","0.0-2.0-9.0","battery-v0.2","","""event"",""trial"",""time""
""fullscreenenter"",""1"",""13879""
","
","
","""event"",""trial"",""time""
""fullscreenenter"",""1"",""13879""
","
","","","","","","","","","","","","","","","","","","","","","","","","","","",""
"pit-instructions","36","478189","0.0-2.0-10.0","battery-v0.2","","""event"",""trial"",""time""
""fullscreenenter"",""1"",""13879""
","
","
","""event"",""trial"",""time""
""fullscreenenter"",""1"",""13879""
","
","","[{""page_index"":0,""viewing_time"":13393.600000143051},{""page_index"":1,""viewing_time"":6969.5},{""page_index"":2,""viewing_time"":11533},{""page_index"":3,""viewing_time"":11823.799999952316},{""page_index"":4,""viewing_time"":9225.700000047684}]","52946.40000009537","","","","","","","","","","","","","","","","","","","","","","","",""
"pit-trial","37","483053","0.0-2.0-11.0-0.0","battery-v0.2","","""event"",""trial"",""time""
""fullscreenenter"",""1"",""13879""
","
","
","""event"",""trial"",""time""
""fullscreenenter"",""1"",""13879""
","
","","","-1","","","17","15331","5998","&#9761;","elianto","#3366ff99","-1","-1","1","+10","[]","0","0","2","","","","","","","",""
"pit-trial","38","487278","0.0-2.0-11.0-1.0","battery-v0.2","","""event"",""trial"",""time""
""fullscreenenter"",""1"",""13879""
","
","
","""event"",""trial"",""time""
""fullscreenenter"",""1"",""13879""
","
","","","1358.2000000476837","","","17","15331","5998","&#9761;","elianto","#3366ff99","-1"," ","0","0","[2208.7999999523163]","1","0","2","","","","","","","",""
"pit-trial","39","490714","0.0-2.0-11.0-2.0","battery-v0.2","","""event"",""trial"",""time""
""fullscreenenter"",""1"",""13879""
","
","
","""event"",""trial"",""time""
""fullscreenenter"",""1"",""13879""
","
","","","571.6000001430511","","","17","15331","5998","&#9761;","elianto","#3366ff99","-1"," ","0","0","[1424.7000000476837]","1","0","2","","","","","","","",""
"pit-trial","40","493691","0.0-2.0-11.0-3.0","battery-v0.2","","""event"",""trial"",""time""
""fullscreenenter"",""1"",""13879""
","
","
","""event"",""trial"",""time""
""fullscreenenter"",""1"",""13879""
","
","","","108.5","","","17","15331","5998","&#9761;","elianto","#3366ff99","-1"," ","0","+10","[961.2999999523163]","1","0","2","","","","","","","",""
"pit-trial","41","498572","0.0-2.0-11.0-4.0","battery-v0.2","","""event"",""trial"",""time""
""fullscreenenter"",""1"",""13879""
","
","
","""event"",""trial"",""time""
""fullscreenenter"",""1"",""13879""
","
","","","-1","","","17","15331","5998","&#9761;","elianto","#3366ff99","-1","-1","1","+10","[]","0","0","2","","","","","","","",""
"pit-trial","42","501619","0.0-2.0-11.1-0.1","battery-v0.2","","""event"",""trial"",""time""
""fullscreenenter"",""1"",""13879""
","
","
","""event"",""trial"",""time""
""fullscreenenter"",""1"",""13879""
","
","","","192.89999985694885","","","17","15331","5998","&#9761;","elianto","#3366ff99","-1"," ","0","0","[1043.8999998569489]","1","0","2","","","","","","","",""
"pit-trial","43","504746","0.0-2.0-11.1-1.1","battery-v0.2","","""event"",""trial"",""time""
""fullscreenenter"",""1"",""13879""
","
","
","""event"",""trial"",""time""
""fullscreenenter"",""1"",""13879""
","
","","","256.30000019073486","","","17","15331","5998","&#9761;","elianto","#3366ff99","-1"," ","0","0","[1108.0999999046326]","1","0","2","","","","","","","",""
"pit-trial","44","508482","0.0-2.0-11.1-2.1","battery-v0.2","","""event"",""trial"",""time""
""fullscreenenter"",""1"",""13879""
","
","
","""event"",""trial"",""time""
""fullscreenenter"",""1"",""13879""
","
","","","881.7000000476837","","","17","15331","5998","&#9761;","elianto","#3366ff99","-1"," ","0","0","[1732.7000000476837]","1","0","2","","","","","","","",""
"pit-trial","45","511653","0.0-2.0-11.1-3.1","battery-v0.2","","""event"",""trial"",""time""
""fullscreenenter"",""1"",""13879""
","
","
","""event"",""trial"",""time""
""fullscreenenter"",""1"",""13879""
","
","","","314.2000000476837","","","17","15331","5998","&#9761;","elianto","#3366ff99","-1"," ","0","+10","[1166.2000000476837]","1","0","2","","","","","","","",""
"pit-trial","46","514744","0.0-2.0-11.1-4.1","battery-v0.2","","""event"",""trial"",""time""
""fullscreenenter"",""1"",""13879""
","
","
","""event"",""trial"",""time""
""fullscreenenter"",""1"",""13879""
","
","","","233.40000009536743","","","17","15331","5998","&#9761;","elianto","#3366ff99","-1"," ","0","0","[1087.5999999046326]","1","0","2","","","","","","","",""
"pit-trial","47","519598","0.0-2.0-11.2-0.2","battery-v0.2","","""event"",""trial"",""time""
""fullscreenenter"",""1"",""13879""
","
","
","""event"",""trial"",""time""
""fullscreenenter"",""1"",""13879""
","
","","","-1","","","17","15331","5998","&#9761;","elianto","#3366ff99","-1","-1","1","+10","[]","0","0","2","","","","","","","",""
"pit-trial","48","523081","0.0-2.0-11.2-1.2","battery-v0.2","","""event"",""trial"",""time""
""fullscreenenter"",""1"",""13879""
","
","
","""event"",""trial"",""time""
""fullscreenenter"",""1"",""13879""
","
","","","624.7999999523163","","","17","15331","5998","&#9761;","elianto","#3366ff99","-1"," ","0","0","[1477.5999999046326]","1","0","2","","","","","","","",""
"pit-trial","49","527936","0.0-2.0-11.2-2.2","battery-v0.2","","""event"",""trial"",""time""
""fullscreenenter"",""1"",""13879""
","
","
","""event"",""trial"",""time""
""fullscreenenter"",""1"",""13879""
","
","","","-1","","","17","15331","5998","&#9761;","elianto","#3366ff99","-1","-1","1","+10","[]","0","0","2","","","","","","","",""
"pit-trial","50","532792","0.0-2.0-11.2-3.2","battery-v0.2","","""event"",""trial"",""time""
""fullscreenenter"",""1"",""13879""
","
","
","""event"",""trial"",""time""
""fullscreenenter"",""1"",""13879""
","
","","","-1","","","17","15331","5998","&#9761;","elianto","#3366ff99","-1","-1","1","0","[]","0","0","2","","","","","","","",""
"pit-trial","51","535971","0.0-2.0-11.2-4.2","battery-v0.2","","""event"",""trial"",""time""
""fullscreenenter"",""1"",""13879""
","
","
","""event"",""trial"",""time""
""fullscreenenter"",""1"",""13879""
","
","","","322.60000014305115","","","17","15331","5998","&#9761;","elianto","#3366ff99","-1"," ","0","0","[1174.5999999046326]","1","0","2","","","","","","","",""
"pit-trial","52","538863","0.0-2.0-11.3-0.3","battery-v0.2","","""event"",""trial"",""time""
""fullscreenenter"",""1"",""13879""
","
","
","""event"",""trial"",""time""
""fullscreenenter"",""1"",""13879""
","
","","","34.299999952316284","","","17","15331","5998","&#9761;","elianto","#3366ff99","-1"," ","0","0","[704,886,1220.0999999046326,1439.4000000953674]","4","0","2","","","","","","","",""
"pit-trial","53","541789","0.0-2.0-11.3-1.3","battery-v0.2","","""event"",""trial"",""time""
""fullscreenenter"",""1"",""13879""
","
","
","""event"",""trial"",""time""
""fullscreenenter"",""1"",""13879""
","
","","","71.70000004768372","","","17","15331","5998","&#9761;","elianto","#3366ff99","-1"," ","0","0","[460.89999985694885,922.2000000476837,1223.8999998569489]","3","0","2","","","","","","","",""
"pit-trial","54","544807","0.0-2.0-11.3-2.3","battery-v0.2","","""event"",""trial"",""time""
""fullscreenenter"",""1"",""13879""
","
","
","""event"",""trial"",""time""
""fullscreenenter"",""1"",""13879""
","
","","","160.19999980926514","","","17","15331","5998","&#9761;","elianto","#3366ff99","-1"," ","0","0","[1013.1999998092651]","1","0","2","","","","","","","",""
"pit-trial","55","547981","0.0-2.0-11.3-3.3","battery-v0.2","","""event"",""trial"",""time""
""fullscreenenter"",""1"",""13879""
","
","
","""event"",""trial"",""time""
""fullscreenenter"",""1"",""13879""
","
","","","318.89999985694885","","","17","15331","5998","&#9761;","elianto","#3366ff99","-1"," ","0","+10","[1171.2000000476837]","1","0","2","","","","","","","",""
"pit-trial","56","551540","0.0-2.0-11.3-4.3","battery-v0.2","","""event"",""trial"",""time""
""fullscreenenter"",""1"",""13879""
","
","
","""event"",""trial"",""time""
""fullscreenenter"",""1"",""13879""
","
","","","700.3000001907349","","","17","15331","5998","&#9761;","elianto","#3366ff99","-1"," ","0","0","[1553.9000000953674]","1","0","2","","","","","","","",""
"call-function","57","551544","0.0-2.0-12.0","battery-v0.2","","""event"",""trial"",""time""
""fullscreenenter"",""1"",""13879""
","
","
","""event"",""trial"",""time""
""fullscreenenter"",""1"",""13879""
","
","","","","","","","","","","","","","","","","","","","","","","","","","","",""
"pit-instructions","58","602136","0.0-2.0-13.0","battery-v0.2","","""event"",""trial"",""time""
""fullscreenenter"",""1"",""13879""
","
","
","""event"",""trial"",""time""
""fullscreenenter"",""1"",""13879""
","
","","[{""page_index"":0,""viewing_time"":19704.099999904633},{""page_index"":1,""viewing_time"":8354.900000095367},{""page_index"":2,""viewing_time"":6292.599999904633},{""page_index"":3,""viewing_time"":10219.700000047684},{""page_index"":4,""viewing_time"":6019.200000047684}]","50591.39999985695","","","","","","","","","","","","","","","","","","","","","","","",""
"pit-trial","59","606993","0.0-2.0-14.0-0.0","battery-v0.2","","""event"",""trial"",""time""
""fullscreenenter"",""1"",""13879""
","
","
","""event"",""trial"",""time""
""fullscreenenter"",""1"",""13879""
","
","","","-1","","","17","15331","5998","&#9826;","elianto","#f73b6a7A","-1","-1","1","0","[]","0","0","3","","","","","","","",""
"pit-trial","60","611857","0.0-2.0-14.0-1.0","battery-v0.2","","""event"",""trial"",""time""
""fullscreenenter"",""1"",""13879""
","
","
","""event"",""trial"",""time""
""fullscreenenter"",""1"",""13879""
","
","","","-1","","","17","15331","5998","&#9826;","elianto","#f73b6a7A","-1","-1","1","0","[]","0","0","3","","","","","","","",""
"pit-trial","61","616725","0.0-2.0-14.0-2.0","battery-v0.2","","""event"",""trial"",""time""
""fullscreenenter"",""1"",""13879""
","
","
","""event"",""trial"",""time""
""fullscreenenter"",""1"",""13879""
","
","","","-1","","","17","15331","5998","&#9826;","elianto","#f73b6a7A","-1","-1","1","0","[]","0","0","3","","","","","","","",""
"pit-trial","62","621591","0.0-2.0-14.0-3.0","battery-v0.2","","""event"",""trial"",""time""
""fullscreenenter"",""1"",""13879""
","
","
","""event"",""trial"",""time""
""fullscreenenter"",""1"",""13879""
","
","","","-1","","","17","15331","5998","&#9826;","elianto","#f73b6a7A","-1","-1","1","-10","[]","0","0","3","","","","","","","",""
"pit-trial","63","626452","0.0-2.0-14.0-4.0","battery-v0.2","","""event"",""trial"",""time""
""fullscreenenter"",""1"",""13879""
","
","
","""event"",""trial"",""time""
""fullscreenenter"",""1"",""13879""
","
","","","-1","","","17","15331","5998","&#9826;","elianto","#f73b6a7A","-1","-1","1","0","[]","0","0","3","","","","","","","",""
"pit-trial","64","631312","0.0-2.0-14.1-0.1","battery-v0.2","","""event"",""trial"",""time""
""fullscreenenter"",""1"",""13879""
","
","
","""event"",""trial"",""time""
""fullscreenenter"",""1"",""13879""
","
","","","-1","","","17","15331","5998","&#9826;","elianto","#f73b6a7A","-1","-1","1","0","[]","0","0","3","","","","","","","",""
"pit-trial","65","636168","0.0-2.0-14.1-1.1","battery-v0.2","","""event"",""trial"",""time""
""fullscreenenter"",""1"",""13879""
","
","
","""event"",""trial"",""time""
""fullscreenenter"",""1"",""13879""
","
","","","-1","","","17","15331","5998","&#9826;","elianto","#f73b6a7A","-1","-1","1","0","[]","0","0","3","","","","","","","",""
"pit-trial","66","641024","0.0-2.0-14.1-2.1","battery-v0.2","","""event"",""trial"",""time""
""fullscreenenter"",""1"",""13879""
","
","
","""event"",""trial"",""time""
""fullscreenenter"",""1"",""13879""
","
","","","-1","","","17","15331","5998","&#9826;","elianto","#f73b6a7A","-1","-1","1","0","[]","0","0","3","","","","","","","",""
"pit-trial","67","645881","0.0-2.0-14.1-3.1","battery-v0.2","","""event"",""trial"",""time""
""fullscreenenter"",""1"",""13879""
","
","
","""event"",""trial"",""time""
""fullscreenenter"",""1"",""13879""
","
","","","-1","","","17","15331","5998","&#9826;","elianto","#f73b6a7A","-1","-1","1","-10","[]","0","0","3","","","","","","","",""
"pit-trial","68","650739","0.0-2.0-14.1-4.1","battery-v0.2","","""event"",""trial"",""time""
""fullscreenenter"",""1"",""13879""
","
","
","""event"",""trial"",""time""
""fullscreenenter"",""1"",""13879""
","
","","","-1","","","17","15331","5998","&#9826;","elianto","#f73b6a7A","-1","-1","1","0","[]","0","0","3","","","","","","","",""
"pit-trial","69","655596","0.0-2.0-14.2-0.2","battery-v0.2","","""event"",""trial"",""time""
""fullscreenenter"",""1"",""13879""
","
","
","""event"",""trial"",""time""
""fullscreenenter"",""1"",""13879""
","
","","","-1","","","17","15331","5998","&#9826;","elianto","#f73b6a7A","-1","-1","1","0","[]","0","0","3","","","","","","","",""
"pit-trial","70","660451","0.0-2.0-14.2-1.2","battery-v0.2","","""event"",""trial"",""time""
""fullscreenenter"",""1"",""13879""
","
","
","""event"",""trial"",""time""
""fullscreenenter"",""1"",""13879""
","
","","","-1","","","17","15331","5998","&#9826;","elianto","#f73b6a7A","-1","-1","1","0","[]","0","0","3","","","","","","","",""
"pit-trial","71","665307","0.0-2.0-14.2-2.2","battery-v0.2","","""event"",""trial"",""time""
""fullscreenenter"",""1"",""13879""
","
","
","""event"",""trial"",""time""
""fullscreenenter"",""1"",""13879""
","
","","","-1","","","17","15331","5998","&#9826;","elianto","#f73b6a7A","-1","-1","1","0","[]","0","0","3","","","","","","","",""
"pit-trial","72","670160","0.0-2.0-14.2-3.2","battery-v0.2","","""event"",""trial"",""time""
""fullscreenenter"",""1"",""13879""
","
","
","""event"",""trial"",""time""
""fullscreenenter"",""1"",""13879""
","
","","","-1","","","17","15331","5998","&#9826;","elianto","#f73b6a7A","-1","-1","1","-10","[]","0","0","3","","","","","","","",""
"pit-trial","73","675014","0.0-2.0-14.2-4.2","battery-v0.2","","""event"",""trial"",""time""
""fullscreenenter"",""1"",""13879""
","
","
","""event"",""trial"",""time""
""fullscreenenter"",""1"",""13879""
","
","","","-1","","","17","15331","5998","&#9826;","elianto","#f73b6a7A","-1","-1","1","0","[]","0","0","3","","","","","","","",""
"pit-trial","74","679873","0.0-2.0-14.3-0.3","battery-v0.2","","""event"",""trial"",""time""
""fullscreenenter"",""1"",""13879""
","
","
","""event"",""trial"",""time""
""fullscreenenter"",""1"",""13879""
","
","","","-1","","","17","15331","5998","&#9826;","elianto","#f73b6a7A","-1","-1","1","0","[]","0","0","3","","","","","","","",""
"pit-trial","75","684728","0.0-2.0-14.3-1.3","battery-v0.2","","""event"",""trial"",""time""
""fullscreenenter"",""1"",""13879""
","
","
","""event"",""trial"",""time""
""fullscreenenter"",""1"",""13879""
","
","","","-1","","","17","15331","5998","&#9826;","elianto","#f73b6a7A","-1","-1","1","0","[]","0","0","3","","","","","","","",""
"pit-trial","76","689583","0.0-2.0-14.3-2.3","battery-v0.2","","""event"",""trial"",""time""
""fullscreenenter"",""1"",""13879""
","
","
","""event"",""trial"",""time""
""fullscreenenter"",""1"",""13879""
","
","","","-1","","","17","15331","5998","&#9826;","elianto","#f73b6a7A","-1","-1","1","0","[]","0","0","3","","","","","","","",""
"pit-trial","77","694437","0.0-2.0-14.3-3.3","battery-v0.2","","""event"",""trial"",""time""
""fullscreenenter"",""1"",""13879""
","
","
","""event"",""trial"",""time""
""fullscreenenter"",""1"",""13879""
","
","","","-1","","","17","15331","5998","&#9826;","elianto","#f73b6a7A","-1","-1","1","-10","[]","0","0","3","","","","","","","",""
"pit-trial","78","699294","0.0-2.0-14.3-4.3","battery-v0.2","","""event"",""trial"",""time""
""fullscreenenter"",""1"",""13879""
","
","
","""event"",""trial"",""time""
""fullscreenenter"",""1"",""13879""
","
","","","-1","","","17","15331","5998","&#9826;","elianto","#f73b6a7A","-1","-1","1","0","[]","0","0","3","","","","","","","",""
"call-function","79","699298","0.0-2.0-15.0","battery-v0.2","","""event"",""trial"",""time""
""fullscreenenter"",""1"",""13879""
","
","
","""event"",""trial"",""time""
""fullscreenenter"",""1"",""13879""
","
","","","","","","","","","","","","","","","","","","","","","","","","","","",""
"pit-instructions","80","748325","0.0-2.0-16.0","battery-v0.2","","""event"",""trial"",""time""
""fullscreenenter"",""1"",""13879""
","
","
","""event"",""trial"",""time""
""fullscreenenter"",""1"",""13879""
","
","","[{""page_index"":0,""viewing_time"":7720.099999904633},{""page_index"":1,""viewing_time"":8081.799999952316},{""page_index"":2,""viewing_time"":6407.600000143051},{""page_index"":3,""viewing_time"":26815.299999952316}]","49025.699999809265","","","","","","","","","","","","","","","","","","","","","","","",""
"pit-trial","81","753201","0.0-2.0-17.0-0.0","battery-v0.2","","""event"",""trial"",""time""
""fullscreenenter"",""1"",""13879""
","
","
","""event"",""trial"",""time""
""fullscreenenter"",""1"",""13879""
","
","","","-1","","","17","15331","5998","&#9789;","elianto","#f73b6a7A"," ","-1","0","-10","[]","0","0","4","","","","","","","",""
"pit-trial","82","758066","0.0-2.0-17.0-1.0","battery-v0.2","","""event"",""trial"",""time""
""fullscreenenter"",""1"",""13879""
","
","
","""event"",""trial"",""time""
""fullscreenenter"",""1"",""13879""
","
","","","-1","","","17","15331","5998","&#9789;","elianto","#f73b6a7A"," ","-1","0","-10","[]","0","0","4","","","","","","","",""
"pit-trial","83","762922","0.0-2.0-17.0-2.0","battery-v0.2","","""event"",""trial"",""time""
""fullscreenenter"",""1"",""13879""
","
","
","""event"",""trial"",""time""
""fullscreenenter"",""1"",""13879""
","
","","","-1","","","17","15331","5998","&#9789;","elianto","#f73b6a7A"," ","-1","0","-10","[]","0","0","4","","","","","","","",""
"pit-trial","84","767780","0.0-2.0-17.0-3.0","battery-v0.2","","""event"",""trial"",""time""
""fullscreenenter"",""1"",""13879""
","
","
","""event"",""trial"",""time""
""fullscreenenter"",""1"",""13879""
","
","","","-1","","","17","15331","5998","&#9789;","elianto","#f73b6a7A"," ","-1","0","0","[]","0","0","4","","","","","","","",""
"pit-trial","85","772637","0.0-2.0-17.0-4.0","battery-v0.2","","""event"",""trial"",""time""
""fullscreenenter"",""1"",""13879""
","
","
","""event"",""trial"",""time""
""fullscreenenter"",""1"",""13879""
","
","","","-1","","","17","15331","5998","&#9789;","elianto","#f73b6a7A"," ","-1","0","-10","[]","0","0","4","","","","","","","",""
"pit-trial","86","777508","0.0-2.0-17.1-0.1","battery-v0.2","","""event"",""trial"",""time""
""fullscreenenter"",""1"",""13879""
","
","
","""event"",""trial"",""time""
""fullscreenenter"",""1"",""13879""
","
","","","-1","","","17","15331","5998","&#9789;","elianto","#f73b6a7A"," ","-1","0","-10","[]","0","0","4","","","","","","","",""
"pit-trial","87","782370","0.0-2.0-17.1-1.1","battery-v0.2","","""event"",""trial"",""time""
""fullscreenenter"",""1"",""13879""
","
","
","""event"",""trial"",""time""
""fullscreenenter"",""1"",""13879""
","
","","","-1","","","17","15331","5998","&#9789;","elianto","#f73b6a7A"," ","-1","0","-10","[]","0","0","4","","","","","","","",""
"pit-trial","88","787224","0.0-2.0-17.1-2.1","battery-v0.2","","""event"",""trial"",""time""
""fullscreenenter"",""1"",""13879""
","
","
","""event"",""trial"",""time""
""fullscreenenter"",""1"",""13879""
","
","","","-1","","","17","15331","5998","&#9789;","elianto","#f73b6a7A"," ","-1","0","-10","[]","0","0","4","","","","","","","",""
"pit-trial","89","792081","0.0-2.0-17.1-3.1","battery-v0.2","","""event"",""trial"",""time""
""fullscreenenter"",""1"",""13879""
","
","
","""event"",""trial"",""time""
""fullscreenenter"",""1"",""13879""
","
","","","-1","","","17","15331","5998","&#9789;","elianto","#f73b6a7A"," ","-1","0","0","[]","0","0","4","","","","","","","",""
"pit-trial","90","796939","0.0-2.0-17.1-4.1","battery-v0.2","","""event"",""trial"",""time""
""fullscreenenter"",""1"",""13879""
","
","
","""event"",""trial"",""time""
""fullscreenenter"",""1"",""13879""
","
","","","-1","","","17","15331","5998","&#9789;","elianto","#f73b6a7A"," ","-1","0","-10","[]","0","0","4","","","","","","","",""
"pit-trial","91","801795","0.0-2.0-17.2-0.2","battery-v0.2","","""event"",""trial"",""time""
""fullscreenenter"",""1"",""13879""
","
","
","""event"",""trial"",""time""
""fullscreenenter"",""1"",""13879""
","
","","","-1","","","17","15331","5998","&#9789;","elianto","#f73b6a7A"," ","-1","0","-10","[]","0","0","4","","","","","","","",""
"pit-trial","92","806651","0.0-2.0-17.2-1.2","battery-v0.2","","""event"",""trial"",""time""
""fullscreenenter"",""1"",""13879""
","
","
","""event"",""trial"",""time""
""fullscreenenter"",""1"",""13879""
","
","","","-1","","","17","15331","5998","&#9789;","elianto","#f73b6a7A"," ","-1","0","-10","[]","0","0","4","","","","","","","",""
"pit-trial","93","811506","0.0-2.0-17.2-2.2","battery-v0.2","","""event"",""trial"",""time""
""fullscreenenter"",""1"",""13879""
","
","
","""event"",""trial"",""time""
""fullscreenenter"",""1"",""13879""
","
","","","-1","","","17","15331","5998","&#9789;","elianto","#f73b6a7A"," ","-1","0","-10","[]","0","0","4","","","","","","","",""
"pit-trial","94","816363","0.0-2.0-17.2-3.2","battery-v0.2","","""event"",""trial"",""time""
""fullscreenenter"",""1"",""13879""
","
","
","""event"",""trial"",""time""
""fullscreenenter"",""1"",""13879""
","
","","","-1","","","17","15331","5998","&#9789;","elianto","#f73b6a7A"," ","-1","0","0","[]","0","0","4","","","","","","","",""
"pit-trial","95","821225","0.0-2.0-17.2-4.2","battery-v0.2","","""event"",""trial"",""time""
""fullscreenenter"",""1"",""13879""
","
","
","""event"",""trial"",""time""
""fullscreenenter"",""1"",""13879""
","
","","","-1","","","17","15331","5998","&#9789;","elianto","#f73b6a7A"," ","-1","0","-10","[]","0","0","4","","","","","","","",""
"pit-trial","96","826095","0.0-2.0-17.3-0.3","battery-v0.2","","""event"",""trial"",""time""
""fullscreenenter"",""1"",""13879""
","
","
","""event"",""trial"",""time""
""fullscreenenter"",""1"",""13879""
","
","","","-1","","","17","15331","5998","&#9789;","elianto","#f73b6a7A"," ","-1","0","-10","[]","0","0","4","","","","","","","",""
"pit-trial","97","830951","0.0-2.0-17.3-1.3","battery-v0.2","","""event"",""trial"",""time""
""fullscreenenter"",""1"",""13879""
","
","
","""event"",""trial"",""time""
""fullscreenenter"",""1"",""13879""
","
","","","-1","","","17","15331","5998","&#9789;","elianto","#f73b6a7A"," ","-1","0","-10","[]","0","0","4","","","","","","","",""
"pit-trial","98","835806","0.0-2.0-17.3-2.3","battery-v0.2","","""event"",""trial"",""time""
""fullscreenenter"",""1"",""13879""
","
","
","""event"",""trial"",""time""
""fullscreenenter"",""1"",""13879""
","
","","","-1","","","17","15331","5998","&#9789;","elianto","#f73b6a7A"," ","-1","0","-10","[]","0","0","4","","","","","","","",""
"pit-trial","99","840664","0.0-2.0-17.3-3.3","battery-v0.2","","""event"",""trial"",""time""
""fullscreenenter"",""1"",""13879""
","
","
","""event"",""trial"",""time""
""fullscreenenter"",""1"",""13879""
","
","","","-1","","","17","15331","5998","&#9789;","elianto","#f73b6a7A"," ","-1","0","0","[]","0","0","4","","","","","","","",""
"pit-trial","100","845518","0.0-2.0-17.3-4.3","battery-v0.2","","""event"",""trial"",""time""
""fullscreenenter"",""1"",""13879""
","
","
","""event"",""trial"",""time""
""fullscreenenter"",""1"",""13879""
","
","","","-1","","","17","15331","5998","&#9789;","elianto","#f73b6a7A"," ","-1","0","-10","[]","0","0","4","","","","","","","",""
"call-function","101","845522","0.0-2.0-18.0","battery-v0.2","","""event"",""trial"",""time""
""fullscreenenter"",""1"",""13879""
","
","
","""event"",""trial"",""time""
""fullscreenenter"",""1"",""13879""
","
","","","","","","","","","","","","","","","","","","","","","","","","","","",""
"pit-instructions","102","920086","0.0-2.0-19.0","battery-v0.2","","""event"",""trial"",""time""
""fullscreenenter"",""1"",""13879""
","
","
","""event"",""trial"",""time""
""fullscreenenter"",""1"",""13879""
","
","","[{""page_index"":0,""viewing_time"":8366.799999952316},{""page_index"":1,""viewing_time"":6404.799999952316},{""page_index"":2,""viewing_time"":13626.5},{""page_index"":3,""viewing_time"":8486.5},{""page_index"":4,""viewing_time"":8643.099999904633},{""page_index"":5,""viewing_time"":8664.900000095367},{""page_index"":6,""viewing_time"":8384.700000047684},{""page_index"":7,""viewing_time"":6086.200000047684},{""page_index"":8,""viewing_time"":5899.599999904633}]","74563.69999980927","","","","","","","","","","","","","","","","","","","","","","","",""
"pit-comprehension","103","925221","0.0-2.0-20.0-0.0","battery-v0.2","","""event"",""trial"",""time""
""fullscreenenter"",""1"",""13879""
","
","
","""event"",""trial"",""time""
""fullscreenenter"",""1"",""13879""
","
","","","5128.600000143051","[""SPACE""]","0","17","15331","5998","","","","","","","","","","","","","","","","","","",""
"pit-instructions","104","931441","0.0-2.0-20.0-1.0","battery-v0.2","","""event"",""trial"",""time""
""fullscreenenter"",""1"",""13879""
","
","
","""event"",""trial"",""time""
""fullscreenenter"",""1"",""13879""
","
","","[{""page_index"":0,""viewing_time"":6175.600000143051}]","6176","","","","","","","","","","","","","","","","","","","","","","","",""
"pit-comprehension","105","938612","0.0-2.0-21.0-0.0","battery-v0.2","","""event"",""trial"",""time""
""fullscreenenter"",""1"",""13879""
","
","
","""event"",""trial"",""time""
""fullscreenenter"",""1"",""13879""
","
","","","7165.400000095367","[""10""]","0","17","15331","5998","","","","","","","","","","","","","","","","","","",""
"pit-instructions","106","940433","0.0-2.0-21.0-1.0","battery-v0.2","","""event"",""trial"",""time""
""fullscreenenter"",""1"",""13879""
","
","
","""event"",""trial"",""time""
""fullscreenenter"",""1"",""13879""
","
","","[{""page_index"":0,""viewing_time"":1772.7999999523163}]","1773.3999998569489","","","","","","","","","","","","","","","","","","","","","","","",""
"pit-comprehension","107","948962","0.0-2.0-22.0-0.0","battery-v0.2","","""event"",""trial"",""time""
""fullscreenenter"",""1"",""13879""
","
","
","""event"",""trial"",""time""
""fullscreenenter"",""1"",""13879""
","
","","","8523.299999952316","[""-10""]","1","17","15331","5998","","","","","","","","","","","","","","","","","","",""
"pit-instructions","108","960196","0.0-2.0-22.0-1.0","battery-v0.2","","""event"",""trial"",""time""
""fullscreenenter"",""1"",""13879""
","
","
","""event"",""trial"",""time""
""fullscreenenter"",""1"",""13879""
","
","","[{""page_index"":0,""viewing_time"":11192.799999952316}]","11193.799999952316","","","","","","","","","","","","","","","","","","","","","","","",""
"pit-instructions","109","962841","0.0-2.0-22.0-2.0-0.0","battery-v0.2","","""event"",""trial"",""time""
""fullscreenenter"",""1"",""13879""
","
","
","""event"",""trial"",""time""
""fullscreenenter"",""1"",""13879""
","
","","[{""page_index"":0,""viewing_time"":2641.699999809265}]","2642.5","","","","","","","","","","","","","","","","","","","","","","","",""
"pit-comprehension","110","972415","0.0-2.0-22.1-0.1","battery-v0.2","","""event"",""trial"",""time""
""fullscreenenter"",""1"",""13879""
","
","
","""event"",""trial"",""time""
""fullscreenenter"",""1"",""13879""
","
","","","9569.599999904633","[""0""]","0","17","15331","5998","","","","","","","","","","","","","","","","","","",""
"pit-instructions","111","974096","0.0-2.0-22.1-1.1","battery-v0.2","","""event"",""trial"",""time""
""fullscreenenter"",""1"",""13879""
","
","
","""event"",""trial"",""time""
""fullscreenenter"",""1"",""13879""
","
","","[{""page_index"":0,""viewing_time"":1646.6000001430511}]","1647.7000000476837","","","","","","","","","","","","","","","","","","","","","","","",""
"pit-comprehension","112","985358","0.0-2.0-23.0-0.0","battery-v0.2","","""event"",""trial"",""time""
""fullscreenenter"",""1"",""13879""
","
","
","""event"",""trial"",""time""
""fullscreenenter"",""1"",""13879""
","
","","","11256.5","[""False""]","1","17","15331","5998","","","","","","","","","","","","","","","","","","",""
"pit-instructions","113","987029","0.0-2.0-23.0-1.0","battery-v0.2","","""event"",""trial"",""time""
""fullscreenenter"",""1"",""13879""
","
","
","""event"",""trial"",""time""
""fullscreenenter"",""1"",""13879""
","
","","[{""page_index"":0,""viewing_time"":1637.9000000953674}]","1638.4000000953674","","","","","","","","","","","","","","","","","","","","","","","",""
"pit-instructions","114","988545","0.0-2.0-23.0-2.0-0.0","battery-v0.2","","""event"",""trial"",""time""
""fullscreenenter"",""1"",""13879""
","
","
","""event"",""trial"",""time""
""fullscreenenter"",""1"",""13879""
","
","","[{""page_index"":0,""viewing_time"":1511.8999998569489}]","1513","","","","","","","","","","","","","","","","","","","","","","","",""
"pit-comprehension","115","996851","0.0-2.0-23.1-0.1","battery-v0.2","","""event"",""trial"",""time""
""fullscreenenter"",""1"",""13879""
","
","
","""event"",""trial"",""time""
""fullscreenenter"",""1"",""13879""
","
","","","8301.799999952316","[""True""]","0","17","15331","5998","","","","","","","","","","","","","","","","","","",""
"pit-instructions","116","998834","0.0-2.0-23.1-1.1","battery-v0.2","","""event"",""trial"",""time""
""fullscreenenter"",""1"",""13879""
","
","
","""event"",""trial"",""time""
""fullscreenenter"",""1"",""13879""
","
","","[{""page_index"":0,""viewing_time"":1934.1000001430511}]","1934.6000001430511","","","","","","","","","","","","","","","","","","","","","","","",""
"pit-comprehension","117","1006963","0.0-2.0-24.0-0.0","battery-v0.2","","""event"",""trial"",""time""
""fullscreenenter"",""1"",""13879""
","
","
","""event"",""trial"",""time""
""fullscreenenter"",""1"",""13879""
","
","","","8123.5","[""True""]","0","17","15331","5998","","","","","","","","","","","","","","","","","","",""
"pit-instructions","118","1008663","0.0-2.0-24.0-1.0","battery-v0.2","","""event"",""trial"",""time""
""fullscreenenter"",""1"",""13879""
","
","
","""event"",""trial"",""time""
""fullscreenenter"",""1"",""13879""
","
","","[{""page_index"":0,""viewing_time"":1655}]","1655.4000000953674","","","","","","","","","","","","","","","","","","","","","","","",""
"pit-comprehension","119","1015254","0.0-2.0-25.0-0.0","battery-v0.2","","""event"",""trial"",""time""
""fullscreenenter"",""1"",""13879""
","
","
","""event"",""trial"",""time""
""fullscreenenter"",""1"",""13879""
","
","","","6584.199999809265","[""True""]","0","17","15331","5998","","","","","","","","","","","","","","","","","","",""
"pit-instructions","120","1016628","0.0-2.0-25.0-1.0","battery-v0.2","","""event"",""trial"",""time""
""fullscreenenter"",""1"",""13879""
","
","
","""event"",""trial"",""time""
""fullscreenenter"",""1"",""13879""
","
","","[{""page_index"":0,""viewing_time"":1328.5999999046326}]","1329.9000000953674","","","","","","","","","","","","","","","","","","","","","","","",""
"pit-comprehension","121","1023170","0.0-2.0-26.0-0.0","battery-v0.2","","""event"",""trial"",""time""
""fullscreenenter"",""1"",""13879""
","
","
","""event"",""trial"",""time""
""fullscreenenter"",""1"",""13879""
","
","","","6536","[""True""]","1","17","15331","5998","","","","","","","","","","","","","","","","","","",""
"pit-instructions","122","1030012","0.0-2.0-26.0-1.0","battery-v0.2","","""event"",""trial"",""time""
""fullscreenenter"",""1"",""13879""
","
","
","""event"",""trial"",""time""
""fullscreenenter"",""1"",""13879""
","
","","[{""page_index"":0,""viewing_time"":6798.299999952316}]","6798.799999952316","","","","","","","","","","","","","","","","","","","","","","","",""
"pit-instructions","123","1031401","0.0-2.0-26.0-2.0-0.0","battery-v0.2","","""event"",""trial"",""time""
""fullscreenenter"",""1"",""13879""
","
","
","""event"",""trial"",""time""
""fullscreenenter"",""1"",""13879""
","
","","[{""page_index"":0,""viewing_time"":1385.3999998569489}]","1385.7999999523163","","","","","","","","","","","","","","","","","","","","","","","",""
"pit-comprehension","124","1036671","0.0-2.0-26.1-0.1","battery-v0.2","","""event"",""trial"",""time""
""fullscreenenter"",""1"",""13879""
","
","
","""event"",""trial"",""time""
""fullscreenenter"",""1"",""13879""
","
","","","5265.900000095367","[""False""]","0","17","15331","5998","","","","","","","","","","","","","","","","","","",""
"pit-instructions","125","1040208","0.0-2.0-26.1-1.1","battery-v0.2","","""event"",""trial"",""time""
""fullscreenenter"",""1"",""13879""
","
","
","""event"",""trial"",""time""
""fullscreenenter"",""1"",""13879""
","
","","[{""page_index"":0,""viewing_time"":3489.0999999046326}]","3489.7999999523163","","","","","","","","","","","","","","","","","","","","","","","",""
"pit-instructions","126","1057709","0.0-3.0","battery-v0.2","","""event"",""trial"",""time""
""fullscreenenter"",""1"",""13879""
","
","
","""event"",""trial"",""time""
""fullscreenenter"",""1"",""13879""
","
","","[{""page_index"":0,""viewing_time"":4821.900000095367},{""page_index"":1,""viewing_time"":5294.5},{""page_index"":2,""viewing_time"":7382.199999809265}]","17499.200000047684","","","","","","","","","","","","","","","","","","","","","","","",""
"pit-trial","127","1061350","0.0-4.0","battery-v0.2","","""event"",""trial"",""time""
""fullscreenenter"",""1"",""13879""
","
","
","""event"",""trial"",""time""
""fullscreenenter"",""1"",""13879""
","
","","","777.8999998569489","","","17","15331","5998","&#9730;","elianto","#3366ff99"," "," ","1","+10","[1628.0999999046326]","1","1","","","15331","1","1","1","win","go","0"
"pit-trial","128","1065476","0.0-5.0","battery-v0.2","","""event"",""trial"",""time""
""fullscreenenter"",""1"",""13879""
","
","
","""event"",""trial"",""time""
""fullscreenenter"",""1"",""13879""
","
","","","1256.9000000953674","","","17","15331","5998","&#9752;","elianto","#f73b6a7A"," "," ","1","0","[2107.5]","1","1","","","15331","2","3","3","lose","go","0"
"pit-trial","129","1070130","0.0-6.0","battery-v0.2","","""event"",""trial"",""time""
""fullscreenenter"",""1"",""13879""
","
","
","""event"",""trial"",""time""
""fullscreenenter"",""1"",""13879""
","
","","","1788.7999999523163","","","17","15331","5998","&#9728;","elianto","#f73b6a7A","-1"," ","0","-10","[2642.2999999523163]","1","1","","","15331","3","0","4","lose","no-go","0"
"pit-trial","130","1073677","0.0-7.0","battery-v0.2","","""event"",""trial"",""time""
""fullscreenenter"",""1"",""13879""
","
","
","""event"",""trial"",""time""
""fullscreenenter"",""1"",""13879""
","
","","","681.7999999523163","","","17","15331","5998","&#9733;","elianto","#3366ff99","-1"," ","0","0","[1532.0999999046326]","1","1","","","15331","4","2","2","win","no-go","0"
"pit-trial","131","1077349","0.0-8.0","battery-v0.2","","""event"",""trial"",""time""
""fullscreenenter"",""1"",""13879""
","
","
","""event"",""trial"",""time""
""fullscreenenter"",""1"",""13879""
","
","","","807.3000001907349","","","17","15331","5998","&#9733;","elianto","#3366ff99","-1"," ","0","0","[1658.7000000476837]","1","1","","","15331","5","2","2","win","no-go","0"
"pit-trial","132","1081346","0.0-9.0","battery-v0.2","","""event"",""trial"",""time""
""fullscreenenter"",""1"",""13879""
","
","
","""event"",""trial"",""time""
""fullscreenenter"",""1"",""13879""
","
","","","1133.3000001907349","","","17","15331","5998","&#9752;","elianto","#f73b6a7A"," "," ","1","-10","[1984.2000000476837]","1","1","","","15331","6","3","3","lose","go","1"
"pit-trial","133","1086205","0.0-10.0","battery-v0.2","","""event"",""trial"",""time""
""fullscreenenter"",""1"",""13879""
","
","
","""event"",""trial"",""time""
""fullscreenenter"",""1"",""13879""
","
","","","-1","","","17","15331","5998","&#9730;","elianto","#3366ff99"," ","-1","0","+10","[]","0","1","","","15331","7","1","1","win","go","1"
"pit-trial","134","1091060","0.0-11.0","battery-v0.2","","""event"",""trial"",""time""
""fullscreenenter"",""1"",""13879""
","
","
","""event"",""trial"",""time""
""fullscreenenter"",""1"",""13879""
","
","","","-1","","","17","15331","5998","&#9728;","elianto","#f73b6a7A","-1","-1","1","0","[]","0","1","","","15331","8","0","4","lose","no-go","0"
"pit-trial","135","1095918","0.0-12.0","battery-v0.2","","""event"",""trial"",""time""
""fullscreenenter"",""1"",""13879""
","
","
","""event"",""trial"",""time""
""fullscreenenter"",""1"",""13879""
","
","","","-1","","","17","15331","5998","&#9728;","elianto","#f73b6a7A","-1","-1","1","0","[]","0","1","","","15331","9","0","4","lose","no-go","0"
"pit-trial","136","1100773","0.0-13.0","battery-v0.2","","""event"",""trial"",""time""
""fullscreenenter"",""1"",""13879""
","
","
","""event"",""trial"",""time""
""fullscreenenter"",""1"",""13879""
","
","","","-1","","","17","15331","5998","&#9752;","elianto","#f73b6a7A"," ","-1","0","-10","[]","0","1","","","15331","10","3","3","lose","go","0"
"pit-trial","137","1104417","0.0-14.0","battery-v0.2","","""event"",""trial"",""time""
""fullscreenenter"",""1"",""13879""
","
","
","""event"",""trial"",""time""
""fullscreenenter"",""1"",""13879""
","
","","","785.8999998569489","","","17","15331","5998","&#9730;","elianto","#3366ff99"," "," ","1","+10","[1638.6999998092651]","1","1","","","15331","11","1","1","win","go","0"
"pit-trial","138","1109273","0.0-15.0","battery-v0.2","","""event"",""trial"",""time""
""fullscreenenter"",""1"",""13879""
","
","
","""event"",""trial"",""time""
""fullscreenenter"",""1"",""13879""
","
","","","-1","","","17","15331","5998","&#9733;","elianto","#3366ff99","-1","-1","1","+10","[]","0","1","","","15331","12","2","2","win","no-go","0"
"pit-trial","139","1114056","0.0-16.0","battery-v0.2","","""event"",""trial"",""time""
""fullscreenenter"",""1"",""13879""
","
","
","""event"",""trial"",""time""
""fullscreenenter"",""1"",""13879""
","
","","","1926.1000001430511","","","17","15331","5998","&#9728;","elianto","#f73b6a7A","-1"," ","0","-10","[2779.5]","1","1","","","15331","13","0","4","lose","no-go","0"
"pit-trial","140","1118911","0.0-17.0","battery-v0.2","","""event"",""trial"",""time""
""fullscreenenter"",""1"",""13879""
","
","
","""event"",""trial"",""time""
""fullscreenenter"",""1"",""13879""
","
","","","-1","","","17","15331","5998","&#9752;","elianto","#f73b6a7A"," ","-1","0","-10","[]","0","1","","","15331","14","3","3","lose","go","0"
"pit-trial","141","1122586","0.0-18.0","battery-v0.2","","""event"",""trial"",""time""
""fullscreenenter"",""1"",""13879""
","
","
","""event"",""trial"",""time""
""fullscreenenter"",""1"",""13879""
","
","","","806.0999999046326","","","17","15331","5998","&#9730;","elianto","#3366ff99"," "," ","1","+10","[1656.2999999523163]","1","1","","","15331","15","1","1","win","go","0"
"pit-trial","142","1126298","0.0-19.0","battery-v0.2","","""event"",""trial"",""time""
""fullscreenenter"",""1"",""13879""
","
","
","""event"",""trial"",""time""
""fullscreenenter"",""1"",""13879""
","
","","","855","","","17","15331","5998","&#9733;","elianto","#3366ff99","-1"," ","0","0","[1707]","1","1","","","15331","16","2","2","win","no-go","0"
"pit-trial","143","1131154","0.0-20.0","battery-v0.2","","""event"",""trial"",""time""
""fullscreenenter"",""1"",""13879""
","
","
","""event"",""trial"",""time""
""fullscreenenter"",""1"",""13879""
","
","","","-1","","","17","15331","5998","&#9728;","elianto","#f73b6a7A","-1","-1","1","0","[]","0","1","","","15331","17","0","4","lose","no-go","0"
"pit-trial","144","1134953","0.0-21.0","battery-v0.2","","""event"",""trial"",""time""
""fullscreenenter"",""1"",""13879""
","
","
","""event"",""trial"",""time""
""fullscreenenter"",""1"",""13879""
","
","","","941.5","","","17","15331","5998","&#9730;","elianto","#3366ff99"," "," ","1","+10","[1794.2999999523163]","1","1","","","15331","18","1","1","win","go","0"
"pit-trial","145","1138985","0.0-22.0","battery-v0.2","","""event"",""trial"",""time""
""fullscreenenter"",""1"",""13879""
","
","
","""event"",""trial"",""time""
""fullscreenenter"",""1"",""13879""
","
","","","1172.7999999523163","","","17","15331","5998","&#9733;","elianto","#3366ff99","-1"," ","0","+10","[2024.7000000476837]","1","1","","","15331","19","2","2","win","no-go","1"
"pit-trial","146","1143838","0.0-23.0","battery-v0.2","","""event"",""trial"",""time""
""fullscreenenter"",""1"",""13879""
","
","
","""event"",""trial"",""time""
""fullscreenenter"",""1"",""13879""
","
","","","-1","","","17","15331","5998","&#9752;","elianto","#f73b6a7A"," ","-1","0","0","[]","0","1","","","15331","20","3","3","lose","go","1"
"pit-instructions","147","1158102","0.0-24.0","battery-v0.2","","""event"",""trial"",""time""
""fullscreenenter"",""1"",""13879""
","
","
","""event"",""trial"",""time""
""fullscreenenter"",""1"",""13879""
","
","","[{""page_index"":0,""viewing_time"":8067.300000190735},{""page_index"":1,""viewing_time"":6191.5}]","14259.400000095367","","","","","","","","","","","","","","","","","","","","","","","",""
"pit-trial","148","1162984","0.0-25.0","battery-v0.2","","""event"",""trial"",""time""
""fullscreenenter"",""1"",""13879""
","
","
","""event"",""trial"",""time""
""fullscreenenter"",""1"",""13879""
","
","","","-1","","","17","15331","5998","t","elianto","#f73b6a7A"," ","-1","0","-10","[]","0","2","","","15331","21","2","3","lose","go","0"
"pit-trial","149","1166989","0.0-26.0","battery-v0.2","","""event"",""trial"",""time""
""fullscreenenter"",""1"",""13879""
","
","
","""event"",""trial"",""time""
""fullscreenenter"",""1"",""13879""
","
","","","1135.9000000953674","","","17","15331","5998","b","elianto","#f73b6a7A","-1"," ","0","-10","[1987]","1","2","","","15331","22","3","4","lose","no-go","0"
"pit-trial","150","1171876","0.0-27.0","battery-v0.2","","""event"",""trial"",""time""
""fullscreenenter"",""1"",""13879""
","
","
","""event"",""trial"",""time""
""fullscreenenter"",""1"",""13879""
","
","","","-1","","","17","15331","5998","n","elianto","#f73b6a7A"," ","-1","0","-10","[]","0","2","","","15331","23","0","3","lose","go","0"
"pit-trial","151","1175636","0.0-28.0","battery-v0.2","","""event"",""trial"",""time""
""fullscreenenter"",""1"",""13879""
","
","
","""event"",""trial"",""time""
""fullscreenenter"",""1"",""13879""
","
","","","890.8000001907349","","","17","15331","5998","f","elianto","#3366ff99","-1"," ","0","0","[1742.7999999523163]","1","2","","","15331","24","1","2","win","no-go","0"
"pit-trial","152","1180505","0.0-29.0","battery-v0.2","","""event"",""trial"",""time""
""fullscreenenter"",""1"",""13879""
","
","
","""event"",""trial"",""time""
""fullscreenenter"",""1"",""13879""
","
","","","-1","","","17","15331","5998","b","elianto","#f73b6a7A","-1","-1","1","0","[]","0","2","","","15331","25","3","4","lose","no-go","0"
"pit-trial","153","1185385","0.0-30.0","battery-v0.2","","""event"",""trial"",""time""
""fullscreenenter"",""1"",""13879""
","
","
","""event"",""trial"",""time""
""fullscreenenter"",""1"",""13879""
","
","","","-1","","","17","15331","5998","t","elianto","#f73b6a7A"," ","-1","0","-10","[]","0","2","","","15331","26","2","3","lose","go","0"
"pit-trial","154","1190249","0.0-31.0","battery-v0.2","","""event"",""trial"",""time""
""fullscreenenter"",""1"",""13879""
","
","
","""event"",""trial"",""time""
""fullscreenenter"",""1"",""13879""
","
","","","-1","","","17","15331","5998","n","elianto","#f73b6a7A"," ","-1","0","-10","[]","0","2","","","15331","27","0","3","lose","go","0"
"pit-trial","155","1194352","0.0-32.0","battery-v0.2","","""event"",""trial"",""time""
""fullscreenenter"",""1"",""13879""
","
","
","""event"",""trial"",""time""
""fullscreenenter"",""1"",""13879""
","
","","","1245.7000000476837","","","17","15331","5998","f","elianto","#3366ff99","-1"," ","0","0","[2098.600000143051]","1","2","","","15331","28","1","2","win","no-go","0"
"pit-trial","156","1199206","0.0-33.0","battery-v0.2","","""event"",""trial"",""time""
""fullscreenenter"",""1"",""13879""
","
","
","""event"",""trial"",""time""
""fullscreenenter"",""1"",""13879""
","
","","","-1","","","17","15331","5998","n","elianto","#f73b6a7A"," ","-1","0","-10","[]","0","2","","","15331","29","0","3","lose","go","0"
"pit-trial","157","1204062","0.0-34.0","battery-v0.2","","""event"",""trial"",""time""
""fullscreenenter"",""1"",""13879""
","
","
","""event"",""trial"",""time""
""fullscreenenter"",""1"",""13879""
","
","","","-1","","","17","15331","5998","t","elianto","#f73b6a7A"," ","-1","0","-10","[]","0","2","","","15331","30","2","3","lose","go","0"
"pit-trial","158","1208918","0.0-35.0","battery-v0.2","","""event"",""trial"",""time""
""fullscreenenter"",""1"",""13879""
","
","
","""event"",""trial"",""time""
""fullscreenenter"",""1"",""13879""
","
","","","-1","","","17","15331","5998","f","elianto","#3366ff99","-1","-1","1","+10","[]","0","2","","","15331","31","1","2","win","no-go","0"
"pit-trial","159","1213773","0.0-36.0","battery-v0.2","","""event"",""trial"",""time""
""fullscreenenter"",""1"",""13879""
","
","
","""event"",""trial"",""time""
""fullscreenenter"",""1"",""13879""
","
","","","-1","","","17","15331","5998","b","elianto","#f73b6a7A","-1","-1","1","0","[]","0","2","","","15331","32","3","4","lose","no-go","0"
"pit-trial","160","1218639","0.0-37.0","battery-v0.2","","""event"",""trial"",""time""
""fullscreenenter"",""1"",""13879""
","
","
","""event"",""trial"",""time""
""fullscreenenter"",""1"",""13879""
","
","","","-1","","","17","15331","5998","t","elianto","#f73b6a7A"," ","-1","0","-10","[]","0","2","","","15331","33","2","3","lose","go","0"
"pit-trial","161","1222156","0.0-38.0","battery-v0.2","","""event"",""trial"",""time""
""fullscreenenter"",""1"",""13879""
","
","
","""event"",""trial"",""time""
""fullscreenenter"",""1"",""13879""
","
","","","662.5999999046326","","","17","15331","5998","f","elianto","#3366ff99","-1"," ","0","0","[1513.7000000476837]","1","2","","","15331","34","1","2","win","no-go","0"
"pit-trial","162","1227011","0.0-39.0","battery-v0.2","","""event"",""trial"",""time""
""fullscreenenter"",""1"",""13879""
","
","
","""event"",""trial"",""time""
""fullscreenenter"",""1"",""13879""
","
","","","-1","","","17","15331","5998","n","elianto","#f73b6a7A"," ","-1","0","-10","[]","0","2","","","15331","35","0","3","lose","go","0"
"pit-trial","163","1231866","0.0-40.0","battery-v0.2","","""event"",""trial"",""time""
""fullscreenenter"",""1"",""13879""
","
","
","""event"",""trial"",""time""
""fullscreenenter"",""1"",""13879""
","
","","","-1","","","17","15331","5998","b","elianto","#f73b6a7A","-1","-1","1","-10","[]","0","2","","","15331","36","3","4","lose","no-go","1"
"pit-trial","164","1236737","0.0-41.0","battery-v0.2","","""event"",""trial"",""time""
""fullscreenenter"",""1"",""13879""
","
","
","""event"",""trial"",""time""
""fullscreenenter"",""1"",""13879""
","
","","","-1","","","17","15331","5998","t","elianto","#f73b6a7A"," ","-1","0","-10","[]","0","2","","","15331","37","2","3","lose","go","0"
"pit-trial","165","1241593","0.0-42.0","battery-v0.2","","""event"",""trial"",""time""
""fullscreenenter"",""1"",""13879""
","
","
","""event"",""trial"",""time""
""fullscreenenter"",""1"",""13879""
","
","","","-1","","","17","15331","5998","n","elianto","#f73b6a7A"," ","-1","0","-10","[]","0","2","","","15331","38","0","3","lose","go","0"
"pit-trial","166","1245351","0.0-43.0","battery-v0.2","","""event"",""trial"",""time""
""fullscreenenter"",""1"",""13879""
","
","
","""event"",""trial"",""time""
""fullscreenenter"",""1"",""13879""
","
","","","900.8000001907349","","","17","15331","5998","f","elianto","#3366ff99","-1"," ","0","0","[1753.2999999523163]","1","2","","","15331","39","1","2","win","no-go","0"
"pit-trial","167","1250212","0.0-44.0","battery-v0.2","","""event"",""trial"",""time""
""fullscreenenter"",""1"",""13879""
","
","
","""event"",""trial"",""time""
""fullscreenenter"",""1"",""13879""
","
","","","-1","","","17","15331","5998","b","elianto","#f73b6a7A","-1","-1","1","0","[]","0","2","","","15331","40","3","4","lose","no-go","0"
"pit-trial","168","1254154","0.0-45.0","battery-v0.2","","""event"",""trial"",""time""
""fullscreenenter"",""1"",""13879""
","
","
","""event"",""trial"",""time""
""fullscreenenter"",""1"",""13879""
","
","","","1084.5","","","17","15331","5998","f","elianto","#3366ff99","-1"," ","0","0","[1938]","1","2","","","15331","41","1","2","win","no-go","0"
"pit-trial","169","1259008","0.0-46.0","battery-v0.2","","""event"",""trial"",""time""
""fullscreenenter"",""1"",""13879""
","
","
","""event"",""trial"",""time""
""fullscreenenter"",""1"",""13879""
","
","","","-1","","","17","15331","5998","t","elianto","#f73b6a7A"," ","-1","0","-10","[]","0","2","","","15331","42","2","3","lose","go","0"
"pit-trial","170","1263876","0.0-47.0","battery-v0.2","","""event"",""trial"",""time""
""fullscreenenter"",""1"",""13879""
","
","
","""event"",""trial"",""time""
""fullscreenenter"",""1"",""13879""
","
","","","-1","","","17","15331","5998","n","elianto","#f73b6a7A"," ","-1","0","-10","[]","0","2","","","15331","43","0","3","lose","go","0"
"pit-trial","171","1268731","0.0-48.0","battery-v0.2","","""event"",""trial"",""time""
""fullscreenenter"",""1"",""13879""
","
","
","""event"",""trial"",""time""
""fullscreenenter"",""1"",""13879""
","
","","","-1","","","17","15331","5998","b","elianto","#f73b6a7A","-1","-1","1","-10","[]","0","2","","","15331","44","3","4","lose","no-go","1"
"pit-trial","172","1272738","0.0-49.0","battery-v0.2","","""event"",""trial"",""time""
""fullscreenenter"",""1"",""13879""
","
","
","""event"",""trial"",""time""
""fullscreenenter"",""1"",""13879""
","
","","","1149.6999998092651","","","17","15331","5998","f","elianto","#3366ff99","-1"," ","0","0","[2002.0999999046326]","1","2","","","15331","45","1","2","win","no-go","0"
"pit-trial","173","1277594","0.0-50.0","battery-v0.2","","""event"",""trial"",""time""
""fullscreenenter"",""1"",""13879""
","
","
","""event"",""trial"",""time""
""fullscreenenter"",""1"",""13879""
","
","","","-1","","","17","15331","5998","n","elianto","#f73b6a7A"," ","-1","0","0","[]","0","2","","","15331","46","0","3","lose","go","1"
"pit-trial","174","1282451","0.0-51.0","battery-v0.2","","""event"",""trial"",""time""
""fullscreenenter"",""1"",""13879""
","
","
","""event"",""trial"",""time""
""fullscreenenter"",""1"",""13879""
","
","","","-1","","","17","15331","5998","t","elianto","#f73b6a7A"," ","-1","0","-10","[]","0","2","","","15331","47","2","3","lose","go","0"
"pit-trial","175","1287307","0.0-52.0","battery-v0.2","","""event"",""trial"",""time""
""fullscreenenter"",""1"",""13879""
","
","
","""event"",""trial"",""time""
""fullscreenenter"",""1"",""13879""
","
","","","-1","","","17","15331","5998","b","elianto","#f73b6a7A","-1","-1","1","-10","[]","0","2","","","15331","48","3","4","lose","no-go","1"
"pit-trial","176","1291143","0.0-53.0","battery-v0.2","","""event"",""trial"",""time""
""fullscreenenter"",""1"",""13879""
","
","
","""event"",""trial"",""time""
""fullscreenenter"",""1"",""13879""
","
","","","978.2999999523163","","","17","15331","5998","f","elianto","#3366ff99","-1"," ","0","0","[1830]","1","2","","","15331","49","1","2","win","no-go","0"
"pit-trial","177","1295999","0.0-54.0","battery-v0.2","","""event"",""trial"",""time""
""fullscreenenter"",""1"",""13879""
","
","
","""event"",""trial"",""time""
""fullscreenenter"",""1"",""13879""
","
","","","-1","","","17","15331","5998","b","elianto","#f73b6a7A","-1","-1","1","0","[]","0","2","","","15331","50","3","4","lose","no-go","0"
"pit-trial","178","1300855","0.0-55.0","battery-v0.2","","""event"",""trial"",""time""
""fullscreenenter"",""1"",""13879""
","
","
","""event"",""trial"",""time""
""fullscreenenter"",""1"",""13879""
","
","","","-1","","","17","15331","5998","n","elianto","#f73b6a7A"," ","-1","0","0","[]","0","2","","","15331","51","0","3","lose","go","1"
"pit-trial","179","1305710","0.0-56.0","battery-v0.2","","""event"",""trial"",""time""
""fullscreenenter"",""1"",""13879""
","
","
","""event"",""trial"",""time""
""fullscreenenter"",""1"",""13879""
","
","","","-1","","","17","15331","5998","t","elianto","#f73b6a7A"," ","-1","0","-10","[]","0","2","","","15331","52","2","3","lose","go","0"
"pit-trial","180","1310576","0.0-57.0","battery-v0.2","","""event"",""trial"",""time""
""fullscreenenter"",""1"",""13879""
","
","
","""event"",""trial"",""time""
""fullscreenenter"",""1"",""13879""
","
","","","-1","","","17","15331","5998","n","elianto","#f73b6a7A"," ","-1","0","-10","[]","0","2","","","15331","53","0","3","lose","go","0"
"pit-trial","181","1314753","0.0-58.0","battery-v0.2","","""event"",""trial"",""time""
""fullscreenenter"",""1"",""13879""
","
","
","""event"",""trial"",""time""
""fullscreenenter"",""1"",""13879""
","
","","","1322.3000001907349","","","17","15331","5998","f","elianto","#3366ff99","-1"," ","0","0","[2172.800000190735]","1","2","","","15331","54","1","2","win","no-go","0"
"pit-trial","182","1319609","0.0-59.0","battery-v0.2","","""event"",""trial"",""time""
""fullscreenenter"",""1"",""13879""
","
","
","""event"",""trial"",""time""
""fullscreenenter"",""1"",""13879""
","
","","","-1","","","17","15331","5998","b","elianto","#f73b6a7A","-1","-1","1","0","[]","0","2","","","15331","55","3","4","lose","no-go","0"
"pit-trial","183","1324464","0.0-60.0","battery-v0.2","","""event"",""trial"",""time""
""fullscreenenter"",""1"",""13879""
","
","
","""event"",""trial"",""time""
""fullscreenenter"",""1"",""13879""
","
","","","-1","","","17","15331","5998","t","elianto","#f73b6a7A"," ","-1","0","-10","[]","0","2","","","15331","56","2","3","lose","go","0"
"pit-trial","184","1329320","0.0-61.0","battery-v0.2","","""event"",""trial"",""time""
""fullscreenenter"",""1"",""13879""
","
","
","""event"",""trial"",""time""
""fullscreenenter"",""1"",""13879""
","
","","","-1","","","17","15331","5998","t","elianto","#f73b6a7A"," ","-1","0","-10","[]","0","2","","","15331","57","2","3","lose","go","0"
"pit-trial","185","1334177","0.0-62.0","battery-v0.2","","""event"",""trial"",""time""
""fullscreenenter"",""1"",""13879""
","
","
","""event"",""trial"",""time""
""fullscreenenter"",""1"",""13879""
","
","","","-1","","","17","15331","5998","n","elianto","#f73b6a7A"," ","-1","0","0","[]","0","2","","","15331","58","0","3","lose","go","1"
"pit-trial","186","1339034","0.0-63.0","battery-v0.2","","""event"",""trial"",""time""
""fullscreenenter"",""1"",""13879""
","
","
","""event"",""trial"",""time""
""fullscreenenter"",""1"",""13879""
","
","","","-1","","","17","15331","5998","b","elianto","#f73b6a7A","-1","-1","1","0","[]","0","2","","","15331","59","3","4","lose","no-go","0"
"pit-trial","187","1342486","0.0-64.0","battery-v0.2","","""event"",""trial"",""time""
""fullscreenenter"",""1"",""13879""
","
","
","""event"",""trial"",""time""
""fullscreenenter"",""1"",""13879""
","
","","","597.9000000953674","","","17","15331","5998","c","elianto","#3366ff99"," "," ","1","+10","[1449.4000000953674]","1","2","","","15331","60","4","1","win","go","0"
"pit-trial","188","1347340","0.0-65.0","battery-v0.2","","""event"",""trial"",""time""
""fullscreenenter"",""1"",""13879""
","
","
","""event"",""trial"",""time""
""fullscreenenter"",""1"",""13879""
","
","","","-1","","","17","15331","5998","t","elianto","#f73b6a7A"," ","-1","0","-10","[]","0","2","","","15331","61","2","3","lose","go","0"
"pit-trial","189","1352196","0.0-66.0","battery-v0.2","","""event"",""trial"",""time""
""fullscreenenter"",""1"",""13879""
","
","
","""event"",""trial"",""time""
""fullscreenenter"",""1"",""13879""
","
","","","-1","","","17","15331","5998","b","elianto","#f73b6a7A","-1","-1","1","0","[]","0","2","","","15331","62","3","4","lose","no-go","0"
"pit-trial","190","1356629","0.0-67.0","battery-v0.2","","""event"",""trial"",""time""
""fullscreenenter"",""1"",""13879""
","
","
","""event"",""trial"",""time""
""fullscreenenter"",""1"",""13879""
","
","","","1575.4000000953674","","","17","15331","5998","c","elianto","#3366ff99"," "," ","1","+10","[2429.2999999523163]","1","2","","","15331","63","4","1","win","go","0"
"pit-trial","191","1359986","0.0-68.0","battery-v0.2","","""event"",""trial"",""time""
""fullscreenenter"",""1"",""13879""
","
","
","""event"",""trial"",""time""
""fullscreenenter"",""1"",""13879""
","
","","","499.2999999523163","","","17","15331","5998","f","elianto","#3366ff99","-1"," ","0","+10","[1351.7999999523163]","1","2","","","15331","64","1","2","win","no-go","1"
"pit-trial","192","1363245","0.0-69.0","battery-v0.2","","""event"",""trial"",""time""
""fullscreenenter"",""1"",""13879""
","
","
","""event"",""trial"",""time""
""fullscreenenter"",""1"",""13879""
","
","","","401.7999999523163","","","17","15331","5998","c","elianto","#3366ff99"," "," ","1","+10","[1254.1000001430511]","1","2","","","15331","65","4","1","win","go","0"
"pit-trial","193","1366527","0.0-70.0","battery-v0.2","","""event"",""trial"",""time""
""fullscreenenter"",""1"",""13879""
","
","
","""event"",""trial"",""time""
""fullscreenenter"",""1"",""13879""
","
","","","426","","","17","15331","5998","z","elianto","#3366ff99","-1"," ","0","+10","[1278.1999998092651]","1","2","","","15331","66","5","2","win","no-go","1"
"pit-trial","194","1369805","0.0-71.0","battery-v0.2","","""event"",""trial"",""time""
""fullscreenenter"",""1"",""13879""
","
","
","""event"",""trial"",""time""
""fullscreenenter"",""1"",""13879""
","
","","","423.2000000476837","","","17","15331","5998","f","elianto","#3366ff99","-1"," ","0","0","[1273.2999999523163]","1","2","","","15331","67","1","2","win","no-go","0"
"pit-trial","195","1374664","0.0-72.0","battery-v0.2","","""event"",""trial"",""time""
""fullscreenenter"",""1"",""13879""
","
","
","""event"",""trial"",""time""
""fullscreenenter"",""1"",""13879""
","
","","","-1","","","17","15331","5998","b","elianto","#f73b6a7A","-1","-1","1","0","[]","0","2","","","15331","68","3","4","lose","no-go","0"
"pit-trial","196","1378090","0.0-73.0","battery-v0.2","","""event"",""trial"",""time""
""fullscreenenter"",""1"",""13879""
","
","
","""event"",""trial"",""time""
""fullscreenenter"",""1"",""13879""
","
","","","570","","","17","15331","5998","c","elianto","#3366ff99"," "," ","1","+10","[1422.2999999523163]","1","2","","","15331","69","4","1","win","go","0"
"pit-trial","197","1381562","0.0-74.0","battery-v0.2","","""event"",""trial"",""time""
""fullscreenenter"",""1"",""13879""
","
","
","""event"",""trial"",""time""
""fullscreenenter"",""1"",""13879""
","
","","","613.8000001907349","","","17","15331","5998","z","elianto","#3366ff99","-1"," ","0","0","[1467.7000000476837]","1","2","","","15331","70","5","2","win","no-go","0"
"pit-trial","198","1384940","0.0-75.0","battery-v0.2","","""event"",""trial"",""time""
""fullscreenenter"",""1"",""13879""
","
","
","""event"",""trial"",""time""
""fullscreenenter"",""1"",""13879""
","
","","","523.5999999046326","","","17","15331","5998","f","elianto","#3366ff99","-1"," ","0","+10","[1374]","1","2","","","15331","71","1","2","win","no-go","1"
"pit-trial","199","1389809","0.0-76.0","battery-v0.2","","""event"",""trial"",""time""
""fullscreenenter"",""1"",""13879""
","
","
","""event"",""trial"",""time""
""fullscreenenter"",""1"",""13879""
","
","","","-1","","","17","15331","5998","t","elianto","#f73b6a7A"," ","-1","0","-10","[]","0","2","","","15331","72","2","3","lose","go","0"
"pit-trial","200","1393234","0.0-77.0","battery-v0.2","","""event"",""trial"",""time""
""fullscreenenter"",""1"",""13879""
","
","
","""event"",""trial"",""time""
""fullscreenenter"",""1"",""13879""
","
","","","566.1000001430511","","","17","15331","5998","f","elianto","#3366ff99","-1"," ","0","0","[1419.2000000476837]","1","2","","","15331","73","1","2","win","no-go","0"
"pit-trial","201","1396562","0.0-78.0","battery-v0.2","","""event"",""trial"",""time""
""fullscreenenter"",""1"",""13879""
","
","
","""event"",""trial"",""time""
""fullscreenenter"",""1"",""13879""
","
","","","470.7999999523163","","","17","15331","5998","c","elianto","#3366ff99"," "," ","1","+10","[1323.5999999046326]","1","2","","","15331","74","4","1","win","go","0"
"pit-trial","202","1401417","0.0-79.0","battery-v0.2","","""event"",""trial"",""time""
""fullscreenenter"",""1"",""13879""
","
","
","""event"",""trial"",""time""
""fullscreenenter"",""1"",""13879""
","
","","","-1","","","17","15331","5998","b","elianto","#f73b6a7A","-1","-1","1","0","[]","0","2","","","15331","75","3","4","lose","no-go","0"
"pit-trial","203","1404741","0.0-80.0","battery-v0.2","","""event"",""trial"",""time""
""fullscreenenter"",""1"",""13879""
","
","
","""event"",""trial"",""time""
""fullscreenenter"",""1"",""13879""
","
","","","464.89999985694885","","","17","15331","5998","z","elianto","#3366ff99","-1"," ","0","+10","[1317.2999999523163]","1","2","","","15331","76","5","2","win","no-go","1"
"pit-trial","204","1408147","0.0-81.0","battery-v0.2","","""event"",""trial"",""time""
""fullscreenenter"",""1"",""13879""
","
","
","""event"",""trial"",""time""
""fullscreenenter"",""1"",""13879""
","
","","","548.2999999523163","","","17","15331","5998","z","elianto","#3366ff99","-1"," ","0","0","[1399.7999999523163]","1","2","","","15331","77","5","2","win","no-go","0"
"pit-trial","205","1411616","0.0-82.0","battery-v0.2","","""event"",""trial"",""time""
""fullscreenenter"",""1"",""13879""
","
","
","""event"",""trial"",""time""
""fullscreenenter"",""1"",""13879""
","
","","","602.0999999046326","","","17","15331","5998","c","elianto","#3366ff99"," "," ","1","+10","[1454.5999999046326]","1","2","","","15331","78","4","1","win","go","0"
"pit-trial","206","1416474","0.0-83.0","battery-v0.2","","""event"",""trial"",""time""
""fullscreenenter"",""1"",""13879""
","
","
","""event"",""trial"",""time""
""fullscreenenter"",""1"",""13879""
","
","","","-1","","","17","15331","5998","b","elianto","#f73b6a7A","-1","-1","1","0","[]","0","2","","","15331","79","3","4","lose","no-go","0"
"pit-trial","207","1419902","0.0-84.0","battery-v0.2","","""event"",""trial"",""time""
""fullscreenenter"",""1"",""13879""
","
","
","""event"",""trial"",""time""
""fullscreenenter"",""1"",""13879""
","
","","","570.5","","","17","15331","5998","c","elianto","#3366ff99"," "," ","1","+10","[1422.3999998569489]","1","2","","","15331","80","4","1","win","go","0"
"pit-trial","208","1423174","0.0-85.0","battery-v0.2","","""event"",""trial"",""time""
""fullscreenenter"",""1"",""13879""
","
","
","""event"",""trial"",""time""
""fullscreenenter"",""1"",""13879""
","
","","","417.59999990463257","","","17","15331","5998","c","elianto","#3366ff99"," "," ","1","0","[1267.7000000476837]","1","2","","","15331","81","4","1","win","go","1"
"pit-trial","209","1428041","0.0-86.0","battery-v0.2","","""event"",""trial"",""time""
""fullscreenenter"",""1"",""13879""
","
","
","""event"",""trial"",""time""
""fullscreenenter"",""1"",""13879""
","
","","","-1","","","17","15331","5998","b","elianto","#f73b6a7A","-1","-1","1","0","[]","0","2","","","15331","82","3","4","lose","no-go","0"
"pit-trial","210","1431390","0.0-87.0","battery-v0.2","","""event"",""trial"",""time""
""fullscreenenter"",""1"",""13879""
","
","
","""event"",""trial"",""time""
""fullscreenenter"",""1"",""13879""
","
","","","492.59999990463257","","","17","15331","5998","z","elianto","#3366ff99","-1"," ","0","0","[1344.2999999523163]","1","2","","","15331","83","5","2","win","no-go","0"
"pit-trial","211","1436245","0.0-88.0","battery-v0.2","","""event"",""trial"",""time""
""fullscreenenter"",""1"",""13879""
","
","
","""event"",""trial"",""time""
""fullscreenenter"",""1"",""13879""
","
","","","-1","","","17","15331","5998","y","elianto","#f73b6a7A","-1","-1","1","0","[]","0","2","","","15331","84","7","4","lose","no-go","0"
"pit-trial","212","1441101","0.0-89.0","battery-v0.2","","""event"",""trial"",""time""
""fullscreenenter"",""1"",""13879""
","
","
","""event"",""trial"",""time""
""fullscreenenter"",""1"",""13879""
","
","","","-1","","","17","15331","5998","y","elianto","#f73b6a7A","-1","-1","1","0","[]","0","2","","","15331","85","7","4","lose","no-go","0"
"pit-trial","213","1444428","0.0-90.0","battery-v0.2","","""event"",""trial"",""time""
""fullscreenenter"",""1"",""13879""
","
","
","""event"",""trial"",""time""
""fullscreenenter"",""1"",""13879""
","
","","","469.7999999523163","","","17","15331","5998","c","elianto","#3366ff99"," "," ","1","+10","[1323.0999999046326]","1","2","","","15331","86","4","1","win","go","0"
"pit-trial","214","1449285","0.0-91.0","battery-v0.2","","""event"",""trial"",""time""
""fullscreenenter"",""1"",""13879""
","
","
","""event"",""trial"",""time""
""fullscreenenter"",""1"",""13879""
","
","","","-1","","","17","15331","5998","h","elianto","#f73b6a7A"," ","-1","0","-10","[]","0","2","","","15331","87","6","3","lose","go","0"
"pit-trial","215","1452657","0.0-92.0","battery-v0.2","","""event"",""trial"",""time""
""fullscreenenter"",""1"",""13879""
","
","
","""event"",""trial"",""time""
""fullscreenenter"",""1"",""13879""
","
","","","514.4000000953674","","","17","15331","5998","z","elianto","#3366ff99","-1"," ","0","0","[1366.7999999523163]","1","2","","","15331","88","5","2","win","no-go","0"
"pit-trial","216","1457512","0.0-93.0","battery-v0.2","","""event"",""trial"",""time""
""fullscreenenter"",""1"",""13879""
","
","
","""event"",""trial"",""time""
""fullscreenenter"",""1"",""13879""
","
","","","-1","","","17","15331","5998","h","elianto","#f73b6a7A"," ","-1","0","-10","[]","0","2","","","15331","89","6","3","lose","go","0"
"pit-trial","217","1460811","0.0-94.0","battery-v0.2","","""event"",""trial"",""time""
""fullscreenenter"",""1"",""13879""
","
","
","""event"",""trial"",""time""
""fullscreenenter"",""1"",""13879""
","
","","","440.2999999523163","","","17","15331","5998","c","elianto","#3366ff99"," "," ","1","0","[1293.1000001430511]","1","2","","","15331","90","4","1","win","go","1"
"pit-trial","218","1464157","0.0-95.0","battery-v0.2","","""event"",""trial"",""time""
""fullscreenenter"",""1"",""13879""
","
","
","""event"",""trial"",""time""
""fullscreenenter"",""1"",""13879""
","
","","","489.5","","","17","15331","5998","z","elianto","#3366ff99","-1"," ","0","0","[1340.9000000953674]","1","2","","","15331","91","5","2","win","no-go","0"
"pit-trial","219","1469013","0.0-96.0","battery-v0.2","","""event"",""trial"",""time""
""fullscreenenter"",""1"",""13879""
","
","
","""event"",""trial"",""time""
""fullscreenenter"",""1"",""13879""
","
","","","-1","","","17","15331","5998","y","elianto","#f73b6a7A","-1","-1","1","0","[]","0","2","","","15331","92","7","4","lose","no-go","0"
"pit-trial","220","1473867","0.0-97.0","battery-v0.2","","""event"",""trial"",""time""
""fullscreenenter"",""1"",""13879""
","
","
","""event"",""trial"",""time""
""fullscreenenter"",""1"",""13879""
","
","","","-1","","","17","15331","5998","y","elianto","#f73b6a7A","-1","-1","1","0","[]","0","2","","","15331","93","7","4","lose","no-go","0"
"pit-trial","221","1478720","0.0-98.0","battery-v0.2","","""event"",""trial"",""time""
""fullscreenenter"",""1"",""13879""
","
","
","""event"",""trial"",""time""
""fullscreenenter"",""1"",""13879""
","
","","","-1","","","17","15331","5998","h","elianto","#f73b6a7A"," ","-1","0","-10","[]","0","2","","","15331","94","6","3","lose","go","0"
"pit-trial","222","1482359","0.0-99.0","battery-v0.2","","""event"",""trial"",""time""
""fullscreenenter"",""1"",""13879""
","
","
","""event"",""trial"",""time""
""fullscreenenter"",""1"",""13879""
","
","","","781.5","","","17","15331","5998","r","elianto","#3366ff99"," "," ","1","+10","[1634.2000000476837]","1","2","","","15331","95","8","1","win","go","0"
"pit-trial","223","1487037","0.0-100.0","battery-v0.2","","""event"",""trial"",""time""
""fullscreenenter"",""1"",""13879""
","
","
","""event"",""trial"",""time""
""fullscreenenter"",""1"",""13879""
","
","","","1820.7000000476837","","","17","15331","5998","z","elianto","#3366ff99","-1"," ","0","0","[2674]","1","2","","","15331","96","5","2","win","no-go","0"
"pit-trial","224","1491892","0.0-101.0","battery-v0.2","","""event"",""trial"",""time""
""fullscreenenter"",""1"",""13879""
","
","
","""event"",""trial"",""time""
""fullscreenenter"",""1"",""13879""
","
","","","-1","","","17","15331","5998","y","elianto","#f73b6a7A","-1","-1","1","0","[]","0","2","","","15331","97","7","4","lose","no-go","0"
"pit-trial","225","1495348","0.0-102.0","battery-v0.2","","""event"",""trial"",""time""
""fullscreenenter"",""1"",""13879""
","
","
","""event"",""trial"",""time""
""fullscreenenter"",""1"",""13879""
","
","","","598.5999999046326","","","17","15331","5998","z","elianto","#3366ff99","-1"," ","0","0","[1452.3999998569489]","1","2","","","15331","98","5","2","win","no-go","0"
"pit-trial","226","1500207","0.0-103.0","battery-v0.2","","""event"",""trial"",""time""
""fullscreenenter"",""1"",""13879""
","
","
","""event"",""trial"",""time""
""fullscreenenter"",""1"",""13879""
","
","","","-1","","","17","15331","5998","h","elianto","#f73b6a7A"," ","-1","0","-10","[]","0","2","","","15331","99","6","3","lose","go","0"
"pit-trial","227","1503809","0.0-104.0","battery-v0.2","","""event"",""trial"",""time""
""fullscreenenter"",""1"",""13879""
","
","
","""event"",""trial"",""time""
""fullscreenenter"",""1"",""13879""
","
","","","747.1000001430511","","","17","15331","5998","r","elianto","#3366ff99"," "," ","1","+10","[1598.0999999046326]","1","2","","","15331","100","8","1","win","go","0"
"pit-trial","228","1507320","0.0-105.0","battery-v0.2","","""event"",""trial"",""time""
""fullscreenenter"",""1"",""13879""
","
","
","""event"",""trial"",""time""
""fullscreenenter"",""1"",""13879""
","
","","","654.1999998092651","","","17","15331","5998","r","elianto","#3366ff99"," "," ","1","0","[1506.5]","1","2","","","15331","101","8","1","win","go","1"
"pit-trial","229","1510659","0.0-106.0","battery-v0.2","","""event"",""trial"",""time""
""fullscreenenter"",""1"",""13879""
","
","
","""event"",""trial"",""time""
""fullscreenenter"",""1"",""13879""
","
","","","479.5","","","17","15331","5998","z","elianto","#3366ff99","-1"," ","0","0","[1331.2999999523163]","1","2","","","15331","102","5","2","win","no-go","0"
"pit-trial","230","1513994","0.0-107.0","battery-v0.2","","""event"",""trial"",""time""
""fullscreenenter"",""1"",""13879""
","
","
","""event"",""trial"",""time""
""fullscreenenter"",""1"",""13879""
","
","","","482.69999980926514","","","17","15331","5998","m","elianto","#3366ff99"," "," ","1","+10","[1333]","1","2","","","15331","103","9","1","win","go","0"
"pit-trial","231","1518848","0.0-108.0","battery-v0.2","","""event"",""trial"",""time""
""fullscreenenter"",""1"",""13879""
","
","
","""event"",""trial"",""time""
""fullscreenenter"",""1"",""13879""
","
","","","-1","","","17","15331","5998","y","elianto","#f73b6a7A","-1","-1","1","0","[]","0","2","","","15331","104","7","4","lose","no-go","0"
"pit-trial","232","1522276","0.0-109.0","battery-v0.2","","""event"",""trial"",""time""
""fullscreenenter"",""1"",""13879""
","
","
","""event"",""trial"",""time""
""fullscreenenter"",""1"",""13879""
","
","","","567.9000000953674","","","17","15331","5998","m","elianto","#3366ff99"," "," ","1","+10","[1420.3000001907349]","1","2","","","15331","105","9","1","win","go","0"
"pit-trial","233","1527131","0.0-110.0","battery-v0.2","","""event"",""trial"",""time""
""fullscreenenter"",""1"",""13879""
","
","
","""event"",""trial"",""time""
""fullscreenenter"",""1"",""13879""
","
","","","-1","","","17","15331","5998","h","elianto","#f73b6a7A"," ","-1","0","-10","[]","0","2","","","15331","106","6","3","lose","go","0"
"pit-trial","234","1530662","0.0-111.0","battery-v0.2","","""event"",""trial"",""time""
""fullscreenenter"",""1"",""13879""
","
","
","""event"",""trial"",""time""
""fullscreenenter"",""1"",""13879""
","
","","","673.7999999523163","","","17","15331","5998","r","elianto","#3366ff99"," "," ","1","0","[1526.7000000476837]","1","2","","","15331","107","8","1","win","go","1"
"pit-trial","235","1534359","0.0-112.0","battery-v0.2","","""event"",""trial"",""time""
""fullscreenenter"",""1"",""13879""
","
","
","""event"",""trial"",""time""
""fullscreenenter"",""1"",""13879""
","
","","","839.7999999523163","","","17","15331","5998","c","elianto","#3366ff99"," "," ","1","0","[1691.9000000953674]","1","2","","","15331","108","4","1","win","go","1"
"pit-trial","236","1537773","0.0-113.0","battery-v0.2","","""event"",""trial"",""time""
""fullscreenenter"",""1"",""13879""
","
","
","""event"",""trial"",""time""
""fullscreenenter"",""1"",""13879""
","
","","","557.1000001430511","","","17","15331","5998","z","elianto","#3366ff99","-1"," ","0","+10","[1409.3999998569489]","1","2","","","15331","109","5","2","win","no-go","1"
"pit-trial","237","1541088","0.0-114.0","battery-v0.2","","""event"",""trial"",""time""
""fullscreenenter"",""1"",""13879""
","
","
","""event"",""trial"",""time""
""fullscreenenter"",""1"",""13879""
","
","","","457.69999980926514","","","17","15331","5998","r","elianto","#3366ff99"," "," ","1","0","[1310.2999999523163]","1","2","","","15331","110","8","1","win","go","1"
"pit-trial","238","1545947","0.0-115.0","battery-v0.2","","""event"",""trial"",""time""
""fullscreenenter"",""1"",""13879""
","
","
","""event"",""trial"",""time""
""fullscreenenter"",""1"",""13879""
","
","","","-1","","","17","15331","5998","h","elianto","#f73b6a7A"," ","-1","0","0","[]","0","2","","","15331","111","6","3","lose","go","1"
"pit-trial","239","1549333","0.0-116.0","battery-v0.2","","""event"",""trial"",""time""
""fullscreenenter"",""1"",""13879""
","
","
","""event"",""trial"",""time""
""fullscreenenter"",""1"",""13879""
","
","","","530.8000001907349","","","17","15331","5998","m","elianto","#3366ff99"," "," ","1","0","[1382.3999998569489]","1","2","","","15331","112","9","1","win","go","1"
"pit-trial","240","1552683","0.0-117.0","battery-v0.2","","""event"",""trial"",""time""
""fullscreenenter"",""1"",""13879""
","
","
","""event"",""trial"",""time""
""fullscreenenter"",""1"",""13879""
","
","","","494","","","17","15331","5998","z","elianto","#3366ff99","-1"," ","0","0","[1345.5]","1","2","","","15331","113","5","2","win","no-go","0"
"pit-trial","241","1556085","0.0-118.0","battery-v0.2","","""event"",""trial"",""time""
""fullscreenenter"",""1"",""13879""
","
","
","""event"",""trial"",""time""
""fullscreenenter"",""1"",""13879""
","
","","","548.4000000953674","","","17","15331","5998","r","elianto","#3366ff99"," "," ","1","0","[1398.7000000476837]","1","2","","","15331","114","8","1","win","go","1"
"pit-trial","242","1559616","0.0-119.0","battery-v0.2","","""event"",""trial"",""time""
""fullscreenenter"",""1"",""13879""
","
","
","""event"",""trial"",""time""
""fullscreenenter"",""1"",""13879""
","
","","","675.7999999523163","","","17","15331","5998","m","elianto","#3366ff99"," "," ","1","0","[1526.7999999523163]","1","2","","","15331","115","9","1","win","go","1"
"pit-trial","243","1564472","0.0-120.0","battery-v0.2","","""event"",""trial"",""time""
""fullscreenenter"",""1"",""13879""
","
","
","""event"",""trial"",""time""
""fullscreenenter"",""1"",""13879""
","
","","","-1","","","17","15331","5998","h","elianto","#f73b6a7A"," ","-1","0","-10","[]","0","2","","","15331","116","6","3","lose","go","0"
"pit-trial","244","1569327","0.0-121.0","battery-v0.2","","""event"",""trial"",""time""
""fullscreenenter"",""1"",""13879""
","
","
","""event"",""trial"",""time""
""fullscreenenter"",""1"",""13879""
","
","","","-1","","","17","15331","5998","h","elianto","#f73b6a7A"," ","-1","0","-10","[]","0","2","","","15331","117","6","3","lose","go","0"
"pit-trial","245","1572708","0.0-122.0","battery-v0.2","","""event"",""trial"",""time""
""fullscreenenter"",""1"",""13879""
","
","
","""event"",""trial"",""time""
""fullscreenenter"",""1"",""13879""
","
","","","524.0999999046326","","","17","15331","5998","m","elianto","#3366ff99"," "," ","1","+10","[1376.2000000476837]","1","2","","","15331","118","9","1","win","go","0"
"pit-trial","246","1576493","0.0-123.0","battery-v0.2","","""event"",""trial"",""time""
""fullscreenenter"",""1"",""13879""
","
","
","""event"",""trial"",""time""
""fullscreenenter"",""1"",""13879""
","
","","","925.7999999523163","","","17","15331","5998","r","elianto","#3366ff99"," "," ","1","+10","[1780]","1","2","","","15331","119","8","1","win","go","0"
"pit-trial","247","1579797","0.0-124.0","battery-v0.2","","""event"",""trial"",""time""
""fullscreenenter"",""1"",""13879""
","
","
","""event"",""trial"",""time""
""fullscreenenter"",""1"",""13879""
","
","","","447.30000019073486","","","17","15331","5998","z","elianto","#3366ff99","-1"," ","0","0","[1299.2999999523163]","1","2","","","15331","120","5","2","win","no-go","0"
"pit-trial","248","1584656","0.0-125.0","battery-v0.2","","""event"",""trial"",""time""
""fullscreenenter"",""1"",""13879""
","
","
","""event"",""trial"",""time""
""fullscreenenter"",""1"",""13879""
","
","","","-1","","","17","15331","5998","y","elianto","#f73b6a7A","-1","-1","1","0","[]","0","2","","","15331","121","7","4","lose","no-go","0"
"pit-trial","249","1588062","0.0-126.0","battery-v0.2","","""event"",""trial"",""time""
""fullscreenenter"",""1"",""13879""
","
","
","""event"",""trial"",""time""
""fullscreenenter"",""1"",""13879""
","
","","","551.5999999046326","","","17","15331","5998","r","elianto","#3366ff99"," "," ","1","+10","[1403.1000001430511]","1","2","","","15331","122","8","1","win","go","0"
"pit-trial","250","1592920","0.0-127.0","battery-v0.2","","""event"",""trial"",""time""
""fullscreenenter"",""1"",""13879""
","
","
","""event"",""trial"",""time""
""fullscreenenter"",""1"",""13879""
","
","","","-1","","","17","15331","5998","h","elianto","#f73b6a7A"," ","-1","0","-10","[]","0","2","","","15331","123","6","3","lose","go","0"
"pit-trial","251","1596243","0.0-128.0","battery-v0.2","","""event"",""trial"",""time""
""fullscreenenter"",""1"",""13879""
","
","
","""event"",""trial"",""time""
""fullscreenenter"",""1"",""13879""
","
","","","467.40000009536743","","","17","15331","5998","m","elianto","#3366ff99"," "," ","1","+10","[1320.2000000476837]","1","2","","","15331","124","9","1","win","go","0"
"pit-trial","252","1599590","0.0-129.0","battery-v0.2","","""event"",""trial"",""time""
""fullscreenenter"",""1"",""13879""
","
","
","""event"",""trial"",""time""
""fullscreenenter"",""1"",""13879""
","
","","","488","","","17","15331","5998","m","elianto","#3366ff99"," "," ","1","+10","[1341.2999999523163]","1","2","","","15331","125","9","1","win","go","0"
"pit-trial","253","1603708","0.0-130.0","battery-v0.2","","""event"",""trial"",""time""
""fullscreenenter"",""1"",""13879""
","
","
","""event"",""trial"",""time""
""fullscreenenter"",""1"",""13879""
","
","","","1261.5","","","17","15331","5998","r","elianto","#3366ff99"," "," ","1","+10","[2113.2000000476837]","1","2","","","15331","126","8","1","win","go","0"
"pit-trial","254","1608562","0.0-131.0","battery-v0.2","","""event"",""trial"",""time""
""fullscreenenter"",""1"",""13879""
","
","
","""event"",""trial"",""time""
""fullscreenenter"",""1"",""13879""
","
","","","-1","","","17","15331","5998","y","elianto","#f73b6a7A","-1","-1","1","0","[]","0","2","","","15331","127","7","4","lose","no-go","0"
"pit-trial","255","1613416","0.0-132.0","battery-v0.2","","""event"",""trial"",""time""
""fullscreenenter"",""1"",""13879""
","
","
","""event"",""trial"",""time""
""fullscreenenter"",""1"",""13879""
","
","","","-1","","","17","15331","5998","h","elianto","#f73b6a7A"," ","-1","0","-10","[]","0","2","","","15331","128","6","3","lose","go","0"
"pit-trial","256","1616765","0.0-133.0","battery-v0.2","","""event"",""trial"",""time""
""fullscreenenter"",""1"",""13879""
","
","
","""event"",""trial"",""time""
""fullscreenenter"",""1"",""13879""
","
","","","493.10000014305115","","","17","15331","5998","m","elianto","#3366ff99"," "," ","1","+10","[1344.1999998092651]","1","2","","","15331","129","9","1","win","go","0"
"pit-trial","257","1621621","0.0-134.0","battery-v0.2","","""event"",""trial"",""time""
""fullscreenenter"",""1"",""13879""
","
","
","""event"",""trial"",""time""
""fullscreenenter"",""1"",""13879""
","
","","","-1","","","17","15331","5998","h","elianto","#f73b6a7A"," ","-1","0","-10","[]","0","2","","","15331","130","6","3","lose","go","0"
"pit-trial","258","1625084","0.0-135.0","battery-v0.2","","""event"",""trial"",""time""
""fullscreenenter"",""1"",""13879""
","
","
","""event"",""trial"",""time""
""fullscreenenter"",""1"",""13879""
","
","","","605.7999999523163","","","17","15331","5998","r","elianto","#3366ff99"," "," ","1","+10","[1459.1999998092651]","1","2","","","15331","131","8","1","win","go","0"
"pit-trial","259","1629939","0.0-136.0","battery-v0.2","","""event"",""trial"",""time""
""fullscreenenter"",""1"",""13879""
","
","
","""event"",""trial"",""time""
""fullscreenenter"",""1"",""13879""
","
","","","-1","","","17","15331","5998","y","elianto","#f73b6a7A","-1","-1","1","-10","[]","0","2","","","15331","132","7","4","lose","no-go","1"
"pit-trial","260","1634795","0.0-137.0","battery-v0.2","","""event"",""trial"",""time""
""fullscreenenter"",""1"",""13879""
","
","
","""event"",""trial"",""time""
""fullscreenenter"",""1"",""13879""
","
","","","-1","","","17","15331","5998","y","elianto","#f73b6a7A","-1","-1","1","0","[]","0","2","","","15331","133","7","4","lose","no-go","0"
"pit-trial","261","1638217","0.0-138.0","battery-v0.2","","""event"",""trial"",""time""
""fullscreenenter"",""1"",""13879""
","
","
","""event"",""trial"",""time""
""fullscreenenter"",""1"",""13879""
","
","","","564.1000001430511","","","17","15331","5998","m","elianto","#3366ff99"," "," ","1","0","[1417.2000000476837]","1","2","","","15331","134","9","1","win","go","1"
"pit-trial","262","1643073","0.0-139.0","battery-v0.2","","""event"",""trial"",""time""
""fullscreenenter"",""1"",""13879""
","
","
","""event"",""trial"",""time""
""fullscreenenter"",""1"",""13879""
","
","","","-1","","","17","15331","5998","h","elianto","#f73b6a7A"," ","-1","0","-10","[]","0","2","","","15331","135","6","3","lose","go","0"
"pit-trial","263","1646387","0.0-140.0","battery-v0.2","","""event"",""trial"",""time""
""fullscreenenter"",""1"",""13879""
","
","
","""event"",""trial"",""time""
""fullscreenenter"",""1"",""13879""
","
","","","459.09999990463257","","","17","15331","5998","r","elianto","#3366ff99"," "," ","1","+10","[1311.2999999523163]","1","2","","","15331","136","8","1","win","go","0"
"pit-trial","264","1651242","0.0-141.0","battery-v0.2","","""event"",""trial"",""time""
""fullscreenenter"",""1"",""13879""
","
","
","""event"",""trial"",""time""
""fullscreenenter"",""1"",""13879""
","
","","","-1","","","17","15331","5998","m","elianto","#3366ff99"," ","-1","0","0","[]","0","2","","","15331","137","9","1","win","go","0"
"pit-trial","265","1656099","0.0-142.0","battery-v0.2","","""event"",""trial"",""time""
""fullscreenenter"",""1"",""13879""
","
","
","""event"",""trial"",""time""
""fullscreenenter"",""1"",""13879""
","
","","","-1","","","17","15331","5998","h","elianto","#f73b6a7A"," ","-1","0","-10","[]","0","2","","","15331","138","6","3","lose","go","0"
"pit-trial","266","1660955","0.0-143.0","battery-v0.2","","""event"",""trial"",""time""
""fullscreenenter"",""1"",""13879""
","
","
