"trial_type","trial_index","time_elapsed","internal_node_id","task_version","subject_id","interactions","blur_events","focus_events","fullscreenenter_events","fullscreenexit_events","success","view_history","rt","responses","num_errors","age","subject","participantId","rune","rune_set","hex","correct","choice","accuracy","outcome","keys","total_keys","block","practice","value","sub","trial","stimulus","robot","valence","action","sham"
"pavlovia","0","6","0.0-0.0","battery-v0.2","","""event"",""trial"",""time""
""fullscreenenter"",""1"",""1454""
","
","
","""event"",""trial"",""time""
""fullscreenenter"",""1"",""1454""
","
","","","","","","","","","","","","","","","","","","","","","","","","","","",""
"fullscreen","1","2451","0.0-1.0","battery-v0.2","","""event"",""trial"",""time""
""fullscreenenter"",""1"",""1454""
","
","
","""event"",""trial"",""time""
""fullscreenenter"",""1"",""1454""
","
","true","","","","","","","","","","","","","","","","","","","","","","","","","",""
"pit-instructions","2","6152","0.0-2.0-0.0","battery-v0.2","","""event"",""trial"",""time""
""fullscreenenter"",""1"",""1454""
","
","
","""event"",""trial"",""time""
""fullscreenenter"",""1"",""1454""
","
","","[{""page_index"":0,""viewing_time"":3695.2000000476837}]","3695.7000000476837","","","","","","","","","","","","","","","","","","","","","","","",""
"pit-comprehension","3","10954","0.0-2.0-1.0-0.0","battery-v0.2","","""event"",""trial"",""time""
""fullscreenenter"",""1"",""1454""
","
","
","""event"",""trial"",""time""
""fullscreenenter"",""1"",""1454""
","
","","","4796.800000190735","[""shark""]","0","11","21019","6852","","","","","","","","","","","","","","","","","","",""
"pit-instructions","4","14993","0.0-2.0-1.0-1.0","battery-v0.2","","""event"",""trial"",""time""
""fullscreenenter"",""1"",""1454""
","
","
","""event"",""trial"",""time""
""fullscreenenter"",""1"",""1454""
","
","","[{""page_index"":0,""viewing_time"":4030.100000143051}]","4030.5","","","","","","","","","","","","","","","","","","","","","","","",""
"pit-comprehension","5","27363","0.0-2.0-2.0-0.0","battery-v0.2","","""event"",""trial"",""time""
""fullscreenenter"",""1"",""1454""
","
","
","""event"",""trial"",""time""
""fullscreenenter"",""1"",""1454""
","
","","","12365.300000190735","[""tiger""]","0","11","21019","6852","","","","","","","","","","","","","","","","","","",""
"pit-instructions","6","28626","0.0-2.0-2.0-1.0","battery-v0.2","","""event"",""trial"",""time""
""fullscreenenter"",""1"",""1454""
","
","
","""event"",""trial"",""time""
""fullscreenenter"",""1"",""1454""
","
","","[{""page_index"":0,""viewing_time"":1258.8000001907349}]","1259.2000000476837","","","","","","","","","","","","","","","","","","","","","","","",""
"pit-instructions","7","129281","0.0-2.0-3.0","battery-v0.2","","""event"",""trial"",""time""
""fullscreenenter"",""1"",""1454""
","
","
","""event"",""trial"",""time""
""fullscreenenter"",""1"",""1454""
","
","","[{""page_index"":0,""viewing_time"":10147.399999856949},{""page_index"":1,""viewing_time"":6449},{""page_index"":2,""viewing_time"":6282.600000143051},{""page_index"":3,""viewing_time"":6684.099999904633},{""page_index"":4,""viewing_time"":6315.299999952316},{""page_index"":5,""viewing_time"":6548.600000143051},{""page_index"":6,""viewing_time"":6899},{""page_index"":7,""viewing_time"":7781.799999952316},{""page_index"":8,""viewing_time"":6984.299999952316},{""page_index"":9,""viewing_time"":8879.799999952316},{""page_index"":10,""viewing_time"":8284},{""page_index"":11,""viewing_time"":6997.400000095367},{""page_index"":12,""viewing_time"":7216.5},{""page_index"":13,""viewing_time"":5181.900000095367}]","100652.20000004768","","","","","","","","","","","","","","","","","","","","","","","",""
"pit-trial","8","132502","0.0-2.0-4.0-0.0","battery-v0.2","","""event"",""trial"",""time""
""fullscreenenter"",""1"",""1454""
","
","
","""event"",""trial"",""time""
""fullscreenenter"",""1"",""1454""
","
","","","357.90000009536743","","","11","21019","6852","&#9784;","elianto","#FFFFF080"," "," ","1","&#10004","[1213.5999999046326]","1","0","0","","","","","","","",""
"pit-trial","9","136005","0.0-2.0-4.1-0.1","battery-v0.2","","""event"",""trial"",""time""
""fullscreenenter"",""1"",""1454""
","
","
","""event"",""trial"",""time""
""fullscreenenter"",""1"",""1454""
","
","","","636.9000000953674","","","11","21019","6852","&#9784;","elianto","#FFFFF080"," "," ","1","&#10004","[1489.7000000476837]","1","0","0","","","","","","","",""
"pit-trial","10","139388","0.0-2.0-4.2-0.2","battery-v0.2","","""event"",""trial"",""time""
""fullscreenenter"",""1"",""1454""
","
","
","""event"",""trial"",""time""
""fullscreenenter"",""1"",""1454""
","
","","","519.6000001430511","","","11","21019","6852","&#9784;","elianto","#FFFFF080"," "," ","1","&#10004","[1370.1000001430511]","1","0","0","","","","","","","",""
"pit-trial","11","142852","0.0-2.0-4.3-0.3","battery-v0.2","","""event"",""trial"",""time""
""fullscreenenter"",""1"",""1454""
","
","
","""event"",""trial"",""time""
""fullscreenenter"",""1"",""1454""
","
","","","592.5999999046326","","","11","21019","6852","&#9784;","elianto","#FFFFF080"," "," ","1","&#10004","[1456.5999999046326]","1","0","0","","","","","","","",""
"pit-trial","12","146480","0.0-2.0-4.4-0.4","battery-v0.2","","""event"",""trial"",""time""
""fullscreenenter"",""1"",""1454""
","
","
","""event"",""trial"",""time""
""fullscreenenter"",""1"",""1454""
","
","","","757.2000000476837","","","11","21019","6852","&#9784;","elianto","#FFFFF080"," "," ","1","&#10004","[1609.7999999523163]","1","0","0","","","","","","","",""
"pit-instructions","13","170393","0.0-2.0-5.0","battery-v0.2","","""event"",""trial"",""time""
""fullscreenenter"",""1"",""1454""
","
","
","""event"",""trial"",""time""
""fullscreenenter"",""1"",""1454""
","
","","[{""page_index"":0,""viewing_time"":4980},{""page_index"":1,""viewing_time"":5664.799999952316},{""page_index"":2,""viewing_time"":7449.599999904633},{""page_index"":3,""viewing_time"":5815.700000047684}]","23910.39999985695","","","","","","","","","","","","","","","","","","","","","","","",""
"pit-trial","14","175266","0.0-2.0-6.0-0.0","battery-v0.2","","""event"",""trial"",""time""
""fullscreenenter"",""1"",""1454""
","
","
","""event"",""trial"",""time""
""fullscreenenter"",""1"",""1454""
","
","","","-1","","","11","21019","6852","&#9854;","elianto","#FFFFF080","-1","-1","1","&#10004","[]","0","0","1","","","","","","","",""
"pit-trial","15","180147","0.0-2.0-6.1-0.1","battery-v0.2","","""event"",""trial"",""time""
""fullscreenenter"",""1"",""1454""
","
","
","""event"",""trial"",""time""
""fullscreenenter"",""1"",""1454""
","
","","","-1","","","11","21019","6852","&#9854;","elianto","#FFFFF080","-1","-1","1","&#10004","[]","0","0","1","","","","","","","",""
"pit-trial","16","185012","0.0-2.0-6.2-0.2","battery-v0.2","","""event"",""trial"",""time""
""fullscreenenter"",""1"",""1454""
","
","
","""event"",""trial"",""time""
""fullscreenenter"",""1"",""1454""
","
","","","-1","","","11","21019","6852","&#9854;","elianto","#FFFFF080","-1","-1","1","&#10004","[]","0","0","1","","","","","","","",""
"pit-trial","17","189884","0.0-2.0-6.3-0.3","battery-v0.2","","""event"",""trial"",""time""
""fullscreenenter"",""1"",""1454""
","
","
","""event"",""trial"",""time""
""fullscreenenter"",""1"",""1454""
","
","","","-1","","","11","21019","6852","&#9854;","elianto","#FFFFF080","-1","-1","1","&#10004","[]","0","0","1","","","","","","","",""
"pit-trial","18","194763","0.0-2.0-6.4-0.4","battery-v0.2","","""event"",""trial"",""time""
""fullscreenenter"",""1"",""1454""
","
","
","""event"",""trial"",""time""
""fullscreenenter"",""1"",""1454""
","
","","","-1","","","11","21019","6852","&#9854;","elianto","#FFFFF080","-1","-1","1","&#10004","[]","0","0","1","","","","","","","",""
"pit-instructions","19","327123","0.0-2.0-7.0","battery-v0.2","","""event"",""trial"",""time""
""fullscreenenter"",""1"",""1454""
","
","
","""event"",""trial"",""time""
""fullscreenenter"",""1"",""1454""
","
","","[{""page_index"":0,""viewing_time"":6473.200000047684},{""page_index"":1,""viewing_time"":7918.5},{""page_index"":2,""viewing_time"":7144.700000047684},{""page_index"":3,""viewing_time"":6966.099999904633},{""page_index"":4,""viewing_time"":6216.600000143051},{""page_index"":5,""viewing_time"":5133},{""page_index"":6,""viewing_time"":4915.199999809265},{""page_index"":7,""viewing_time"":9699.300000190735},{""page_index"":8,""viewing_time"":9330.299999952316},{""page_index"":9,""viewing_time"":5968.299999952316},{""page_index"":10,""viewing_time"":6314.700000047684},{""page_index"":11,""viewing_time"":4567},{""page_index"":12,""viewing_time"":8281.799999952316},{""page_index"":13,""viewing_time"":8866.299999952316},{""page_index"":14,""viewing_time"":8015.400000095367},{""page_index"":15,""viewing_time"":7365.599999904633},{""page_index"":16,""viewing_time"":11029.299999952316},{""page_index"":17,""viewing_time"":8151.300000190735}]","132357.10000014305","","","","","","","","","","","","","","","","","","","","","","","",""
"pit-trial","20","330629","0.0-2.0-8.0-0.0","battery-v0.2","","""event"",""trial"",""time""
""fullscreenenter"",""1"",""1454""
","
","
","""event"",""trial"",""time""
""fullscreenenter"",""1"",""1454""
","
","","","639.1999998092651","","","11","21019","6852","&#9776;","elianto","#3366ff99"," "," ","1","+10","[1495.5]","1","0","1","","","","","","","",""
"pit-trial","21","333630","0.0-2.0-8.0-1.0","battery-v0.2","","""event"",""trial"",""time""
""fullscreenenter"",""1"",""1454""
","
","
","""event"",""trial"",""time""
""fullscreenenter"",""1"",""1454""
","
","","","136","","","11","21019","6852","&#9776;","elianto","#3366ff99"," "," ","1","+10","[988.0999999046326]","1","0","1","","","","","","","",""
"pit-trial","22","336828","0.0-2.0-8.0-2.0","battery-v0.2","","""event"",""trial"",""time""
""fullscreenenter"",""1"",""1454""
","
","
","""event"",""trial"",""time""
""fullscreenenter"",""1"",""1454""
","
","","","334.40000009536743","","","11","21019","6852","&#9776;","elianto","#3366ff99"," "," ","1","+10","[1184.5999999046326]","1","0","1","","","","","","","",""
"pit-trial","23","340479","0.0-2.0-8.0-3.0","battery-v0.2","","""event"",""trial"",""time""
""fullscreenenter"",""1"",""1454""
","
","
","""event"",""trial"",""time""
""fullscreenenter"",""1"",""1454""
","
","","","783.4000000953674","","","11","21019","6852","&#9776;","elianto","#3366ff99"," "," ","1","0","[1633.7000000476837]","1","0","1","","","","","","","",""
"pit-trial","24","343776","0.0-2.0-8.0-4.0","battery-v0.2","","""event"",""trial"",""time""
""fullscreenenter"",""1"",""1454""
","
","
","""event"",""trial"",""time""
""fullscreenenter"",""1"",""1454""
","
","","","437.2000000476837","","","11","21019","6852","&#9776;","elianto","#3366ff99"," "," ","1","+10","[1287.5]","1","0","1","","","","","","","",""
"pit-trial","25","347076","0.0-2.0-8.1-0.1","battery-v0.2","","""event"",""trial"",""time""
""fullscreenenter"",""1"",""1454""
","
","
","""event"",""trial"",""time""
""fullscreenenter"",""1"",""1454""
","
","","","429.59999990463257","","","11","21019","6852","&#9776;","elianto","#3366ff99"," "," ","1","+10","[1281.3999998569489]","1","0","1","","","","","","","",""
"pit-trial","26","350423","0.0-2.0-8.1-1.1","battery-v0.2","","""event"",""trial"",""time""
""fullscreenenter"",""1"",""1454""
","
","
","""event"",""trial"",""time""
""fullscreenenter"",""1"",""1454""
","
","","","478.10000014305115","","","11","21019","6852","&#9776;","elianto","#3366ff99"," "," ","1","+10","[1330]","1","0","1","","","","","","","",""
"pit-trial","27","353593","0.0-2.0-8.1-2.1","battery-v0.2","","""event"",""trial"",""time""
""fullscreenenter"",""1"",""1454""
","
","
","""event"",""trial"",""time""
""fullscreenenter"",""1"",""1454""
","
","","","309.10000014305115","","","11","21019","6852","&#9776;","elianto","#3366ff99"," "," ","1","+10","[1160.8000001907349]","1","0","1","","","","","","","",""
"pit-trial","28","356958","0.0-2.0-8.1-3.1","battery-v0.2","","""event"",""trial"",""time""
""fullscreenenter"",""1"",""1454""
","
","
","""event"",""trial"",""time""
""fullscreenenter"",""1"",""1454""
","
","","","512.7000000476837","","","11","21019","6852","&#9776;","elianto","#3366ff99"," "," ","1","0","[1363]","1","0","1","","","","","","","",""
"pit-trial","29","360188","0.0-2.0-8.1-4.1","battery-v0.2","","""event"",""trial"",""time""
""fullscreenenter"",""1"",""1454""
","
","
","""event"",""trial"",""time""
""fullscreenenter"",""1"",""1454""
","
","","","376.40000009536743","","","11","21019","6852","&#9776;","elianto","#3366ff99"," "," ","1","+10","[1227.3000001907349]","1","0","1","","","","","","","",""
"pit-trial","30","363981","0.0-2.0-8.2-0.2","battery-v0.2","","""event"",""trial"",""time""
""fullscreenenter"",""1"",""1454""
","
","
","""event"",""trial"",""time""
""fullscreenenter"",""1"",""1454""
","
","","","939.5999999046326","","","11","21019","6852","&#9776;","elianto","#3366ff99"," "," ","1","+10","[1790.2000000476837]","1","0","1","","","","","","","",""
"pit-trial","31","367683","0.0-2.0-8.2-1.2","battery-v0.2","","""event"",""trial"",""time""
""fullscreenenter"",""1"",""1454""
","
","
","""event"",""trial"",""time""
""fullscreenenter"",""1"",""1454""
","
","","","850.1999998092651","","","11","21019","6852","&#9776;","elianto","#3366ff99"," "," ","1","+10","[1700.4000000953674]","1","0","1","","","","","","","",""
"pit-trial","32","371366","0.0-2.0-8.2-2.2","battery-v0.2","","""event"",""trial"",""time""
""fullscreenenter"",""1"",""1454""
","
","
","""event"",""trial"",""time""
""fullscreenenter"",""1"",""1454""
","
","","","830.2000000476837","","","11","21019","6852","&#9776;","elianto","#3366ff99"," "," ","1","+10","[1680.7999999523163]","1","0","1","","","","","","","",""
"pit-trial","33","374623","0.0-2.0-8.2-3.2","battery-v0.2","","""event"",""trial"",""time""
""fullscreenenter"",""1"",""1454""
","
","
","""event"",""trial"",""time""
""fullscreenenter"",""1"",""1454""
","
","","","403.7999999523163","","","11","21019","6852","&#9776;","elianto","#3366ff99"," "," ","1","0","[395.30000019073486,1254.3000001907349]","2","0","1","","","","","","","",""
"pit-trial","34","378077","0.0-2.0-8.2-4.2","battery-v0.2","","""event"",""trial"",""time""
""fullscreenenter"",""1"",""1454""
","
","
","""event"",""trial"",""time""
""fullscreenenter"",""1"",""1454""
","
","","","600.3000001907349","","","11","21019","6852","&#9776;","elianto","#3366ff99"," "," ","1","+10","[1451.2999999523163]","1","0","1","","","","","","","",""
"call-function","35","378079","0.0-2.0-9.0","battery-v0.2","","""event"",""trial"",""time""
""fullscreenenter"",""1"",""1454""
","
","
","""event"",""trial"",""time""
""fullscreenenter"",""1"",""1454""
","
","","","","","","","","","","","","","","","","","","","","","","","","","","",""
"pit-instructions","36","426310","0.0-2.0-10.0","battery-v0.2","","""event"",""trial"",""time""
""fullscreenenter"",""1"",""1454""
","
","
","""event"",""trial"",""time""
""fullscreenenter"",""1"",""1454""
","
","","[{""page_index"":0,""viewing_time"":5785.299999952316},{""page_index"":1,""viewing_time"":8447.700000047684},{""page_index"":2,""viewing_time"":11065.799999952316},{""page_index"":3,""viewing_time"":11698.600000143051},{""page_index"":4,""viewing_time"":11232.599999904633}]","48230.5","","","","","","","","","","","","","","","","","","","","","","","",""
"pit-trial","37","429512","0.0-2.0-11.0-0.0","battery-v0.2","","""event"",""trial"",""time""
""fullscreenenter"",""1"",""1454""
","
","
","""event"",""trial"",""time""
""fullscreenenter"",""1"",""1454""
","
","","","336.2000000476837","","","11","21019","6852","&#9761;","elianto","#3366ff99","-1"," ","0","0","[1191.2000000476837]","1","0","2","","","","","","","",""
"pit-trial","38","432465","0.0-2.0-11.0-1.0","battery-v0.2","","""event"",""trial"",""time""
""fullscreenenter"",""1"",""1454""
","
","
","""event"",""trial"",""time""
""fullscreenenter"",""1"",""1454""
","
","","","83.60000014305115","","","11","21019","6852","&#9761;","elianto","#3366ff99","-1"," ","0","0","[936.0999999046326]","1","0","2","","","","","","","",""
"pit-trial","39","437343","0.0-2.0-11.0-2.0","battery-v0.2","","""event"",""trial"",""time""
""fullscreenenter"",""1"",""1454""
","
","
","""event"",""trial"",""time""
""fullscreenenter"",""1"",""1454""
","
","","","-1","","","11","21019","6852","&#9761;","elianto","#3366ff99","-1","-1","1","+10","[]","0","0","2","","","","","","","",""
"pit-trial","40","442211","0.0-2.0-11.0-3.0","battery-v0.2","","""event"",""trial"",""time""
""fullscreenenter"",""1"",""1454""
","
","
","""event"",""trial"",""time""
""fullscreenenter"",""1"",""1454""
","
","","","-1","","","11","21019","6852","&#9761;","elianto","#3366ff99","-1","-1","1","0","[]","0","0","2","","","","","","","",""
"pit-trial","41","447081","0.0-2.0-11.0-4.0","battery-v0.2","","""event"",""trial"",""time""
""fullscreenenter"",""1"",""1454""
","
","
","""event"",""trial"",""time""
""fullscreenenter"",""1"",""1454""
","
","","","-1","","","11","21019","6852","&#9761;","elianto","#3366ff99","-1","-1","1","+10","[]","0","0","2","","","","","","","",""
"pit-trial","42","451946","0.0-2.0-11.1-0.1","battery-v0.2","","""event"",""trial"",""time""
""fullscreenenter"",""1"",""1454""
","
","
","""event"",""trial"",""time""
""fullscreenenter"",""1"",""1454""
","
","","","-1","","","11","21019","6852","&#9761;","elianto","#3366ff99","-1","-1","1","+10","[]","0","0","2","","","","","","","",""
"pit-trial","43","456799","0.0-2.0-11.1-1.1","battery-v0.2","","""event"",""trial"",""time""
""fullscreenenter"",""1"",""1454""
","
","
","""event"",""trial"",""time""
""fullscreenenter"",""1"",""1454""
","
","","","-1","","","11","21019","6852","&#9761;","elianto","#3366ff99","-1","-1","1","+10","[]","0","0","2","","","","","","","",""
"pit-trial","44","461652","0.0-2.0-11.1-2.1","battery-v0.2","","""event"",""trial"",""time""
""fullscreenenter"",""1"",""1454""
","
","
","""event"",""trial"",""time""
""fullscreenenter"",""1"",""1454""
","
","","","-1","","","11","21019","6852","&#9761;","elianto","#3366ff99","-1","-1","1","+10","[]","0","0","2","","","","","","","",""
"pit-trial","45","466505","0.0-2.0-11.1-3.1","battery-v0.2","","""event"",""trial"",""time""
""fullscreenenter"",""1"",""1454""
","
","
","""event"",""trial"",""time""
""fullscreenenter"",""1"",""1454""
","
","","","-1","","","11","21019","6852","&#9761;","elianto","#3366ff99","-1","-1","1","0","[]","0","0","2","","","","","","","",""
"pit-trial","46","471359","0.0-2.0-11.1-4.1","battery-v0.2","","""event"",""trial"",""time""
""fullscreenenter"",""1"",""1454""
","
","
","""event"",""trial"",""time""
""fullscreenenter"",""1"",""1454""
","
","","","-1","","","11","21019","6852","&#9761;","elianto","#3366ff99","-1","-1","1","+10","[]","0","0","2","","","","","","","",""
"pit-trial","47","476212","0.0-2.0-11.2-0.2","battery-v0.2","","""event"",""trial"",""time""
""fullscreenenter"",""1"",""1454""
","
","
","""event"",""trial"",""time""
""fullscreenenter"",""1"",""1454""
","
","","","-1","","","11","21019","6852","&#9761;","elianto","#3366ff99","-1","-1","1","+10","[]","0","0","2","","","","","","","",""
"pit-trial","48","481065","0.0-2.0-11.2-1.2","battery-v0.2","","""event"",""trial"",""time""
""fullscreenenter"",""1"",""1454""
","
","
","""event"",""trial"",""time""
""fullscreenenter"",""1"",""1454""
","
","","","-1","","","11","21019","6852","&#9761;","elianto","#3366ff99","-1","-1","1","+10","[]","0","0","2","","","","","","","",""
"pit-trial","49","485921","0.0-2.0-11.2-2.2","battery-v0.2","","""event"",""trial"",""time""
""fullscreenenter"",""1"",""1454""
","
","
","""event"",""trial"",""time""
""fullscreenenter"",""1"",""1454""
","
","","","-1","","","11","21019","6852","&#9761;","elianto","#3366ff99","-1","-1","1","+10","[]","0","0","2","","","","","","","",""
"pit-trial","50","490773","0.0-2.0-11.2-3.2","battery-v0.2","","""event"",""trial"",""time""
""fullscreenenter"",""1"",""1454""
","
","
","""event"",""trial"",""time""
""fullscreenenter"",""1"",""1454""
","
","","","-1","","","11","21019","6852","&#9761;","elianto","#3366ff99","-1","-1","1","0","[]","0","0","2","","","","","","","",""
"pit-trial","51","495626","0.0-2.0-11.2-4.2","battery-v0.2","","""event"",""trial"",""time""
""fullscreenenter"",""1"",""1454""
","
","
","""event"",""trial"",""time""
""fullscreenenter"",""1"",""1454""
","
","","","-1","","","11","21019","6852","&#9761;","elianto","#3366ff99","-1","-1","1","+10","[]","0","0","2","","","","","","","",""
"pit-trial","52","500492","0.0-2.0-11.3-0.3","battery-v0.2","","""event"",""trial"",""time""
""fullscreenenter"",""1"",""1454""
","
","
","""event"",""trial"",""time""
""fullscreenenter"",""1"",""1454""
","
","","","-1","","","11","21019","6852","&#9761;","elianto","#3366ff99","-1","-1","1","+10","[]","0","0","2","","","","","","","",""
"pit-trial","53","505345","0.0-2.0-11.3-1.3","battery-v0.2","","""event"",""trial"",""time""
""fullscreenenter"",""1"",""1454""
","
","
","""event"",""trial"",""time""
""fullscreenenter"",""1"",""1454""
","
","","","-1","","","11","21019","6852","&#9761;","elianto","#3366ff99","-1","-1","1","+10","[]","0","0","2","","","","","","","",""
"pit-trial","54","510199","0.0-2.0-11.3-2.3","battery-v0.2","","""event"",""trial"",""time""
""fullscreenenter"",""1"",""1454""
","
","
","""event"",""trial"",""time""
""fullscreenenter"",""1"",""1454""
","
","","","-1","","","11","21019","6852","&#9761;","elianto","#3366ff99","-1","-1","1","+10","[]","0","0","2","","","","","","","",""
"pit-trial","55","515051","0.0-2.0-11.3-3.3","battery-v0.2","","""event"",""trial"",""time""
""fullscreenenter"",""1"",""1454""
","
","
","""event"",""trial"",""time""
""fullscreenenter"",""1"",""1454""
","
","","","-1","","","11","21019","6852","&#9761;","elianto","#3366ff99","-1","-1","1","0","[]","0","0","2","","","","","","","",""
"pit-trial","56","519905","0.0-2.0-11.3-4.3","battery-v0.2","","""event"",""trial"",""time""
""fullscreenenter"",""1"",""1454""
","
","
","""event"",""trial"",""time""
""fullscreenenter"",""1"",""1454""
","
","","","-1","","","11","21019","6852","&#9761;","elianto","#3366ff99","-1","-1","1","+10","[]","0","0","2","","","","","","","",""
"call-function","57","519906","0.0-2.0-12.0","battery-v0.2","","""event"",""trial"",""time""
""fullscreenenter"",""1"",""1454""
","
","
","""event"",""trial"",""time""
""fullscreenenter"",""1"",""1454""
","
","","","","","","","","","","","","","","","","","","","","","","","","","","",""
"pit-instructions","58","554743","0.0-2.0-13.0","battery-v0.2","","""event"",""trial"",""time""
""fullscreenenter"",""1"",""1454""
","
","
","""event"",""trial"",""time""
""fullscreenenter"",""1"",""1454""
","
","","[{""page_index"":0,""viewing_time"":6340.099999904633},{""page_index"":1,""viewing_time"":7481.100000143051},{""page_index"":2,""viewing_time"":4834.399999856949},{""page_index"":3,""viewing_time"":11013.900000095367},{""page_index"":4,""viewing_time"":5165.900000095367}]","34835.90000009537","","","","","","","","","","","","","","","","","","","","","","","",""
"pit-trial","59","558927","0.0-2.0-14.0-0.0","battery-v0.2","","""event"",""trial"",""time""
""fullscreenenter"",""1"",""1454""
","
","
","""event"",""trial"",""time""
""fullscreenenter"",""1"",""1454""
","
","","","1316.1999998092651","","","11","21019","6852","&#9826;","elianto","#f73b6a7A","-1"," ","0","-10","[2171.7000000476837]","1","0","3","","","","","","","",""
"pit-trial","60","563798","0.0-2.0-14.0-1.0","battery-v0.2","","""event"",""trial"",""time""
""fullscreenenter"",""1"",""1454""
","
","
","""event"",""trial"",""time""
""fullscreenenter"",""1"",""1454""
","
","","","-1","","","11","21019","6852","&#9826;","elianto","#f73b6a7A","-1","-1","1","0","[]","0","0","3","","","","","","","",""
"pit-trial","61","568664","0.0-2.0-14.0-2.0","battery-v0.2","","""event"",""trial"",""time""
""fullscreenenter"",""1"",""1454""
","
","
","""event"",""trial"",""time""
""fullscreenenter"",""1"",""1454""
","
","","","-1","","","11","21019","6852","&#9826;","elianto","#f73b6a7A","-1","-1","1","0","[]","0","0","3","","","","","","","",""
"pit-trial","62","573530","0.0-2.0-14.0-3.0","battery-v0.2","","""event"",""trial"",""time""
""fullscreenenter"",""1"",""1454""
","
","
","""event"",""trial"",""time""
""fullscreenenter"",""1"",""1454""
","
","","","-1","","","11","21019","6852","&#9826;","elianto","#f73b6a7A","-1","-1","1","-10","[]","0","0","3","","","","","","","",""
"pit-trial","63","578396","0.0-2.0-14.0-4.0","battery-v0.2","","""event"",""trial"",""time""
""fullscreenenter"",""1"",""1454""
","
","
","""event"",""trial"",""time""
""fullscreenenter"",""1"",""1454""
","
","","","-1","","","11","21019","6852","&#9826;","elianto","#f73b6a7A","-1","-1","1","0","[]","0","0","3","","","","","","","",""
"pit-trial","64","583260","0.0-2.0-14.1-0.1","battery-v0.2","","""event"",""trial"",""time""
""fullscreenenter"",""1"",""1454""
","
","
","""event"",""trial"",""time""
""fullscreenenter"",""1"",""1454""
","
","","","-1","","","11","21019","6852","&#9826;","elianto","#f73b6a7A","-1","-1","1","0","[]","0","0","3","","","","","","","",""
"pit-trial","65","588113","0.0-2.0-14.1-1.1","battery-v0.2","","""event"",""trial"",""time""
""fullscreenenter"",""1"",""1454""
","
","
","""event"",""trial"",""time""
""fullscreenenter"",""1"",""1454""
","
","","","-1","","","11","21019","6852","&#9826;","elianto","#f73b6a7A","-1","-1","1","0","[]","0","0","3","","","","","","","",""
"pit-trial","66","592966","0.0-2.0-14.1-2.1","battery-v0.2","","""event"",""trial"",""time""
""fullscreenenter"",""1"",""1454""
","
","
","""event"",""trial"",""time""
""fullscreenenter"",""1"",""1454""
","
","","","-1","","","11","21019","6852","&#9826;","elianto","#f73b6a7A","-1","-1","1","0","[]","0","0","3","","","","","","","",""
"pit-trial","67","597819","0.0-2.0-14.1-3.1","battery-v0.2","","""event"",""trial"",""time""
""fullscreenenter"",""1"",""1454""
","
","
","""event"",""trial"",""time""
""fullscreenenter"",""1"",""1454""
","
","","","-1","","","11","21019","6852","&#9826;","elianto","#f73b6a7A","-1","-1","1","-10","[]","0","0","3","","","","","","","",""
"pit-trial","68","602672","0.0-2.0-14.1-4.1","battery-v0.2","","""event"",""trial"",""time""
""fullscreenenter"",""1"",""1454""
","
","
","""event"",""trial"",""time""
""fullscreenenter"",""1"",""1454""
","
","","","-1","","","11","21019","6852","&#9826;","elianto","#f73b6a7A","-1","-1","1","0","[]","0","0","3","","","","","","","",""
"pit-trial","69","607526","0.0-2.0-14.2-0.2","battery-v0.2","","""event"",""trial"",""time""
""fullscreenenter"",""1"",""1454""
","
","
","""event"",""trial"",""time""
""fullscreenenter"",""1"",""1454""
","
","","","-1","","","11","21019","6852","&#9826;","elianto","#f73b6a7A","-1","-1","1","0","[]","0","0","3","","","","","","","",""
"pit-trial","70","612379","0.0-2.0-14.2-1.2","battery-v0.2","","""event"",""trial"",""time""
""fullscreenenter"",""1"",""1454""
","
","
","""event"",""trial"",""time""
""fullscreenenter"",""1"",""1454""
","
","","","-1","","","11","21019","6852","&#9826;","elianto","#f73b6a7A","-1","-1","1","0","[]","0","0","3","","","","","","","",""
"pit-trial","71","617239","0.0-2.0-14.2-2.2","battery-v0.2","","""event"",""trial"",""time""
""fullscreenenter"",""1"",""1454""
","
","
","""event"",""trial"",""time""
""fullscreenenter"",""1"",""1454""
","
","","","-1","","","11","21019","6852","&#9826;","elianto","#f73b6a7A","-1","-1","1","0","[]","0","0","3","","","","","","","",""
"pit-trial","72","622091","0.0-2.0-14.2-3.2","battery-v0.2","","""event"",""trial"",""time""
""fullscreenenter"",""1"",""1454""
","
","
","""event"",""trial"",""time""
""fullscreenenter"",""1"",""1454""
","
","","","-1","","","11","21019","6852","&#9826;","elianto","#f73b6a7A","-1","-1","1","-10","[]","0","0","3","","","","","","","",""
"pit-trial","73","626944","0.0-2.0-14.2-4.2","battery-v0.2","","""event"",""trial"",""time""
""fullscreenenter"",""1"",""1454""
","
","
","""event"",""trial"",""time""
""fullscreenenter"",""1"",""1454""
","
","","","-1","","","11","21019","6852","&#9826;","elianto","#f73b6a7A","-1","-1","1","0","[]","0","0","3","","","","","","","",""
"pit-trial","74","631797","0.0-2.0-14.3-0.3","battery-v0.2","","""event"",""trial"",""time""
""fullscreenenter"",""1"",""1454""
","
","
","""event"",""trial"",""time""
""fullscreenenter"",""1"",""1454""
","
","","","-1","","","11","21019","6852","&#9826;","elianto","#f73b6a7A","-1","-1","1","0","[]","0","0","3","","","","","","","",""
"pit-trial","75","636652","0.0-2.0-14.3-1.3","battery-v0.2","","""event"",""trial"",""time""
""fullscreenenter"",""1"",""1454""
","
","
","""event"",""trial"",""time""
""fullscreenenter"",""1"",""1454""
","
","","","-1","","","11","21019","6852","&#9826;","elianto","#f73b6a7A","-1","-1","1","0","[]","0","0","3","","","","","","","",""
"pit-trial","76","641505","0.0-2.0-14.3-2.3","battery-v0.2","","""event"",""trial"",""time""
""fullscreenenter"",""1"",""1454""
","
","
","""event"",""trial"",""time""
""fullscreenenter"",""1"",""1454""
","
","","","-1","","","11","21019","6852","&#9826;","elianto","#f73b6a7A","-1","-1","1","0","[]","0","0","3","","","","","","","",""
"pit-trial","77","646358","0.0-2.0-14.3-3.3","battery-v0.2","","""event"",""trial"",""time""
""fullscreenenter"",""1"",""1454""
","
","
","""event"",""trial"",""time""
""fullscreenenter"",""1"",""1454""
","
","","","-1","","","11","21019","6852","&#9826;","elianto","#f73b6a7A","-1","-1","1","-10","[]","0","0","3","","","","","","","",""
"pit-trial","78","651212","0.0-2.0-14.3-4.3","battery-v0.2","","""event"",""trial"",""time""
""fullscreenenter"",""1"",""1454""
","
","
","""event"",""trial"",""time""
""fullscreenenter"",""1"",""1454""
","
","","","-1","","","11","21019","6852","&#9826;","elianto","#f73b6a7A","-1","-1","1","0","[]","0","0","3","","","","","","","",""
"call-function","79","651213","0.0-2.0-15.0","battery-v0.2","","""event"",""trial"",""time""
""fullscreenenter"",""1"",""1454""
","
","
","""event"",""trial"",""time""
""fullscreenenter"",""1"",""1454""
","
","","","","","","","","","","","","","","","","","","","","","","","","","","",""
"pit-instructions","80","677794","0.0-2.0-16.0","battery-v0.2","","""event"",""trial"",""time""
""fullscreenenter"",""1"",""1454""
","
","
","""event"",""trial"",""time""
""fullscreenenter"",""1"",""1454""
","
","","[{""page_index"":0,""viewing_time"":7299.900000095367},{""page_index"":1,""viewing_time"":9230.700000047684},{""page_index"":2,""viewing_time"":4751.299999952316},{""page_index"":3,""viewing_time"":5298}]","26580.400000095367","","","","","","","","","","","","","","","","","","","","","","","",""
"pit-trial","81","681015","0.0-2.0-17.0-0.0","battery-v0.2","","""event"",""trial"",""time""
""fullscreenenter"",""1"",""1454""
","
","
","""event"",""trial"",""time""
""fullscreenenter"",""1"",""1454""
","
","","","362.90000009536743","","","11","21019","6852","&#9789;","elianto","#f73b6a7A"," "," ","1","0","[1213.2999999523163]","1","0","4","","","","","","","",""
"pit-trial","82","684069","0.0-2.0-17.0-1.0","battery-v0.2","","""event"",""trial"",""time""
""fullscreenenter"",""1"",""1454""
","
","
","""event"",""trial"",""time""
""fullscreenenter"",""1"",""1454""
","
","","","193.79999995231628","","","11","21019","6852","&#9789;","elianto","#f73b6a7A"," "," ","1","0","[1044.5]","1","0","4","","","","","","","",""
"pit-trial","83","687128","0.0-2.0-17.0-2.0","battery-v0.2","","""event"",""trial"",""time""
""fullscreenenter"",""1"",""1454""
","
","
","""event"",""trial"",""time""
""fullscreenenter"",""1"",""1454""
","
","","","187.79999995231628","","","11","21019","6852","&#9789;","elianto","#f73b6a7A"," "," ","1","0","[1044.2999999523163]","1","0","4","","","","","","","",""
"pit-trial","84","690464","0.0-2.0-17.0-3.0","battery-v0.2","","""event"",""trial"",""time""
""fullscreenenter"",""1"",""1454""
","
","
","""event"",""trial"",""time""
""fullscreenenter"",""1"",""1454""
","
","","","468.39999985694885","","","11","21019","6852","&#9789;","elianto","#f73b6a7A"," "," ","1","-10","[1322.3999998569489]","1","0","4","","","","","","","",""
"pit-trial","85","693946","0.0-2.0-17.0-4.0","battery-v0.2","","""event"",""trial"",""time""
""fullscreenenter"",""1"",""1454""
","
","
","""event"",""trial"",""time""
""fullscreenenter"",""1"",""1454""
","
","","","625","","","11","21019","6852","&#9789;","elianto","#f73b6a7A"," "," ","1","0","[1477.5]","1","0","4","","","","","","","",""
"pit-trial","86","697316","0.0-2.0-17.1-0.1","battery-v0.2","","""event"",""trial"",""time""
""fullscreenenter"",""1"",""1454""
","
","
","""event"",""trial"",""time""
""fullscreenenter"",""1"",""1454""
","
","","","504.2999999523163","","","11","21019","6852","&#9789;","elianto","#f73b6a7A"," "," ","1","0","[1357.0999999046326]","1","0","4","","","","","","","",""
"pit-trial","87","700365","0.0-2.0-17.1-1.1","battery-v0.2","","""event"",""trial"",""time""
""fullscreenenter"",""1"",""1454""
","
","
","""event"",""trial"",""time""
""fullscreenenter"",""1"",""1454""
","
","","","172.10000014305115","","","11","21019","6852","&#9789;","elianto","#f73b6a7A"," "," ","1","0","[1035.3999998569489]","1","0","4","","","","","","","",""
"pit-trial","88","703587","0.0-2.0-17.1-2.1","battery-v0.2","","""event"",""trial"",""time""
""fullscreenenter"",""1"",""1454""
","
","
","""event"",""trial"",""time""
""fullscreenenter"",""1"",""1454""
","
","","","359.40000009536743","","","11","21019","6852","&#9789;","elianto","#f73b6a7A"," "," ","1","0","[1209.7999999523163]","1","0","4","","","","","","","",""
"pit-trial","89","706915","0.0-2.0-17.1-3.1","battery-v0.2","","""event"",""trial"",""time""
""fullscreenenter"",""1"",""1454""
","
","
","""event"",""trial"",""time""
""fullscreenenter"",""1"",""1454""
","
","","","456.59999990463257","","","11","21019","6852","&#9789;","elianto","#f73b6a7A"," "," ","1","-10","[1316.2000000476837]","1","0","4","","","","","","","",""
"pit-trial","90","710803","0.0-2.0-17.1-4.1","battery-v0.2","","""event"",""trial"",""time""
""fullscreenenter"",""1"",""1454""
","
","
","""event"",""trial"",""time""
""fullscreenenter"",""1"",""1454""
","
","","","1035.0999999046326","","","11","21019","6852","&#9789;","elianto","#f73b6a7A"," "," ","1","0","[1885.3999998569489]","1","0","4","","","","","","","",""
"pit-trial","91","714460","0.0-2.0-17.2-0.2","battery-v0.2","","""event"",""trial"",""time""
""fullscreenenter"",""1"",""1454""
","
","
","""event"",""trial"",""time""
""fullscreenenter"",""1"",""1454""
","
","","","803.0999999046326","","","11","21019","6852","&#9789;","elianto","#f73b6a7A"," "," ","1","0","[1654]","1","0","4","","","","","","","",""
"pit-trial","92","717751","0.0-2.0-17.2-1.2","battery-v0.2","","""event"",""trial"",""time""
""fullscreenenter"",""1"",""1454""
","
","
","""event"",""trial"",""time""
""fullscreenenter"",""1"",""1454""
","
","","","438.5","","","11","21019","6852","&#9789;","elianto","#f73b6a7A"," "," ","1","0","[1289]","1","0","4","","","","","","","",""
"pit-trial","93","721129","0.0-2.0-17.2-2.2","battery-v0.2","","""event"",""trial"",""time""
""fullscreenenter"",""1"",""1454""
","
","
","""event"",""trial"",""time""
""fullscreenenter"",""1"",""1454""
","
","","","524.0999999046326","","","11","21019","6852","&#9789;","elianto","#f73b6a7A"," "," ","1","0","[1375.0999999046326]","1","0","4","","","","","","","",""
"pit-trial","94","724590","0.0-2.0-17.2-3.2","battery-v0.2","","""event"",""trial"",""time""
""fullscreenenter"",""1"",""1454""
","
","
","""event"",""trial"",""time""
""fullscreenenter"",""1"",""1454""
","
","","","609","","","11","21019","6852","&#9789;","elianto","#f73b6a7A"," "," ","1","-10","[1459.4000000953674]","1","0","4","","","","","","","",""
"pit-trial","95","727733","0.0-2.0-17.2-4.2","battery-v0.2","","""event"",""trial"",""time""
""fullscreenenter"",""1"",""1454""
","
","
","""event"",""trial"",""time""
""fullscreenenter"",""1"",""1454""
","
","","","290","","","11","21019","6852","&#9789;","elianto","#f73b6a7A"," "," ","1","0","[1140.6000001430511]","1","0","4","","","","","","","",""
"pit-trial","96","730911","0.0-2.0-17.3-0.3","battery-v0.2","","""event"",""trial"",""time""
""fullscreenenter"",""1"",""1454""
","
","
","""event"",""trial"",""time""
""fullscreenenter"",""1"",""1454""
","
","","","324.39999985694885","","","11","21019","6852","&#9789;","elianto","#f73b6a7A"," "," ","1","0","[1174.5]","1","0","4","","","","","","","",""
"pit-trial","97","733860","0.0-2.0-17.3-1.3","battery-v0.2","","""event"",""trial"",""time""
""fullscreenenter"",""1"",""1454""
","
","
","""event"",""trial"",""time""
""fullscreenenter"",""1"",""1454""
","
","","","95.59999990463257","","","11","21019","6852","&#9789;","elianto","#f73b6a7A"," "," ","1","0","[946.4000000953674]","1","0","4","","","","","","","",""
"pit-trial","98","736975","0.0-2.0-17.3-2.3","battery-v0.2","","""event"",""trial"",""time""
""fullscreenenter"",""1"",""1454""
","
","
","""event"",""trial"",""time""
""fullscreenenter"",""1"",""1454""
","
","","","262.80000019073486","","","11","21019","6852","&#9789;","elianto","#f73b6a7A"," "," ","1","0","[1114.0999999046326,1424.8999998569489]","2","0","4","","","","","","","",""
"pit-trial","99","740074","0.0-2.0-17.3-3.3","battery-v0.2","","""event"",""trial"",""time""
""fullscreenenter"",""1"",""1454""
","
","
","""event"",""trial"",""time""
""fullscreenenter"",""1"",""1454""
","
","","","244.40000009536743","","","11","21019","6852","&#9789;","elianto","#f73b6a7A"," "," ","1","-10","[1096.7000000476837]","1","0","4","","","","","","","",""
"pit-trial","100","743307","0.0-2.0-17.3-4.3","battery-v0.2","","""event"",""trial"",""time""
""fullscreenenter"",""1"",""1454""
","
","
","""event"",""trial"",""time""
""fullscreenenter"",""1"",""1454""
","
","","","380.2999999523163","","","11","21019","6852","&#9789;","elianto","#f73b6a7A"," "," ","1","0","[367.40000009536743,1230.5999999046326]","2","0","4","","","","","","","",""
"call-function","101","743308","0.0-2.0-18.0","battery-v0.2","","""event"",""trial"",""time""
""fullscreenenter"",""1"",""1454""
","
","
","""event"",""trial"",""time""
""fullscreenenter"",""1"",""1454""
","
","","","","","","","","","","","","","","","","","","","","","","","","","","",""
"pit-instructions","102","813428","0.0-2.0-19.0","battery-v0.2","","""event"",""trial"",""time""
""fullscreenenter"",""1"",""1454""
","
","
","""event"",""trial"",""time""
""fullscreenenter"",""1"",""1454""
","
","","[{""page_index"":0,""viewing_time"":6290.899999856949},{""page_index"":1,""viewing_time"":6016.5},{""page_index"":2,""viewing_time"":13531.200000047684},{""page_index"":3,""viewing_time"":6732.700000047684},{""page_index"":4,""viewing_time"":9249.399999856949},{""page_index"":5,""viewing_time"":9032.200000047684},{""page_index"":6,""viewing_time"":7068.600000143051},{""page_index"":7,""viewing_time"":6863.699999809265},{""page_index"":8,""viewing_time"":5332.800000190735}]","70118.59999990463","","","","","","","","","","","","","","","","","","","","","","","",""
"pit-comprehension","103","818303","0.0-2.0-20.0-0.0","battery-v0.2","","""event"",""trial"",""time""
""fullscreenenter"",""1"",""1454""
","
","
","""event"",""trial"",""time""
""fullscreenenter"",""1"",""1454""
","
","","","4871.099999904633","[""SPACE""]","0","11","21019","6852","","","","","","","","","","","","","","","","","","",""
"pit-instructions","104","824272","0.0-2.0-20.0-1.0","battery-v0.2","","""event"",""trial"",""time""
""fullscreenenter"",""1"",""1454""
","
","
","""event"",""trial"",""time""
""fullscreenenter"",""1"",""1454""
","
","","[{""page_index"":0,""viewing_time"":5939.699999809265}]","5940.199999809265","","","","","","","","","","","","","","","","","","","","","","","",""
"pit-comprehension","105","828658","0.0-2.0-21.0-0.0","battery-v0.2","","""event"",""trial"",""time""
""fullscreenenter"",""1"",""1454""
","
","
","""event"",""trial"",""time""
""fullscreenenter"",""1"",""1454""
","
","","","4382.700000047684","[""10""]","0","11","21019","6852","","","","","","","","","","","","","","","","","","",""
"pit-instructions","106","832061","0.0-2.0-21.0-1.0","battery-v0.2","","""event"",""trial"",""time""
""fullscreenenter"",""1"",""1454""
","
","
","""event"",""trial"",""time""
""fullscreenenter"",""1"",""1454""
","
","","[{""page_index"":0,""viewing_time"":3379.2000000476837}]","3379.5","","","","","","","","","","","","","","","","","","","","","","","",""
"pit-comprehension","107","839977","0.0-2.0-22.0-0.0","battery-v0.2","","""event"",""trial"",""time""
""fullscreenenter"",""1"",""1454""
","
","
","""event"",""trial"",""time""
""fullscreenenter"",""1"",""1454""
","
","","","7913","[""0""]","0","11","21019","6852","","","","","","","","","","","","","","","","","","",""
"pit-instructions","108","852038","0.0-2.0-22.0-1.0","battery-v0.2","","""event"",""trial"",""time""
""fullscreenenter"",""1"",""1454""
","
","
","""event"",""trial"",""time""
""fullscreenenter"",""1"",""1454""
","
","","[{""page_index"":0,""viewing_time"":12033}]","12033.5","","","","","","","","","","","","","","","","","","","","","","","",""
"pit-comprehension","109","860946","0.0-2.0-23.0-0.0","battery-v0.2","","""event"",""trial"",""time""
""fullscreenenter"",""1"",""1454""
","
","
","""event"",""trial"",""time""
""fullscreenenter"",""1"",""1454""
","
","","","8904.5","[""True""]","0","11","21019","6852","","","","","","","","","","","","","","","","","","",""
"pit-instructions","110","863457","0.0-2.0-23.0-1.0","battery-v0.2","","""event"",""trial"",""time""
""fullscreenenter"",""1"",""1454""
","
","
","""event"",""trial"",""time""
""fullscreenenter"",""1"",""1454""
","
","","[{""page_index"":0,""viewing_time"":2488.600000143051}]","2489","","","","","","","","","","","","","","","","","","","","","","","",""
"pit-comprehension","111","871020","0.0-2.0-24.0-0.0","battery-v0.2","","""event"",""trial"",""time""
""fullscreenenter"",""1"",""1454""
","
","
","""event"",""trial"",""time""
""fullscreenenter"",""1"",""1454""
","
","","","7560.199999809265","[""True""]","0","11","21019","6852","","","","","","","","","","","","","","","","","","",""
"pit-instructions","112","872702","0.0-2.0-24.0-1.0","battery-v0.2","","""event"",""trial"",""time""
""fullscreenenter"",""1"",""1454""
","
","
","""event"",""trial"",""time""
""fullscreenenter"",""1"",""1454""
","
","","[{""page_index"":0,""viewing_time"":1659.3000001907349}]","1659.9000000953674","","","","","","","","","","","","","","","","","","","","","","","",""
"pit-comprehension","113","878888","0.0-2.0-25.0-0.0","battery-v0.2","","""event"",""trial"",""time""
""fullscreenenter"",""1"",""1454""
","
","
","""event"",""trial"",""time""
""fullscreenenter"",""1"",""1454""
","
","","","6182.400000095367","[""True""]","0","11","21019","6852","","","","","","","","","","","","","","","","","","",""
"pit-instructions","114","880184","0.0-2.0-25.0-1.0","battery-v0.2","","""event"",""trial"",""time""
""fullscreenenter"",""1"",""1454""
","
","
","""event"",""trial"",""time""
""fullscreenenter"",""1"",""1454""
","
","","[{""page_index"":0,""viewing_time"":1271.6999998092651}]","1272.0999999046326","","","","","","","","","","","","","","","","","","","","","","","",""
"pit-comprehension","115","886254","0.0-2.0-26.0-0.0","battery-v0.2","","""event"",""trial"",""time""
""fullscreenenter"",""1"",""1454""
","
","
","""event"",""trial"",""time""
""fullscreenenter"",""1"",""1454""
","
","","","6066.199999809265","[""False""]","0","11","21019","6852","","","","","","","","","","","","","","","","","","",""
"pit-instructions","116","888151","0.0-2.0-26.0-1.0","battery-v0.2","","""event"",""trial"",""time""
""fullscreenenter"",""1"",""1454""
","
","
","""event"",""trial"",""time""
""fullscreenenter"",""1"",""1454""
","
","","[{""page_index"":0,""viewing_time"":1870.9000000953674}]","1871.3000001907349","","","","","","","","","","","","","","","","","","","","","","","",""
"pit-instructions","117","903497","0.0-3.0","battery-v0.2","","""event"",""trial"",""time""
""fullscreenenter"",""1"",""1454""
","
","
","""event"",""trial"",""time""
""fullscreenenter"",""1"",""1454""
","
","","[{""page_index"":0,""viewing_time"":3678.600000143051},{""page_index"":1,""viewing_time"":5149.199999809265},{""page_index"":2,""viewing_time"":6516}]","15344.200000047684","","","","","","","","","","","","","","","","","","","","","","","",""
"pit-trial","118","907035","0.0-4.0","battery-v0.2","","""event"",""trial"",""time""
""fullscreenenter"",""1"",""1454""
","
","
","""event"",""trial"",""time""
""fullscreenenter"",""1"",""1454""
","
","","","675.5","","","11","21019","6852","&#9728;","elianto","#f73b6a7A","-1"," ","0","-10","[1528.9000000953674]","1","1","","","21019","1","0","4","lose","no-go","0"
"pit-trial","119","910687","0.0-5.0","battery-v0.2","","""event"",""trial"",""time""
""fullscreenenter"",""1"",""1454""
","
","
","""event"",""trial"",""time""
""fullscreenenter"",""1"",""1454""
","
","","","790.1999998092651","","","11","21019","6852","&#9733;","elianto","#3366ff99","-1"," ","0","+10","[1641.8999998569489]","1","1","","","21019","2","2","2","win","no-go","1"
"pit-trial","120","914334","0.0-6.0","battery-v0.2","","""event"",""trial"",""time""
""fullscreenenter"",""1"",""1454""
","
","
","""event"",""trial"",""time""
""fullscreenenter"",""1"",""1454""
","
","","","782.5999999046326","","","11","21019","6852","&#9730;","elianto","#3366ff99"," "," ","1","+10","[1632.5]","1","1","","","21019","3","1","1","win","go","0"
"pit-trial","121","917985","0.0-7.0","battery-v0.2","","""event"",""trial"",""time""
""fullscreenenter"",""1"",""1454""
","
","
","""event"",""trial"",""time""
""fullscreenenter"",""1"",""1454""
","
","","","791.0999999046326","","","11","21019","6852","&#9752;","elianto","#f73b6a7A"," "," ","1","0","[1642.7999999523163]","1","1","","","21019","4","3","3","lose","go","0"
"pit-trial","122","921601","0.0-8.0","battery-v0.2","","""event"",""trial"",""time""
""fullscreenenter"",""1"",""1454""
","
","
","""event"",""trial"",""time""
""fullscreenenter"",""1"",""1454""
","
","","","754.5","","","11","21019","6852","&#9728;","elianto","#f73b6a7A","-1"," ","0","-10","[1604.6000001430511]","1","1","","","21019","5","0","4","lose","no-go","0"
"pit-trial","123","925217","0.0-9.0","battery-v0.2","","""event"",""trial"",""time""
""fullscreenenter"",""1"",""1454""
","
","
","""event"",""trial"",""time""
""fullscreenenter"",""1"",""1454""
","
","","","760.7999999523163","","","11","21019","6852","&#9733;","elianto","#3366ff99","-1"," ","0","0","[1611.0999999046326]","1","1","","","21019","6","2","2","win","no-go","0"
"pit-trial","124","928733","0.0-10.0","battery-v0.2","","""event"",""trial"",""time""
""fullscreenenter"",""1"",""1454""
","
","
","""event"",""trial"",""time""
""fullscreenenter"",""1"",""1454""
","
","","","657.6000001430511","","","11","21019","6852","&#9730;","elianto","#3366ff99"," "," ","1","+10","[1507.8999998569489,2262.7000000476837]","2","1","","","21019","7","1","1","win","go","0"
"pit-trial","125","932487","0.0-11.0","battery-v0.2","","""event"",""trial"",""time""
""fullscreenenter"",""1"",""1454""
","
","
","""event"",""trial"",""time""
""fullscreenenter"",""1"",""1454""
","
","","","899.5","","","11","21019","6852","&#9752;","elianto","#f73b6a7A"," "," ","1","0","[1750.2999999523163]","1","1","","","21019","8","3","3","lose","go","0"
"pit-trial","126","935882","0.0-12.0","battery-v0.2","","""event"",""trial"",""time""
""fullscreenenter"",""1"",""1454""
","
","
","""event"",""trial"",""time""
""fullscreenenter"",""1"",""1454""
","
","","","528.7000000476837","","","11","21019","6852","&#9730;","elianto","#3366ff99"," "," ","1","+10","[1393.1000001430511]","1","1","","","21019","9","1","1","win","go","0"
"pit-trial","127","940010","0.0-13.0","battery-v0.2","","""event"",""trial"",""time""
""fullscreenenter"",""1"",""1454""
","
","
","""event"",""trial"",""time""
""fullscreenenter"",""1"",""1454""
","
","","","1275","","","11","21019","6852","&#9728;","elianto","#f73b6a7A","-1"," ","0","0","[2125.300000190735]","1","1","","","21019","10","0","4","lose","no-go","1"
"pit-trial","128","943335","0.0-14.0","battery-v0.2","","""event"",""trial"",""time""
""fullscreenenter"",""1"",""1454""
","
","
","""event"",""trial"",""time""
""fullscreenenter"",""1"",""1454""
","
","","","472.2999999523163","","","11","21019","6852","&#9752;","elianto","#f73b6a7A"," "," ","1","0","[1323.3000001907349]","1","1","","","21019","11","3","3","lose","go","0"
"pit-trial","129","946562","0.0-15.0","battery-v0.2","","""event"",""trial"",""time""
""fullscreenenter"",""1"",""1454""
","
","
","""event"",""trial"",""time""
""fullscreenenter"",""1"",""1454""
","
","","","373.90000009536743","","","11","21019","6852","&#9733;","elianto","#3366ff99","-1"," ","0","0","[1224.2999999523163]","1","1","","","21019","12","2","2","win","no-go","0"
"pit-trial","130","949780","0.0-16.0","battery-v0.2","","""event"",""trial"",""time""
""fullscreenenter"",""1"",""1454""
","
","
","""event"",""trial"",""time""
""fullscreenenter"",""1"",""1454""
","
","","","364.59999990463257","","","11","21019","6852","&#9752;","elianto","#f73b6a7A"," "," ","1","0","[1215.2000000476837]","1","1","","","21019","13","3","3","lose","go","0"
"pit-trial","131","953027","0.0-17.0","battery-v0.2","","""event"",""trial"",""time""
""fullscreenenter"",""1"",""1454""
","
","
","""event"",""trial"",""time""
""fullscreenenter"",""1"",""1454""
","
","","","394.5","","","11","21019","6852","&#9730;","elianto","#3366ff99"," "," ","1","+10","[1244.9000000953674]","1","1","","","21019","14","1","1","win","go","0"
"pit-trial","132","956410","0.0-18.0","battery-v0.2","","""event"",""trial"",""time""
""fullscreenenter"",""1"",""1454""
","
","
","""event"",""trial"",""time""
""fullscreenenter"",""1"",""1454""
","
","","","530.2999999523163","","","11","21019","6852","&#9733;","elianto","#3366ff99","-1"," ","0","0","[1380.7999999523163]","1","1","","","21019","15","2","2","win","no-go","0"
"pit-trial","133","961263","0.0-19.0","battery-v0.2","","""event"",""trial"",""time""
""fullscreenenter"",""1"",""1454""
","
","
","""event"",""trial"",""time""
""fullscreenenter"",""1"",""1454""
","
","","","-1","","","11","21019","6852","&#9728;","elianto","#f73b6a7A","-1","-1","1","0","[]","0","1","","","21019","16","0","4","lose","no-go","0"
"pit-trial","134","966116","0.0-20.0","battery-v0.2","","""event"",""trial"",""time""
""fullscreenenter"",""1"",""1454""
","
","
","""event"",""trial"",""time""
""fullscreenenter"",""1"",""1454""
","
","","","-1","","","11","21019","6852","&#9733;","elianto","#3366ff99","-1","-1","1","+10","[4362.299999952316]","1","1","","","21019","17","2","2","win","no-go","0"
"pit-trial","135","970970","0.0-21.0","battery-v0.2","","""event"",""trial"",""time""
""fullscreenenter"",""1"",""1454""
","
","
","""event"",""trial"",""time""
""fullscreenenter"",""1"",""1454""
","
","","","-1","","","11","21019","6852","&#9728;","elianto","#f73b6a7A","-1","-1","1","-10","[]","0","1","","","21019","18","0","4","lose","no-go","1"
"pit-trial","136","975808","0.0-22.0","battery-v0.2","","""event"",""trial"",""time""
""fullscreenenter"",""1"",""1454""
","
","
","""event"",""trial"",""time""
""fullscreenenter"",""1"",""1454""
","
","","","1984.3000001907349","","","11","21019","6852","&#9752;","elianto","#f73b6a7A"," "," ","1","0","[2835.5]","1","1","","","21019","19","3","3","lose","go","0"
"pit-trial","137","979805","0.0-23.0","battery-v0.2","","""event"",""trial"",""time""
""fullscreenenter"",""1"",""1454""
","
","
","""event"",""trial"",""time""
""fullscreenenter"",""1"",""1454""
","
","","","1143.2000000476837","","","11","21019","6852","&#9730;","elianto","#3366ff99"," "," ","1","+10","[1994]","1","1","","","21019","20","1","1","win","go","0"
"pit-instructions","138","991027","0.0-24.0","battery-v0.2","","""event"",""trial"",""time""
""fullscreenenter"",""1"",""1454""
","
","
","""event"",""trial"",""time""
""fullscreenenter"",""1"",""1454""
","
","","[{""page_index"":0,""viewing_time"":5077.300000190735},{""page_index"":1,""viewing_time"":6143.5}]","11221.200000047684","","","","","","","","","","","","","","","","","","","","","","","",""
"pit-trial","139","994726","0.0-25.0","battery-v0.2","","""event"",""trial"",""time""
""fullscreenenter"",""1"",""1454""
","
","
","""event"",""trial"",""time""
""fullscreenenter"",""1"",""1454""
","
","","","823.4000000953674","","","11","21019","6852","d","elianto","#3366ff99"," "," ","1","+10","[1688]","1","2","","","21019","21","1","1","win","go","0"
"pit-trial","140","998207","0.0-26.0","battery-v0.2","","""event"",""trial"",""time""
""fullscreenenter"",""1"",""1454""
","
","
","""event"",""trial"",""time""
""fullscreenenter"",""1"",""1454""
","
","","","625.7000000476837","","","11","21019","6852","e","elianto","#f73b6a7A","-1"," ","0","-10","[1478.9000000953674]","1","2","","","21019","22","2","4","lose","no-go","0"
"pit-trial","141","1003073","0.0-27.0","battery-v0.2","","""event"",""trial"",""time""
""fullscreenenter"",""1"",""1454""
","
","
","""event"",""trial"",""time""
""fullscreenenter"",""1"",""1454""
","
","","","-1","","","11","21019","6852","j","elianto","#f73b6a7A","-1","-1","1","0","[]","0","2","","","21019","23","0","4","lose","no-go","0"
"pit-trial","142","1007938","0.0-28.0","battery-v0.2","","""event"",""trial"",""time""
""fullscreenenter"",""1"",""1454""
","
","
","""event"",""trial"",""time""
""fullscreenenter"",""1"",""1454""
","
","","","-1","","","11","21019","6852","w","elianto","#f73b6a7A"," ","-1","0","0","[]","0","2","","","21019","24","3","3","lose","go","1"
"pit-trial","143","1012807","0.0-29.0","battery-v0.2","","""event"",""trial"",""time""
""fullscreenenter"",""1"",""1454""
","
","
","""event"",""trial"",""time""
""fullscreenenter"",""1"",""1454""
","
","","","-1","","","11","21019","6852","j","elianto","#f73b6a7A","-1","-1","1","-10","[]","0","2","","","21019","25","0","4","lose","no-go","1"
"pit-trial","144","1016289","0.0-30.0","battery-v0.2","","""event"",""trial"",""time""
""fullscreenenter"",""1"",""1454""
","
","
","""event"",""trial"",""time""
""fullscreenenter"",""1"",""1454""
","
","","","619.8999998569489","","","11","21019","6852","d","elianto","#3366ff99"," "," ","1","0","[1472.7999999523163]","1","2","","","21019","26","1","1","win","go","1"
"pit-trial","145","1021154","0.0-31.0","battery-v0.2","","""event"",""trial"",""time""
""fullscreenenter"",""1"",""1454""
","
","
","""event"",""trial"",""time""
""fullscreenenter"",""1"",""1454""
","
","","","-1","","","11","21019","6852","w","elianto","#f73b6a7A"," ","-1","0","-10","[]","0","2","","","21019","27","3","3","lose","go","0"
"pit-trial","146","1026007","0.0-32.0","battery-v0.2","","""event"",""trial"",""time""
""fullscreenenter"",""1"",""1454""
","
","
","""event"",""trial"",""time""
""fullscreenenter"",""1"",""1454""
","
","","","-1","","","11","21019","6852","e","elianto","#f73b6a7A","-1","-1","1","0","[]","0","2","","","21019","28","2","4","lose","no-go","0"
"pit-trial","147","1029475","0.0-33.0","battery-v0.2","","""event"",""trial"",""time""
""fullscreenenter"",""1"",""1454""
","
","
","""event"",""trial"",""time""
""fullscreenenter"",""1"",""1454""
","
","","","614.2999999523163","","","11","21019","6852","w","elianto","#f73b6a7A"," "," ","1","-10","[1464.4000000953674]","1","2","","","21019","29","3","3","lose","go","1"
"pit-trial","148","1034328","0.0-34.0","battery-v0.2","","""event"",""trial"",""time""
""fullscreenenter"",""1"",""1454""
","
","
","""event"",""trial"",""time""
""fullscreenenter"",""1"",""1454""
","
","","","-1","","","11","21019","6852","j","elianto","#f73b6a7A","-1","-1","1","-10","[]","0","2","","","21019","30","0","4","lose","no-go","1"
"pit-trial","149","1039180","0.0-35.0","battery-v0.2","","""event"",""trial"",""time""
""fullscreenenter"",""1"",""1454""
","
","
","""event"",""trial"",""time""
""fullscreenenter"",""1"",""1454""
","
","","","-1","","","11","21019","6852","e","elianto","#f73b6a7A","-1","-1","1","-10","[4788.599999904633]","1","2","","","21019","31","2","4","lose","no-go","1"
"pit-trial","150","1042612","0.0-36.0","battery-v0.2","","""event"",""trial"",""time""
""fullscreenenter"",""1"",""1454""
","
","
","""event"",""trial"",""time""
""fullscreenenter"",""1"",""1454""
","
","","","579.0999999046326","","","11","21019","6852","d","elianto","#3366ff99"," "," ","1","+10","[1429.1999998092651]","1","2","","","21019","32","1","1","win","go","0"
"pit-trial","151","1046119","0.0-37.0","battery-v0.2","","""event"",""trial"",""time""
""fullscreenenter"",""1"",""1454""
","
","
","""event"",""trial"",""time""
""fullscreenenter"",""1"",""1454""
","
","","","654.7999999523163","","","11","21019","6852","j","elianto","#f73b6a7A","-1"," ","0","-10","[1504.8999998569489]","1","2","","","21019","33","0","4","lose","no-go","0"
"pit-trial","152","1050972","0.0-38.0","battery-v0.2","","""event"",""trial"",""time""
""fullscreenenter"",""1"",""1454""
","
","
","""event"",""trial"",""time""
""fullscreenenter"",""1"",""1454""
","
","","","-1","","","11","21019","6852","w","elianto","#f73b6a7A"," ","-1","0","0","[]","0","2","","","21019","34","3","3","lose","go","1"
"pit-trial","153","1054366","0.0-39.0","battery-v0.2","","""event"",""trial"",""time""
""fullscreenenter"",""1"",""1454""
","
","
","""event"",""trial"",""time""
""fullscreenenter"",""1"",""1454""
","
","","","540","","","11","21019","6852","e","elianto","#f73b6a7A","-1"," ","0","-10","[1391.4000000953674]","1","2","","","21019","35","2","4","lose","no-go","0"
"pit-trial","154","1058207","0.0-40.0","battery-v0.2","","""event"",""trial"",""time""
""fullscreenenter"",""1"",""1454""
","
","
","""event"",""trial"",""time""
""fullscreenenter"",""1"",""1454""
","
","","","988.7999999523163","","","11","21019","6852","d","elianto","#3366ff99"," "," ","1","0","[1839.4000000953674]","1","2","","","21019","36","1","1","win","go","1"
"pit-trial","155","1062195","0.0-41.0","battery-v0.2","","""event"",""trial"",""time""
""fullscreenenter"",""1"",""1454""
","
","
","""event"",""trial"",""time""
""fullscreenenter"",""1"",""1454""
","
","","","1135.0999999046326","","","11","21019","6852","e","elianto","#f73b6a7A","-1"," ","0","-10","[1985.6999998092651]","1","2","","","21019","37","2","4","lose","no-go","0"
"pit-trial","156","1065592","0.0-42.0","battery-v0.2","","""event"",""trial"",""time""
""fullscreenenter"",""1"",""1454""
","
","
","""event"",""trial"",""time""
""fullscreenenter"",""1"",""1454""
","
","","","544","","","11","21019","6852","d","elianto","#3366ff99"," "," ","1","+10","[1394]","1","2","","","21019","38","1","1","win","go","0"
"pit-trial","157","1070444","0.0-43.0","battery-v0.2","","""event"",""trial"",""time""
""fullscreenenter"",""1"",""1454""
","
","
","""event"",""trial"",""time""
""fullscreenenter"",""1"",""1454""
","
","","","-1","","","11","21019","6852","j","elianto","#f73b6a7A","-1","-1","1","-10","[]","0","2","","","21019","39","0","4","lose","no-go","1"
"pit-trial","158","1075299","0.0-44.0","battery-v0.2","","""event"",""trial"",""time""
""fullscreenenter"",""1"",""1454""
","
","
","""event"",""trial"",""time""
""fullscreenenter"",""1"",""1454""
","
","","","-1","","","11","21019","6852","w","elianto","#f73b6a7A"," ","-1","0","-10","[]","0","2","","","21019","40","3","3","lose","go","0"
"pit-trial","159","1079043","0.0-45.0","battery-v0.2","","""event"",""trial"",""time""
""fullscreenenter"",""1"",""1454""
","
","
","""event"",""trial"",""time""
""fullscreenenter"",""1"",""1454""
","
","","","891.5","","","11","21019","6852","e","elianto","#f73b6a7A","-1"," ","0","-10","[1741.7999999523163]","1","2","","","21019","41","2","4","lose","no-go","0"
"pit-trial","160","1082706","0.0-46.0","battery-v0.2","","""event"",""trial"",""time""
""fullscreenenter"",""1"",""1454""
","
","
","""event"",""trial"",""time""
""fullscreenenter"",""1"",""1454""
","
","","","810","","","11","21019","6852","d","elianto","#3366ff99"," "," ","1","0","[1660.0999999046326]","1","2","","","21019","42","1","1","win","go","1"
"pit-trial","161","1087559","0.0-47.0","battery-v0.2","","""event"",""trial"",""time""
""fullscreenenter"",""1"",""1454""
","
","
","""event"",""trial"",""time""
""fullscreenenter"",""1"",""1454""
","
","","","-1","","","11","21019","6852","j","elianto","#f73b6a7A","-1","-1","1","0","[]","0","2","","","21019","43","0","4","lose","no-go","0"
"pit-trial","162","1092413","0.0-48.0","battery-v0.2","","""event"",""trial"",""time""
""fullscreenenter"",""1"",""1454""
","
","
","""event"",""trial"",""time""
""fullscreenenter"",""1"",""1454""
","
","","","-1","","","11","21019","6852","w","elianto","#f73b6a7A"," ","-1","0","-10","[]","0","2","","","21019","44","3","3","lose","go","0"
"pit-trial","163","1096658","0.0-49.0","battery-v0.2","","""event"",""trial"",""time""
""fullscreenenter"",""1"",""1454""
","
","
","""event"",""trial"",""time""
""fullscreenenter"",""1"",""1454""
","
","","","1390.6000001430511","","","11","21019","6852","s","elianto","#3366ff99","-1"," ","0","+10","[2243.100000143051]","1","2","","","21019","45","4","2","win","no-go","1"
"pit-trial","164","1101510","0.0-50.0","battery-v0.2","","""event"",""trial"",""time""
""fullscreenenter"",""1"",""1454""
","
","
","""event"",""trial"",""time""
""fullscreenenter"",""1"",""1454""
","
","","","-1","","","11","21019","6852","j","elianto","#f73b6a7A","-1","-1","1","0","[3048.600000143051]","1","2","","","21019","46","0","4","lose","no-go","0"
"pit-trial","165","1105253","0.0-51.0","battery-v0.2","","""event"",""trial"",""time""
""fullscreenenter"",""1"",""1454""
","
","
","""event"",""trial"",""time""
""fullscreenenter"",""1"",""1454""
","
","","","889.3999998569489","","","11","21019","6852","e","elianto","#f73b6a7A","-1"," ","0","-10","[1739.7999999523163]","1","2","","","21019","47","2","4","lose","no-go","0"
"pit-trial","166","1110105","0.0-52.0","battery-v0.2","","""event"",""trial"",""time""
""fullscreenenter"",""1"",""1454""
","
","
","""event"",""trial"",""time""
""fullscreenenter"",""1"",""1454""
","
","","","-1","","","11","21019","6852","w","elianto","#f73b6a7A"," ","-1","0","-10","[]","0","2","","","21019","48","3","3","lose","go","0"
"pit-trial","167","1113833","0.0-53.0","battery-v0.2","","""event"",""trial"",""time""
""fullscreenenter"",""1"",""1454""
","
","
","""event"",""trial"",""time""
""fullscreenenter"",""1"",""1454""
","
","","","874.5999999046326","","","11","21019","6852","j","elianto","#f73b6a7A","-1"," ","0","-10","[1725.4000000953674]","1","2","","","21019","49","0","4","lose","no-go","0"
"pit-trial","168","1117324","0.0-54.0","battery-v0.2","","""event"",""trial"",""time""
""fullscreenenter"",""1"",""1454""
","
","
","""event"",""trial"",""time""
""fullscreenenter"",""1"",""1454""
","
","","","639.3999998569489","","","11","21019","6852","w","elianto","#f73b6a7A"," "," ","1","-10","[1490]","1","2","","","21019","50","3","3","lose","go","1"
"pit-trial","169","1121059","0.0-55.0","battery-v0.2","","""event"",""trial"",""time""
""fullscreenenter"",""1"",""1454""
","
","
","""event"",""trial"",""time""
""fullscreenenter"",""1"",""1454""
","
","","","880.2999999523163","","","11","21019","6852","s","elianto","#3366ff99","-1"," ","0","0","[1731.2000000476837]","1","2","","","21019","51","4","2","win","no-go","0"
"pit-trial","170","1125270","0.0-56.0","battery-v0.2","","""event"",""trial"",""time""
""fullscreenenter"",""1"",""1454""
","
","
","""event"",""trial"",""time""
""fullscreenenter"",""1"",""1454""
","
","","","1356.8000001907349","","","11","21019","6852","d","elianto","#3366ff99"," "," ","1","0","[2209.2000000476837]","1","2","","","21019","52","1","1","win","go","1"
"pit-trial","171","1129339","0.0-57.0","battery-v0.2","","""event"",""trial"",""time""
""fullscreenenter"",""1"",""1454""
","
","
","""event"",""trial"",""time""
""fullscreenenter"",""1"",""1454""
","
","","","1213.7999999523163","","","11","21019","6852","d","elianto","#3366ff99"," "," ","1","+10","[2064.7999999523163]","1","2","","","21019","53","1","1","win","go","0"
"pit-trial","172","1134194","0.0-58.0","battery-v0.2","","""event"",""trial"",""time""
""fullscreenenter"",""1"",""1454""
","
","
","""event"",""trial"",""time""
""fullscreenenter"",""1"",""1454""
","
","","","-1","","","11","21019","6852","e","elianto","#f73b6a7A","-1","-1","1","0","[]","0","2","","","21019","54","2","4","lose","no-go","0"
"pit-trial","173","1137932","0.0-59.0","battery-v0.2","","""event"",""trial"",""time""
""fullscreenenter"",""1"",""1454""
","
","
","""event"",""trial"",""time""
""fullscreenenter"",""1"",""1454""
","
","","","883.3999998569489","","","11","21019","6852","s","elianto","#3366ff99","-1"," ","0","0","[1735.2999999523163]","1","2","","","21019","55","4","2","win","no-go","0"
"pit-trial","174","1142785","0.0-60.0","battery-v0.2","","""event"",""trial"",""time""
""fullscreenenter"",""1"",""1454""
","
","
","""event"",""trial"",""time""
""fullscreenenter"",""1"",""1454""
","
","","","-1","","","11","21019","6852","j","elianto","#f73b6a7A","-1","-1","1","0","[]","0","2","","","21019","56","0","4","lose","no-go","0"
"pit-trial","175","1146632","0.0-61.0","battery-v0.2","","""event"",""trial"",""time""
""fullscreenenter"",""1"",""1454""
","
","
","""event"",""trial"",""time""
""fullscreenenter"",""1"",""1454""
","
","","","993.4000000953674","","","11","21019","6852","d","elianto","#3366ff99"," "," ","1","+10","[1843.7999999523163]","1","2","","","21019","57","1","1","win","go","0"
"pit-trial","176","1151486","0.0-62.0","battery-v0.2","","""event"",""trial"",""time""
""fullscreenenter"",""1"",""1454""
","
","
","""event"",""trial"",""time""
""fullscreenenter"",""1"",""1454""
","
","","","-1","","","11","21019","6852","j","elianto","#f73b6a7A","-1","-1","1","0","[]","0","2","","","21019","58","0","4","lose","no-go","0"
"pit-trial","177","1156338","0.0-63.0","battery-v0.2","","""event"",""trial"",""time""
""fullscreenenter"",""1"",""1454""
","
","
","""event"",""trial"",""time""
""fullscreenenter"",""1"",""1454""
","
","","","-1","","","11","21019","6852","s","elianto","#3366ff99","-1","-1","1","+10","[]","0","2","","","21019","59","4","2","win","no-go","0"
"pit-trial","178","1161192","0.0-64.0","battery-v0.2","","""event"",""trial"",""time""
""fullscreenenter"",""1"",""1454""
","
","
","""event"",""trial"",""time""
""fullscreenenter"",""1"",""1454""
","
","","","-1","","","11","21019","6852","w","elianto","#f73b6a7A"," ","-1","0","-10","[]","0","2","","","21019","60","3","3","lose","go","0"
"pit-trial","179","1165383","0.0-65.0","battery-v0.2","","""event"",""trial"",""time""
""fullscreenenter"",""1"",""1454""
","
","
","""event"",""trial"",""time""
""fullscreenenter"",""1"",""1454""
","
","","","1337.7000000476837","","","11","21019","6852","d","elianto","#3366ff99"," "," ","1","0","[2189.0999999046326]","1","2","","","21019","61","1","1","win","go","1"
"pit-trial","180","1170236","0.0-66.0","battery-v0.2","","""event"",""trial"",""time""
""fullscreenenter"",""1"",""1454""
","
","
","""event"",""trial"",""time""
""fullscreenenter"",""1"",""1454""
","
","","","-1","","","11","21019","6852","s","elianto","#3366ff99","-1","-1","1","+10","[]","0","2","","","21019","62","4","2","win","no-go","0"
"pit-trial","181","1175090","0.0-67.0","battery-v0.2","","""event"",""trial"",""time""
""fullscreenenter"",""1"",""1454""
","
","
","""event"",""trial"",""time""
""fullscreenenter"",""1"",""1454""
","
","","","-1","","","11","21019","6852","w","elianto","#f73b6a7A"," ","-1","0","0","[]","0","2","","","21019","63","3","3","lose","go","1"
"pit-trial","182","1179943","0.0-68.0","battery-v0.2","","""event"",""trial"",""time""
""fullscreenenter"",""1"",""1454""
","
","
","""event"",""trial"",""time""
""fullscreenenter"",""1"",""1454""
","
","","","-1","","","11","21019","6852","e","elianto","#f73b6a7A","-1","-1","1","0","[]","0","2","","","21019","64","2","4","lose","no-go","0"
"pit-trial","183","1183756","0.0-69.0","battery-v0.2","","""event"",""trial"",""time""
""fullscreenenter"",""1"",""1454""
","
","
","""event"",""trial"",""time""
""fullscreenenter"",""1"",""1454""
","
","","","960.6999998092651","","","11","21019","6852","d","elianto","#3366ff99"," "," ","1","+10","[1811.2999999523163]","1","2","","","21019","65","1","1","win","go","0"
"pit-trial","184","1188608","0.0-70.0","battery-v0.2","","""event"",""trial"",""time""
""fullscreenenter"",""1"",""1454""
","
","
","""event"",""trial"",""time""
""fullscreenenter"",""1"",""1454""
","
","","","-1","","","11","21019","6852","w","elianto","#f73b6a7A"," ","-1","0","0","[]","0","2","","","21019","66","3","3","lose","go","1"
"pit-trial","185","1193463","0.0-71.0","battery-v0.2","","""event"",""trial"",""time""
""fullscreenenter"",""1"",""1454""
","
","
","""event"",""trial"",""time""
""fullscreenenter"",""1"",""1454""
","
","","","-1","","","11","21019","6852","s","elianto","#3366ff99","-1","-1","1","+10","[]","0","2","","","21019","67","4","2","win","no-go","0"
"pit-trial","186","1198316","0.0-72.0","battery-v0.2","","""event"",""trial"",""time""
""fullscreenenter"",""1"",""1454""
","
","
","""event"",""trial"",""time""
""fullscreenenter"",""1"",""1454""
","
","","","-1","","","11","21019","6852","e","elianto","#f73b6a7A","-1","-1","1","0","[]","0","2","","","21019","68","2","4","lose","no-go","0"
"pit-trial","187","1203169","0.0-73.0","battery-v0.2","","""event"",""trial"",""time""
""fullscreenenter"",""1"",""1454""
","
","
","""event"",""trial"",""time""
""fullscreenenter"",""1"",""1454""
","
","","","-1","","","11","21019","6852","w","elianto","#f73b6a7A"," ","-1","0","-10","[]","0","2","","","21019","69","3","3","lose","go","0"
"pit-trial","188","1208023","0.0-74.0","battery-v0.2","","""event"",""trial"",""time""
""fullscreenenter"",""1"",""1454""
","
","
","""event"",""trial"",""time""
""fullscreenenter"",""1"",""1454""
","
","","","-1","","","11","21019","6852","p","elianto","#3366ff99"," ","-1","0","+10","[]","0","2","","","21019","70","5","1","win","go","1"
"pit-trial","189","1212875","0.0-75.0","battery-v0.2","","""event"",""trial"",""time""
""fullscreenenter"",""1"",""1454""
","
","
","""event"",""trial"",""time""
""fullscreenenter"",""1"",""1454""
","
","","","-1","","","11","21019","6852","s","elianto","#3366ff99","-1","-1","1","+10","[]","0","2","","","21019","71","4","2","win","no-go","0"
"pit-trial","190","1216648","0.0-76.0","battery-v0.2","","""event"",""trial"",""time""
""fullscreenenter"",""1"",""1454""
","
","
","""event"",""trial"",""time""
""fullscreenenter"",""1"",""1454""
","
","","","918.6000001430511","","","11","21019","6852","d","elianto","#3366ff99"," "," ","1","+10","[1769.3999998569489]","1","2","","","21019","72","1","1","win","go","0"
"pit-trial","191","1220449","0.0-77.0","battery-v0.2","","""event"",""trial"",""time""
""fullscreenenter"",""1"",""1454""
","
","
","""event"",""trial"",""time""
""fullscreenenter"",""1"",""1454""
","
","","","948.3999998569489","","","11","21019","6852","d","elianto","#3366ff99"," "," ","1","+10","[1799.2999999523163]","1","2","","","21019","73","1","1","win","go","0"
"pit-trial","192","1225304","0.0-78.0","battery-v0.2","","""event"",""trial"",""time""
""fullscreenenter"",""1"",""1454""
","
","
","""event"",""trial"",""time""
""fullscreenenter"",""1"",""1454""
","
","","","-1","","","11","21019","6852","w","elianto","#f73b6a7A"," ","-1","0","-10","[]","0","2","","","21019","74","3","3","lose","go","0"
"pit-trial","193","1229448","0.0-79.0","battery-v0.2","","""event"",""trial"",""time""
""fullscreenenter"",""1"",""1454""
","
","
","""event"",""trial"",""time""
""fullscreenenter"",""1"",""1454""
","
","","","1291.4000000953674","","","11","21019","6852","p","elianto","#3366ff99"," "," ","1","+10","[2141.7000000476837]","1","2","","","21019","75","5","1","win","go","0"
"pit-trial","194","1234302","0.0-80.0","battery-v0.2","","""event"",""trial"",""time""
""fullscreenenter"",""1"",""1454""
","
","
","""event"",""trial"",""time""
""fullscreenenter"",""1"",""1454""
","
","","","-1","","","11","21019","6852","s","elianto","#3366ff99","-1","-1","1","+10","[]","0","2","","","21019","76","4","2","win","no-go","0"
"pit-trial","195","1238042","0.0-81.0","battery-v0.2","","""event"",""trial"",""time""
""fullscreenenter"",""1"",""1454""
","
","
","""event"",""trial"",""time""
""fullscreenenter"",""1"",""1454""
","
","","","887.5","","","11","21019","6852","p","elianto","#3366ff99"," "," ","1","+10","[1738]","1","2","","","21019","77","5","1","win","go","0"
"pit-trial","196","1242895","0.0-82.0","battery-v0.2","","""event"",""trial"",""time""
""fullscreenenter"",""1"",""1454""
","
","
","""event"",""trial"",""time""
""fullscreenenter"",""1"",""1454""
","
","","","-1","","","11","21019","6852","s","elianto","#3366ff99","-1","-1","1","+10","[]","0","2","","","21019","78","4","2","win","no-go","0"
"pit-trial","197","1247748","0.0-83.0","battery-v0.2","","""event"",""trial"",""time""
""fullscreenenter"",""1"",""1454""
","
","
","""event"",""trial"",""time""
""fullscreenenter"",""1"",""1454""
","
","","","-1","","","11","21019","6852","w","elianto","#f73b6a7A"," ","-1","0","0","[]","0","2","","","21019","79","3","3","lose","go","1"
"pit-trial","198","1252600","0.0-84.0","battery-v0.2","","""event"",""trial"",""time""
""fullscreenenter"",""1"",""1454""
","
","
","""event"",""trial"",""time""
""fullscreenenter"",""1"",""1454""
","
","","","-1","","","11","21019","6852","g","elianto","#f73b6a7A","-1","-1","1","0","[]","0","2","","","21019","80","6","4","lose","no-go","0"
"pit-trial","199","1257454","0.0-85.0","battery-v0.2","","""event"",""trial"",""time""
""fullscreenenter"",""1"",""1454""
","
","
","""event"",""trial"",""time""
""fullscreenenter"",""1"",""1454""
","
","","","-1","","","11","21019","6852","a","elianto","#f73b6a7A"," ","-1","0","-10","[]","0","2","","","21019","81","7","3","lose","go","0"
"pit-trial","200","1262309","0.0-86.0","battery-v0.2","","""event"",""trial"",""time""
""fullscreenenter"",""1"",""1454""
","
","
","""event"",""trial"",""time""
""fullscreenenter"",""1"",""1454""
","
","","","-1","","","11","21019","6852","g","elianto","#f73b6a7A","-1","-1","1","0","[]","0","2","","","21019","82","6","4","lose","no-go","0"
"pit-trial","201","1267161","0.0-87.0","battery-v0.2","","""event"",""trial"",""time""
""fullscreenenter"",""1"",""1454""
","
","
","""event"",""trial"",""time""
""fullscreenenter"",""1"",""1454""
","
","","","-1","","","11","21019","6852","s","elianto","#3366ff99","-1","-1","1","0","[]","0","2","","","21019","83","4","2","win","no-go","1"
"pit-trial","202","1270856","0.0-88.0","battery-v0.2","","""event"",""trial"",""time""
""fullscreenenter"",""1"",""1454""
","
","
","""event"",""trial"",""time""
""fullscreenenter"",""1"",""1454""
","
","","","841.4000000953674","","","11","21019","6852","p","elianto","#3366ff99"," "," ","1","+10","[1691.3000001907349]","1","2","","","21019","84","5","1","win","go","0"
"pit-trial","203","1274522","0.0-89.0","battery-v0.2","","""event"",""trial"",""time""
""fullscreenenter"",""1"",""1454""
","
","
","""event"",""trial"",""time""
""fullscreenenter"",""1"",""1454""
","
","","","813.5999999046326","","","11","21019","6852","p","elianto","#3366ff99"," "," ","1","+10","[1663.7999999523163]","1","2","","","21019","85","5","1","win","go","0"
"pit-trial","204","1278335","0.0-90.0","battery-v0.2","","""event"",""trial"",""time""
""fullscreenenter"",""1"",""1454""
","
","
","""event"",""trial"",""time""
""fullscreenenter"",""1"",""1454""
","
","","","958.4000000953674","","","11","21019","6852","a","elianto","#f73b6a7A"," "," ","1","0","[1810.6000001430511]","1","2","","","21019","86","7","3","lose","go","0"
"pit-trial","205","1283187","0.0-91.0","battery-v0.2","","""event"",""trial"",""time""
""fullscreenenter"",""1"",""1454""
","
","
","""event"",""trial"",""time""
""fullscreenenter"",""1"",""1454""
","
","","","-1","","","11","21019","6852","s","elianto","#3366ff99","-1","-1","1","+10","[]","0","2","","","21019","87","4","2","win","no-go","0"
"pit-trial","206","1288040","0.0-92.0","battery-v0.2","","""event"",""trial"",""time""
""fullscreenenter"",""1"",""1454""
","
","
","""event"",""trial"",""time""
""fullscreenenter"",""1"",""1454""
","
","","","-1","","","11","21019","6852","g","elianto","#f73b6a7A","-1","-1","1","0","[]","0","2","","","21019","88","6","4","lose","no-go","0"
"pit-trial","207","1291940","0.0-93.0","battery-v0.2","","""event"",""trial"",""time""
""fullscreenenter"",""1"",""1454""
","
","
","""event"",""trial"",""time""
""fullscreenenter"",""1"",""1454""
","
","","","1047.0999999046326","","","11","21019","6852","a","elianto","#f73b6a7A"," "," ","1","0","[1897.5999999046326]","1","2","","","21019","89","7","3","lose","go","0"
"pit-trial","208","1296794","0.0-94.0","battery-v0.2","","""event"",""trial"",""time""
""fullscreenenter"",""1"",""1454""
","
","
","""event"",""trial"",""time""
""fullscreenenter"",""1"",""1454""
","
","","","-1","","","11","21019","6852","g","elianto","#f73b6a7A","-1","-1","1","0","[]","0","2","","","21019","90","6","4","lose","no-go","0"
"pit-trial","209","1300456","0.0-95.0","battery-v0.2","","""event"",""trial"",""time""
""fullscreenenter"",""1"",""1454""
","
","
","""event"",""trial"",""time""
""fullscreenenter"",""1"",""1454""
","
","","","808.6999998092651","","","11","21019","6852","p","elianto","#3366ff99"," "," ","1","0","[1659.3999998569489]","1","2","","","21019","91","5","1","win","go","1"
"pit-trial","210","1305309","0.0-96.0","battery-v0.2","","""event"",""trial"",""time""
""fullscreenenter"",""1"",""1454""
","
","
","""event"",""trial"",""time""
""fullscreenenter"",""1"",""1454""
","
","","","-1","","","11","21019","6852","s","elianto","#3366ff99","-1","-1","1","0","[]","0","2","","","21019","92","4","2","win","no-go","1"
"pit-trial","211","1308899","0.0-97.0","battery-v0.2","","""event"",""trial"",""time""
""fullscreenenter"",""1"",""1454""
","
","
","""event"",""trial"",""time""
""fullscreenenter"",""1"",""1454""
","
","","","736.9000000953674","","","11","21019","6852","p","elianto","#3366ff99"," "," ","1","+10","[1587.7000000476837]","1","2","","","21019","93","5","1","win","go","0"
"pit-trial","212","1313752","0.0-98.0","battery-v0.2","","""event"",""trial"",""time""
""fullscreenenter"",""1"",""1454""
","
","
","""event"",""trial"",""time""
""fullscreenenter"",""1"",""1454""
","
","","","-1","","","11","21019","6852","g","elianto","#f73b6a7A","-1","-1","1","-10","[]","0","2","","","21019","94","6","4","lose","no-go","1"
"pit-trial","213","1318605","0.0-99.0","battery-v0.2","","""event"",""trial"",""time""
""fullscreenenter"",""1"",""1454""
","
","
","""event"",""trial"",""time""
""fullscreenenter"",""1"",""1454""
","
","","","-1","","","11","21019","6852","l","elianto","#3366ff99","-1","-1","1","+10","[]","0","2","","","21019","95","8","2","win","no-go","0"
"pit-trial","214","1322586","0.0-100.0","battery-v0.2","","""event"",""trial"",""time""
""fullscreenenter"",""1"",""1454""
","
","
","""event"",""trial"",""time""
""fullscreenenter"",""1"",""1454""
","
","","","1128.0999999046326","","","11","21019","6852","a","elianto","#f73b6a7A"," "," ","1","0","[1978.5]","1","2","","","21019","96","7","3","lose","go","0"
"pit-trial","215","1326263","0.0-101.0","battery-v0.2","","""event"",""trial"",""time""
""fullscreenenter"",""1"",""1454""
","
","
","""event"",""trial"",""time""
""fullscreenenter"",""1"",""1454""
","
","","","822.6000001430511","","","11","21019","6852","p","elianto","#3366ff99"," "," ","1","+10","[1674.3000001907349]","1","2","","","21019","97","5","1","win","go","0"
"pit-trial","216","1331115","0.0-102.0","battery-v0.2","","""event"",""trial"",""time""
""fullscreenenter"",""1"",""1454""
","
","
","""event"",""trial"",""time""
""fullscreenenter"",""1"",""1454""
","
","","","-1","","","11","21019","6852","g","elianto","#f73b6a7A","-1","-1","1","0","[]","0","2","","","21019","98","6","4","lose","no-go","0"
"pit-trial","217","1334928","0.0-103.0","battery-v0.2","","""event"",""trial"",""time""
""fullscreenenter"",""1"",""1454""
","
","
","""event"",""trial"",""time""
""fullscreenenter"",""1"",""1454""
","
","","","957.8999998569489","","","11","21019","6852","a","elianto","#f73b6a7A"," "," ","1","0","[1809.8999998569489]","1","2","","","21019","99","7","3","lose","go","0"
"pit-trial","218","1339781","0.0-104.0","battery-v0.2","","""event"",""trial"",""time""
""fullscreenenter"",""1"",""1454""
","
","
","""event"",""trial"",""time""
""fullscreenenter"",""1"",""1454""
","
","","","-1","","","11","21019","6852","l","elianto","#3366ff99","-1","-1","1","+10","[]","0","2","","","21019","100","8","2","win","no-go","0"
"pit-trial","219","1344634","0.0-105.0","battery-v0.2","","""event"",""trial"",""time""
""fullscreenenter"",""1"",""1454""
","
","
","""event"",""trial"",""time""
""fullscreenenter"",""1"",""1454""
","
","","","-1","","","11","21019","6852","u","elianto","#3366ff99","-1","-1","1","+10","[]","0","2","","","21019","101","9","2","win","no-go","0"
"pit-trial","220","1349488","0.0-106.0","battery-v0.2","","""event"",""trial"",""time""
""fullscreenenter"",""1"",""1454""
","
","
","""event"",""trial"",""time""
""fullscreenenter"",""1"",""1454""
","
","","","-1","","","11","21019","6852","g","elianto","#f73b6a7A","-1","-1","1","0","[]","0","2","","","21019","102","6","4","lose","no-go","0"
"pit-trial","221","1354342","0.0-107.0","battery-v0.2","","""event"",""trial"",""time""
""fullscreenenter"",""1"",""1454""
","
","
","""event"",""trial"",""time""
""fullscreenenter"",""1"",""1454""
","
","","","-1","","","11","21019","6852","l","elianto","#3366ff99","-1","-1","1","+10","[]","0","2","","","21019","103","8","2","win","no-go","0"
"pit-trial","222","1357787","0.0-108.0","battery-v0.2","","""event"",""trial"",""time""
""fullscreenenter"",""1"",""1454""
","
","
","""event"",""trial"",""time""
""fullscreenenter"",""1"",""1454""
","
","","","593.0999999046326","","","11","21019","6852","p","elianto","#3366ff99"," "," ","1","+10","[1443.2999999523163]","1","2","","","21019","104","5","1","win","go","0"
"pit-trial","223","1361170","0.0-109.0","battery-v0.2","","""event"",""trial"",""time""
""fullscreenenter"",""1"",""1454""
","
","
","""event"",""trial"",""time""
""fullscreenenter"",""1"",""1454""
","
","","","530.2999999523163","","","11","21019","6852","p","elianto","#3366ff99"," "," ","1","+10","[1380.7999999523163]","1","2","","","21019","105","5","1","win","go","0"
"pit-trial","224","1366023","0.0-110.0","battery-v0.2","","""event"",""trial"",""time""
""fullscreenenter"",""1"",""1454""
","
","
","""event"",""trial"",""time""
""fullscreenenter"",""1"",""1454""
","
","","","-1","","","11","21019","6852","l","elianto","#3366ff99","-1","-1","1","+10","[]","0","2","","","21019","106","8","2","win","no-go","0"
"pit-trial","225","1370883","0.0-111.0","battery-v0.2","","""event"",""trial"",""time""
""fullscreenenter"",""1"",""1454""
","
","
","""event"",""trial"",""time""
""fullscreenenter"",""1"",""1454""
","
","","","-1","","","11","21019","6852","g","elianto","#f73b6a7A","-1","-1","1","-10","[]","0","2","","","21019","107","6","4","lose","no-go","1"
"pit-trial","226","1375736","0.0-112.0","battery-v0.2","","""event"",""trial"",""time""
""fullscreenenter"",""1"",""1454""
","
","
","""event"",""trial"",""time""
""fullscreenenter"",""1"",""1454""
","
","","","-1","","","11","21019","6852","u","elianto","#3366ff99","-1","-1","1","+10","[]","0","2","","","21019","108","9","2","win","no-go","0"
"pit-trial","227","1380590","0.0-113.0","battery-v0.2","","""event"",""trial"",""time""
""fullscreenenter"",""1"",""1454""
","
","
","""event"",""trial"",""time""
""fullscreenenter"",""1"",""1454""
","
","","","-1","","","11","21019","6852","l","elianto","#3366ff99","-1","-1","1","+10","[3383.0999999046326]","1","2","","","21019","109","8","2","win","no-go","0"
"pit-trial","228","1385442","0.0-114.0","battery-v0.2","","""event"",""trial"",""time""
""fullscreenenter"",""1"",""1454""
","
","
","""event"",""trial"",""time""
""fullscreenenter"",""1"",""1454""
","
","","","-1","","","11","21019","6852","g","elianto","#f73b6a7A","-1","-1","1","-10","[]","0","2","","","21019","110","6","4","lose","no-go","1"
"pit-trial","229","1390295","0.0-115.0","battery-v0.2","","""event"",""trial"",""time""
""fullscreenenter"",""1"",""1454""
","
","
","""event"",""trial"",""time""
""fullscreenenter"",""1"",""1454""
","
","","","-1","","","11","21019","6852","u","elianto","#3366ff99","-1","-1","1","0","[]","0","2","","","21019","111","9","2","win","no-go","1"
"pit-trial","230","1393967","0.0-116.0","battery-v0.2","","""event"",""trial"",""time""
""fullscreenenter"",""1"",""1454""
","
","
","""event"",""trial"",""time""
""fullscreenenter"",""1"",""1454""
","
","","","817.6999998092651","","","11","21019","6852","p","elianto","#3366ff99"," "," ","1","+10","[1668.8999998569489]","1","2","","","21019","112","5","1","win","go","0"
"pit-trial","231","1398821","0.0-117.0","battery-v0.2","","""event"",""trial"",""time""
""fullscreenenter"",""1"",""1454""
","
","
","""event"",""trial"",""time""
""fullscreenenter"",""1"",""1454""
","
","","","-1","","","11","21019","6852","u","elianto","#3366ff99","-1","-1","1","+10","[4369.099999904633]","1","2","","","21019","113","9","2","win","no-go","0"
"pit-trial","232","1402312","0.0-118.0","battery-v0.2","","""event"",""trial"",""time""
""fullscreenenter"",""1"",""1454""
","
","
","""event"",""trial"",""time""
""fullscreenenter"",""1"",""1454""
","
","","","637.5999999046326","","","11","21019","6852","a","elianto","#f73b6a7A"," "," ","1","0","[1487.7999999523163]","1","2","","","21019","114","7","3","lose","go","0"
"pit-trial","233","1405763","0.0-119.0","battery-v0.2","","""event"",""trial"",""time""
""fullscreenenter"",""1"",""1454""
","
","
","""event"",""trial"",""time""
""fullscreenenter"",""1"",""1454""
","
","","","598.7999999523163","","","11","21019","6852","p","elianto","#3366ff99"," "," ","1","+10","[1449.2999999523163]","1","2","","","21019","115","5","1","win","go","0"
"pit-trial","234","1410616","0.0-120.0","battery-v0.2","","""event"",""trial"",""time""
""fullscreenenter"",""1"",""1454""
","
","
","""event"",""trial"",""time""
""fullscreenenter"",""1"",""1454""
","
","","","-1","","","11","21019","6852","l","elianto","#3366ff99","-1","-1","1","+10","[]","0","2","","","21019","116","8","2","win","no-go","0"
"pit-trial","235","1415469","0.0-121.0","battery-v0.2","","""event"",""trial"",""time""
""fullscreenenter"",""1"",""1454""
","
","
","""event"",""trial"",""time""
""fullscreenenter"",""1"",""1454""
","
","","","-1","","","11","21019","6852","g","elianto","#f73b6a7A","-1","-1","1","0","[]","0","2","","","21019","117","6","4","lose","no-go","0"
"pit-trial","236","1418822","0.0-122.0","battery-v0.2","","""event"",""trial"",""time""
""fullscreenenter"",""1"",""1454""
","
","
","""event"",""trial"",""time""
""fullscreenenter"",""1"",""1454""
","
","","","498.2999999523163","","","11","21019","6852","p","elianto","#3366ff99"," "," ","1","0","[1349.6999998092651]","1","2","","","21019","118","5","1","win","go","1"
"pit-trial","237","1423676","0.0-123.0","battery-v0.2","","""event"",""trial"",""time""
""fullscreenenter"",""1"",""1454""
","
","
","""event"",""trial"",""time""
""fullscreenenter"",""1"",""1454""
","
","","","-1","","","11","21019","6852","u","elianto","#3366ff99","-1","-1","1","+10","[]","0","2","","","21019","119","9","2","win","no-go","0"
"pit-trial","238","1428529","0.0-124.0","battery-v0.2","","""event"",""trial"",""time""
""fullscreenenter"",""1"",""1454""
","
","
","""event"",""trial"",""time""
""fullscreenenter"",""1"",""1454""
","
","","","-1","","","11","21019","6852","l","elianto","#3366ff99","-1","-1","1","+10","[]","0","2","","","21019","120","8","2","win","no-go","0"
"pit-trial","239","1432156","0.0-125.0","battery-v0.2","","""event"",""trial"",""time""
""fullscreenenter"",""1"",""1454""
","
","
","""event"",""trial"",""time""
""fullscreenenter"",""1"",""1454""
","
","","","774.1999998092651","","","11","21019","6852","a","elianto","#f73b6a7A"," "," ","1","0","[1625.1999998092651]","1","2","","","21019","121","7","3","lose","go","0"
"pit-trial","240","1435689","0.0-126.0","battery-v0.2","","""event"",""trial"",""time""
""fullscreenenter"",""1"",""1454""
","
","
","""event"",""trial"",""time""
""fullscreenenter"",""1"",""1454""
","
","","","679.5","","","11","21019","6852","p","elianto","#3366ff99"," "," ","1","+10","[1531]","1","2","","","21019","122","5","1","win","go","0"
"pit-trial","241","1440543","0.0-127.0","battery-v0.2","","""event"",""trial"",""time""
""fullscreenenter"",""1"",""1454""
","
","
","""event"",""trial"",""time""
""fullscreenenter"",""1"",""1454""
","
","","","-1","","","11","21019","6852","l","elianto","#3366ff99","-1","-1","1","+10","[]","0","2","","","21019","123","8","2","win","no-go","0"
"pit-trial","242","1445396","0.0-128.0","battery-v0.2","","""event"",""trial"",""time""
""fullscreenenter"",""1"",""1454""
","
","
","""event"",""trial"",""time""
""fullscreenenter"",""1"",""1454""
","
","","","-1","","","11","21019","6852","u","elianto","#3366ff99","-1","-1","1","+10","[]","0","2","","","21019","124","9","2","win","no-go","0"
"pit-trial","243","1450249","0.0-129.0","battery-v0.2","","""event"",""trial"",""time""
""fullscreenenter"",""1"",""1454""
","
","
","""event"",""trial"",""time""
""fullscreenenter"",""1"",""1454""
","
","","","-1","","","11","21019","6852","g","elianto","#f73b6a7A","-1","-1","1","0","[]","0","2","","","21019","125","6","4","lose","no-go","0"
"pit-trial","244","1453857","0.0-130.0","battery-v0.2","","""event"",""trial"",""time""
""fullscreenenter"",""1"",""1454""
","
","
","""event"",""trial"",""time""
""fullscreenenter"",""1"",""1454""
","
","","","753","","","11","21019","6852","a","elianto","#f73b6a7A"," "," ","1","0","[1605.5]","1","2","","","21019","126","7","3","lose","go","0"
"pit-trial","245","1458710","0.0-131.0","battery-v0.2","","""event"",""trial"",""time""
""fullscreenenter"",""1"",""1454""
","
","
","""event"",""trial"",""time""
""fullscreenenter"",""1"",""1454""
","
","","","-1","","","11","21019","6852","u","elianto","#3366ff99","-1","-1","1","0","[]","0","2","","","21019","127","9","2","win","no-go","1"
"pit-trial","246","1463570","0.0-132.0","battery-v0.2","","""event"",""trial"",""time""
""fullscreenenter"",""1"",""1454""
","
","
","""event"",""trial"",""time""
""fullscreenenter"",""1"",""1454""
","
","","","-1","","","11","21019","6852","l","elianto","#3366ff99","-1","-1","1","+10","[]","0","2","","","21019","128","8","2","win","no-go","0"
"pit-trial","247","1468434","0.0-133.0","battery-v0.2","","""event"",""trial"",""time""
""fullscreenenter"",""1"",""1454""
","
","
","""event"",""trial"",""time""
""fullscreenenter"",""1"",""1454""
","
","","","-1","","","11","21019","6852","g","elianto","#f73b6a7A","-1","-1","1","-10","[]","0","2","","","21019","129","6","4","lose","no-go","1"
"pit-trial","248","1473287","0.0-134.0","battery-v0.2","","""event"",""trial"",""time""
""fullscreenenter"",""1"",""1454""
","
","
","""event"",""trial"",""time""
""fullscreenenter"",""1"",""1454""
","
","","","-1","","","11","21019","6852","u","elianto","#3366ff99","-1","-1","1","+10","[]","0","2","","","21019","130","9","2","win","no-go","0"
"pit-trial","249","1478140","0.0-135.0","battery-v0.2","","""event"",""trial"",""time""
""fullscreenenter"",""1"",""1454""
","
","
","""event"",""trial"",""time""
""fullscreenenter"",""1"",""1454""
","
","","","-1","","","11","21019","6852","l","elianto","#3366ff99","-1","-1","1","+10","[]","0","2","","","21019","131","8","2","win","no-go","0"
"pit-trial","250","1481893","0.0-136.0","battery-v0.2","","""event"",""trial"",""time""
""fullscreenenter"",""1"",""1454""
","
","
","""event"",""trial"",""time""
""fullscreenenter"",""1"",""1454""
","
","","","899.8999998569489","","","11","21019","6852","a","elianto","#f73b6a7A"," "," ","1","-10","[1750.5]","1","2","","","21019","132","7","3","lose","go","1"
"pit-trial","251","1486746","0.0-137.0","battery-v0.2","","""event"",""trial"",""time""
""fullscreenenter"",""1"",""1454""
","
","
","""event"",""trial"",""time""
""fullscreenenter"",""1"",""1454""
","
","","","-1","","","11","21019","6852","u","elianto","#3366ff99","-1","-1","1","+10","[]","0","2","","","21019","133","9","2","win","no-go","0"
"pit-trial","252","1491599","0.0-138.0","battery-v0.2","","""event"",""trial"",""time""
""fullscreenenter"",""1"",""1454""
","
","
","""event"",""trial"",""time""
""fullscreenenter"",""1"",""1454""
","
","","","-1","","","11","21019","6852","l","elianto","#3366ff99","-1","-1","1","+10","[]","0","2","","","21019","134","8","2","win","no-go","0"
"pit-trial","253","1495114","0.0-139.0","battery-v0.2","","""event"",""trial"",""time""
""fullscreenenter"",""1"",""1454""
","
","
","""event"",""trial"",""time""
""fullscreenenter"",""1"",""1454""
","
","","","660.8999998569489","","","11","21019","6852","a","elianto","#f73b6a7A"," "," ","1","0","[1512]","1","2","","","21019","135","7","3","lose","go","0"
"pit-trial","254","1499968","0.0-140.0","battery-v0.2","","""event"",""trial"",""time""
""fullscreenenter"",""1"",""1454""
","
","
","""event"",""trial"",""time""
""fullscreenenter"",""1"",""1454""
","
","","","-1","","","11","21019","6852","g","elianto","#f73b6a7A","-1","-1","1","0","[]","0","2","","","21019","136","6","4","lose","no-go","0"
"pit-trial","255","1503404","0.0-141.0","battery-v0.2","","""event"",""trial"",""time""
""fullscreenenter"",""1"",""1454""
","
","
","""event"",""trial"",""time""
""fullscreenenter"",""1"",""1454""
","
","","","581.9000000953674","","","11","21019","6852","a","elianto","#f73b6a7A"," "," ","1","0","[1432.5]","1","2","","","21019","137","7","3","lose","go","0"
"pit-trial","256","1508257","0.0-142.0","battery-v0.2","","""event"",""trial"",""time""
""fullscreenenter"",""1"",""1454""
","
","
","""event"",""trial"",""time""
""fullscreenenter"",""1"",""1454""
","
","","","-1","","","11","21019","6852","u","elianto","#3366ff99","-1","-1","1","0","[]","0","2","","","21019","138","9","2","win","no-go","1"
"pit-trial","257","1513112","0.0-143.0","battery-v0.2","","""event"",""trial"",""time""
""fullscreenenter"",""1"",""1454""
","
","
","""event"",""trial"",""time""
""fullscreenenter"",""1"",""1454""
","
","","","-1","","","11","21019","6852","g","elianto","#f73b6a7A","-1","-1","1","0","[]","0","2","","","21019","139","6","4","lose","no-go","0"
"pit-trial","258","1517965","0.0-144.0","battery-v0.2","","""event"",""trial"",""time""
""fullscreenenter"",""1"",""1454""
","
","
","""event"",""trial"",""time""
""fullscreenenter"",""1"",""1454""
","
","","","-1","","","11","21019","6852","l","elianto","#3366ff99","-1","-1","1","+10","[]","0","2","","","21019","140","8","2","win","no-go","0"
"pit-instructions","259","1645851","0.0-145.0","battery-v0.2","","""event"",""trial"",""time""
""fullscreenenter"",""1"",""1454""
","
","
","""event"",""trial"",""time""
""fullscreenenter"",""1"",""1454""
","
","","[{""page_index"":0,""viewing_time"":119522.90000009537},{""page_index"":1,""viewing_time"":8361.899999856949}]","127885.29999995232","","","","","","","","","","","","","","","","","","","","","","","",""
"pit-trial","260","1650726","0.0-146.0","battery-v0.2","","""event"",""trial"",""time""
""fullscreenenter"",""1"",""1454""
","
","
","""event"",""trial"",""time""
""fullscreenenter"",""1"",""1454""
","
","","","-1","","","11","21019","6852","n","elianto","#f73b6a7A"," ","-1","0","-10","[]","0","3","","","21019","141","0","3","lose","go","0"
"pit-trial","261","1655591","0.0-147.0","battery-v0.2","","""event"",""trial"",""time""
""fullscreenenter"",""1"",""1454""
","
","
","""event"",""trial"",""time""
""fullscreenenter"",""1"",""1454""
","
","","","-1","","","11","21019","6852","t","elianto","#f73b6a7A"," ","-1","0","-10","[]","0","3","","","21019","142","2","3","lose","go","0"
"pit-trial","262","1660456","0.0-148.0","battery-v0.2","","""event"",""trial"",""time""
""fullscreenenter"",""1"",""1454""
","
","
","""event"",""trial"",""time""
""fullscreenenter"",""1"",""1454""
","
","","","-1","","","11","21019","6852","b","elianto","#f73b6a7A","-1","-1","1","0","[]","0","3","","","21019","143","3","4","lose","no-go","0"
"pit-trial","263","1665318","0.0-149.0","battery-v0.2","","""event"",""trial"",""time""
""fullscreenenter"",""1"",""1454""
","
","
","""event"",""trial"",""time""
""fullscreenenter"",""1"",""1454""
","
","","","-1","","","11","21019","6852","f","elianto","#3366ff99","-1","-1","1","0","[]","0","3","","","21019","144","1","2","win","no-go","1"
"pit-trial","264","1670184","0.0-150.0","battery-v0.2","","""event"",""trial"",""time""
""fullscreenenter"",""1"",""1454""
","
","
","""event"",""trial"",""time""
""fullscreenenter"",""1"",""1454""
","
","","","-1","","","11","21019","6852","b","elianto","#f73b6a7A","-1","-1","1","0","[]","0","3","","","21019","145","3","4","lose","no-go","0"
"pit-trial","265","1673801","0.0-151.0","battery-v0.2","","""event"",""trial"",""time""
""fullscreenenter"",""1"",""1454""
","
","
","""event"",""trial"",""time""
""fullscreenenter"",""1"",""1454""
","
","","","759.9000000953674","","","11","21019","6852","n","elianto","#f73b6a7A"," "," ","1","0","[1612.3000001907349]","1","3","","","21019","146","0","3","lose","go","0"
"pit-trial","266","1677436","0.0-152.0","battery-v0.2","","""event"",""trial"",""time""
""fullscreenenter"",""1"",""1454""
","
","
","""event"",""trial"",""time""
""fullscreenenter"",""1"",""1454""
","
","","","778.8999998569489","","","11","21019","6852","t","elianto","#f73b6a7A"," "," ","1","-10","[1631.9000000953674]","1","3","","","21019","147","2","3","lose","go","1"
"pit-trial","267","1681023","0.0-153.0","battery-v0.2","","""event"",""trial"",""time""
""fullscreenenter"",""1"",""1454""
","
","
","""event"",""trial"",""time""
