"trial_type","trial_index","time_elapsed","internal_node_id","task_version","subject_id","interactions","blur_events","focus_events","fullscreenenter_events","fullscreenexit_events","success","view_history","rt","responses","num_errors","age","subject","participantId","rune","rune_set","hex","correct","choice","accuracy","outcome","keys","total_keys","block","practice","value","sub","trial","stimulus","robot","valence","action","sham"
"pavlovia","0","25","0.0-0.0","battery-v0.2","","""event"",""trial"",""time""
""fullscreenenter"",""1"",""2444""
","
","
","""event"",""trial"",""time""
""fullscreenenter"",""1"",""2444""
","
","","","","","","","","","","","","","","","","","","","","","","","","","","",""
"fullscreen","1","3418","0.0-1.0","battery-v0.2","","""event"",""trial"",""time""
""fullscreenenter"",""1"",""2444""
","
","
","""event"",""trial"",""time""
""fullscreenenter"",""1"",""2444""
","
","true","","","","","","","","","","","","","","","","","","","","","","","","","",""
"pit-instructions","2","7464","0.0-2.0-0.0","battery-v0.2","","""event"",""trial"",""time""
""fullscreenenter"",""1"",""2444""
","
","
","""event"",""trial"",""time""
""fullscreenenter"",""1"",""2444""
","
","","[{""page_index"":0,""viewing_time"":4037.7999999970198}]","4039.5","","","","","","","","","","","","","","","","","","","","","","","",""
"pit-comprehension","3","16645","0.0-2.0-1.0-0.0","battery-v0.2","","""event"",""trial"",""time""
""fullscreenenter"",""1"",""2444""
","
","
","""event"",""trial"",""time""
""fullscreenenter"",""1"",""2444""
","
","","","9175.90000000596","[""shark""]","0","10","3249","2884","","","","","","","","","","","","","","","","","","",""
"pit-instructions","4","19681","0.0-2.0-1.0-1.0","battery-v0.2","","""event"",""trial"",""time""
""fullscreenenter"",""1"",""2444""
","
","
","""event"",""trial"",""time""
""fullscreenenter"",""1"",""2444""
","
","","[{""page_index"":0,""viewing_time"":3020.2999999970198}]","3021.0999999940395","","","","","","","","","","","","","","","","","","","","","","","",""
"pit-comprehension","5","24693","0.0-2.0-2.0-0.0","battery-v0.2","","""event"",""trial"",""time""
""fullscreenenter"",""1"",""2444""
","
","
","""event"",""trial"",""time""
""fullscreenenter"",""1"",""2444""
","
","","","5006.0999999940395","[""tiger""]","0","10","3249","2884","","","","","","","","","","","","","","","","","","",""
"pit-instructions","6","28535","0.0-2.0-2.0-1.0","battery-v0.2","","""event"",""trial"",""time""
""fullscreenenter"",""1"",""2444""
","
","
","""event"",""trial"",""time""
""fullscreenenter"",""1"",""2444""
","
","","[{""page_index"":0,""viewing_time"":3836.2999999970198}]","3836.7000000029802","","","","","","","","","","","","","","","","","","","","","","","",""
"pit-instructions","7","130537","0.0-2.0-3.0","battery-v0.2","","""event"",""trial"",""time""
""fullscreenenter"",""1"",""2444""
","
","
","""event"",""trial"",""time""
""fullscreenenter"",""1"",""2444""
","
","","[{""page_index"":0,""viewing_time"":8220.89999999106},{""page_index"":1,""viewing_time"":7188.9000000059605},{""page_index"":2,""viewing_time"":7028.5},{""page_index"":3,""viewing_time"":5432.29999999702},{""page_index"":4,""viewing_time"":7559.5},{""page_index"":5,""viewing_time"":5776.4000000059605},{""page_index"":6,""viewing_time"":9654.29999999702},{""page_index"":7,""viewing_time"":6657.5},{""page_index"":8,""viewing_time"":7087.79999999702},{""page_index"":9,""viewing_time"":9420.59999999404},{""page_index"":10,""viewing_time"":7790.800000011921},{""page_index"":11,""viewing_time"":8608.29999999702},{""page_index"":12,""viewing_time"":6180.79999999702},{""page_index"":13,""viewing_time"":5394.0999999940395}]","102001.09999999404","","","","","","","","","","","","","","","","","","","","","","","",""
"pit-trial","8","133783","0.0-2.0-4.0-0.0","battery-v0.2","","""event"",""trial"",""time""
""fullscreenenter"",""1"",""2444""
","
","
","""event"",""trial"",""time""
""fullscreenenter"",""1"",""2444""
","
","","","385","","","10","3249","2884","&#9784;","elianto","#FFFFF080"," "," ","1","&#10004","[1237.6000000089407]","1","0","0","","","","","","","",""
"pit-trial","9","137081","0.0-2.0-4.1-0.1","battery-v0.2","","""event"",""trial"",""time""
""fullscreenenter"",""1"",""2444""
","
","
","""event"",""trial"",""time""
""fullscreenenter"",""1"",""2444""
","
","","","434.09999999403954","","","10","3249","2884","&#9784;","elianto","#FFFFF080"," "," ","1","&#10004","[1286.6000000089407]","1","0","0","","","","","","","",""
"pit-trial","10","140217","0.0-2.0-4.2-0.2","battery-v0.2","","""event"",""trial"",""time""
""fullscreenenter"",""1"",""2444""
","
","
","""event"",""trial"",""time""
""fullscreenenter"",""1"",""2444""
","
","","","274.29999999701977","","","10","3249","2884","&#9784;","elianto","#FFFFF080"," "," ","1","&#10004","[1125.5999999940395]","1","0","0","","","","","","","",""
"pit-trial","11","143904","0.0-2.0-4.3-0.3","battery-v0.2","","""event"",""trial"",""time""
""fullscreenenter"",""1"",""2444""
","
","
","""event"",""trial"",""time""
""fullscreenenter"",""1"",""2444""
","
","","","826.5","","","10","3249","2884","&#9784;","elianto","#FFFFF080"," "," ","1","&#10004","[1678.3999999910593]","1","0","0","","","","","","","",""
"pit-trial","12","147203","0.0-2.0-4.4-0.4","battery-v0.2","","""event"",""trial"",""time""
""fullscreenenter"",""1"",""2444""
","
","
","""event"",""trial"",""time""
""fullscreenenter"",""1"",""2444""
","
","","","434","","","10","3249","2884","&#9784;","elianto","#FFFFF080"," "," ","1","&#10004","[1288.2000000029802]","1","0","0","","","","","","","",""
"pit-instructions","13","183730","0.0-2.0-5.0","battery-v0.2","","""event"",""trial"",""time""
""fullscreenenter"",""1"",""2444""
","
","
","""event"",""trial"",""time""
""fullscreenenter"",""1"",""2444""
","
","","[{""page_index"":0,""viewing_time"":5381.600000008941},{""page_index"":1,""viewing_time"":6842},{""page_index"":2,""viewing_time"":6005.899999991059},{""page_index"":3,""viewing_time"":18293.70000000298}]","36524","","","","","","","","","","","","","","","","","","","","","","","",""
"pit-trial","14","188591","0.0-2.0-6.0-0.0","battery-v0.2","","""event"",""trial"",""time""
""fullscreenenter"",""1"",""2444""
","
","
","""event"",""trial"",""time""
""fullscreenenter"",""1"",""2444""
","
","","","-1","","","10","3249","2884","&#9854;","elianto","#FFFFF080","-1","-1","1","&#10004","[]","0","0","1","","","","","","","",""
"pit-trial","15","193454","0.0-2.0-6.1-0.1","battery-v0.2","","""event"",""trial"",""time""
""fullscreenenter"",""1"",""2444""
","
","
","""event"",""trial"",""time""
""fullscreenenter"",""1"",""2444""
","
","","","-1","","","10","3249","2884","&#9854;","elianto","#FFFFF080","-1","-1","1","&#10004","[]","0","0","1","","","","","","","",""
"pit-trial","16","198312","0.0-2.0-6.2-0.2","battery-v0.2","","""event"",""trial"",""time""
""fullscreenenter"",""1"",""2444""
","
","
","""event"",""trial"",""time""
""fullscreenenter"",""1"",""2444""
","
","","","-1","","","10","3249","2884","&#9854;","elianto","#FFFFF080","-1","-1","1","&#10004","[]","0","0","1","","","","","","","",""
"pit-trial","17","203168","0.0-2.0-6.3-0.3","battery-v0.2","","""event"",""trial"",""time""
""fullscreenenter"",""1"",""2444""
","
","
","""event"",""trial"",""time""
""fullscreenenter"",""1"",""2444""
","
","","","-1","","","10","3249","2884","&#9854;","elianto","#FFFFF080","-1","-1","1","&#10004","[]","0","0","1","","","","","","","",""
"pit-trial","18","208032","0.0-2.0-6.4-0.4","battery-v0.2","","""event"",""trial"",""time""
""fullscreenenter"",""1"",""2444""
","
","
","""event"",""trial"",""time""
""fullscreenenter"",""1"",""2444""
","
","","","-1","","","10","3249","2884","&#9854;","elianto","#FFFFF080","-1","-1","1","&#10004","[]","0","0","1","","","","","","","",""
"pit-instructions","19","382500","0.0-2.0-7.0","battery-v0.2","","""event"",""trial"",""time""
""fullscreenenter"",""1"",""2444""
","
","
","""event"",""trial"",""time""
""fullscreenenter"",""1"",""2444""
","
","","[{""page_index"":0,""viewing_time"":7453.79999999702},{""page_index"":1,""viewing_time"":9589.79999999702},{""page_index"":2,""viewing_time"":6095.70000000298},{""page_index"":3,""viewing_time"":7563.9000000059605},{""page_index"":4,""viewing_time"":6475.899999991059},{""page_index"":5,""viewing_time"":5809},{""page_index"":6,""viewing_time"":6326.100000008941},{""page_index"":7,""viewing_time"":8871.89999999106},{""page_index"":8,""viewing_time"":9192.20000000298},{""page_index"":9,""viewing_time"":6390.79999999702},{""page_index"":10,""viewing_time"":13459.20000000298},{""page_index"":11,""viewing_time"":5890.70000000298},{""page_index"":12,""viewing_time"":9574.20000000298},{""page_index"":13,""viewing_time"":10619.699999988079},{""page_index"":12,""viewing_time"":6302.20000000298},{""page_index"":13,""viewing_time"":6840.5},{""page_index"":14,""viewing_time"":7255.29999999702},{""page_index"":15,""viewing_time"":7189.300000011921},{""page_index"":16,""viewing_time"":25877.29999999702},{""page_index"":17,""viewing_time"":7691.5999999940395}]","174469.39999999106","","","","","","","","","","","","","","","","","","","","","","","",""
"pit-trial","20","385906","0.0-2.0-8.0-0.0","battery-v0.2","","""event"",""trial"",""time""
""fullscreenenter"",""1"",""2444""
","
","
","""event"",""trial"",""time""
""fullscreenenter"",""1"",""2444""
","
","","","549.5","","","10","3249","2884","&#9776;","elianto","#3366ff99"," "," ","1","+10","[1400.7000000029802]","1","0","1","","","","","","","",""
"pit-trial","21","388932","0.0-2.0-8.0-1.0","battery-v0.2","","""event"",""trial"",""time""
""fullscreenenter"",""1"",""2444""
","
","
","""event"",""trial"",""time""
""fullscreenenter"",""1"",""2444""
","
","","","169.40000000596046","","","10","3249","2884","&#9776;","elianto","#3366ff99"," "," ","1","+10","[1022.7999999970198]","1","0","1","","","","","","","",""
"pit-trial","22","392307","0.0-2.0-8.0-2.0","battery-v0.2","","""event"",""trial"",""time""
""fullscreenenter"",""1"",""2444""
","
","
","""event"",""trial"",""time""
""fullscreenenter"",""1"",""2444""
","
","","","519.2999999970198","","","10","3249","2884","&#9776;","elianto","#3366ff99"," "," ","1","+10","[816.5999999940395,1370.5]","2","0","1","","","","","","","",""
"pit-trial","23","395622","0.0-2.0-8.0-3.0","battery-v0.2","","""event"",""trial"",""time""
""fullscreenenter"",""1"",""2444""
","
","
","""event"",""trial"",""time""
""fullscreenenter"",""1"",""2444""
","
","","","455.29999999701977","","","10","3249","2884","&#9776;","elianto","#3366ff99"," "," ","1","0","[1307.5]","1","0","1","","","","","","","",""
"pit-trial","24","398761","0.0-2.0-8.0-4.0","battery-v0.2","","""event"",""trial"",""time""
""fullscreenenter"",""1"",""2444""
","
","
","""event"",""trial"",""time""
""fullscreenenter"",""1"",""2444""
","
","","","281.20000000298023","","","10","3249","2884","&#9776;","elianto","#3366ff99"," "," ","1","+10","[1131.199999988079]","1","0","1","","","","","","","",""
"pit-trial","25","403625","0.0-2.0-8.1-0.1","battery-v0.2","","""event"",""trial"",""time""
""fullscreenenter"",""1"",""2444""
","
","
","""event"",""trial"",""time""
""fullscreenenter"",""1"",""2444""
","
","","","-1","","","10","3249","2884","&#9776;","elianto","#3366ff99"," ","-1","0","0","[]","0","0","1","","","","","","","",""
"pit-trial","26","406917","0.0-2.0-8.1-1.1","battery-v0.2","","""event"",""trial"",""time""
""fullscreenenter"",""1"",""2444""
","
","
","""event"",""trial"",""time""
""fullscreenenter"",""1"",""2444""
","
","","","435.20000000298023","","","10","3249","2884","&#9776;","elianto","#3366ff99"," "," ","1","+10","[1287.300000011921]","1","0","1","","","","","","","",""
"pit-trial","27","410260","0.0-2.0-8.1-2.1","battery-v0.2","","""event"",""trial"",""time""
""fullscreenenter"",""1"",""2444""
","
","
","""event"",""trial"",""time""
""fullscreenenter"",""1"",""2444""
","
","","","488.19999998807907","","","10","3249","2884","&#9776;","elianto","#3366ff99"," "," ","1","+10","[1339.8999999910593]","1","0","1","","","","","","","",""
"pit-trial","28","413617","0.0-2.0-8.1-3.1","battery-v0.2","","""event"",""trial"",""time""
""fullscreenenter"",""1"",""2444""
","
","
","""event"",""trial"",""time""
""fullscreenenter"",""1"",""2444""
","
","","","499.6000000089407","","","10","3249","2884","&#9776;","elianto","#3366ff99"," "," ","1","0","[1351]","1","0","1","","","","","","","",""
"pit-trial","29","416687","0.0-2.0-8.1-4.1","battery-v0.2","","""event"",""trial"",""time""
""fullscreenenter"",""1"",""2444""
","
","
","""event"",""trial"",""time""
""fullscreenenter"",""1"",""2444""
","
","","","212.29999999701977","","","10","3249","2884","&#9776;","elianto","#3366ff99"," "," ","1","+10","[1065.4000000059605]","1","0","1","","","","","","","",""
"pit-trial","30","421550","0.0-2.0-8.2-0.2","battery-v0.2","","""event"",""trial"",""time""
""fullscreenenter"",""1"",""2444""
","
","
","""event"",""trial"",""time""
""fullscreenenter"",""1"",""2444""
","
","","","-1","","","10","3249","2884","&#9776;","elianto","#3366ff99"," ","-1","0","0","[4432]","1","0","1","","","","","","","",""
"pit-trial","31","425246","0.0-2.0-8.2-1.2","battery-v0.2","","""event"",""trial"",""time""
""fullscreenenter"",""1"",""2444""
","
","
","""event"",""trial"",""time""
""fullscreenenter"",""1"",""2444""
","
","","","837.3999999910593","","","10","3249","2884","&#9776;","elianto","#3366ff99"," "," ","1","+10","[200.40000000596046,1689.2999999970198]","2","0","1","","","","","","","",""
"pit-trial","32","428921","0.0-2.0-8.2-2.2","battery-v0.2","","""event"",""trial"",""time""
""fullscreenenter"",""1"",""2444""
","
","
","""event"",""trial"",""time""
""fullscreenenter"",""1"",""2444""
","
","","","816.7000000029802","","","10","3249","2884","&#9776;","elianto","#3366ff99"," "," ","1","+10","[1666.9000000059605]","1","0","1","","","","","","","",""
"pit-trial","33","432057","0.0-2.0-8.2-3.2","battery-v0.2","","""event"",""trial"",""time""
""fullscreenenter"",""1"",""2444""
","
","
","""event"",""trial"",""time""
""fullscreenenter"",""1"",""2444""
","
","","","275.40000000596046","","","10","3249","2884","&#9776;","elianto","#3366ff99"," "," ","1","0","[1127.199999988079]","1","0","1","","","","","","","",""
"pit-trial","34","435320","0.0-2.0-8.2-4.2","battery-v0.2","","""event"",""trial"",""time""
""fullscreenenter"",""1"",""2444""
","
","
","""event"",""trial"",""time""
""fullscreenenter"",""1"",""2444""
","
","","","407.59999999403954","","","10","3249","2884","&#9776;","elianto","#3366ff99"," "," ","1","+10","[1258.5]","1","0","1","","","","","","","",""
"call-function","35","435324","0.0-2.0-9.0","battery-v0.2","","""event"",""trial"",""time""
""fullscreenenter"",""1"",""2444""
","
","
","""event"",""trial"",""time""
""fullscreenenter"",""1"",""2444""
","
","","","","","","","","","","","","","","","","","","","","","","","","","","",""
"pit-instructions","36","511108","0.0-2.0-10.0","battery-v0.2","","""event"",""trial"",""time""
""fullscreenenter"",""1"",""2444""
","
","
","""event"",""trial"",""time""
""fullscreenenter"",""1"",""2444""
","
","","[{""page_index"":0,""viewing_time"":6783},{""page_index"":1,""viewing_time"":6996.20000000298},{""page_index"":2,""viewing_time"":10145.29999999702},{""page_index"":3,""viewing_time"":12197.5},{""page_index"":4,""viewing_time"":39663.59999999404}]","75786.20000000298","","","","","","","","","","","","","","","","","","","","","","","",""
"pit-trial","37","515969","0.0-2.0-11.0-0.0","battery-v0.2","","""event"",""trial"",""time""
""fullscreenenter"",""1"",""2444""
","
","
","""event"",""trial"",""time""
""fullscreenenter"",""1"",""2444""
","
","","","-1","","","10","3249","2884","&#9761;","elianto","#3366ff99","-1","-1","1","+10","[]","0","0","2","","","","","","","",""
"pit-trial","38","519164","0.0-2.0-11.0-1.0","battery-v0.2","","""event"",""trial"",""time""
""fullscreenenter"",""1"",""2444""
","
","
","""event"",""trial"",""time""
""fullscreenenter"",""1"",""2444""
","
","","","334.29999999701977","","","10","3249","2884","&#9761;","elianto","#3366ff99","-1"," ","0","0","[1186.7999999970198]","1","0","2","","","","","","","",""
"pit-trial","39","522268","0.0-2.0-11.0-2.0","battery-v0.2","","""event"",""trial"",""time""
""fullscreenenter"",""1"",""2444""
","
","
","""event"",""trial"",""time""
""fullscreenenter"",""1"",""2444""
","
","","","247.70000000298023","","","10","3249","2884","&#9761;","elianto","#3366ff99","-1"," ","0","0","[1100.1000000089407]","1","0","2","","","","","","","",""
"pit-trial","40","527132","0.0-2.0-11.0-3.0","battery-v0.2","","""event"",""trial"",""time""
""fullscreenenter"",""1"",""2444""
","
","
","""event"",""trial"",""time""
""fullscreenenter"",""1"",""2444""
","
","","","-1","","","10","3249","2884","&#9761;","elianto","#3366ff99","-1","-1","1","0","[]","0","0","2","","","","","","","",""
"pit-trial","41","531996","0.0-2.0-11.0-4.0","battery-v0.2","","""event"",""trial"",""time""
""fullscreenenter"",""1"",""2444""
","
","
","""event"",""trial"",""time""
""fullscreenenter"",""1"",""2444""
","
","","","-1","","","10","3249","2884","&#9761;","elianto","#3366ff99","-1","-1","1","+10","[]","0","0","2","","","","","","","",""
"pit-trial","42","535579","0.0-2.0-11.1-0.1","battery-v0.2","","""event"",""trial"",""time""
""fullscreenenter"",""1"",""2444""
","
","
","""event"",""trial"",""time""
""fullscreenenter"",""1"",""2444""
","
","","","724","","","10","3249","2884","&#9761;","elianto","#3366ff99","-1"," ","0","0","[1575.1000000089407]","1","0","2","","","","","","","",""
"pit-trial","43","540440","0.0-2.0-11.1-1.1","battery-v0.2","","""event"",""trial"",""time""
""fullscreenenter"",""1"",""2444""
","
","
","""event"",""trial"",""time""
""fullscreenenter"",""1"",""2444""
","
","","","-1","","","10","3249","2884","&#9761;","elianto","#3366ff99","-1","-1","1","+10","[]","0","0","2","","","","","","","",""
"pit-trial","44","545301","0.0-2.0-11.1-2.1","battery-v0.2","","""event"",""trial"",""time""
""fullscreenenter"",""1"",""2444""
","
","
","""event"",""trial"",""time""
""fullscreenenter"",""1"",""2444""
","
","","","-1","","","10","3249","2884","&#9761;","elianto","#3366ff99","-1","-1","1","+10","[4365.9000000059605]","1","0","2","","","","","","","",""
"pit-trial","45","549291","0.0-2.0-11.1-3.1","battery-v0.2","","""event"",""trial"",""time""
""fullscreenenter"",""1"",""2444""
","
","
","""event"",""trial"",""time""
""fullscreenenter"",""1"",""2444""
","
","","","1131.9000000059605","","","10","3249","2884","&#9761;","elianto","#3366ff99","-1"," ","0","+10","[1982.800000011921]","1","0","2","","","","","","","",""
"pit-trial","46","554149","0.0-2.0-11.1-4.1","battery-v0.2","","""event"",""trial"",""time""
""fullscreenenter"",""1"",""2444""
","
","
","""event"",""trial"",""time""
""fullscreenenter"",""1"",""2444""
","
","","","-1","","","10","3249","2884","&#9761;","elianto","#3366ff99","-1","-1","1","+10","[]","0","0","2","","","","","","","",""
"pit-trial","47","559013","0.0-2.0-11.2-0.2","battery-v0.2","","""event"",""trial"",""time""
""fullscreenenter"",""1"",""2444""
","
","
","""event"",""trial"",""time""
""fullscreenenter"",""1"",""2444""
","
","","","-1","","","10","3249","2884","&#9761;","elianto","#3366ff99","-1","-1","1","+10","[]","0","0","2","","","","","","","",""
"pit-trial","48","563866","0.0-2.0-11.2-1.2","battery-v0.2","","""event"",""trial"",""time""
""fullscreenenter"",""1"",""2444""
","
","
","""event"",""trial"",""time""
""fullscreenenter"",""1"",""2444""
","
","","","-1","","","10","3249","2884","&#9761;","elianto","#3366ff99","-1","-1","1","+10","[]","0","0","2","","","","","","","",""
"pit-trial","49","568725","0.0-2.0-11.2-2.2","battery-v0.2","","""event"",""trial"",""time""
""fullscreenenter"",""1"",""2444""
","
","
","""event"",""trial"",""time""
""fullscreenenter"",""1"",""2444""
","
","","","-1","","","10","3249","2884","&#9761;","elianto","#3366ff99","-1","-1","1","+10","[]","0","0","2","","","","","","","",""
"pit-trial","50","573583","0.0-2.0-11.2-3.2","battery-v0.2","","""event"",""trial"",""time""
""fullscreenenter"",""1"",""2444""
","
","
","""event"",""trial"",""time""
""fullscreenenter"",""1"",""2444""
","
","","","-1","","","10","3249","2884","&#9761;","elianto","#3366ff99","-1","-1","1","0","[]","0","0","2","","","","","","","",""
"pit-trial","51","577210","0.0-2.0-11.2-4.2","battery-v0.2","","""event"",""trial"",""time""
""fullscreenenter"",""1"",""2444""
","
","
","""event"",""trial"",""time""
""fullscreenenter"",""1"",""2444""
","
","","","768.5999999940395","","","10","3249","2884","&#9761;","elianto","#3366ff99","-1"," ","0","0","[1619]","1","0","2","","","","","","","",""
"pit-trial","52","582074","0.0-2.0-11.3-0.3","battery-v0.2","","""event"",""trial"",""time""
""fullscreenenter"",""1"",""2444""
","
","
","""event"",""trial"",""time""
""fullscreenenter"",""1"",""2444""
","
","","","-1","","","10","3249","2884","&#9761;","elianto","#3366ff99","-1","-1","1","+10","[]","0","0","2","","","","","","","",""
"pit-trial","53","586933","0.0-2.0-11.3-1.3","battery-v0.2","","""event"",""trial"",""time""
""fullscreenenter"",""1"",""2444""
","
","
","""event"",""trial"",""time""
""fullscreenenter"",""1"",""2444""
","
","","","-1","","","10","3249","2884","&#9761;","elianto","#3366ff99","-1","-1","1","+10","[]","0","0","2","","","","","","","",""
"pit-trial","54","591794","0.0-2.0-11.3-2.3","battery-v0.2","","""event"",""trial"",""time""
""fullscreenenter"",""1"",""2444""
","
","
","""event"",""trial"",""time""
""fullscreenenter"",""1"",""2444""
","
","","","-1","","","10","3249","2884","&#9761;","elianto","#3366ff99","-1","-1","1","+10","[]","0","0","2","","","","","","","",""
"pit-trial","55","596655","0.0-2.0-11.3-3.3","battery-v0.2","","""event"",""trial"",""time""
""fullscreenenter"",""1"",""2444""
","
","
","""event"",""trial"",""time""
""fullscreenenter"",""1"",""2444""
","
","","","-1","","","10","3249","2884","&#9761;","elianto","#3366ff99","-1","-1","1","0","[]","0","0","2","","","","","","","",""
"pit-trial","56","601518","0.0-2.0-11.3-4.3","battery-v0.2","","""event"",""trial"",""time""
""fullscreenenter"",""1"",""2444""
","
","
","""event"",""trial"",""time""
""fullscreenenter"",""1"",""2444""
","
","","","-1","","","10","3249","2884","&#9761;","elianto","#3366ff99","-1","-1","1","+10","[]","0","0","2","","","","","","","",""
"call-function","57","601521","0.0-2.0-12.0","battery-v0.2","","""event"",""trial"",""time""
""fullscreenenter"",""1"",""2444""
","
","
","""event"",""trial"",""time""
""fullscreenenter"",""1"",""2444""
","
","","","","","","","","","","","","","","","","","","","","","","","","","","",""
"pit-instructions","58","687929","0.0-2.0-13.0","battery-v0.2","","""event"",""trial"",""time""
""fullscreenenter"",""1"",""2444""
","
","
","""event"",""trial"",""time""
""fullscreenenter"",""1"",""2444""
","
","","[{""page_index"":0,""viewing_time"":8194.90000000596},{""page_index"":1,""viewing_time"":10376.39999999106},{""page_index"":2,""viewing_time"":24402.10000000894},{""page_index"":3,""viewing_time"":28128.39999999106},{""page_index"":4,""viewing_time"":15306.800000011921}]","86409.29999999702","","","","","","","","","","","","","","","","","","","","","","","",""
"pit-trial","59","692784","0.0-2.0-14.0-0.0","battery-v0.2","","""event"",""trial"",""time""
""fullscreenenter"",""1"",""2444""
","
","
","""event"",""trial"",""time""
""fullscreenenter"",""1"",""2444""
","
","","","-1","","","10","3249","2884","&#9826;","elianto","#f73b6a7A","-1","-1","1","0","[]","0","0","3","","","","","","","",""
"pit-trial","60","697644","0.0-2.0-14.0-1.0","battery-v0.2","","""event"",""trial"",""time""
""fullscreenenter"",""1"",""2444""
","
","
","""event"",""trial"",""time""
""fullscreenenter"",""1"",""2444""
","
","","","-1","","","10","3249","2884","&#9826;","elianto","#f73b6a7A","-1","-1","1","0","[]","0","0","3","","","","","","","",""
"pit-trial","61","700842","0.0-2.0-14.0-2.0","battery-v0.2","","""event"",""trial"",""time""
""fullscreenenter"",""1"",""2444""
","
","
","""event"",""trial"",""time""
""fullscreenenter"",""1"",""2444""
","
","","","337.59999999403954","","","10","3249","2884","&#9826;","elianto","#f73b6a7A","-1"," ","0","-10","[1189.2000000029802]","1","0","3","","","","","","","",""
"pit-trial","62","705706","0.0-2.0-14.0-3.0","battery-v0.2","","""event"",""trial"",""time""
""fullscreenenter"",""1"",""2444""
","
","
","""event"",""trial"",""time""
""fullscreenenter"",""1"",""2444""
","
","","","-1","","","10","3249","2884","&#9826;","elianto","#f73b6a7A","-1","-1","1","-10","[]","0","0","3","","","","","","","",""
"pit-trial","63","710566","0.0-2.0-14.0-4.0","battery-v0.2","","""event"",""trial"",""time""
""fullscreenenter"",""1"",""2444""
","
","
","""event"",""trial"",""time""
""fullscreenenter"",""1"",""2444""
","
","","","-1","","","10","3249","2884","&#9826;","elianto","#f73b6a7A","-1","-1","1","0","[]","0","0","3","","","","","","","",""
"pit-trial","64","714815","0.0-2.0-14.1-0.1","battery-v0.2","","""event"",""trial"",""time""
""fullscreenenter"",""1"",""2444""
","
","
","""event"",""trial"",""time""
""fullscreenenter"",""1"",""2444""
","
","","","1388.6000000089407","","","10","3249","2884","&#9826;","elianto","#f73b6a7A","-1"," ","0","-10","[2242.5999999940395]","1","0","3","","","","","","","",""
"pit-trial","65","719672","0.0-2.0-14.1-1.1","battery-v0.2","","""event"",""trial"",""time""
""fullscreenenter"",""1"",""2444""
","
","
","""event"",""trial"",""time""
""fullscreenenter"",""1"",""2444""
","
","","","-1","","","10","3249","2884","&#9826;","elianto","#f73b6a7A","-1","-1","1","0","[]","0","0","3","","","","","","","",""
"pit-trial","66","724533","0.0-2.0-14.1-2.1","battery-v0.2","","""event"",""trial"",""time""
""fullscreenenter"",""1"",""2444""
","
","
","""event"",""trial"",""time""
""fullscreenenter"",""1"",""2444""
","
","","","-1","","","10","3249","2884","&#9826;","elianto","#f73b6a7A","-1","-1","1","0","[]","0","0","3","","","","","","","",""
"pit-trial","67","729391","0.0-2.0-14.1-3.1","battery-v0.2","","""event"",""trial"",""time""
""fullscreenenter"",""1"",""2444""
","
","
","""event"",""trial"",""time""
""fullscreenenter"",""1"",""2444""
","
","","","-1","","","10","3249","2884","&#9826;","elianto","#f73b6a7A","-1","-1","1","-10","[]","0","0","3","","","","","","","",""
"pit-trial","68","734249","0.0-2.0-14.1-4.1","battery-v0.2","","""event"",""trial"",""time""
""fullscreenenter"",""1"",""2444""
","
","
","""event"",""trial"",""time""
""fullscreenenter"",""1"",""2444""
","
","","","-1","","","10","3249","2884","&#9826;","elianto","#f73b6a7A","-1","-1","1","0","[]","0","0","3","","","","","","","",""
"pit-trial","69","737588","0.0-2.0-14.2-0.2","battery-v0.2","","""event"",""trial"",""time""
""fullscreenenter"",""1"",""2444""
","
","
","""event"",""trial"",""time""
""fullscreenenter"",""1"",""2444""
","
","","","484.70000000298023","","","10","3249","2884","&#9826;","elianto","#f73b6a7A","-1"," ","0","-10","[1336.2999999970198]","1","0","3","","","","","","","",""
"pit-trial","70","742449","0.0-2.0-14.2-1.2","battery-v0.2","","""event"",""trial"",""time""
""fullscreenenter"",""1"",""2444""
","
","
","""event"",""trial"",""time""
""fullscreenenter"",""1"",""2444""
","
","","","-1","","","10","3249","2884","&#9826;","elianto","#f73b6a7A","-1","-1","1","0","[]","0","0","3","","","","","","","",""
"pit-trial","71","747311","0.0-2.0-14.2-2.2","battery-v0.2","","""event"",""trial"",""time""
""fullscreenenter"",""1"",""2444""
","
","
","""event"",""trial"",""time""
""fullscreenenter"",""1"",""2444""
","
","","","-1","","","10","3249","2884","&#9826;","elianto","#f73b6a7A","-1","-1","1","0","[]","0","0","3","","","","","","","",""
"pit-trial","72","752169","0.0-2.0-14.2-3.2","battery-v0.2","","""event"",""trial"",""time""
""fullscreenenter"",""1"",""2444""
","
","
","""event"",""trial"",""time""
""fullscreenenter"",""1"",""2444""
","
","","","-1","","","10","3249","2884","&#9826;","elianto","#f73b6a7A","-1","-1","1","-10","[]","0","0","3","","","","","","","",""
"pit-trial","73","757028","0.0-2.0-14.2-4.2","battery-v0.2","","""event"",""trial"",""time""
""fullscreenenter"",""1"",""2444""
","
","
","""event"",""trial"",""time""
""fullscreenenter"",""1"",""2444""
","
","","","-1","","","10","3249","2884","&#9826;","elianto","#f73b6a7A","-1","-1","1","0","[]","0","0","3","","","","","","","",""
"pit-trial","74","761886","0.0-2.0-14.3-0.3","battery-v0.2","","""event"",""trial"",""time""
""fullscreenenter"",""1"",""2444""
","
","
","""event"",""trial"",""time""
""fullscreenenter"",""1"",""2444""
","
","","","-1","","","10","3249","2884","&#9826;","elianto","#f73b6a7A","-1","-1","1","0","[]","0","0","3","","","","","","","",""
"pit-trial","75","766745","0.0-2.0-14.3-1.3","battery-v0.2","","""event"",""trial"",""time""
""fullscreenenter"",""1"",""2444""
","
","
","""event"",""trial"",""time""
""fullscreenenter"",""1"",""2444""
","
","","","-1","","","10","3249","2884","&#9826;","elianto","#f73b6a7A","-1","-1","1","0","[]","0","0","3","","","","","","","",""
"pit-trial","76","771609","0.0-2.0-14.3-2.3","battery-v0.2","","""event"",""trial"",""time""
""fullscreenenter"",""1"",""2444""
","
","
","""event"",""trial"",""time""
""fullscreenenter"",""1"",""2444""
","
","","","-1","","","10","3249","2884","&#9826;","elianto","#f73b6a7A","-1","-1","1","0","[]","0","0","3","","","","","","","",""
"pit-trial","77","776467","0.0-2.0-14.3-3.3","battery-v0.2","","""event"",""trial"",""time""
""fullscreenenter"",""1"",""2444""
","
","
","""event"",""trial"",""time""
""fullscreenenter"",""1"",""2444""
","
","","","-1","","","10","3249","2884","&#9826;","elianto","#f73b6a7A","-1","-1","1","-10","[]","0","0","3","","","","","","","",""
"pit-trial","78","781329","0.0-2.0-14.3-4.3","battery-v0.2","","""event"",""trial"",""time""
""fullscreenenter"",""1"",""2444""
","
","
","""event"",""trial"",""time""
""fullscreenenter"",""1"",""2444""
","
","","","-1","","","10","3249","2884","&#9826;","elianto","#f73b6a7A","-1","-1","1","0","[]","0","0","3","","","","","","","",""
"call-function","79","781332","0.0-2.0-15.0","battery-v0.2","","""event"",""trial"",""time""
""fullscreenenter"",""1"",""2444""
","
","
","""event"",""trial"",""time""
""fullscreenenter"",""1"",""2444""
","
","","","","","","","","","","","","","","","","","","","","","","","","","","",""
"pit-instructions","80","822112","0.0-2.0-16.0","battery-v0.2","","""event"",""trial"",""time""
""fullscreenenter"",""1"",""2444""
","
","
","""event"",""trial"",""time""
""fullscreenenter"",""1"",""2444""
","
","","[{""page_index"":0,""viewing_time"":15338.40000000596},{""page_index"":1,""viewing_time"":9491.29999999702},{""page_index"":2,""viewing_time"":8107.70000000298},{""page_index"":3,""viewing_time"":7842.399999991059}]","40780.79999999702","","","","","","","","","","","","","","","","","","","","","","","",""
"pit-trial","81","825365","0.0-2.0-17.0-0.0","battery-v0.2","","""event"",""trial"",""time""
""fullscreenenter"",""1"",""2444""
","
","
","""event"",""trial"",""time""
""fullscreenenter"",""1"",""2444""
","
","","","395.09999999403954","","","10","3249","2884","&#9789;","elianto","#f73b6a7A"," "," ","1","0","[1245.300000011921]","1","0","4","","","","","","","",""
"pit-trial","82","828629","0.0-2.0-17.0-1.0","battery-v0.2","","""event"",""trial"",""time""
""fullscreenenter"",""1"",""2444""
","
","
","""event"",""trial"",""time""
""fullscreenenter"",""1"",""2444""
","
","","","402.79999999701977","","","10","3249","2884","&#9789;","elianto","#f73b6a7A"," "," ","1","0","[1256.6000000089407]","1","0","4","","","","","","","",""
"pit-trial","83","831860","0.0-2.0-17.0-2.0","battery-v0.2","","""event"",""trial"",""time""
""fullscreenenter"",""1"",""2444""
","
","
","""event"",""trial"",""time""
""fullscreenenter"",""1"",""2444""
","
","","","367.79999999701977","","","10","3249","2884","&#9789;","elianto","#f73b6a7A"," "," ","1","0","[1223]","1","0","4","","","","","","","",""
"pit-trial","84","836725","0.0-2.0-17.0-3.0","battery-v0.2","","""event"",""trial"",""time""
""fullscreenenter"",""1"",""2444""
","
","
","""event"",""trial"",""time""
""fullscreenenter"",""1"",""2444""
","
","","","-1","","","10","3249","2884","&#9789;","elianto","#f73b6a7A"," ","-1","0","0","[]","0","0","4","","","","","","","",""
"pit-trial","85","840025","0.0-2.0-17.0-4.0","battery-v0.2","","""event"",""trial"",""time""
""fullscreenenter"",""1"",""2444""
","
","
","""event"",""trial"",""time""
""fullscreenenter"",""1"",""2444""
","
","","","440.29999999701977","","","10","3249","2884","&#9789;","elianto","#f73b6a7A"," "," ","1","0","[1291.7000000029802]","1","0","4","","","","","","","",""
"pit-trial","86","843594","0.0-2.0-17.1-0.1","battery-v0.2","","""event"",""trial"",""time""
""fullscreenenter"",""1"",""2444""
","
","
","""event"",""trial"",""time""
""fullscreenenter"",""1"",""2444""
","
","","","705.4000000059605","","","10","3249","2884","&#9789;","elianto","#f73b6a7A"," "," ","1","0","[1559.2000000029802]","1","0","4","","","","","","","",""
"pit-trial","87","846908","0.0-2.0-17.1-1.1","battery-v0.2","","""event"",""trial"",""time""
""fullscreenenter"",""1"",""2444""
","
","
","""event"",""trial"",""time""
""fullscreenenter"",""1"",""2444""
","
","","","456.40000000596046","","","10","3249","2884","&#9789;","elianto","#f73b6a7A"," "," ","1","0","[1307.0999999940395]","1","0","4","","","","","","","",""
"pit-trial","88","850869","0.0-2.0-17.1-2.1","battery-v0.2","","""event"",""trial"",""time""
""fullscreenenter"",""1"",""2444""
","
","
","""event"",""trial"",""time""
""fullscreenenter"",""1"",""2444""
","
","","","1101.699999988079","","","10","3249","2884","&#9789;","elianto","#f73b6a7A"," "," ","1","0","[816.7999999970198,1955.5]","2","0","4","","","","","","","",""
"pit-trial","89","854279","0.0-2.0-17.1-3.1","battery-v0.2","","""event"",""trial"",""time""
""fullscreenenter"",""1"",""2444""
","
","
","""event"",""trial"",""time""
""fullscreenenter"",""1"",""2444""
","
","","","548","","","10","3249","2884","&#9789;","elianto","#f73b6a7A"," "," ","1","-10","[1401.7000000029802]","1","0","4","","","","","","","",""
"pit-trial","90","859141","0.0-2.0-17.1-4.1","battery-v0.2","","""event"",""trial"",""time""
""fullscreenenter"",""1"",""2444""
","
","
","""event"",""trial"",""time""
""fullscreenenter"",""1"",""2444""
","
","","","-1","","","10","3249","2884","&#9789;","elianto","#f73b6a7A"," ","-1","0","-10","[]","0","0","4","","","","","","","",""
"pit-trial","91","863999","0.0-2.0-17.2-0.2","battery-v0.2","","""event"",""trial"",""time""
""fullscreenenter"",""1"",""2444""
","
","
","""event"",""trial"",""time""
""fullscreenenter"",""1"",""2444""
","
","","","-1","","","10","3249","2884","&#9789;","elianto","#f73b6a7A"," ","-1","0","-10","[]","0","0","4","","","","","","","",""
"pit-trial","92","868861","0.0-2.0-17.2-1.2","battery-v0.2","","""event"",""trial"",""time""
""fullscreenenter"",""1"",""2444""
","
","
","""event"",""trial"",""time""
""fullscreenenter"",""1"",""2444""
","
","","","-1","","","10","3249","2884","&#9789;","elianto","#f73b6a7A"," ","-1","0","-10","[]","0","0","4","","","","","","","",""
"pit-trial","93","873722","0.0-2.0-17.2-2.2","battery-v0.2","","""event"",""trial"",""time""
""fullscreenenter"",""1"",""2444""
","
","
","""event"",""trial"",""time""
""fullscreenenter"",""1"",""2444""
","
","","","-1","","","10","3249","2884","&#9789;","elianto","#f73b6a7A"," ","-1","0","-10","[]","0","0","4","","","","","","","",""
"pit-trial","94","878580","0.0-2.0-17.2-3.2","battery-v0.2","","""event"",""trial"",""time""
""fullscreenenter"",""1"",""2444""
","
","
","""event"",""trial"",""time""
""fullscreenenter"",""1"",""2444""
","
","","","-1","","","10","3249","2884","&#9789;","elianto","#f73b6a7A"," ","-1","0","0","[]","0","0","4","","","","","","","",""
"pit-trial","95","883439","0.0-2.0-17.2-4.2","battery-v0.2","","""event"",""trial"",""time""
""fullscreenenter"",""1"",""2444""
","
","
","""event"",""trial"",""time""
""fullscreenenter"",""1"",""2444""
","
","","","-1","","","10","3249","2884","&#9789;","elianto","#f73b6a7A"," ","-1","0","-10","[]","0","0","4","","","","","","","",""
"pit-trial","96","887551","0.0-2.0-17.3-0.3","battery-v0.2","","""event"",""trial"",""time""
""fullscreenenter"",""1"",""2444""
","
","
","""event"",""trial"",""time""
""fullscreenenter"",""1"",""2444""
","
","","","1248.7000000029802","","","10","3249","2884","&#9789;","elianto","#f73b6a7A"," "," ","1","0","[2102.9000000059605]","1","0","4","","","","","","","",""
"pit-trial","97","891076","0.0-2.0-17.3-1.3","battery-v0.2","","""event"",""trial"",""time""
""fullscreenenter"",""1"",""2444""
","
","
","""event"",""trial"",""time""
""fullscreenenter"",""1"",""2444""
","
","","","668.2000000029802","","","10","3249","2884","&#9789;","elianto","#f73b6a7A"," "," ","1","0","[1518.3999999910593]","1","0","4","","","","","","","",""
"pit-trial","98","895668","0.0-2.0-17.3-2.3","battery-v0.2","","""event"",""trial"",""time""
""fullscreenenter"",""1"",""2444""
","
","
","""event"",""trial"",""time""
""fullscreenenter"",""1"",""2444""
","
","","","1730.4000000059605","","","10","3249","2884","&#9789;","elianto","#f73b6a7A"," "," ","1","0","[2585.699999988079]","1","0","4","","","","","","","",""
"pit-trial","99","900526","0.0-2.0-17.3-3.3","battery-v0.2","","""event"",""trial"",""time""
""fullscreenenter"",""1"",""2444""
","
","
","""event"",""trial"",""time""
""fullscreenenter"",""1"",""2444""
","
","","","-1","","","10","3249","2884","&#9789;","elianto","#f73b6a7A"," ","-1","0","0","[]","0","0","4","","","","","","","",""
"pit-trial","100","904164","0.0-2.0-17.3-4.3","battery-v0.2","","""event"",""trial"",""time""
""fullscreenenter"",""1"",""2444""
","
","
","""event"",""trial"",""time""
""fullscreenenter"",""1"",""2444""
","
","","","776.6999999880791","","","10","3249","2884","&#9789;","elianto","#f73b6a7A"," "," ","1","0","[1630.4000000059605]","1","0","4","","","","","","","",""
"call-function","101","904166","0.0-2.0-18.0","battery-v0.2","","""event"",""trial"",""time""
""fullscreenenter"",""1"",""2444""
","
","
","""event"",""trial"",""time""
""fullscreenenter"",""1"",""2444""
","
","","","","","","","","","","","","","","","","","","","","","","","","","","",""
"pit-instructions","102","1019342","0.0-2.0-19.0","battery-v0.2","","""event"",""trial"",""time""
""fullscreenenter"",""1"",""2444""
","
","
","""event"",""trial"",""time""
""fullscreenenter"",""1"",""2444""
","
","","[{""page_index"":0,""viewing_time"":7870.70000000298},{""page_index"":1,""viewing_time"":8127.9000000059605},{""page_index"":2,""viewing_time"":19157.89999999106},{""page_index"":3,""viewing_time"":8874.10000000894},{""page_index"":4,""viewing_time"":16090.5},{""page_index"":5,""viewing_time"":10813},{""page_index"":6,""viewing_time"":24331.89999999106},{""page_index"":7,""viewing_time"":15653.60000000894},{""page_index"":8,""viewing_time"":4256.79999999702}]","115177.60000000894","","","","","","","","","","","","","","","","","","","","","","","",""
"pit-comprehension","103","1028152","0.0-2.0-20.0-0.0","battery-v0.2","","""event"",""trial"",""time""
""fullscreenenter"",""1"",""2444""
","
","
","""event"",""trial"",""time""
""fullscreenenter"",""1"",""2444""
","
","","","8806.09999999404","[""SPACE""]","0","10","3249","2884","","","","","","","","","","","","","","","","","","",""
"pit-instructions","104","1034106","0.0-2.0-20.0-1.0","battery-v0.2","","""event"",""trial"",""time""
""fullscreenenter"",""1"",""2444""
","
","
","""event"",""trial"",""time""
""fullscreenenter"",""1"",""2444""
","
","","[{""page_index"":0,""viewing_time"":5909.399999991059}]","5909.70000000298","","","","","","","","","","","","","","","","","","","","","","","",""
"pit-comprehension","105","1047625","0.0-2.0-21.0-0.0","battery-v0.2","","""event"",""trial"",""time""
""fullscreenenter"",""1"",""2444""
","
","
","""event"",""trial"",""time""
""fullscreenenter"",""1"",""2444""
","
","","","13515.59999999404","[""10""]","0","10","3249","2884","","","","","","","","","","","","","","","","","","",""
"pit-instructions","106","1049283","0.0-2.0-21.0-1.0","battery-v0.2","","""event"",""trial"",""time""
""fullscreenenter"",""1"",""2444""
","
","
","""event"",""trial"",""time""
""fullscreenenter"",""1"",""2444""
","
","","[{""page_index"":0,""viewing_time"":1613.5}]","1613.7999999970198","","","","","","","","","","","","","","","","","","","","","","","",""
"pit-comprehension","107","1061834","0.0-2.0-22.0-0.0","battery-v0.2","","""event"",""trial"",""time""
""fullscreenenter"",""1"",""2444""
","
","
","""event"",""trial"",""time""
""fullscreenenter"",""1"",""2444""
","
","","","12548","[""0""]","0","10","3249","2884","","","","","","","","","","","","","","","","","","",""
"pit-instructions","108","1063823","0.0-2.0-22.0-1.0","battery-v0.2","","""event"",""trial"",""time""
""fullscreenenter"",""1"",""2444""
","
","
","""event"",""trial"",""time""
""fullscreenenter"",""1"",""2444""
","
","","[{""page_index"":0,""viewing_time"":1943.800000011921}]","1944.5","","","","","","","","","","","","","","","","","","","","","","","",""
"pit-comprehension","109","1074753","0.0-2.0-23.0-0.0","battery-v0.2","","""event"",""trial"",""time""
""fullscreenenter"",""1"",""2444""
","
","
","""event"",""trial"",""time""
""fullscreenenter"",""1"",""2444""
","
","","","10925.79999999702","[""True""]","0","10","3249","2884","","","","","","","","","","","","","","","","","","",""
"pit-instructions","110","1079490","0.0-2.0-23.0-1.0","battery-v0.2","","""event"",""trial"",""time""
""fullscreenenter"",""1"",""2444""
","
","
","""event"",""trial"",""time""
""fullscreenenter"",""1"",""2444""
","
","","[{""page_index"":0,""viewing_time"":4687.79999999702}]","4688.0999999940395","","","","","","","","","","","","","","","","","","","","","","","",""
"pit-comprehension","111","1110171","0.0-2.0-24.0-0.0","battery-v0.2","","""event"",""trial"",""time""
""fullscreenenter"",""1"",""2444""
","
","
","""event"",""trial"",""time""
""fullscreenenter"",""1"",""2444""
","
","","","30677.5","[""True""]","0","10","3249","2884","","","","","","","","","","","","","","","","","","",""
"pit-instructions","112","1112592","0.0-2.0-24.0-1.0","battery-v0.2","","""event"",""trial"",""time""
""fullscreenenter"",""1"",""2444""
","
","
","""event"",""trial"",""time""
""fullscreenenter"",""1"",""2444""
","
","","[{""page_index"":0,""viewing_time"":2375.0999999940395}]","2376","","","","","","","","","","","","","","","","","","","","","","","",""
"pit-comprehension","113","1124291","0.0-2.0-25.0-0.0","battery-v0.2","","""event"",""trial"",""time""
""fullscreenenter"",""1"",""2444""
","
","
","""event"",""trial"",""time""
""fullscreenenter"",""1"",""2444""
","
","","","11694","[""True""]","0","10","3249","2884","","","","","","","","","","","","","","","","","","",""
"pit-instructions","114","1126222","0.0-2.0-25.0-1.0","battery-v0.2","","""event"",""trial"",""time""
""fullscreenenter"",""1"",""2444""
","
","
","""event"",""trial"",""time""
""fullscreenenter"",""1"",""2444""
","
","","[{""page_index"":0,""viewing_time"":1885.300000011921}]","1885.6000000089407","","","","","","","","","","","","","","","","","","","","","","","",""
"pit-comprehension","115","1137364","0.0-2.0-26.0-0.0","battery-v0.2","","""event"",""trial"",""time""
""fullscreenenter"",""1"",""2444""
","
","
","""event"",""trial"",""time""
""fullscreenenter"",""1"",""2444""
","
","","","11139.20000000298","[""False""]","0","10","3249","2884","","","","","","","","","","","","","","","","","","",""
"pit-instructions","116","1139872","0.0-2.0-26.0-1.0","battery-v0.2","","""event"",""trial"",""time""
""fullscreenenter"",""1"",""2444""
","
","
","""event"",""trial"",""time""
""fullscreenenter"",""1"",""2444""
","
","","[{""page_index"":0,""viewing_time"":2460.9000000059605}]","2461.6000000089407","","","","","","","","","","","","","","","","","","","","","","","",""
"pit-instructions","117","1165192","0.0-3.0","battery-v0.2","","""event"",""trial"",""time""
""fullscreenenter"",""1"",""2444""
","
","
","""event"",""trial"",""time""
""fullscreenenter"",""1"",""2444""
","
","","[{""page_index"":0,""viewing_time"":6165.20000000298},{""page_index"":1,""viewing_time"":8937.29999999702},{""page_index"":2,""viewing_time"":10215.29999999702}]","25318","","","","","","","","","","","","","","","","","","","","","","","",""
"pit-trial","118","1169093","0.0-4.0","battery-v0.2","","""event"",""trial"",""time""
""fullscreenenter"",""1"",""2444""
","
","
","""event"",""trial"",""time""
""fullscreenenter"",""1"",""2444""
","
","","","1042.2999999970198","","","10","3249","2884","&#9730;","elianto","#3366ff99"," "," ","1","+10","[1895.4000000059605]","1","1","","","3249","1","1","1","win","go","0"
"pit-trial","119","1172970","0.0-5.0","battery-v0.2","","""event"",""trial"",""time""
""fullscreenenter"",""1"",""2444""
","
","
","""event"",""trial"",""time""
""fullscreenenter"",""1"",""2444""
","
","","","1020.4000000059605","","","10","3249","2884","&#9733;","elianto","#3366ff99","-1"," ","0","0","[1872.6000000089407]","1","1","","","3249","2","2","2","win","no-go","0"
"pit-trial","120","1177824","0.0-6.0","battery-v0.2","","""event"",""trial"",""time""
""fullscreenenter"",""1"",""2444""
","
","
","""event"",""trial"",""time""
""fullscreenenter"",""1"",""2444""
","
","","","-1","","","10","3249","2884","&#9752;","elianto","#f73b6a7A"," ","-1","0","-10","[]","0","1","","","3249","3","3","3","lose","go","0"
"pit-trial","121","1182026","0.0-7.0","battery-v0.2","","""event"",""trial"",""time""
""fullscreenenter"",""1"",""2444""
","
","
","""event"",""trial"",""time""
""fullscreenenter"",""1"",""2444""
","
","","","1345.2999999970198","","","10","3249","2884","&#9728;","elianto","#f73b6a7A","-1"," ","0","-10","[2196.5]","1","1","","","3249","4","0","4","lose","no-go","0"
"pit-trial","122","1186885","0.0-8.0","battery-v0.2","","""event"",""trial"",""time""
""fullscreenenter"",""1"",""2444""
","
","
","""event"",""trial"",""time""
""fullscreenenter"",""1"",""2444""
","
","","","-1","","","10","3249","2884","&#9752;","elianto","#f73b6a7A"," ","-1","0","-10","[]","0","1","","","3249","5","3","3","lose","go","0"
"pit-trial","123","1190861","0.0-9.0","battery-v0.2","","""event"",""trial"",""time""
""fullscreenenter"",""1"",""2444""
","
","
","""event"",""trial"",""time""
""fullscreenenter"",""1"",""2444""
","
","","","1115.5999999940395","","","10","3249","2884","&#9730;","elianto","#3366ff99"," "," ","1","+10","[1969.5]","1","1","","","3249","6","1","1","win","go","0"
"pit-trial","124","1195724","0.0-10.0","battery-v0.2","","""event"",""trial"",""time""
""fullscreenenter"",""1"",""2444""
","
","
","""event"",""trial"",""time""
""fullscreenenter"",""1"",""2444""
","
","","","-1","","","10","3249","2884","&#9728;","elianto","#f73b6a7A","-1","-1","1","0","[3594.7999999970198]","1","1","","","3249","7","0","4","lose","no-go","0"
"pit-trial","125","1199514","0.0-11.0","battery-v0.2","","""event"",""trial"",""time""
""fullscreenenter"",""1"",""2444""
","
","
","""event"",""trial"",""time""
""fullscreenenter"",""1"",""2444""
","
","","","929.1000000089407","","","10","3249","2884","&#9733;","elianto","#3366ff99","-1"," ","0","0","[1782.9000000059605]","1","1","","","3249","8","2","2","win","no-go","0"
"pit-trial","126","1203810","0.0-12.0","battery-v0.2","","""event"",""trial"",""time""
""fullscreenenter"",""1"",""2444""
","
","
","""event"",""trial"",""time""
""fullscreenenter"",""1"",""2444""
","
","","","1437.2999999970198","","","10","3249","2884","&#9728;","elianto","#f73b6a7A","-1"," ","0","-10","[2287.2999999970198]","1","1","","","3249","9","0","4","lose","no-go","0"
"pit-trial","127","1207642","0.0-13.0","battery-v0.2","","""event"",""trial"",""time""
""fullscreenenter"",""1"",""2444""
","
","
","""event"",""trial"",""time""
""fullscreenenter"",""1"",""2444""
","
","","","974.6999999880791","","","10","3249","2884","&#9733;","elianto","#3366ff99","-1"," ","0","+10","[1826.4000000059605]","1","1","","","3249","10","2","2","win","no-go","1"
"pit-trial","128","1212500","0.0-14.0","battery-v0.2","","""event"",""trial"",""time""
""fullscreenenter"",""1"",""2444""
","
","
","""event"",""trial"",""time""
""fullscreenenter"",""1"",""2444""
","
","","","-1","","","10","3249","2884","&#9752;","elianto","#f73b6a7A"," ","-1","0","-10","[]","0","1","","","3249","11","3","3","lose","go","0"
"pit-trial","129","1215953","0.0-15.0","battery-v0.2","","""event"",""trial"",""time""
""fullscreenenter"",""1"",""2444""
","
","
","""event"",""trial"",""time""
""fullscreenenter"",""1"",""2444""
","
","","","592.7999999970198","","","10","3249","2884","&#9730;","elianto","#3366ff99"," "," ","1","+10","[1443.7000000029802]","1","1","","","3249","12","1","1","win","go","0"
"pit-trial","130","1219814","0.0-16.0","battery-v0.2","","""event"",""trial"",""time""
""fullscreenenter"",""1"",""2444""
","
","
","""event"",""trial"",""time""
""fullscreenenter"",""1"",""2444""
","
","","","1002","","","10","3249","2884","&#9730;","elianto","#3366ff99"," "," ","1","+10","[1853.7000000029802]","1","1","","","3249","13","1","1","win","go","0"
"pit-trial","131","1224676","0.0-17.0","battery-v0.2","","""event"",""trial"",""time""
""fullscreenenter"",""1"",""2444""
","
","
","""event"",""trial"",""time""
""fullscreenenter"",""1"",""2444""
","
","","","-1","","","10","3249","2884","&#9752;","elianto","#f73b6a7A"," ","-1","0","-10","[]","0","1","","","3249","14","3","3","lose","go","0"
"pit-trial","132","1228196","0.0-18.0","battery-v0.2","","""event"",""trial"",""time""
""fullscreenenter"",""1"",""2444""
","
","
","""event"",""trial"",""time""
""fullscreenenter"",""1"",""2444""
","
","","","662.8999999910593","","","10","3249","2884","&#9733;","elianto","#3366ff99","-1"," ","0","0","[1516.7000000029802]","1","1","","","3249","15","2","2","win","no-go","0"
"pit-trial","133","1233056","0.0-19.0","battery-v0.2","","""event"",""trial"",""time""
""fullscreenenter"",""1"",""2444""
","
","
","""event"",""trial"",""time""
""fullscreenenter"",""1"",""2444""
","
","","","-1","","","10","3249","2884","&#9728;","elianto","#f73b6a7A","-1","-1","1","0","[]","0","1","","","3249","16","0","4","lose","no-go","0"
"pit-trial","134","1236662","0.0-20.0","battery-v0.2","","""event"",""trial"",""time""
""fullscreenenter"",""1"",""2444""
","
","
","""event"",""trial"",""time""
""fullscreenenter"",""1"",""2444""
","
","","","749.2000000029802","","","10","3249","2884","&#9730;","elianto","#3366ff99"," "," ","1","0","[1600.4000000059605]","1","1","","","3249","17","1","1","win","go","1"
"pit-trial","135","1240681","0.0-21.0","battery-v0.2","","""event"",""trial"",""time""
""fullscreenenter"",""1"",""2444""
","
","
","""event"",""trial"",""time""
""fullscreenenter"",""1"",""2444""
","
","","","1158.7999999970198","","","10","3249","2884","&#9752;","elianto","#f73b6a7A"," "," ","1","0","[2011.8999999910593]","1","1","","","3249","18","3","3","lose","go","0"
"pit-trial","136","1245118","0.0-22.0","battery-v0.2","","""event"",""trial"",""time""
""fullscreenenter"",""1"",""2444""
","
","
","""event"",""trial"",""time""
""fullscreenenter"",""1"",""2444""
","
","","","1575","","","10","3249","2884","&#9728;","elianto","#f73b6a7A","-1"," ","0","-10","[2429.4000000059605]","1","1","","","3249","19","0","4","lose","no-go","0"
"pit-trial","137","1248852","0.0-23.0","battery-v0.2","","""event"",""trial"",""time""
""fullscreenenter"",""1"",""2444""
","
","
","""event"",""trial"",""time""
""fullscreenenter"",""1"",""2444""
","
","","","874.5999999940395","","","10","3249","2884","&#9733;","elianto","#3366ff99","-1"," ","0","0","[1724.7000000029802]","1","1","","","3249","20","2","2","win","no-go","0"
"pit-instructions","138","1276426","0.0-24.0","battery-v0.2","","""event"",""trial"",""time""
""fullscreenenter"",""1"",""2444""
","
","
","""event"",""trial"",""time""
""fullscreenenter"",""1"",""2444""
","
","","[{""page_index"":0,""viewing_time"":20209.5},{""page_index"":1,""viewing_time"":7362.79999999702}]","27573","","","","","","","","","","","","","","","","","","","","","","","",""
"pit-trial","139","1280695","0.0-25.0","battery-v0.2","","""event"",""trial"",""time""
""fullscreenenter"",""1"",""2444""
","
","
","""event"",""trial"",""time""
""fullscreenenter"",""1"",""2444""
","
","","","1408.7999999970198","","","10","3249","2884","h","elianto","#f73b6a7A","-1"," ","0","-10","[2261.7999999970198]","1","2","","","3249","21","3","4","lose","no-go","0"
"pit-trial","140","1284483","0.0-26.0","battery-v0.2","","""event"",""trial"",""time""
""fullscreenenter"",""1"",""2444""
","
","
","""event"",""trial"",""time""
""fullscreenenter"",""1"",""2444""
","
","","","927.3999999910593","","","10","3249","2884","r","elianto","#3366ff99","-1"," ","0","0","[1779.8999999910593]","1","2","","","3249","22","1","2","win","no-go","0"
"pit-trial","141","1289340","0.0-27.0","battery-v0.2","","""event"",""trial"",""time""
""fullscreenenter"",""1"",""2444""
","
","
","""event"",""trial"",""time""
""fullscreenenter"",""1"",""2444""
","
","","","-1","","","10","3249","2884","m","elianto","#f73b6a7A"," ","-1","0","-10","[]","0","2","","","3249","23","0","3","lose","go","0"
"pit-trial","142","1294202","0.0-28.0","battery-v0.2","","""event"",""trial"",""time""
""fullscreenenter"",""1"",""2444""
","
","
","""event"",""trial"",""time""
""fullscreenenter"",""1"",""2444""
","
","","","-1","","","10","3249","2884","y","elianto","#f73b6a7A"," ","-1","0","-10","[]","0","2","","","3249","24","2","3","lose","go","0"
"pit-trial","143","1299063","0.0-29.0","battery-v0.2","","""event"",""trial"",""time""
""fullscreenenter"",""1"",""2444""
","
","
","""event"",""trial"",""time""
""fullscreenenter"",""1"",""2444""
","
","","","-1","","","10","3249","2884","h","elianto","#f73b6a7A","-1","-1","1","0","[]","0","2","","","3249","25","3","4","lose","no-go","0"
"pit-trial","144","1303926","0.0-30.0","battery-v0.2","","""event"",""trial"",""time""
""fullscreenenter"",""1"",""2444""
","
","
","""event"",""trial"",""time""
""fullscreenenter"",""1"",""2444""
","
","","","-1","","","10","3249","2884","m","elianto","#f73b6a7A"," ","-1","0","-10","[]","0","2","","","3249","26","0","3","lose","go","0"
"pit-trial","145","1307619","0.0-31.0","battery-v0.2","","""event"",""trial"",""time""
""fullscreenenter"",""1"",""2444""
","
","
","""event"",""trial"",""time""
""fullscreenenter"",""1"",""2444""
","
","","","837.0999999940395","","","10","3249","2884","r","elianto","#3366ff99","-1"," ","0","0","[1687.2000000029802]","1","2","","","3249","27","1","2","win","no-go","0"
"pit-trial","146","1312481","0.0-32.0","battery-v0.2","","""event"",""trial"",""time""
""fullscreenenter"",""1"",""2444""
","
","
","""event"",""trial"",""time""
""fullscreenenter"",""1"",""2444""
","
","","","-1","","","10","3249","2884","y","elianto","#f73b6a7A"," ","-1","0","-10","[]","0","2","","","3249","28","2","3","lose","go","0"
"pit-trial","147","1317343","0.0-33.0","battery-v0.2","","""event"",""trial"",""time""
""fullscreenenter"",""1"",""2444""
","
","
","""event"",""trial"",""time""
""fullscreenenter"",""1"",""2444""
","
","","","-1","","","10","3249","2884","h","elianto","#f73b6a7A","-1","-1","1","0","[]","0","2","","","3249","29","3","4","lose","no-go","0"
"pit-trial","148","1322203","0.0-34.0","battery-v0.2","","""event"",""trial"",""time""
""fullscreenenter"",""1"",""2444""
","
","
","""event"",""trial"",""time""
""fullscreenenter"",""1"",""2444""
","
","","","-1","","","10","3249","2884","y","elianto","#f73b6a7A"," ","-1","0","0","[]","0","2","","","3249","30","2","3","lose","go","1"
"pit-trial","149","1327061","0.0-35.0","battery-v0.2","","""event"",""trial"",""time""
""fullscreenenter"",""1"",""2444""
","
","
","""event"",""trial"",""time""
""fullscreenenter"",""1"",""2444""
","
","","","-1","","","10","3249","2884","m","elianto","#f73b6a7A"," ","-1","0","-10","[]","0","2","","","3249","31","0","3","lose","go","0"
"pit-trial","150","1330638","0.0-36.0","battery-v0.2","","""event"",""trial"",""time""
""fullscreenenter"",""1"",""2444""
","
","
","""event"",""trial"",""time""
""fullscreenenter"",""1"",""2444""
","
","","","719.4000000059605","","","10","3249","2884","r","elianto","#3366ff99","-1"," ","0","0","[1572]","1","2","","","3249","32","1","2","win","no-go","0"
"pit-trial","151","1334565","0.0-37.0","battery-v0.2","","""event"",""trial"",""time""
""fullscreenenter"",""1"",""2444""
","
","
","""event"",""trial"",""time""
""fullscreenenter"",""1"",""2444""
","
","","","1067.9000000059605","","","10","3249","2884","r","elianto","#3366ff99","-1"," ","0","0","[1918.4000000059605]","1","2","","","3249","33","1","2","win","no-go","0"
"pit-trial","152","1338765","0.0-38.0","battery-v0.2","","""event"",""trial"",""time""
""fullscreenenter"",""1"",""2444""
","
","
","""event"",""trial"",""time""
""fullscreenenter"",""1"",""2444""
","
","","","1339.7999999970198","","","10","3249","2884","h","elianto","#f73b6a7A","-1"," ","0","0","[2190.1000000089407]","1","2","","","3249","34","3","4","lose","no-go","1"
"pit-trial","153","1342528","0.0-39.0","battery-v0.2","","""event"",""trial"",""time""
""fullscreenenter"",""1"",""2444""
","
","
","""event"",""trial"",""time""
""fullscreenenter"",""1"",""2444""
","
","","","905.0999999940395","","","10","3249","2884","y","elianto","#f73b6a7A"," "," ","1","-10","[1756.9000000059605]","1","2","","","3249","35","2","3","lose","go","1"
"pit-trial","154","1347387","0.0-40.0","battery-v0.2","","""event"",""trial"",""time""
""fullscreenenter"",""1"",""2444""
","
","
","""event"",""trial"",""time""
""fullscreenenter"",""1"",""2444""
","
","","","-1","","","10","3249","2884","m","elianto","#f73b6a7A"," ","-1","0","-10","[]","0","2","","","3249","36","0","3","lose","go","0"
"pit-trial","155","1352245","0.0-41.0","battery-v0.2","","""event"",""trial"",""time""
""fullscreenenter"",""1"",""2444""
","
","
","""event"",""trial"",""time""
""fullscreenenter"",""1"",""2444""
","
","","","-1","","","10","3249","2884","r","elianto","#3366ff99","-1","-1","1","+10","[3370.2000000029802]","1","2","","","3249","37","1","2","win","no-go","0"
"pit-trial","156","1357105","0.0-42.0","battery-v0.2","","""event"",""trial"",""time""
""fullscreenenter"",""1"",""2444""
","
","
","""event"",""trial"",""time""
""fullscreenenter"",""1"",""2444""
","
","","","-1","","","10","3249","2884","h","elianto","#f73b6a7A","-1","-1","1","0","[3160.5]","1","2","","","3249","38","3","4","lose","no-go","0"
"pit-trial","157","1361963","0.0-43.0","battery-v0.2","","""event"",""trial"",""time""
""fullscreenenter"",""1"",""2444""
","
","
","""event"",""trial"",""time""
""fullscreenenter"",""1"",""2444""
","
","","","-1","","","10","3249","2884","y","elianto","#f73b6a7A"," ","-1","0","-10","[]","0","2","","","3249","39","2","3","lose","go","0"
"pit-trial","158","1366822","0.0-44.0","battery-v0.2","","""event"",""trial"",""time""
""fullscreenenter"",""1"",""2444""
","
","
","""event"",""trial"",""time""
""fullscreenenter"",""1"",""2444""
","
","","","-1","","","10","3249","2884","m","elianto","#f73b6a7A"," ","-1","0","-10","[]","0","2","","","3249","40","0","3","lose","go","0"
"pit-trial","159","1371686","0.0-45.0","battery-v0.2","","""event"",""trial"",""time""
""fullscreenenter"",""1"",""2444""
","
","
","""event"",""trial"",""time""
""fullscreenenter"",""1"",""2444""
","
","","","-1","","","10","3249","2884","y","elianto","#f73b6a7A"," ","-1","0","-10","[]","0","2","","","3249","41","2","3","lose","go","0"
"pit-trial","160","1376547","0.0-46.0","battery-v0.2","","""event"",""trial"",""time""
""fullscreenenter"",""1"",""2444""
","
","
","""event"",""trial"",""time""
""fullscreenenter"",""1"",""2444""
","
","","","-1","","","10","3249","2884","m","elianto","#f73b6a7A"," ","-1","0","-10","[]","0","2","","","3249","42","0","3","lose","go","0"
"pit-trial","161","1380085","0.0-47.0","battery-v0.2","","""event"",""trial"",""time""
""fullscreenenter"",""1"",""2444""
","
","
","""event"",""trial"",""time""
""fullscreenenter"",""1"",""2444""
","
","","","679.8000000119209","","","10","3249","2884","r","elianto","#3366ff99","-1"," ","0","+10","[1533.9000000059605]","1","2","","","3249","43","1","2","win","no-go","1"
"pit-trial","162","1384944","0.0-48.0","battery-v0.2","","""event"",""trial"",""time""
""fullscreenenter"",""1"",""2444""
","
","
","""event"",""trial"",""time""
""fullscreenenter"",""1"",""2444""
","
","","","-1","","","10","3249","2884","h","elianto","#f73b6a7A","-1","-1","1","0","[]","0","2","","","3249","44","3","4","lose","no-go","0"
"pit-trial","163","1389797","0.0-49.0","battery-v0.2","","""event"",""trial"",""time""
""fullscreenenter"",""1"",""2444""
","
","
","""event"",""trial"",""time""
""fullscreenenter"",""1"",""2444""
","
","","","-1","","","10","3249","2884","y","elianto","#f73b6a7A"," ","-1","0","-10","[]","0","2","","","3249","45","2","3","lose","go","0"
"pit-trial","164","1394661","0.0-50.0","battery-v0.2","","""event"",""trial"",""time""
""fullscreenenter"",""1"",""2444""
","
","
","""event"",""trial"",""time""
""fullscreenenter"",""1"",""2444""
","
","","","-1","","","10","3249","2884","m","elianto","#f73b6a7A"," ","-1","0","-10","[]","0","2","","","3249","46","0","3","lose","go","0"
"pit-trial","165","1399525","0.0-51.0","battery-v0.2","","""event"",""trial"",""time""
""fullscreenenter"",""1"",""2444""
","
","
","""event"",""trial"",""time""
""fullscreenenter"",""1"",""2444""
","
","","","-1","","","10","3249","2884","h","elianto","#f73b6a7A","-1","-1","1","0","[]","0","2","","","3249","47","3","4","lose","no-go","0"
"pit-trial","166","1403109","0.0-52.0","battery-v0.2","","""event"",""trial"",""time""
""fullscreenenter"",""1"",""2444""
","
","
","""event"",""trial"",""time""
""fullscreenenter"",""1"",""2444""
","
","","","724.5999999940395","","","10","3249","2884","r","elianto","#3366ff99","-1"," ","0","0","[1576.5]","1","2","","","3249","48","1","2","win","no-go","0"
"pit-trial","167","1406884","0.0-53.0","battery-v0.2","","""event"",""trial"",""time""
""fullscreenenter"",""1"",""2444""
","
","
","""event"",""trial"",""time""
""fullscreenenter"",""1"",""2444""
","
","","","917.2000000029802","","","10","3249","2884","r","elianto","#3366ff99","-1"," ","0","0","[1772]","1","2","","","3249","49","1","2","win","no-go","0"
"pit-trial","168","1411740","0.0-54.0","battery-v0.2","","""event"",""trial"",""time""
""fullscreenenter"",""1"",""2444""
","
","
","""event"",""trial"",""time""
""fullscreenenter"",""1"",""2444""
","
","","","-1","","","10","3249","2884","y","elianto","#f73b6a7A"," ","-1","0","0","[]","0","2","","","3249","50","2","3","lose","go","1"
"pit-trial","169","1416601","0.0-55.0","battery-v0.2","","""event"",""trial"",""time""
""fullscreenenter"",""1"",""2444""
","
","
","""event"",""trial"",""time""
""fullscreenenter"",""1"",""2444""
","
","","","-1","","","10","3249","2884","m","elianto","#f73b6a7A"," ","-1","0","-10","[]","0","2","","","3249","51","0","3","lose","go","0"
"pit-trial","170","1421460","0.0-56.0","battery-v0.2","","""event"",""trial"",""time""
""fullscreenenter"",""1"",""2444""
","
","
","""event"",""trial"",""time""
""fullscreenenter"",""1"",""2444""
","
","","","-1","","","10","3249","2884","h","elianto","#f73b6a7A","-1","-1","1","-10","[]","0","2","","","3249","52","3","4","lose","no-go","1"
"pit-trial","171","1425801","0.0-57.0","battery-v0.2","","""event"",""trial"",""time""
""fullscreenenter"",""1"",""2444""
","
","
","""event"",""trial"",""time""
""fullscreenenter"",""1"",""2444""
","
","","","1483.8999999910593","","","10","3249","2884","m","elianto","#f73b6a7A"," "," ","1","0","[2335.5]","1","2","","","3249","53","0","3","lose","go","0"
"pit-trial","172","1429358","0.0-58.0","battery-v0.2","","""event"",""trial"",""time""
""fullscreenenter"",""1"",""2444""
","
","
","""event"",""trial"",""time""
""fullscreenenter"",""1"",""2444""
","
","","","698.9000000059605","","","10","3249","2884","r","elianto","#3366ff99","-1"," ","0","0","[1551.5]","1","2","","","3249","54","1","2","win","no-go","0"
"pit-trial","173","1434222","0.0-59.0","battery-v0.2","","""event"",""trial"",""time""
""fullscreenenter"",""1"",""2444""
","
","
","""event"",""trial"",""time""
""fullscreenenter"",""1"",""2444""
","
","","","-1","","","10","3249","2884","h","elianto","#f73b6a7A","-1","-1","1","0","[]","0","2","","","3249","55","3","4","lose","no-go","0"
"pit-trial","174","1439081","0.0-60.0","battery-v0.2","","""event"",""trial"",""time""
""fullscreenenter"",""1"",""2444""
","
","
","""event"",""trial"",""time""
""fullscreenenter"",""1"",""2444""
","
","","","-1","","","10","3249","2884","y","elianto","#f73b6a7A"," ","-1","0","0","[]","0","2","","","3249","56","2","3","lose","go","1"
"pit-trial","175","1443939","0.0-61.0","battery-v0.2","","""event"",""trial"",""time""
""fullscreenenter"",""1"",""2444""
","
","
","""event"",""trial"",""time""
""fullscreenenter"",""1"",""2444""
","
","","","-1","","","10","3249","2884","y","elianto","#f73b6a7A"," ","-1","0","-10","[]","0","2","","","3249","57","2","3","lose","go","0"
"pit-trial","176","1448800","0.0-62.0","battery-v0.2","","""event"",""trial"",""time""
""fullscreenenter"",""1"",""2444""
","
","
","""event"",""trial"",""time""
""fullscreenenter"",""1"",""2444""
","
","","","-1","","","10","3249","2884","h","elianto","#f73b6a7A","-1","-1","1","0","[]","0","2","","","3249","58","3","4","lose","no-go","0"
"pit-trial","177","1453656","0.0-63.0","battery-v0.2","","""event"",""trial"",""time""
""fullscreenenter"",""1"",""2444""
","
","
","""event"",""trial"",""time""
""fullscreenenter"",""1"",""2444""
","
","","","-1","","","10","3249","2884","z","elianto","#3366ff99"," ","-1","0","0","[]","0","2","","","3249","59","4","1","win","go","0"
"pit-trial","178","1458515","0.0-64.0","battery-v0.2","","""event"",""trial"",""time""
""fullscreenenter"",""1"",""2444""
","
","
","""event"",""trial"",""time""
""fullscreenenter"",""1"",""2444""
","
","","","-1","","","10","3249","2884","m","elianto","#f73b6a7A"," ","-1","0","-10","[]","0","2","","","3249","60","0","3","lose","go","0"
"pit-trial","179","1462909","0.0-65.0","battery-v0.2","","""event"",""trial"",""time""
""fullscreenenter"",""1"",""2444""
","
","
","""event"",""trial"",""time""
""fullscreenenter"",""1"",""2444""
","
","","","1539.0999999940395","","","10","3249","2884","r","elianto","#3366ff99","-1"," ","0","0","[2389.5]","1","2","","","3249","61","1","2","win","no-go","0"
"pit-trial","180","1467763","0.0-66.0","battery-v0.2","","""event"",""trial"",""time""
""fullscreenenter"",""1"",""2444""
","
","
","""event"",""trial"",""time""
""fullscreenenter"",""1"",""2444""
","
","","","-1","","","10","3249","2884","h","elianto","#f73b6a7A","-1","-1","1","0","[]","0","2","","","3249","62","3","4","lose","no-go","0"
"pit-trial","181","1472623","0.0-67.0","battery-v0.2","","""event"",""trial"",""time""
""fullscreenenter"",""1"",""2444""
","
","
","""event"",""trial"",""time""
""fullscreenenter"",""1"",""2444""
","
","","","-1","","","10","3249","2884","y","elianto","#f73b6a7A"," ","-1","0","-10","[]","0","2","","","3249","63","2","3","lose","go","0"
"pit-trial","182","1476141","0.0-68.0","battery-v0.2","","""event"",""trial"",""time""
""fullscreenenter"",""1"",""2444""
","
","
","""event"",""trial"",""time""
""fullscreenenter"",""1"",""2444""
","
","","","656.7000000029802","","","10","3249","2884","z","elianto","#3366ff99"," "," ","1","+10","[1509.4000000059605]","1","2","","","3249","64","4","1","win","go","0"
"pit-trial","183","1481004","0.0-69.0","battery-v0.2","","""event"",""trial"",""time""
""fullscreenenter"",""1"",""2444""
","
","
","""event"",""trial"",""time""
""fullscreenenter"",""1"",""2444""
","
","","","-1","","","10","3249","2884","h","elianto","#f73b6a7A","-1","-1","1","0","[]","0","2","","","3249","65","3","4","lose","no-go","0"
"pit-trial","184","1484452","0.0-70.0","battery-v0.2","","""event"",""trial"",""time""
""fullscreenenter"",""1"",""2444""
","
","
","""event"",""trial"",""time""
""fullscreenenter"",""1"",""2444""
","
","","","592.0999999940395","","","10","3249","2884","z","elianto","#3366ff99"," "," ","1","+10","[1444.7999999970198]","1","2","","","3249","66","4","1","win","go","0"
"pit-trial","185","1488401","0.0-71.0","battery-v0.2","","""event"",""trial"",""time""
""fullscreenenter"",""1"",""2444""
","
","
","""event"",""trial"",""time""
""fullscreenenter"",""1"",""2444""
","
","","","1090.0999999940395","","","10","3249","2884","r","elianto","#3366ff99","-1"," ","0","0","[1942.7999999970198]","1","2","","","3249","67","1","2","win","no-go","0"
"pit-trial","186","1492438","0.0-72.0","battery-v0.2","","""event"",""trial"",""time""
""fullscreenenter"",""1"",""2444""
","
","
","""event"",""trial"",""time""
""fullscreenenter"",""1"",""2444""
","
","","","1176.199999988079","","","10","3249","2884","c","elianto","#3366ff99","-1"," ","0","+10","[2030.5]","1","2","","","3249","68","5","2","win","no-go","1"
"pit-trial","187","1496190","0.0-73.0","battery-v0.2","","""event"",""trial"",""time""
""fullscreenenter"",""1"",""2444""
","
","
","""event"",""trial"",""time""
""fullscreenenter"",""1"",""2444""
","
","","","890.9000000059605","","","10","3249","2884","c","elianto","#3366ff99","-1"," ","0","0","[1743.2999999970198]","1","2","","","3249","69","5","2","win","no-go","0"
"pit-trial","188","1499819","0.0-74.0","battery-v0.2","","""event"",""trial"",""time""
""fullscreenenter"",""1"",""2444""
","
","
","""event"",""trial"",""time""
""fullscreenenter"",""1"",""2444""
","
","","","771.8999999910593","","","10","3249","2884","r","elianto","#3366ff99","-1"," ","0","0","[1624.7000000029802]","1","2","","","3249","70","1","2","win","no-go","0"
"pit-trial","189","1504677","0.0-75.0","battery-v0.2","","""event"",""trial"",""time""
""fullscreenenter"",""1"",""2444""
","
","
","""event"",""trial"",""time""
""fullscreenenter"",""1"",""2444""
","
","","","-1","","","10","3249","2884","y","elianto","#f73b6a7A"," ","-1","0","0","[]","0","2","","","3249","71","2","3","lose","go","1"
"pit-trial","190","1508662","0.0-76.0","battery-v0.2","","""event"",""trial"",""time""
""fullscreenenter"",""1"",""2444""
","
","
","""event"",""trial"",""time""
""fullscreenenter"",""1"",""2444""
","
","","","1128.1000000089407","","","10","3249","2884","z","elianto","#3366ff99"," "," ","1","0","[1981.2999999970198]","1","2","","","3249","72","4","1","win","go","1"
"pit-trial","191","1512923","0.0-77.0","battery-v0.2","","""event"",""trial"",""time""
""fullscreenenter"",""1"",""2444""
","
","
","""event"",""trial"",""time""
""fullscreenenter"",""1"",""2444""
","
","","","1401.7999999970198","","","10","3249","2884","z","elianto","#3366ff99"," "," ","1","+10","[2254.0999999940395]","1","2","","","3249","73","4","1","win","go","0"
"pit-trial","192","1517782","0.0-78.0","battery-v0.2","","""event"",""trial"",""time""
""fullscreenenter"",""1"",""2444""
","
","
","""event"",""trial"",""time""
""fullscreenenter"",""1"",""2444""
","
","","","-1","","","10","3249","2884","h","elianto","#f73b6a7A","-1","-1","1","0","[]","0","2","","","3249","74","3","4","lose","no-go","0"
"pit-trial","193","1521931","0.0-79.0","battery-v0.2","","""event"",""trial"",""time""
""fullscreenenter"",""1"",""2444""
","
","
","""event"",""trial"",""time""
""fullscreenenter"",""1"",""2444""
","
","","","1291.1000000089407","","","10","3249","2884","c","elianto","#3366ff99","-1"," ","0","+10","[2145.4000000059605]","1","2","","","3249","75","5","2","win","no-go","1"
"pit-trial","194","1525499","0.0-80.0","battery-v0.2","","""event"",""trial"",""time""
""fullscreenenter"",""1"",""2444""
","
","
","""event"",""trial"",""time""
""fullscreenenter"",""1"",""2444""
","
","","","708.5","","","10","3249","2884","r","elianto","#3366ff99","-1"," ","0","0","[1560.2000000029802]","1","2","","","3249","76","1","2","win","no-go","0"
"pit-trial","195","1528965","0.0-81.0","battery-v0.2","","""event"",""trial"",""time""
""fullscreenenter"",""1"",""2444""
","
","
","""event"",""trial"",""time""
""fullscreenenter"",""1"",""2444""
","
","","","602","","","10","3249","2884","c","elianto","#3366ff99","-1"," ","0","0","[1457.7000000029802]","1","2","","","3249","77","5","2","win","no-go","0"
"pit-trial","196","1532490","0.0-82.0","battery-v0.2","","""event"",""trial"",""time""
""fullscreenenter"",""1"",""2444""
","
","
","""event"",""trial"",""time""
""fullscreenenter"",""1"",""2444""
","
","","","668.0999999940395","","","10","3249","2884","z","elianto","#3366ff99"," "," ","1","0","[1518.8999999910593]","1","2","","","3249","78","4","1","win","go","1"
"pit-trial","197","1536165","0.0-83.0","battery-v0.2","","""event"",""trial"",""time""
""fullscreenenter"",""1"",""2444""
","
","
","""event"",""trial"",""time""
""fullscreenenter"",""1"",""2444""
","
","","","816.0999999940395","","","10","3249","2884","z","elianto","#3366ff99"," "," ","1","+10","[1666.2999999970198]","1","2","","","3249","79","4","1","win","go","0"
"pit-trial","198","1541024","0.0-84.0","battery-v0.2","","""event"",""trial"",""time""
""fullscreenenter"",""1"",""2444""
","
","
","""event"",""trial"",""time""
""fullscreenenter"",""1"",""2444""
","
","","","-1","","","10","3249","2884","h","elianto","#f73b6a7A","-1","-1","1","-10","[]","0","2","","","3249","80","3","4","lose","no-go","1"
"pit-trial","199","1545071","0.0-85.0","battery-v0.2","","""event"",""trial"",""time""
""fullscreenenter"",""1"",""2444""
","
","
","""event"",""trial"",""time""
""fullscreenenter"",""1"",""2444""
","
","","","1189.0999999940395","","","10","3249","2884","t","elianto","#f73b6a7A","-1"," ","0","-10","[2040.4000000059605]","1","2","","","3249","81","7","4","lose","no-go","0"
"pit-trial","200","1549935","0.0-86.0","battery-v0.2","","""event"",""trial"",""time""
""fullscreenenter"",""1"",""2444""
","
","
","""event"",""trial"",""time""
""fullscreenenter"",""1"",""2444""
","
","","","-1","","","10","3249","2884","h","elianto","#f73b6a7A","-1","-1","1","0","[]","0","2","","","3249","82","3","4","lose","no-go","0"
"pit-trial","201","1554127","0.0-87.0","battery-v0.2","","""event"",""trial"",""time""
""fullscreenenter"",""1"",""2444""
","
","
","""event"",""trial"",""time""
""fullscreenenter"",""1"",""2444""
","
","","","1333.8999999910593","","","10","3249","2884","c","elianto","#3366ff99","-1"," ","0","0","[2186.4000000059605]","1","2","","","3249","83","5","2","win","no-go","0"
"pit-trial","202","1558172","0.0-88.0","battery-v0.2","","""event"",""trial"",""time""
""fullscreenenter"",""1"",""2444""
","
","
","""event"",""trial"",""time""
""fullscreenenter"",""1"",""2444""
","
","","","1182.0999999940395","","","10","3249","2884","z","elianto","#3366ff99"," "," ","1","+10","[2036.699999988079]","1","2","","","3249","84","4","1","win","go","0"
"pit-trial","203","1561615","0.0-89.0","battery-v0.2","","""event"",""trial"",""time""
""fullscreenenter"",""1"",""2444""
","
","
","""event"",""trial"",""time""
""fullscreenenter"",""1"",""2444""
","
","","","582","","","10","3249","2884","z","elianto","#3366ff99"," "," ","1","+10","[1435.9000000059605]","1","2","","","3249","85","4","1","win","go","0"
"pit-trial","204","1566478","0.0-90.0","battery-v0.2","","""event"",""trial"",""time""
""fullscreenenter"",""1"",""2444""
","
","
","""event"",""trial"",""time""
""fullscreenenter"",""1"",""2444""
","
","","","-1","","","10","3249","2884","b","elianto","#f73b6a7A"," ","-1","0","-10","[]","0","2","","","3249","86","6","3","lose","go","0"
"pit-trial","205","1571339","0.0-91.0","battery-v0.2","","""event"",""trial"",""time""
""fullscreenenter"",""1"",""2444""
","
","
","""event"",""trial"",""time""
""fullscreenenter"",""1"",""2444""
","
","","","-1","","","10","3249","2884","t","elianto","#f73b6a7A","-1","-1","1","0","[]","0","2","","","3249","87","7","4","lose","no-go","0"
"pit-trial","206","1575114","0.0-92.0","battery-v0.2","","""event"",""trial"",""time""
""fullscreenenter"",""1"",""2444""
","
","
","""event"",""trial"",""time""
""fullscreenenter"",""1"",""2444""
","
","","","919.2000000029802","","","10","3249","2884","c","elianto","#3366ff99","-1"," ","0","0","[1769.9000000059605]","1","2","","","3249","88","5","2","win","no-go","0"
"pit-trial","207","1579976","0.0-93.0","battery-v0.2","","""event"",""trial"",""time""
""fullscreenenter"",""1"",""2444""
","
","
","""event"",""trial"",""time""
""fullscreenenter"",""1"",""2444""
","
","","","-1","","","10","3249","2884","t","elianto","#f73b6a7A","-1","-1","1","0","[]","0","2","","","3249","89","7","4","lose","no-go","0"
"pit-trial","208","1583395","0.0-94.0","battery-v0.2","","""event"",""trial"",""time""
""fullscreenenter"",""1"",""2444""
","
","
","""event"",""trial"",""time""
""fullscreenenter"",""1"",""2444""
","
","","","561.2000000029802","","","10","3249","2884","z","elianto","#3366ff99"," "," ","1","+10","[1415.7000000029802]","1","2","","","3249","90","4","1","win","go","0"
"pit-trial","209","1586923","0.0-95.0","battery-v0.2","","""event"",""trial"",""time""
""fullscreenenter"",""1"",""2444""
","
","
","""event"",""trial"",""time""
""fullscreenenter"",""1"",""2444""
","
","","","670.3000000119209","","","10","3249","2884","c","elianto","#3366ff99","-1"," ","0","0","[1520.5]","1","2","","","3249","91","5","2","win","no-go","0"
"pit-trial","210","1591784","0.0-96.0","battery-v0.2","","""event"",""trial"",""time""
""fullscreenenter"",""1"",""2444""
","
","
","""event"",""trial"",""time""
""fullscreenenter"",""1"",""2444""
","
","","","-1","","","10","3249","2884","b","elianto","#f73b6a7A"," ","-1","0","-10","[]","0","2","","","3249","92","6","3","lose","go","0"
"pit-trial","211","1596242","0.0-97.0","battery-v0.2","","""event"",""trial"",""time""
""fullscreenenter"",""1"",""2444""
","
","
","""event"",""trial"",""time""
""fullscreenenter"",""1"",""2444""
","
","","","1604.7999999970198","","","10","3249","2884","t","elianto","#f73b6a7A","-1"," ","0","-10","[2455.7000000029802]","1","2","","","3249","93","7","4","lose","no-go","0"
"pit-trial","212","1600458","0.0-98.0","battery-v0.2","","""event"",""trial"",""time""
""fullscreenenter"",""1"",""2444""
","
","
","""event"",""trial"",""time""
""fullscreenenter"",""1"",""2444""
","
","","","1361.7999999970198","","","10","3249","2884","c","elianto","#3366ff99","-1"," ","0","0","[2212.0999999940395]","1","2","","","3249","94","5","2","win","no-go","0"
"pit-trial","213","1603786","0.0-99.0","battery-v0.2","","""event"",""trial"",""time""
""fullscreenenter"",""1"",""2444""
","
","
","""event"",""trial"",""time""
""fullscreenenter"",""1"",""2444""
","
","","","469","","","10","3249","2884","b","elianto","#f73b6a7A"," "," ","1","0","[1322.5]","1","2","","","3249","95","6","3","lose","go","0"
"pit-trial","214","1607436","0.0-100.0","battery-v0.2","","""event"",""trial"",""time""
""fullscreenenter"",""1"",""2444""
","
","
","""event"",""trial"",""time""
""fullscreenenter"",""1"",""2444""
","
","","","793.2999999970198","","","10","3249","2884","f","elianto","#3366ff99"," "," ","1","+10","[1646.2000000029802]","1","2","","","3249","96","8","1","win","go","0"
"pit-trial","215","1610962","0.0-101.0","battery-v0.2","","""event"",""trial"",""time""
""fullscreenenter"",""1"",""2444""
","
","
","""event"",""trial"",""time""
""fullscreenenter"",""1"",""2444""
","
","","","667.5","","","10","3249","2884","c","elianto","#3366ff99","-1"," ","0","0","[1519]","1","2","","","3249","97","5","2","win","no-go","0"
"pit-trial","216","1614767","0.0-102.0","battery-v0.2","","""event"",""trial"",""time""
""fullscreenenter"",""1"",""2444""
","
","
","""event"",""trial"",""time""
""fullscreenenter"",""1"",""2444""
","
","","","945.8999999910593","","","10","3249","2884","f","elianto","#3366ff99"," "," ","1","0","[1798.5999999940395]","1","2","","","3249","98","8","1","win","go","1"
"pit-trial","217","1619630","0.0-103.0","battery-v0.2","","""event"",""trial"",""time""
""fullscreenenter"",""1"",""2444""
","
","
","""event"",""trial"",""time""
""fullscreenenter"",""1"",""2444""
","
","","","-1","","","10","3249","2884","t","elianto","#f73b6a7A","-1","-1","1","0","[]","0","2","","","3249","99","7","4","lose","no-go","0"
"pit-trial","218","1624494","0.0-104.0","battery-v0.2","","""event"",""trial"",""time""
""fullscreenenter"",""1"",""2444""
","
","
","""event"",""trial"",""time""
""fullscreenenter"",""1"",""2444""
","
","","","-1","","","10","3249","2884","b","elianto","#f73b6a7A"," ","-1","0","-10","[]","0","2","","","3249","100","6","3","lose","go","0"
"pit-trial","219","1629353","0.0-105.0","battery-v0.2","","""event"",""trial"",""time""
""fullscreenenter"",""1"",""2444""
","
","
","""event"",""trial"",""time""
""fullscreenenter"",""1"",""2444""
","
","","","-1","","","10","3249","2884","t","elianto","#f73b6a7A","-1","-1","1","0","[]","0","2","","","3249","101","7","4","lose","no-go","0"
"pit-trial","220","1632685","0.0-106.0","battery-v0.2","","""event"",""trial"",""time""
""fullscreenenter"",""1"",""2444""
","
","
","""event"",""trial"",""time""
""fullscreenenter"",""1"",""2444""
","
","","","471.70000000298023","","","10","3249","2884","c","elianto","#3366ff99","-1"," ","0","0","[1324.199999988079]","1","2","","","3249","102","5","2","win","no-go","0"
"pit-trial","221","1636337","0.0-107.0","battery-v0.2","","""event"",""trial"",""time""
""fullscreenenter"",""1"",""2444""
","
","
","""event"",""trial"",""time""
""fullscreenenter"",""1"",""2444""
","
","","","791.7999999970198","","","10","3249","2884","n","elianto","#3366ff99"," "," ","1","+10","[1645.5]","1","2","","","3249","103","9","1","win","go","0"
"pit-trial","222","1639849","0.0-108.0","battery-v0.2","","""event"",""trial"",""time""
""fullscreenenter"",""1"",""2444""
","
","
","""event"",""trial"",""time""
""fullscreenenter"",""1"",""2444""
","
","","","650.1999999880791","","","10","3249","2884","f","elianto","#3366ff99"," "," ","1","0","[1501.5999999940395]","1","2","","","3249","104","8","1","win","go","1"
"pit-trial","223","1643185","0.0-109.0","battery-v0.2","","""event"",""trial"",""time""
""fullscreenenter"",""1"",""2444""
","
","
","""event"",""trial"",""time""
""fullscreenenter"",""1"",""2444""
","
","","","478","","","10","3249","2884","n","elianto","#3366ff99"," "," ","1","+10","[1331]","1","2","","","3249","105","9","1","win","go","0"
"pit-trial","224","1646865","0.0-110.0","battery-v0.2","","""event"",""trial"",""time""
""fullscreenenter"",""1"",""2444""
","
","
","""event"",""trial"",""time""
""fullscreenenter"",""1"",""2444""
","
","","","824.7999999970198","","","10","3249","2884","z","elianto","#3366ff99"," "," ","1","+10","[1675.2999999970198]","1","2","","","3249","106","4","1","win","go","0"
"pit-trial","225","1651723","0.0-111.0","battery-v0.2","","""event"",""trial"",""time""
""fullscreenenter"",""1"",""2444""
","
","
","""event"",""trial"",""time""
""fullscreenenter"",""1"",""2444""
","
","","","-1","","","10","3249","2884","b","elianto","#f73b6a7A"," ","-1","0","-10","[]","0","2","","","3249","107","6","3","lose","go","0"
"pit-trial","226","1655216","0.0-112.0","battery-v0.2","","""event"",""trial"",""time""
""fullscreenenter"",""1"",""2444""
","
","
","""event"",""trial"",""time""
""fullscreenenter"",""1"",""2444""
","
","","","636","","","10","3249","2884","f","elianto","#3366ff99"," "," ","1","+10","[1488.300000011921]","1","2","","","3249","108","8","1","win","go","0"
"pit-trial","227","1658623","0.0-113.0","battery-v0.2","","""event"",""trial"",""time""
""fullscreenenter"",""1"",""2444""
","
","
","""event"",""trial"",""time""
""fullscreenenter"",""1"",""2444""
","
","","","548.7999999970198","","","10","3249","2884","n","elianto","#3366ff99"," "," ","1","+10","[1401.6000000089407]","1","2","","","3249","109","9","1","win","go","0"
"pit-trial","228","1662293","0.0-114.0","battery-v0.2","","""event"",""trial"",""time""
""fullscreenenter"",""1"",""2444""
","
","
","""event"",""trial"",""time""
""fullscreenenter"",""1"",""2444""
","
","","","810.2000000029802","","","10","3249","2884","c","elianto","#3366ff99","-1"," ","0","0","[1661.5]","1","2","","","3249","110","5","2","win","no-go","0"
"pit-trial","229","1665701","0.0-115.0","battery-v0.2","","""event"",""trial"",""time""
""fullscreenenter"",""1"",""2444""
","
","
","""event"",""trial"",""time""
""fullscreenenter"",""1"",""2444""
","
","","","552.6999999880791","","","10","3249","2884","f","elianto","#3366ff99"," "," ","1","+10","[1402.8999999910593]","1","2","","","3249","111","8","1","win","go","0"
"pit-trial","230","1670559","0.0-116.0","battery-v0.2","","""event"",""trial"",""time""
""fullscreenenter"",""1"",""2444""
","
","
","""event"",""trial"",""time""
""fullscreenenter"",""1"",""2444""
","
","","","-1","","","10","3249","2884","b","elianto","#f73b6a7A"," ","-1","0","-10","[]","0","2","","","3249","112","6","3","lose","go","0"
"pit-trial","231","1673925","0.0-117.0","battery-v0.2","","""event"",""trial"",""time""
""fullscreenenter"",""1"",""2444""
","
","
","""event"",""trial"",""time""
""fullscreenenter"",""1"",""2444""
","
","","","507.29999999701977","","","10","3249","2884","f","elianto","#3366ff99"," "," ","1","+10","[1357.5999999940395]","1","2","","","3249","113","8","1","win","go","0"
"pit-trial","232","1677407","0.0-118.0","battery-v0.2","","""event"",""trial"",""time""
""fullscreenenter"",""1"",""2444""
","
","
","""event"",""trial"",""time""
""fullscreenenter"",""1"",""2444""
","
","","","626.9000000059605","","","10","3249","2884","n","elianto","#3366ff99"," "," ","1","+10","[1478.800000011921]","1","2","","","3249","114","9","1","win","go","0"
"pit-trial","233","1680735","0.0-119.0","battery-v0.2","","""event"",""trial"",""time""
""fullscreenenter"",""1"",""2444""
","
","
","""event"",""trial"",""time""
""fullscreenenter"",""1"",""2444""
","
","","","468.69999998807907","","","10","3249","2884","c","elianto","#3366ff99","-1"," ","0","0","[1323]","1","2","","","3249","115","5","2","win","no-go","0"
"pit-trial","234","1684817","0.0-120.0","battery-v0.2","","""event"",""trial"",""time""
""fullscreenenter"",""1"",""2444""
","
","
","""event"",""trial"",""time""
""fullscreenenter"",""1"",""2444""
","
","","","1225","","","10","3249","2884","b","elianto","#f73b6a7A"," "," ","1","0","[2076.3999999910593]","1","2","","","3249","116","6","3","lose","go","0"
"pit-trial","235","1688314","0.0-121.0","battery-v0.2","","""event"",""trial"",""time""
""fullscreenenter"",""1"",""2444""
","
","
","""event"",""trial"",""time""
""fullscreenenter"",""1"",""2444""
","
","","","638","","","10","3249","2884","c","elianto","#3366ff99","-1"," ","0","0","[1491.2999999970198]","1","2","","","3249","117","5","2","win","no-go","0"
"pit-trial","236","1691796","0.0-122.0","battery-v0.2","","""event"",""trial"",""time""
""fullscreenenter"",""1"",""2444""
","
","
","""event"",""trial"",""time""
""fullscreenenter"",""1"",""2444""
","
","","","626.9000000059605","","","10","3249","2884","f","elianto","#3366ff99"," "," ","1","+10","[1477.1000000089407]","1","2","","","3249","118","8","1","win","go","0"
"pit-trial","237","1696657","0.0-123.0","battery-v0.2","","""event"",""trial"",""time""
""fullscreenenter"",""1"",""2444""
","
","
","""event"",""trial"",""time""
""fullscreenenter"",""1"",""2444""
","
","","","-1","","","10","3249","2884","b","elianto","#f73b6a7A"," ","-1","0","-10","[]","0","2","","","3249","119","6","3","lose","go","0"
"pit-trial","238","1700451","0.0-124.0","battery-v0.2","","""event"",""trial"",""time""
""fullscreenenter"",""1"",""2444""
","
","
","""event"",""trial"",""time""
""fullscreenenter"",""1"",""2444""
","
","","","936.2000000029802","","","10","3249","2884","n","elianto","#3366ff99"," "," ","1","+10","[1788.5999999940395]","1","2","","","3249","120","9","1","win","go","0"
"pit-trial","239","1703902","0.0-125.0","battery-v0.2","","""event"",""trial"",""time""
""fullscreenenter"",""1"",""2444""
","
","
","""event"",""trial"",""time""
""fullscreenenter"",""1"",""2444""
","
","","","592.2999999970198","","","10","3249","2884","f","elianto","#3366ff99"," "," ","1","+10","[1446.5999999940395]","1","2","","","3249","121","8","1","win","go","0"
"pit-trial","240","1707070","0.0-126.0","battery-v0.2","","""event"",""trial"",""time""
""fullscreenenter"",""1"",""2444""
","
","
","""event"",""trial"",""time""
""fullscreenenter"",""1"",""2444""
","
","","","310.29999999701977","","","10","3249","2884","b","elianto","#f73b6a7A"," "," ","1","0","[1160.7999999970198]","1","2","","","3249","122","6","3","lose","go","0"
"pit-trial","241","1711929","0.0-127.0","battery-v0.2","","""event"",""trial"",""time""
""fullscreenenter"",""1"",""2444""
","
","
","""event"",""trial"",""time""
""fullscreenenter"",""1"",""2444""
","
","","","-1","","","10","3249","2884","t","elianto","#f73b6a7A","-1","-1","1","0","[]","0","2","","","3249","123","7","4","lose","no-go","0"
"pit-trial","242","1715507","0.0-128.0","battery-v0.2","","""event"",""trial"",""time""
""fullscreenenter"",""1"",""2444""
","
","
","""event"",""trial"",""time""
""fullscreenenter"",""1"",""2444""
","
","","","717.2000000029802","","","10","3249","2884","n","elianto","#3366ff99"," "," ","1","+10","[1569.2000000029802]","1","2","","","3249","124","9","1","win","go","0"
"pit-trial","243","1718880","0.0-129.0","battery-v0.2","","""event"",""trial"",""time""
""fullscreenenter"",""1"",""2444""
","
","
","""event"",""trial"",""time""
""fullscreenenter"",""1"",""2444""
","
","","","509.59999999403954","","","10","3249","2884","f","elianto","#3366ff99"," "," ","1","+10","[1363.5999999940395]","1","2","","","3249","125","8","1","win","go","0"
"pit-trial","244","1723742","0.0-130.0","battery-v0.2","","""event"",""trial"",""time""
""fullscreenenter"",""1"",""2444""
","
","
","""event"",""trial"",""time""
""fullscreenenter"",""1"",""2444""
","
","","","-1","","","10","3249","2884","t","elianto","#f73b6a7A","-1","-1","1","-10","[]","0","2","","","3249","126","7","4","lose","no-go","1"
"pit-trial","245","1728606","0.0-131.0","battery-v0.2","","""event"",""trial"",""time""
""fullscreenenter"",""1"",""2444""
","
","
","""event"",""trial"",""time""
""fullscreenenter"",""1"",""2444""
","
","","","-1","","","10","3249","2884","b","elianto","#f73b6a7A"," ","-1","0","0","[]","0","2","","","3249","127","6","3","lose","go","1"
"pit-trial","246","1732167","0.0-132.0","battery-v0.2","","""event"",""trial"",""time""
""fullscreenenter"",""1"",""2444""
","
","
","""event"",""trial"",""time""
""fullscreenenter"",""1"",""2444""
","
","","","704.1000000089407","","","10","3249","2884","n","elianto","#3366ff99"," "," ","1","+10","[1556.7999999970198]","1","2","","","3249","128","9","1","win","go","0"
"pit-trial","247","1735570","0.0-133.0","battery-v0.2","","""event"",""trial"",""time""
""fullscreenenter"",""1"",""2444""
","
","
","""event"",""trial"",""time""
""fullscreenenter"",""1"",""2444""
","
","","","541.3999999910593","","","10","3249","2884","n","elianto","#3366ff99"," "," ","1","+10","[1394.5999999940395]","1","2","","","3249","129","9","1","win","go","0"
"pit-trial","248","1740429","0.0-134.0","battery-v0.2","","""event"",""trial"",""time""
""fullscreenenter"",""1"",""2444""
","
","
","""event"",""trial"",""time""
""fullscreenenter"",""1"",""2444""
","
","","","-1","","","10","3249","2884","t","elianto","#f73b6a7A","-1","-1","1","0","[]","0","2","","","3249","130","7","4","lose","no-go","0"
"pit-trial","249","1745293","0.0-135.0","battery-v0.2","","""event"",""trial"",""time""
""fullscreenenter"",""1"",""2444""
","
","
","""event"",""trial"",""time""
""fullscreenenter"",""1"",""2444""
","
","","","-1","","","10","3249","2884","b","elianto","#f73b6a7A"," ","-1","0","0","[]","0","2","","","3249","131","6","3","lose","go","1"
"pit-trial","250","1748895","0.0-136.0","battery-v0.2","","""event"",""trial"",""time""
""fullscreenenter"",""1"",""2444""
","
","
","""event"",""trial"",""time""
""fullscreenenter"",""1"",""2444""
","
","","","738","","","10","3249","2884","f","elianto","#3366ff99"," "," ","1","+10","[1592.7000000029802]","1","2","","","3249","132","8","1","win","go","0"
"pit-trial","251","1752327","0.0-137.0","battery-v0.2","","""event"",""trial"",""time""
""fullscreenenter"",""1"",""2444""
","
","
","""event"",""trial"",""time""
""fullscreenenter"",""1"",""2444""
","
","","","573.5999999940395","","","10","3249","2884","f","elianto","#3366ff99"," "," ","1","+10","[1425.7999999970198]","1","2","","","3249","133","8","1","win","go","0"
"pit-trial","252","1757185","0.0-138.0","battery-v0.2","","""event"",""trial"",""time""
""fullscreenenter"",""1"",""2444""
","
","
","""event"",""trial"",""time""
""fullscreenenter"",""1"",""2444""
","
","","","-1","","","10","3249","2884","t","elianto","#f73b6a7A","-1","-1","1","0","[]","0","2","","","3249","134","7","4","lose","no-go","0"
"pit-trial","253","1762044","0.0-139.0","battery-v0.2","","""event"",""trial"",""time""
""fullscreenenter"",""1"",""2444""
","
","
","""event"",""trial"",""time""
""fullscreenenter"",""1"",""2444""
","
","","","-1","","","10","3249","2884","b","elianto","#f73b6a7A"," ","-1","0","-10","[]","0","2","","","3249","135","6","3","lose","go","0"
"pit-trial","254","1765644","0.0-140.0","battery-v0.2","","""event"",""trial"",""time""
""fullscreenenter"",""1"",""2444""
","
","
","""event"",""trial"",""time""
""fullscreenenter"",""1"",""2444""
","
","","","740","","","10","3249","2884","n","elianto","#3366ff99"," "," ","1","+10","[1591.5]","1","2","","","3249","136","9","1","win","go","0"
"pit-trial","255","1770501","0.0-141.0","battery-v0.2","","""event"",""trial"",""time""
""fullscreenenter"",""1"",""2444""
","
","
","""event"",""trial"",""time""
""fullscreenenter"",""1"",""2444""
","
","","","-1","","","10","3249","2884","t","elianto","#f73b6a7A","-1","-1","1","0","[]","0","2","","","3249","137","7","4","lose","no-go","0"
"pit-trial","256","1774188","0.0-142.0","battery-v0.2","","""event"",""trial"",""time""
""fullscreenenter"",""1"",""2444""
","
","
","""event"",""trial"",""time""
""fullscreenenter"",""1"",""2444""
","
","","","827.5","","","10","3249","2884","f","elianto","#3366ff99"," "," ","1","+10","[1679.2999999970198]","1","2","","","3249","138","8","1","win","go","0"
"pit-trial","257","1779046","0.0-143.0","battery-v0.2","","""event"",""trial"",""time""
""fullscreenenter"",""1"",""2444""
","
","
","""event"",""trial"",""time""
""fullscreenenter"",""1"",""2444""
","
","","","-1","","","10","3249","2884","b","elianto","#f73b6a7A"," ","-1","0","-10","[]","0","2","","","3249","139","6","3","lose","go","0"
"pit-trial","258","1782546","0.0-144.0","battery-v0.2","","""event"",""trial"",""time""
""fullscreenenter"",""1"",""2444""
","
","
","""event"",""trial"",""time""
""fullscreenenter"",""1"",""2444""
","
","","","643.2999999970198","","","10","3249","2884","n","elianto","#3366ff99"," "," ","1","0","[1493.4000000059605]","1","2","","","3249","140","9","1","win","go","1"
"pit-instructions","259","1967272","0.0-145.0","battery-v0.2","","""event"",""trial"",""time""
""fullscreenenter"",""1"",""2444""
","
","
","""event"",""trial"",""time""
""fullscreenenter"",""1"",""2444""
","
","","[{""page_index"":0,""viewing_time"":175837.79999999702},{""page_index"":1,""viewing_time"":8892}]","184730.5","","","","","","","","","","","","","","","","","","","","","","","",""
"pit-trial","260","1970734","0.0-146.0","battery-v0.2","","""event"",""trial"",""time""
""fullscreenenter"",""1"",""2444""
","
","
","""event"",""trial"",""time""
""fullscreenenter"",""1"",""2444""
","
","","","601.2000000029802","","","10","3249","2884","l","elianto","#3366ff99"," "," ","1","+10","[1452.7000000029802]","1","3","","","3249","141","1","1","win","go","0"
"pit-trial","261","1975600","0.0-147.0","battery-v0.2","","""event"",""trial"",""time""
""fullscreenenter"",""1"",""2444""
","
","
","""event"",""trial"",""time""
""fullscreenenter"",""1"",""2444""
","
","","","-1","","","10","3249","2884","u","elianto","#f73b6a7A","-1","-1","1","0","[]","0","3","","","3249","142","0","4","lose","no-go","0"
"pit-trial","262","1980457","0.0-148.0","battery-v0.2","","""event"",""trial"",""time""
""fullscreenenter"",""1"",""2444""
","
","
","""event"",""trial"",""time""
""fullscreenenter"",""1"",""2444""
","
","","","-1","","","10","3249","2884","g","elianto","#f73b6a7A"," ","-1","0","-10","[]","0","3","","","3249","143","3","3","lose","go","0"
"pit-trial","263","1985321","0.0-149.0","battery-v0.2","","""event"",""trial"",""time""
""fullscreenenter"",""1"",""2444""
","
","
","""event"",""trial"",""time""
""fullscreenenter"",""1"",""2444""
","
","","","-1","","","10","3249","2884","a","elianto","#f73b6a7A","-1","-1","1","0","[]","0","3","","","3249","144","2","4","lose","no-go","0"
"pit-trial","264","1989368","0.0-150.0","battery-v0.2","","""event"",""trial"",""time""
""fullscreenenter"",""1"",""2444""
","
","
","""event"",""trial"",""time""
""fullscreenenter"",""1"",""2444""
","
","","","1187","","","10","3249","2884","u","elianto","#f73b6a7A","-1"," ","0","-10","[2039.9000000059605]","1","3","","","3249","145","0","4","lose","no-go","0"
"pit-trial","265","1994229","0.0-151.0","battery-v0.2","","""event"",""trial"",""time""
""fullscreenenter"",""1"",""2444""
","
","
","""event"",""trial"",""time""
""fullscreenenter"",""1"",""2444""
","
","","","-1","","","10","3249","2884","g","elianto","#f73b6a7A"," ","-1","0","-10","[]","0","3","","","3249","146","3","3","lose","go","0"
"pit-trial","266","1997930","0.0-152.0","battery-v0.2","","""event"",""trial"",""time""
""fullscreenenter"",""1"",""2444""
","
","
","""event"",""trial"",""time""
""fullscreenenter"",""1"",""2444""
","
","","","843.2999999970198","","","10","3249","2884","l","elianto","#3366ff99"," "," ","1","+10","[1696.2999999970198]","1","3","","","3249","147","1","1","win","go","0"
"pit-trial","267","2002793","0.0-153.0","battery-v0.2","","""event"",""trial"",""time""
""fullscreenenter"",""1"",""2444""
","
","
","""event"",""trial"",""time""
""fullscreenenter"",""1"",""2444""
","
