"trial_type","trial_index","time_elapsed","internal_node_id","task_version","subject_id","interactions","blur_events","focus_events","fullscreenenter_events","fullscreenexit_events","success","view_history","rt","responses","num_errors","age","subject","participantId","rune","rune_set","hex","correct","choice","accuracy","outcome","keys","total_keys","block","practice","value","sub","trial","stimulus","robot","valence","action","sham"
"pavlovia","0","19","0.0-0.0","battery-v0.2","","""event"",""trial"",""time""
""fullscreenenter"",""1"",""23044""
","
","
","""event"",""trial"",""time""
""fullscreenenter"",""1"",""23044""
","
","","","","","","","","","","","","","","","","","","","","","","","","","","",""
"fullscreen","1","24040","0.0-1.0","battery-v0.2","","""event"",""trial"",""time""
""fullscreenenter"",""1"",""23044""
","
","
","""event"",""trial"",""time""
""fullscreenenter"",""1"",""23044""
","
","true","","","","","","","","","","","","","","","","","","","","","","","","","",""
"pit-instructions","2","31465","0.0-2.0-0.0","battery-v0.2","","""event"",""trial"",""time""
""fullscreenenter"",""1"",""23044""
","
","
","""event"",""trial"",""time""
""fullscreenenter"",""1"",""23044""
","
","","[{""page_index"":0,""viewing_time"":7419}]","7420.200000000186","","","","","","","","","","","","","","","","","","","","","","","",""
"pit-comprehension","3","34865","0.0-2.0-1.0-0.0","battery-v0.2","","""event"",""trial"",""time""
""fullscreenenter"",""1"",""23044""
","
","
","""event"",""trial"",""time""
""fullscreenenter"",""1"",""23044""
","
","","","3392.2000000001863","[""shark""]","0","10","6343","3608","","","","","","","","","","","","","","","","","","",""
"pit-instructions","4","37082","0.0-2.0-1.0-1.0","battery-v0.2","","""event"",""trial"",""time""
""fullscreenenter"",""1"",""23044""
","
","
","""event"",""trial"",""time""
""fullscreenenter"",""1"",""23044""
","
","","[{""page_index"":0,""viewing_time"":2206.899999999907}]","2207.600000000093","","","","","","","","","","","","","","","","","","","","","","","",""
"pit-comprehension","5","40049","0.0-2.0-2.0-0.0","battery-v0.2","","""event"",""trial"",""time""
""fullscreenenter"",""1"",""23044""
","
","
","""event"",""trial"",""time""
""fullscreenenter"",""1"",""23044""
","
","","","2959.899999999907","[""tiger""]","0","10","6343","3608","","","","","","","","","","","","","","","","","","",""
"pit-instructions","6","41115","0.0-2.0-2.0-1.0","battery-v0.2","","""event"",""trial"",""time""
""fullscreenenter"",""1"",""23044""
","
","
","""event"",""trial"",""time""
""fullscreenenter"",""1"",""23044""
","
","","[{""page_index"":0,""viewing_time"":1059.2999999998137}]","1060.0999999996275","","","","","","","","","","","","","","","","","","","","","","","",""
"pit-instructions","7","130124","0.0-2.0-3.0","battery-v0.2","","""event"",""trial"",""time""
""fullscreenenter"",""1"",""23044""
","
","
","""event"",""trial"",""time""
""fullscreenenter"",""1"",""23044""
","
","","[{""page_index"":0,""viewing_time"":8078},{""page_index"":1,""viewing_time"":5417.299999999814},{""page_index"":2,""viewing_time"":6884.5},{""page_index"":3,""viewing_time"":5151.200000000186},{""page_index"":4,""viewing_time"":5082.399999999907},{""page_index"":5,""viewing_time"":5966.700000000186},{""page_index"":6,""viewing_time"":6767.5999999996275},{""page_index"":7,""viewing_time"":6083.300000000279},{""page_index"":8,""viewing_time"":6900.899999999907},{""page_index"":9,""viewing_time"":7501.299999999814},{""page_index"":10,""viewing_time"":7032.9000000003725},{""page_index"":11,""viewing_time"":7050.0999999996275},{""page_index"":12,""viewing_time"":6518},{""page_index"":13,""viewing_time"":4567}]","89001.8999999999","","","","","","","","","","","","","","","","","","","","","","","",""
"pit-trial","8","133524","0.0-2.0-4.0-0.0","battery-v0.2","","""event"",""trial"",""time""
""fullscreenenter"",""1"",""23044""
","
","
","""event"",""trial"",""time""
""fullscreenenter"",""1"",""23044""
","
","","","537.8999999999069","","","10","6343","3608","&#9784;","elianto","#FFFFF080"," "," ","1","&#10004","[1391.1999999997206]","1","0","0","","","","","","","",""
"pit-trial","9","136905","0.0-2.0-4.1-0.1","battery-v0.2","","""event"",""trial"",""time""
""fullscreenenter"",""1"",""23044""
","
","
","""event"",""trial"",""time""
""fullscreenenter"",""1"",""23044""
","
","","","513.2999999998137","","","10","6343","3608","&#9784;","elianto","#FFFFF080"," "," ","1","&#10004","[1368.6999999997206]","1","0","0","","","","","","","",""
"pit-trial","10","140103","0.0-2.0-4.2-0.2","battery-v0.2","","""event"",""trial"",""time""
""fullscreenenter"",""1"",""23044""
","
","
","""event"",""trial"",""time""
""fullscreenenter"",""1"",""23044""
","
","","","342.60000000009313","","","10","6343","3608","&#9784;","elianto","#FFFFF080"," "," ","1","&#10004","[1193.2999999998137]","1","0","0","","","","","","","",""
"pit-trial","11","143377","0.0-2.0-4.3-0.3","battery-v0.2","","""event"",""trial"",""time""
""fullscreenenter"",""1"",""23044""
","
","
","""event"",""trial"",""time""
""fullscreenenter"",""1"",""23044""
","
","","","409.29999999981374","","","10","6343","3608","&#9784;","elianto","#FFFFF080"," "," ","1","&#10004","[1262.0999999996275]","1","0","0","","","","","","","",""
"pit-trial","12","146639","0.0-2.0-4.4-0.4","battery-v0.2","","""event"",""trial"",""time""
""fullscreenenter"",""1"",""23044""
","
","
","""event"",""trial"",""time""
""fullscreenenter"",""1"",""23044""
","
","","","395.8000000002794","","","10","6343","3608","&#9784;","elianto","#FFFFF080"," "," ","1","&#10004","[1254.2999999998137]","1","0","0","","","","","","","",""
"pit-instructions","13","166910","0.0-2.0-5.0","battery-v0.2","","""event"",""trial"",""time""
""fullscreenenter"",""1"",""23044""
","
","
","""event"",""trial"",""time""
""fullscreenenter"",""1"",""23044""
","
","","[{""page_index"":0,""viewing_time"":4732.300000000279},{""page_index"":1,""viewing_time"":5882.199999999721},{""page_index"":2,""viewing_time"":4583.399999999907},{""page_index"":3,""viewing_time"":5068.300000000279}]","20266.700000000186","","","","","","","","","","","","","","","","","","","","","","","",""
"pit-trial","14","171776","0.0-2.0-6.0-0.0","battery-v0.2","","""event"",""trial"",""time""
""fullscreenenter"",""1"",""23044""
","
","
","""event"",""trial"",""time""
""fullscreenenter"",""1"",""23044""
","
","","","-1","","","10","6343","3608","&#9854;","elianto","#FFFFF080","-1","-1","1","&#10004","[]","0","0","1","","","","","","","",""
"pit-trial","15","176641","0.0-2.0-6.1-0.1","battery-v0.2","","""event"",""trial"",""time""
""fullscreenenter"",""1"",""23044""
","
","
","""event"",""trial"",""time""
""fullscreenenter"",""1"",""23044""
","
","","","-1","","","10","6343","3608","&#9854;","elianto","#FFFFF080","-1","-1","1","&#10004","[]","0","0","1","","","","","","","",""
"pit-trial","16","181505","0.0-2.0-6.2-0.2","battery-v0.2","","""event"",""trial"",""time""
""fullscreenenter"",""1"",""23044""
","
","
","""event"",""trial"",""time""
""fullscreenenter"",""1"",""23044""
","
","","","-1","","","10","6343","3608","&#9854;","elianto","#FFFFF080","-1","-1","1","&#10004","[]","0","0","1","","","","","","","",""
"pit-trial","17","186370","0.0-2.0-6.3-0.3","battery-v0.2","","""event"",""trial"",""time""
""fullscreenenter"",""1"",""23044""
","
","
","""event"",""trial"",""time""
""fullscreenenter"",""1"",""23044""
","
","","","-1","","","10","6343","3608","&#9854;","elianto","#FFFFF080","-1","-1","1","&#10004","[]","0","0","1","","","","","","","",""
"pit-trial","18","191235","0.0-2.0-6.4-0.4","battery-v0.2","","""event"",""trial"",""time""
""fullscreenenter"",""1"",""23044""
","
","
","""event"",""trial"",""time""
""fullscreenenter"",""1"",""23044""
","
","","","-1","","","10","6343","3608","&#9854;","elianto","#FFFFF080","-1","-1","1","&#10004","[]","0","0","1","","","","","","","",""
"pit-instructions","19","300307","0.0-2.0-7.0","battery-v0.2","","""event"",""trial"",""time""
""fullscreenenter"",""1"",""23044""
","
","
","""event"",""trial"",""time""
""fullscreenenter"",""1"",""23044""
","
","","[{""page_index"":0,""viewing_time"":5690.699999999721},{""page_index"":1,""viewing_time"":6433.9000000003725},{""page_index"":2,""viewing_time"":6083.699999999721},{""page_index"":3,""viewing_time"":6034.100000000093},{""page_index"":4,""viewing_time"":5384.600000000093},{""page_index"":5,""viewing_time"":5082.199999999721},{""page_index"":6,""viewing_time"":4117.4000000003725},{""page_index"":7,""viewing_time"":7450.799999999814},{""page_index"":8,""viewing_time"":6699.799999999814},{""page_index"":9,""viewing_time"":5466.9000000003725},{""page_index"":10,""viewing_time"":6534.299999999814},{""page_index"":11,""viewing_time"":4083.5},{""page_index"":12,""viewing_time"":6583.299999999814},{""page_index"":13,""viewing_time"":6867.300000000279},{""page_index"":14,""viewing_time"":6967.299999999814},{""page_index"":15,""viewing_time"":6149.899999999907},{""page_index"":16,""viewing_time"":6817.600000000093},{""page_index"":17,""viewing_time"":6617}]","109065.19999999972","","","","","","","","","","","","","","","","","","","","","","","",""
"pit-trial","20","303791","0.0-2.0-8.0-0.0","battery-v0.2","","""event"",""trial"",""time""
""fullscreenenter"",""1"",""23044""
","
","
","""event"",""trial"",""time""
""fullscreenenter"",""1"",""23044""
","
","","","618","","","10","6343","3608","&#9776;","elianto","#3366ff99"," "," ","1","+10","[1474.9000000003725]","1","0","1","","","","","","","",""
"pit-trial","21","307059","0.0-2.0-8.0-1.0","battery-v0.2","","""event"",""trial"",""time""
""fullscreenenter"",""1"",""23044""
","
","
","""event"",""trial"",""time""
""fullscreenenter"",""1"",""23044""
","
","","","397.29999999981374","","","10","6343","3608","&#9776;","elianto","#3366ff99"," "," ","1","+10","[1257.2000000001863]","1","0","1","","","","","","","",""
"pit-trial","22","310235","0.0-2.0-8.0-2.0","battery-v0.2","","""event"",""trial"",""time""
""fullscreenenter"",""1"",""23044""
","
","
","""event"",""trial"",""time""
""fullscreenenter"",""1"",""23044""
","
","","","316.89999999990687","","","10","6343","3608","&#9776;","elianto","#3366ff99"," "," ","1","+10","[1172.7999999998137]","1","0","1","","","","","","","",""
"pit-trial","23","313352","0.0-2.0-8.0-3.0","battery-v0.2","","""event"",""trial"",""time""
""fullscreenenter"",""1"",""23044""
","
","
","""event"",""trial"",""time""
""fullscreenenter"",""1"",""23044""
","
","","","248","","","10","6343","3608","&#9776;","elianto","#3366ff99"," "," ","1","0","[1103]","1","0","1","","","","","","","",""
"pit-trial","24","318220","0.0-2.0-8.0-4.0","battery-v0.2","","""event"",""trial"",""time""
""fullscreenenter"",""1"",""23044""
","
","
","""event"",""trial"",""time""
""fullscreenenter"",""1"",""23044""
","
","","","-1","","","10","6343","3608","&#9776;","elianto","#3366ff99"," ","-1","0","0","[]","0","0","1","","","","","","","",""
"pit-trial","25","321328","0.0-2.0-8.1-0.1","battery-v0.2","","""event"",""trial"",""time""
""fullscreenenter"",""1"",""23044""
","
","
","""event"",""trial"",""time""
""fullscreenenter"",""1"",""23044""
","
","","","241","","","10","6343","3608","&#9776;","elianto","#3366ff99"," "," ","1","+10","[1092.1000000000931]","1","0","1","","","","","","","",""
"pit-trial","26","326199","0.0-2.0-8.1-1.1","battery-v0.2","","""event"",""trial"",""time""
""fullscreenenter"",""1"",""23044""
","
","
","""event"",""trial"",""time""
""fullscreenenter"",""1"",""23044""
","
","","","-1","","","10","6343","3608","&#9776;","elianto","#3366ff99"," ","-1","0","0","[]","0","0","1","","","","","","","",""
"pit-trial","27","329200","0.0-2.0-8.1-2.1","battery-v0.2","","""event"",""trial"",""time""
""fullscreenenter"",""1"",""23044""
","
","
","""event"",""trial"",""time""
""fullscreenenter"",""1"",""23044""
","
","","","140.70000000018626","","","10","6343","3608","&#9776;","elianto","#3366ff99"," "," ","1","+10","[992.6000000000931]","1","0","1","","","","","","","",""
"pit-trial","28","332487","0.0-2.0-8.1-3.1","battery-v0.2","","""event"",""trial"",""time""
""fullscreenenter"",""1"",""23044""
","
","
","""event"",""trial"",""time""
""fullscreenenter"",""1"",""23044""
","
","","","420","","","10","6343","3608","&#9776;","elianto","#3366ff99"," "," ","1","0","[1274.7000000001863]","1","0","1","","","","","","","",""
"pit-trial","29","337352","0.0-2.0-8.1-4.1","battery-v0.2","","""event"",""trial"",""time""
""fullscreenenter"",""1"",""23044""
","
","
","""event"",""trial"",""time""
""fullscreenenter"",""1"",""23044""
","
","","","-1","","","10","6343","3608","&#9776;","elianto","#3366ff99"," ","-1","0","0","[2871.399999999907]","1","0","1","","","","","","","",""
"pit-trial","30","340388","0.0-2.0-8.2-0.2","battery-v0.2","","""event"",""trial"",""time""
""fullscreenenter"",""1"",""23044""
","
","
","""event"",""trial"",""time""
""fullscreenenter"",""1"",""23044""
","
","","","172.10000000009313","","","10","6343","3608","&#9776;","elianto","#3366ff99"," "," ","1","+10","[1026.2000000001863]","1","0","1","","","","","","","",""
"pit-trial","31","343534","0.0-2.0-8.2-1.2","battery-v0.2","","""event"",""trial"",""time""
""fullscreenenter"",""1"",""23044""
","
","
","""event"",""trial"",""time""
""fullscreenenter"",""1"",""23044""
","
","","","288.39999999990687","","","10","6343","3608","&#9776;","elianto","#3366ff99"," "," ","1","+10","[1140.1999999997206]","1","0","1","","","","","","","",""
"pit-trial","32","348399","0.0-2.0-8.2-2.2","battery-v0.2","","""event"",""trial"",""time""
""fullscreenenter"",""1"",""23044""
","
","
","""event"",""trial"",""time""
""fullscreenenter"",""1"",""23044""
","
","","","-1","","","10","6343","3608","&#9776;","elianto","#3366ff99"," ","-1","0","0","[]","0","0","1","","","","","","","",""
"pit-trial","33","351644","0.0-2.0-8.2-3.2","battery-v0.2","","""event"",""trial"",""time""
""fullscreenenter"",""1"",""23044""
","
","
","""event"",""trial"",""time""
""fullscreenenter"",""1"",""23044""
","
","","","384","","","10","6343","3608","&#9776;","elianto","#3366ff99"," "," ","1","0","[1237.5999999996275]","1","0","1","","","","","","","",""
"pit-trial","34","355092","0.0-2.0-8.2-4.2","battery-v0.2","","""event"",""trial"",""time""
""fullscreenenter"",""1"",""23044""
","
","
","""event"",""trial"",""time""
""fullscreenenter"",""1"",""23044""
","
","","","583.7000000001863","","","10","6343","3608","&#9776;","elianto","#3366ff99"," "," ","1","+10","[1442.3000000002794]","1","0","1","","","","","","","",""
"call-function","35","355094","0.0-2.0-9.0","battery-v0.2","","""event"",""trial"",""time""
""fullscreenenter"",""1"",""23044""
","
","
","""event"",""trial"",""time""
""fullscreenenter"",""1"",""23044""
","
","","","","","","","","","","","","","","","","","","","","","","","","","","",""
"pit-instructions","36","393482","0.0-2.0-10.0","battery-v0.2","","""event"",""trial"",""time""
""fullscreenenter"",""1"",""23044""
","
","
","""event"",""trial"",""time""
""fullscreenenter"",""1"",""23044""
","
","","[{""page_index"":0,""viewing_time"":6084.199999999721},{""page_index"":1,""viewing_time"":6383.100000000093},{""page_index"":2,""viewing_time"":9900.600000000093},{""page_index"":3,""viewing_time"":8667.19999999972},{""page_index"":4,""viewing_time"":7350.5}]","38386.09999999963","","","","","","","","","","","","","","","","","","","","","","","",""
"pit-trial","37","398349","0.0-2.0-11.0-0.0","battery-v0.2","","""event"",""trial"",""time""
""fullscreenenter"",""1"",""23044""
","
","
","""event"",""trial"",""time""
""fullscreenenter"",""1"",""23044""
","
","","","-1","","","10","6343","3608","&#9761;","elianto","#3366ff99","-1","-1","1","+10","[]","0","0","2","","","","","","","",""
"pit-trial","38","403214","0.0-2.0-11.0-1.0","battery-v0.2","","""event"",""trial"",""time""
""fullscreenenter"",""1"",""23044""
","
","
","""event"",""trial"",""time""
""fullscreenenter"",""1"",""23044""
","
","","","-1","","","10","6343","3608","&#9761;","elianto","#3366ff99","-1","-1","1","+10","[]","0","0","2","","","","","","","",""
"pit-trial","39","408079","0.0-2.0-11.0-2.0","battery-v0.2","","""event"",""trial"",""time""
""fullscreenenter"",""1"",""23044""
","
","
","""event"",""trial"",""time""
""fullscreenenter"",""1"",""23044""
","
","","","-1","","","10","6343","3608","&#9761;","elianto","#3366ff99","-1","-1","1","+10","[]","0","0","2","","","","","","","",""
"pit-trial","40","412944","0.0-2.0-11.0-3.0","battery-v0.2","","""event"",""trial"",""time""
""fullscreenenter"",""1"",""23044""
","
","
","""event"",""trial"",""time""
""fullscreenenter"",""1"",""23044""
","
","","","-1","","","10","6343","3608","&#9761;","elianto","#3366ff99","-1","-1","1","0","[]","0","0","2","","","","","","","",""
"pit-trial","41","417158","0.0-2.0-11.0-4.0","battery-v0.2","","""event"",""trial"",""time""
""fullscreenenter"",""1"",""23044""
","
","
","""event"",""trial"",""time""
""fullscreenenter"",""1"",""23044""
","
","","","1355.7999999998137","","","10","6343","3608","&#9761;","elianto","#3366ff99","-1"," ","0","0","[2211]","1","0","2","","","","","","","",""
"pit-trial","42","422023","0.0-2.0-11.1-0.1","battery-v0.2","","""event"",""trial"",""time""
""fullscreenenter"",""1"",""23044""
","
","
","""event"",""trial"",""time""
""fullscreenenter"",""1"",""23044""
","
","","","-1","","","10","6343","3608","&#9761;","elianto","#3366ff99","-1","-1","1","+10","[]","0","0","2","","","","","","","",""
"pit-trial","43","426888","0.0-2.0-11.1-1.1","battery-v0.2","","""event"",""trial"",""time""
""fullscreenenter"",""1"",""23044""
","
","
","""event"",""trial"",""time""
""fullscreenenter"",""1"",""23044""
","
","","","-1","","","10","6343","3608","&#9761;","elianto","#3366ff99","-1","-1","1","+10","[]","0","0","2","","","","","","","",""
"pit-trial","44","431753","0.0-2.0-11.1-2.1","battery-v0.2","","""event"",""trial"",""time""
""fullscreenenter"",""1"",""23044""
","
","
","""event"",""trial"",""time""
""fullscreenenter"",""1"",""23044""
","
","","","-1","","","10","6343","3608","&#9761;","elianto","#3366ff99","-1","-1","1","+10","[]","0","0","2","","","","","","","",""
"pit-trial","45","436618","0.0-2.0-11.1-3.1","battery-v0.2","","""event"",""trial"",""time""
""fullscreenenter"",""1"",""23044""
","
","
","""event"",""trial"",""time""
""fullscreenenter"",""1"",""23044""
","
","","","-1","","","10","6343","3608","&#9761;","elianto","#3366ff99","-1","-1","1","0","[]","0","0","2","","","","","","","",""
"pit-trial","46","441483","0.0-2.0-11.1-4.1","battery-v0.2","","""event"",""trial"",""time""
""fullscreenenter"",""1"",""23044""
","
","
","""event"",""trial"",""time""
""fullscreenenter"",""1"",""23044""
","
","","","-1","","","10","6343","3608","&#9761;","elianto","#3366ff99","-1","-1","1","+10","[]","0","0","2","","","","","","","",""
"pit-trial","47","446353","0.0-2.0-11.2-0.2","battery-v0.2","","""event"",""trial"",""time""
""fullscreenenter"",""1"",""23044""
","
","
","""event"",""trial"",""time""
""fullscreenenter"",""1"",""23044""
","
","","","-1","","","10","6343","3608","&#9761;","elianto","#3366ff99","-1","-1","1","+10","[]","0","0","2","","","","","","","",""
"pit-trial","48","451218","0.0-2.0-11.2-1.2","battery-v0.2","","""event"",""trial"",""time""
""fullscreenenter"",""1"",""23044""
","
","
","""event"",""trial"",""time""
""fullscreenenter"",""1"",""23044""
","
","","","-1","","","10","6343","3608","&#9761;","elianto","#3366ff99","-1","-1","1","+10","[]","0","0","2","","","","","","","",""
"pit-trial","49","456083","0.0-2.0-11.2-2.2","battery-v0.2","","""event"",""trial"",""time""
""fullscreenenter"",""1"",""23044""
","
","
","""event"",""trial"",""time""
""fullscreenenter"",""1"",""23044""
","
","","","-1","","","10","6343","3608","&#9761;","elianto","#3366ff99","-1","-1","1","+10","[]","0","0","2","","","","","","","",""
"pit-trial","50","460953","0.0-2.0-11.2-3.2","battery-v0.2","","""event"",""trial"",""time""
""fullscreenenter"",""1"",""23044""
","
","
","""event"",""trial"",""time""
""fullscreenenter"",""1"",""23044""
","
","","","-1","","","10","6343","3608","&#9761;","elianto","#3366ff99","-1","-1","1","0","[]","0","0","2","","","","","","","",""
"pit-trial","51","465818","0.0-2.0-11.2-4.2","battery-v0.2","","""event"",""trial"",""time""
""fullscreenenter"",""1"",""23044""
","
","
","""event"",""trial"",""time""
""fullscreenenter"",""1"",""23044""
","
","","","-1","","","10","6343","3608","&#9761;","elianto","#3366ff99","-1","-1","1","+10","[]","0","0","2","","","","","","","",""
"pit-trial","52","470682","0.0-2.0-11.3-0.3","battery-v0.2","","""event"",""trial"",""time""
""fullscreenenter"",""1"",""23044""
","
","
","""event"",""trial"",""time""
""fullscreenenter"",""1"",""23044""
","
","","","-1","","","10","6343","3608","&#9761;","elianto","#3366ff99","-1","-1","1","+10","[]","0","0","2","","","","","","","",""
"pit-trial","53","475547","0.0-2.0-11.3-1.3","battery-v0.2","","""event"",""trial"",""time""
""fullscreenenter"",""1"",""23044""
","
","
","""event"",""trial"",""time""
""fullscreenenter"",""1"",""23044""
","
","","","-1","","","10","6343","3608","&#9761;","elianto","#3366ff99","-1","-1","1","+10","[]","0","0","2","","","","","","","",""
"pit-trial","54","480412","0.0-2.0-11.3-2.3","battery-v0.2","","""event"",""trial"",""time""
""fullscreenenter"",""1"",""23044""
","
","
","""event"",""trial"",""time""
""fullscreenenter"",""1"",""23044""
","
","","","-1","","","10","6343","3608","&#9761;","elianto","#3366ff99","-1","-1","1","+10","[]","0","0","2","","","","","","","",""
"pit-trial","55","485282","0.0-2.0-11.3-3.3","battery-v0.2","","""event"",""trial"",""time""
""fullscreenenter"",""1"",""23044""
","
","
","""event"",""trial"",""time""
""fullscreenenter"",""1"",""23044""
","
","","","-1","","","10","6343","3608","&#9761;","elianto","#3366ff99","-1","-1","1","0","[]","0","0","2","","","","","","","",""
"pit-trial","56","490147","0.0-2.0-11.3-4.3","battery-v0.2","","""event"",""trial"",""time""
""fullscreenenter"",""1"",""23044""
","
","
","""event"",""trial"",""time""
""fullscreenenter"",""1"",""23044""
","
","","","-1","","","10","6343","3608","&#9761;","elianto","#3366ff99","-1","-1","1","+10","[]","0","0","2","","","","","","","",""
"call-function","57","490149","0.0-2.0-12.0","battery-v0.2","","""event"",""trial"",""time""
""fullscreenenter"",""1"",""23044""
","
","
","""event"",""trial"",""time""
""fullscreenenter"",""1"",""23044""
","
","","","","","","","","","","","","","","","","","","","","","","","","","","",""
"pit-instructions","58","522095","0.0-2.0-13.0","battery-v0.2","","""event"",""trial"",""time""
""fullscreenenter"",""1"",""23044""
","
","
","""event"",""trial"",""time""
""fullscreenenter"",""1"",""23044""
","
","","[{""page_index"":0,""viewing_time"":6575.399999999907},{""page_index"":1,""viewing_time"":6783.800000000279},{""page_index"":2,""viewing_time"":3033.1999999997206},{""page_index"":3,""viewing_time"":10301},{""page_index"":4,""viewing_time"":5250.200000000186}]","31944","","","","","","","","","","","","","","","","","","","","","","","",""
"pit-trial","59","526283","0.0-2.0-14.0-0.0","battery-v0.2","","""event"",""trial"",""time""
""fullscreenenter"",""1"",""23044""
","
","
","""event"",""trial"",""time""
""fullscreenenter"",""1"",""23044""
","
","","","1322.5","","","10","6343","3608","&#9826;","elianto","#f73b6a7A","-1"," ","0","-10","[2180.7000000001863]","1","0","3","","","","","","","",""
"pit-trial","60","531147","0.0-2.0-14.0-1.0","battery-v0.2","","""event"",""trial"",""time""
""fullscreenenter"",""1"",""23044""
","
","
","""event"",""trial"",""time""
""fullscreenenter"",""1"",""23044""
","
","","","-1","","","10","6343","3608","&#9826;","elianto","#f73b6a7A","-1","-1","1","0","[]","0","0","3","","","","","","","",""
"pit-trial","61","536012","0.0-2.0-14.0-2.0","battery-v0.2","","""event"",""trial"",""time""
""fullscreenenter"",""1"",""23044""
","
","
","""event"",""trial"",""time""
""fullscreenenter"",""1"",""23044""
","
","","","-1","","","10","6343","3608","&#9826;","elianto","#f73b6a7A","-1","-1","1","0","[]","0","0","3","","","","","","","",""
"pit-trial","62","540877","0.0-2.0-14.0-3.0","battery-v0.2","","""event"",""trial"",""time""
""fullscreenenter"",""1"",""23044""
","
","
","""event"",""trial"",""time""
""fullscreenenter"",""1"",""23044""
","
","","","-1","","","10","6343","3608","&#9826;","elianto","#f73b6a7A","-1","-1","1","-10","[]","0","0","3","","","","","","","",""
"pit-trial","63","545739","0.0-2.0-14.0-4.0","battery-v0.2","","""event"",""trial"",""time""
""fullscreenenter"",""1"",""23044""
","
","
","""event"",""trial"",""time""
""fullscreenenter"",""1"",""23044""
","
","","","-1","","","10","6343","3608","&#9826;","elianto","#f73b6a7A","-1","-1","1","0","[]","0","0","3","","","","","","","",""
"pit-trial","64","550606","0.0-2.0-14.1-0.1","battery-v0.2","","""event"",""trial"",""time""
""fullscreenenter"",""1"",""23044""
","
","
","""event"",""trial"",""time""
""fullscreenenter"",""1"",""23044""
","
","","","-1","","","10","6343","3608","&#9826;","elianto","#f73b6a7A","-1","-1","1","0","[]","0","0","3","","","","","","","",""
"pit-trial","65","555478","0.0-2.0-14.1-1.1","battery-v0.2","","""event"",""trial"",""time""
""fullscreenenter"",""1"",""23044""
","
","
","""event"",""trial"",""time""
""fullscreenenter"",""1"",""23044""
","
","","","-1","","","10","6343","3608","&#9826;","elianto","#f73b6a7A","-1","-1","1","0","[]","0","0","3","","","","","","","",""
"pit-trial","66","560348","0.0-2.0-14.1-2.1","battery-v0.2","","""event"",""trial"",""time""
""fullscreenenter"",""1"",""23044""
","
","
","""event"",""trial"",""time""
""fullscreenenter"",""1"",""23044""
","
","","","-1","","","10","6343","3608","&#9826;","elianto","#f73b6a7A","-1","-1","1","0","[]","0","0","3","","","","","","","",""
"pit-trial","67","565213","0.0-2.0-14.1-3.1","battery-v0.2","","""event"",""trial"",""time""
""fullscreenenter"",""1"",""23044""
","
","
","""event"",""trial"",""time""
""fullscreenenter"",""1"",""23044""
","
","","","-1","","","10","6343","3608","&#9826;","elianto","#f73b6a7A","-1","-1","1","-10","[]","0","0","3","","","","","","","",""
"pit-trial","68","570078","0.0-2.0-14.1-4.1","battery-v0.2","","""event"",""trial"",""time""
""fullscreenenter"",""1"",""23044""
","
","
","""event"",""trial"",""time""
""fullscreenenter"",""1"",""23044""
","
","","","-1","","","10","6343","3608","&#9826;","elianto","#f73b6a7A","-1","-1","1","0","[]","0","0","3","","","","","","","",""
"pit-trial","69","574948","0.0-2.0-14.2-0.2","battery-v0.2","","""event"",""trial"",""time""
""fullscreenenter"",""1"",""23044""
","
","
","""event"",""trial"",""time""
""fullscreenenter"",""1"",""23044""
","
","","","-1","","","10","6343","3608","&#9826;","elianto","#f73b6a7A","-1","-1","1","0","[]","0","0","3","","","","","","","",""
"pit-trial","70","579813","0.0-2.0-14.2-1.2","battery-v0.2","","""event"",""trial"",""time""
""fullscreenenter"",""1"",""23044""
","
","
","""event"",""trial"",""time""
""fullscreenenter"",""1"",""23044""
","
","","","-1","","","10","6343","3608","&#9826;","elianto","#f73b6a7A","-1","-1","1","0","[]","0","0","3","","","","","","","",""
"pit-trial","71","584678","0.0-2.0-14.2-2.2","battery-v0.2","","""event"",""trial"",""time""
""fullscreenenter"",""1"",""23044""
","
","
","""event"",""trial"",""time""
""fullscreenenter"",""1"",""23044""
","
","","","-1","","","10","6343","3608","&#9826;","elianto","#f73b6a7A","-1","-1","1","0","[]","0","0","3","","","","","","","",""
"pit-trial","72","589542","0.0-2.0-14.2-3.2","battery-v0.2","","""event"",""trial"",""time""
""fullscreenenter"",""1"",""23044""
","
","
","""event"",""trial"",""time""
""fullscreenenter"",""1"",""23044""
","
","","","-1","","","10","6343","3608","&#9826;","elianto","#f73b6a7A","-1","-1","1","-10","[]","0","0","3","","","","","","","",""
"pit-trial","73","594407","0.0-2.0-14.2-4.2","battery-v0.2","","""event"",""trial"",""time""
""fullscreenenter"",""1"",""23044""
","
","
","""event"",""trial"",""time""
""fullscreenenter"",""1"",""23044""
","
","","","-1","","","10","6343","3608","&#9826;","elianto","#f73b6a7A","-1","-1","1","0","[]","0","0","3","","","","","","","",""
"pit-trial","74","599277","0.0-2.0-14.3-0.3","battery-v0.2","","""event"",""trial"",""time""
""fullscreenenter"",""1"",""23044""
","
","
","""event"",""trial"",""time""
""fullscreenenter"",""1"",""23044""
","
","","","-1","","","10","6343","3608","&#9826;","elianto","#f73b6a7A","-1","-1","1","0","[]","0","0","3","","","","","","","",""
"pit-trial","75","604142","0.0-2.0-14.3-1.3","battery-v0.2","","""event"",""trial"",""time""
""fullscreenenter"",""1"",""23044""
","
","
","""event"",""trial"",""time""
""fullscreenenter"",""1"",""23044""
","
","","","-1","","","10","6343","3608","&#9826;","elianto","#f73b6a7A","-1","-1","1","0","[]","0","0","3","","","","","","","",""
"pit-trial","76","609007","0.0-2.0-14.3-2.3","battery-v0.2","","""event"",""trial"",""time""
""fullscreenenter"",""1"",""23044""
","
","
","""event"",""trial"",""time""
""fullscreenenter"",""1"",""23044""
","
","","","-1","","","10","6343","3608","&#9826;","elianto","#f73b6a7A","-1","-1","1","0","[]","0","0","3","","","","","","","",""
"pit-trial","77","613872","0.0-2.0-14.3-3.3","battery-v0.2","","""event"",""trial"",""time""
""fullscreenenter"",""1"",""23044""
","
","
","""event"",""trial"",""time""
""fullscreenenter"",""1"",""23044""
","
","","","-1","","","10","6343","3608","&#9826;","elianto","#f73b6a7A","-1","-1","1","-10","[]","0","0","3","","","","","","","",""
"pit-trial","78","618742","0.0-2.0-14.3-4.3","battery-v0.2","","""event"",""trial"",""time""
""fullscreenenter"",""1"",""23044""
","
","
","""event"",""trial"",""time""
""fullscreenenter"",""1"",""23044""
","
","","","-1","","","10","6343","3608","&#9826;","elianto","#f73b6a7A","-1","-1","1","0","[]","0","0","3","","","","","","","",""
"call-function","79","618744","0.0-2.0-15.0","battery-v0.2","","""event"",""trial"",""time""
""fullscreenenter"",""1"",""23044""
","
","
","""event"",""trial"",""time""
""fullscreenenter"",""1"",""23044""
","
","","","","","","","","","","","","","","","","","","","","","","","","","","",""
"pit-instructions","80","642757","0.0-2.0-16.0","battery-v0.2","","""event"",""trial"",""time""
""fullscreenenter"",""1"",""23044""
","
","
","""event"",""trial"",""time""
""fullscreenenter"",""1"",""23044""
","
","","[{""page_index"":0,""viewing_time"":6692.800000000279},{""page_index"":1,""viewing_time"":8184.299999999814},{""page_index"":2,""viewing_time"":4233.5},{""page_index"":3,""viewing_time"":4900}]","24011.100000000093","","","","","","","","","","","","","","","","","","","","","","","",""
"pit-trial","81","646034","0.0-2.0-17.0-0.0","battery-v0.2","","""event"",""trial"",""time""
""fullscreenenter"",""1"",""23044""
","
","
","""event"",""trial"",""time""
""fullscreenenter"",""1"",""23044""
","
","","","410.5","","","10","6343","3608","&#9789;","elianto","#f73b6a7A"," "," ","1","0","[1267.6000000000931]","1","0","4","","","","","","","",""
"pit-trial","82","649696","0.0-2.0-17.0-1.0","battery-v0.2","","""event"",""trial"",""time""
""fullscreenenter"",""1"",""23044""
","
","
","""event"",""trial"",""time""
""fullscreenenter"",""1"",""23044""
","
","","","798.2999999998137","","","10","6343","3608","&#9789;","elianto","#f73b6a7A"," "," ","1","0","[1653.6999999997206]","1","0","4","","","","","","","",""
"pit-trial","83","652761","0.0-2.0-17.0-2.0","battery-v0.2","","""event"",""trial"",""time""
""fullscreenenter"",""1"",""23044""
","
","
","""event"",""trial"",""time""
""fullscreenenter"",""1"",""23044""
","
","","","198","","","10","6343","3608","&#9789;","elianto","#f73b6a7A"," "," ","1","0","[1054.7999999998137]","1","0","4","","","","","","","",""
"pit-trial","84","655937","0.0-2.0-17.0-3.0","battery-v0.2","","""event"",""trial"",""time""
""fullscreenenter"",""1"",""23044""
","
","
","""event"",""trial"",""time""
""fullscreenenter"",""1"",""23044""
","
","","","303.5","","","10","6343","3608","&#9789;","elianto","#f73b6a7A"," "," ","1","-10","[1167.6000000000931]","1","0","4","","","","","","","",""
"pit-trial","85","658950","0.0-2.0-17.0-4.0","battery-v0.2","","""event"",""trial"",""time""
""fullscreenenter"",""1"",""23044""
","
","
","""event"",""trial"",""time""
""fullscreenenter"",""1"",""23044""
","
","","","150.09999999962747","","","10","6343","3608","&#9789;","elianto","#f73b6a7A"," "," ","1","0","[1003.7999999998137]","1","0","4","","","","","","","",""
"pit-trial","86","662149","0.0-2.0-17.1-0.1","battery-v0.2","","""event"",""trial"",""time""
""fullscreenenter"",""1"",""23044""
","
","
","""event"",""trial"",""time""
""fullscreenenter"",""1"",""23044""
","
","","","334.79999999981374","","","10","6343","3608","&#9789;","elianto","#f73b6a7A"," "," ","1","0","[1188.0999999996275]","1","0","4","","","","","","","",""
"pit-trial","87","665365","0.0-2.0-17.1-1.1","battery-v0.2","","""event"",""trial"",""time""
""fullscreenenter"",""1"",""23044""
","
","
","""event"",""trial"",""time""
""fullscreenenter"",""1"",""23044""
","
","","","354.3000000002794","","","10","6343","3608","&#9789;","elianto","#f73b6a7A"," "," ","1","0","[1213.1000000000931]","1","0","4","","","","","","","",""
"pit-trial","88","668639","0.0-2.0-17.1-2.1","battery-v0.2","","""event"",""trial"",""time""
""fullscreenenter"",""1"",""23044""
","
","
","""event"",""trial"",""time""
""fullscreenenter"",""1"",""23044""
","
","","","406.60000000009313","","","10","6343","3608","&#9789;","elianto","#f73b6a7A"," "," ","1","0","[1265.0999999996275]","1","0","4","","","","","","","",""
"pit-trial","89","671706","0.0-2.0-17.1-3.1","battery-v0.2","","""event"",""trial"",""time""
""fullscreenenter"",""1"",""23044""
","
","
","""event"",""trial"",""time""
""fullscreenenter"",""1"",""23044""
","
","","","199.8000000002794","","","10","6343","3608","&#9789;","elianto","#f73b6a7A"," "," ","1","-10","[1052.2999999998137]","1","0","4","","","","","","","",""
"pit-trial","90","674832","0.0-2.0-17.1-4.1","battery-v0.2","","""event"",""trial"",""time""
""fullscreenenter"",""1"",""23044""
","
","
","""event"",""trial"",""time""
""fullscreenenter"",""1"",""23044""
","
","","","264.10000000009313","","","10","6343","3608","&#9789;","elianto","#f73b6a7A"," "," ","1","0","[1115.8000000002794]","1","0","4","","","","","","","",""
"pit-trial","91","677970","0.0-2.0-17.2-0.2","battery-v0.2","","""event"",""trial"",""time""
""fullscreenenter"",""1"",""23044""
","
","
","""event"",""trial"",""time""
""fullscreenenter"",""1"",""23044""
","
","","","269.39999999990687","","","10","6343","3608","&#9789;","elianto","#f73b6a7A"," "," ","1","0","[1128.3000000002794]","1","0","4","","","","","","","",""
"pit-trial","92","681784","0.0-2.0-17.2-1.2","battery-v0.2","","""event"",""trial"",""time""
""fullscreenenter"",""1"",""23044""
","
","
","""event"",""trial"",""time""
""fullscreenenter"",""1"",""23044""
","
","","","950.8999999999069","","","10","6343","3608","&#9789;","elianto","#f73b6a7A"," "," ","1","0","[1802.8999999999069]","1","0","4","","","","","","","",""
"pit-trial","93","685046","0.0-2.0-17.2-2.2","battery-v0.2","","""event"",""trial"",""time""
""fullscreenenter"",""1"",""23044""
","
","
","""event"",""trial"",""time""
""fullscreenenter"",""1"",""23044""
","
","","","397.89999999990687","","","10","6343","3608","&#9789;","elianto","#f73b6a7A"," "," ","1","0","[1253.2000000001863]","1","0","4","","","","","","","",""
"pit-trial","94","688158","0.0-2.0-17.2-3.2","battery-v0.2","","""event"",""trial"",""time""
""fullscreenenter"",""1"",""23044""
","
","
","""event"",""trial"",""time""
""fullscreenenter"",""1"",""23044""
","
","","","250.39999999990687","","","10","6343","3608","&#9789;","elianto","#f73b6a7A"," "," ","1","-10","[1107.5]","1","0","4","","","","","","","",""
"pit-trial","95","691351","0.0-2.0-17.2-4.2","battery-v0.2","","""event"",""trial"",""time""
""fullscreenenter"",""1"",""23044""
","
","
","""event"",""trial"",""time""
""fullscreenenter"",""1"",""23044""
","
","","","336.20000000018626","","","10","6343","3608","&#9789;","elianto","#f73b6a7A"," "," ","1","0","[1187.7000000001863]","1","0","4","","","","","","","",""
"pit-trial","96","695048","0.0-2.0-17.3-0.3","battery-v0.2","","""event"",""trial"",""time""
""fullscreenenter"",""1"",""23044""
","
","
","""event"",""trial"",""time""
""fullscreenenter"",""1"",""23044""
","
","","","832.1999999997206","","","10","6343","3608","&#9789;","elianto","#f73b6a7A"," "," ","1","0","[1686.8999999999069]","1","0","4","","","","","","","",""
"pit-trial","97","698386","0.0-2.0-17.3-1.3","battery-v0.2","","""event"",""trial"",""time""
""fullscreenenter"",""1"",""23044""
","
","
","""event"",""trial"",""time""
""fullscreenenter"",""1"",""23044""
","
","","","468.39999999990687","","","10","6343","3608","&#9789;","elianto","#f73b6a7A"," "," ","1","0","[1322.7999999998137]","1","0","4","","","","","","","",""
"pit-trial","98","701550","0.0-2.0-17.3-2.3","battery-v0.2","","""event"",""trial"",""time""
""fullscreenenter"",""1"",""23044""
","
","
","""event"",""trial"",""time""
""fullscreenenter"",""1"",""23044""
","
","","","302.20000000018626","","","10","6343","3608","&#9789;","elianto","#f73b6a7A"," "," ","1","0","[1156.2999999998137]","1","0","4","","","","","","","",""
"pit-trial","99","704842","0.0-2.0-17.3-3.3","battery-v0.2","","""event"",""trial"",""time""
""fullscreenenter"",""1"",""23044""
","
","
","""event"",""trial"",""time""
""fullscreenenter"",""1"",""23044""
","
","","","422.8000000002794","","","10","6343","3608","&#9789;","elianto","#f73b6a7A"," "," ","1","-10","[1279.5]","1","0","4","","","","","","","",""
"pit-trial","100","708127","0.0-2.0-17.3-4.3","battery-v0.2","","""event"",""trial"",""time""
""fullscreenenter"",""1"",""23044""
","
","
","""event"",""trial"",""time""
""fullscreenenter"",""1"",""23044""
","
","","","423.79999999981374","","","10","6343","3608","&#9789;","elianto","#f73b6a7A"," "," ","1","0","[1276.1999999997206]","1","0","4","","","","","","","",""
"call-function","101","708129","0.0-2.0-18.0","battery-v0.2","","""event"",""trial"",""time""
""fullscreenenter"",""1"",""23044""
","
","
","""event"",""trial"",""time""
""fullscreenenter"",""1"",""23044""
","
","","","","","","","","","","","","","","","","","","","","","","","","","","",""
"pit-instructions","102","777853","0.0-2.0-19.0","battery-v0.2","","""event"",""trial"",""time""
""fullscreenenter"",""1"",""23044""
","
","
","""event"",""trial"",""time""
""fullscreenenter"",""1"",""23044""
","
","","[{""page_index"":0,""viewing_time"":6750.199999999721},{""page_index"":1,""viewing_time"":6015.300000000279},{""page_index"":2,""viewing_time"":13400.399999999907},{""page_index"":3,""viewing_time"":6984.100000000093},{""page_index"":4,""viewing_time"":8350.799999999814},{""page_index"":5,""viewing_time"":9283.700000000186},{""page_index"":6,""viewing_time"":8900.799999999814},{""page_index"":7,""viewing_time"":6266.800000000279},{""page_index"":8,""viewing_time"":3768.1999999997206}]","69721.1000000001","","","","","","","","","","","","","","","","","","","","","","","",""
"pit-comprehension","103","782586","0.0-2.0-20.0-0.0","battery-v0.2","","""event"",""trial"",""time""
""fullscreenenter"",""1"",""23044""
","
","
","""event"",""trial"",""time""
""fullscreenenter"",""1"",""23044""
","
","","","4727.100000000093","[""SPACE""]","0","10","6343","3608","","","","","","","","","","","","","","","","","","",""
"pit-instructions","104","786002","0.0-2.0-20.0-1.0","battery-v0.2","","""event"",""trial"",""time""
""fullscreenenter"",""1"",""23044""
","
","
","""event"",""trial"",""time""
""fullscreenenter"",""1"",""23044""
","
","","[{""page_index"":0,""viewing_time"":3377.4000000003725}]","3377.7000000001863","","","","","","","","","","","","","","","","","","","","","","","",""
"pit-comprehension","105","791720","0.0-2.0-21.0-0.0","battery-v0.2","","""event"",""trial"",""time""
""fullscreenenter"",""1"",""23044""
","
","
","""event"",""trial"",""time""
""fullscreenenter"",""1"",""23044""
","
","","","5714.600000000093","[""10""]","0","10","6343","3608","","","","","","","","","","","","","","","","","","",""
"pit-instructions","106","793538","0.0-2.0-21.0-1.0","battery-v0.2","","""event"",""trial"",""time""
""fullscreenenter"",""1"",""23044""
","
","
","""event"",""trial"",""time""
""fullscreenenter"",""1"",""23044""
","
","","[{""page_index"":0,""viewing_time"":1778.7000000001863}]","1779.1000000000931","","","","","","","","","","","","","","","","","","","","","","","",""
"pit-comprehension","107","800104","0.0-2.0-22.0-0.0","battery-v0.2","","""event"",""trial"",""time""
""fullscreenenter"",""1"",""23044""
","
","
","""event"",""trial"",""time""
""fullscreenenter"",""1"",""23044""
","
","","","6561.5","[""0""]","0","10","6343","3608","","","","","","","","","","","","","","","","","","",""
"pit-instructions","108","802104","0.0-2.0-22.0-1.0","battery-v0.2","","""event"",""trial"",""time""
""fullscreenenter"",""1"",""23044""
","
","
","""event"",""trial"",""time""
""fullscreenenter"",""1"",""23044""
","
","","[{""page_index"":0,""viewing_time"":1958.8999999999069}]","1959.1999999997206","","","","","","","","","","","","","","","","","","","","","","","",""
"pit-comprehension","109","811392","0.0-2.0-23.0-0.0","battery-v0.2","","""event"",""trial"",""time""
""fullscreenenter"",""1"",""23044""
","
","
","""event"",""trial"",""time""
""fullscreenenter"",""1"",""23044""
","
","","","9283.299999999814","[""True""]","0","10","6343","3608","","","","","","","","","","","","","","","","","","",""
"pit-instructions","110","813173","0.0-2.0-23.0-1.0","battery-v0.2","","""event"",""trial"",""time""
""fullscreenenter"",""1"",""23044""
","
","
","""event"",""trial"",""time""
""fullscreenenter"",""1"",""23044""
","
","","[{""page_index"":0,""viewing_time"":1737.5}]","1738.5","","","","","","","","","","","","","","","","","","","","","","","",""
"pit-comprehension","111","823358","0.0-2.0-24.0-0.0","battery-v0.2","","""event"",""trial"",""time""
""fullscreenenter"",""1"",""23044""
","
","
","""event"",""trial"",""time""
""fullscreenenter"",""1"",""23044""
","
","","","10179.399999999907","[""True""]","0","10","6343","3608","","","","","","","","","","","","","","","","","","",""
"pit-instructions","112","824907","0.0-2.0-24.0-1.0","battery-v0.2","","""event"",""trial"",""time""
""fullscreenenter"",""1"",""23044""
","
","
","""event"",""trial"",""time""
""fullscreenenter"",""1"",""23044""
","
","","[{""page_index"":0,""viewing_time"":1509.2999999998137}]","1509.6000000000931","","","","","","","","","","","","","","","","","","","","","","","",""
"pit-comprehension","113","831460","0.0-2.0-25.0-0.0","battery-v0.2","","""event"",""trial"",""time""
""fullscreenenter"",""1"",""23044""
","
","
","""event"",""trial"",""time""
""fullscreenenter"",""1"",""23044""
","
","","","6547.5","[""True""]","0","10","6343","3608","","","","","","","","","","","","","","","","","","",""
"pit-instructions","114","833008","0.0-2.0-25.0-1.0","battery-v0.2","","""event"",""trial"",""time""
""fullscreenenter"",""1"",""23044""
","
","
","""event"",""trial"",""time""
""fullscreenenter"",""1"",""23044""
","
","","[{""page_index"":0,""viewing_time"":1506.2000000001863}]","1506.5","","","","","","","","","","","","","","","","","","","","","","","",""
"pit-comprehension","115","840143","0.0-2.0-26.0-0.0","battery-v0.2","","""event"",""trial"",""time""
""fullscreenenter"",""1"",""23044""
","
","
","""event"",""trial"",""time""
""fullscreenenter"",""1"",""23044""
","
","","","7128.600000000093","[""False""]","0","10","6343","3608","","","","","","","","","","","","","","","","","","",""
"pit-instructions","116","841776","0.0-2.0-26.0-1.0","battery-v0.2","","""event"",""trial"",""time""
""fullscreenenter"",""1"",""23044""
","
","
","""event"",""trial"",""time""
""fullscreenenter"",""1"",""23044""
","
","","[{""page_index"":0,""viewing_time"":1588.2000000001863}]","1588.6000000000931","","","","","","","","","","","","","","","","","","","","","","","",""
"pit-instructions","117","858628","0.0-3.0","battery-v0.2","","""event"",""trial"",""time""
""fullscreenenter"",""1"",""23044""
","
","
","""event"",""trial"",""time""
""fullscreenenter"",""1"",""23044""
","
","","[{""page_index"":0,""viewing_time"":4530.399999999907},{""page_index"":1,""viewing_time"":5566.699999999721},{""page_index"":2,""viewing_time"":6751.100000000093}]","16848.69999999972","","","","","","","","","","","","","","","","","","","","","","","",""
"pit-trial","118","861957","0.0-4.0","battery-v0.2","","""event"",""trial"",""time""
""fullscreenenter"",""1"",""23044""
","
","
","""event"",""trial"",""time""
""fullscreenenter"",""1"",""23044""
","
","","","459.89999999990687","","","10","6343","3608","&#9752;","elianto","#f73b6a7A"," "," ","1","-10","[1316.6000000000931]","1","1","","","6343","1","3","3","lose","go","1"
"pit-trial","119","865380","0.0-5.0","battery-v0.2","","""event"",""trial"",""time""
""fullscreenenter"",""1"",""23044""
","
","
","""event"",""trial"",""time""
""fullscreenenter"",""1"",""23044""
","
","","","562.5","","","10","6343","3608","&#9728;","elianto","#f73b6a7A","-1"," ","0","-10","[1416.2999999998137]","1","1","","","6343","2","0","4","lose","no-go","0"
"pit-trial","120","868835","0.0-6.0","battery-v0.2","","""event"",""trial"",""time""
""fullscreenenter"",""1"",""23044""
","
","
","""event"",""trial"",""time""
""fullscreenenter"",""1"",""23044""
","
","","","590.8999999999069","","","10","6343","3608","&#9730;","elianto","#3366ff99"," "," ","1","+10","[1447.1999999997206]","1","1","","","6343","3","1","1","win","go","0"
"pit-trial","121","872363","0.0-7.0","battery-v0.2","","""event"",""trial"",""time""
""fullscreenenter"",""1"",""23044""
","
","
","""event"",""trial"",""time""
""fullscreenenter"",""1"",""23044""
","
","","","659.8999999999069","","","10","6343","3608","&#9733;","elianto","#3366ff99","-1"," ","0","0","[1518.7000000001863]","1","1","","","6343","4","2","2","win","no-go","0"
"pit-trial","122","877229","0.0-8.0","battery-v0.2","","""event"",""trial"",""time""
""fullscreenenter"",""1"",""23044""
","
","
","""event"",""trial"",""time""
""fullscreenenter"",""1"",""23044""
","
","","","-1","","","10","6343","3608","&#9728;","elianto","#f73b6a7A","-1","-1","1","0","[]","0","1","","","6343","5","0","4","lose","no-go","0"
"pit-trial","123","882092","0.0-9.0","battery-v0.2","","""event"",""trial"",""time""
""fullscreenenter"",""1"",""23044""
","
","
","""event"",""trial"",""time""
""fullscreenenter"",""1"",""23044""
","
","","","-1","","","10","6343","3608","&#9752;","elianto","#f73b6a7A"," ","-1","0","0","[]","0","1","","","6343","6","3","3","lose","go","1"
"pit-trial","124","885483","0.0-10.0","battery-v0.2","","""event"",""trial"",""time""
""fullscreenenter"",""1"",""23044""
","
","
","""event"",""trial"",""time""
""fullscreenenter"",""1"",""23044""
","
","","","529.2000000001863","","","10","6343","3608","&#9733;","elianto","#3366ff99","-1"," ","0","+10","[1380.8000000002794]","1","1","","","6343","7","2","2","win","no-go","1"
"pit-trial","125","890349","0.0-11.0","battery-v0.2","","""event"",""trial"",""time""
""fullscreenenter"",""1"",""23044""
","
","
","""event"",""trial"",""time""
""fullscreenenter"",""1"",""23044""
","
","","","-1","","","10","6343","3608","&#9730;","elianto","#3366ff99"," ","-1","0","+10","[]","0","1","","","6343","8","1","1","win","go","1"
"pit-trial","126","895216","0.0-12.0","battery-v0.2","","""event"",""trial"",""time""
""fullscreenenter"",""1"",""23044""
","
","
","""event"",""trial"",""time""
""fullscreenenter"",""1"",""23044""
","
","","","-1","","","10","6343","3608","&#9752;","elianto","#f73b6a7A"," ","-1","0","-10","[]","0","1","","","6343","9","3","3","lose","go","0"
"pit-trial","127","899085","0.0-13.0","battery-v0.2","","""event"",""trial"",""time""
""fullscreenenter"",""1"",""23044""
","
","
","""event"",""trial"",""time""
""fullscreenenter"",""1"",""23044""
","
","","","994.3999999999069","","","10","6343","3608","&#9730;","elianto","#3366ff99"," "," ","1","+10","[1857.3999999999069]","1","1","","","6343","10","1","1","win","go","0"
"pit-trial","128","903950","0.0-14.0","battery-v0.2","","""event"",""trial"",""time""
""fullscreenenter"",""1"",""23044""
","
","
","""event"",""trial"",""time""
""fullscreenenter"",""1"",""23044""
","
","","","-1","","","10","6343","3608","&#9728;","elianto","#f73b6a7A","-1","-1","1","0","[]","0","1","","","6343","11","0","4","lose","no-go","0"
"pit-trial","129","907404","0.0-15.0","battery-v0.2","","""event"",""trial"",""time""
""fullscreenenter"",""1"",""23044""
","
","
","""event"",""trial"",""time""
""fullscreenenter"",""1"",""23044""
","
","","","587.3999999999069","","","10","6343","3608","&#9733;","elianto","#3366ff99","-1"," ","0","+10","[1443.1999999997206]","1","1","","","6343","12","2","2","win","no-go","1"
"pit-trial","130","911630","0.0-16.0","battery-v0.2","","""event"",""trial"",""time""
""fullscreenenter"",""1"",""23044""
","
","
","""event"",""trial"",""time""
""fullscreenenter"",""1"",""23044""
","
","","","1363.5","","","10","6343","3608","&#9730;","elianto","#3366ff99"," "," ","1","+10","[2219.600000000093]","1","1","","","6343","13","1","1","win","go","0"
"pit-trial","131","916495","0.0-17.0","battery-v0.2","","""event"",""trial"",""time""
""fullscreenenter"",""1"",""23044""
","
","
","""event"",""trial"",""time""
""fullscreenenter"",""1"",""23044""
","
","","","-1","","","10","6343","3608","&#9752;","elianto","#f73b6a7A"," ","-1","0","-10","[]","0","1","","","6343","14","3","3","lose","go","0"
"pit-trial","132","919943","0.0-18.0","battery-v0.2","","""event"",""trial"",""time""
""fullscreenenter"",""1"",""23044""
","
","
","""event"",""trial"",""time""
""fullscreenenter"",""1"",""23044""
","
","","","587.1999999997206","","","10","6343","3608","&#9733;","elianto","#3366ff99","-1"," ","0","0","[1439.1000000000931]","1","1","","","6343","15","2","2","win","no-go","0"
"pit-trial","133","924808","0.0-19.0","battery-v0.2","","""event"",""trial"",""time""
""fullscreenenter"",""1"",""23044""
","
","
","""event"",""trial"",""time""
""fullscreenenter"",""1"",""23044""
","
","","","-1","","","10","6343","3608","&#9728;","elianto","#f73b6a7A","-1","-1","1","0","[]","0","1","","","6343","16","0","4","lose","no-go","0"
"pit-trial","134","929679","0.0-20.0","battery-v0.2","","""event"",""trial"",""time""
""fullscreenenter"",""1"",""23044""
","
","
","""event"",""trial"",""time""
""fullscreenenter"",""1"",""23044""
","
","","","-1","","","10","6343","3608","&#9752;","elianto","#f73b6a7A"," ","-1","0","-10","[]","0","1","","","6343","17","3","3","lose","go","0"
"pit-trial","135","934543","0.0-21.0","battery-v0.2","","""event"",""trial"",""time""
""fullscreenenter"",""1"",""23044""
","
","
","""event"",""trial"",""time""
""fullscreenenter"",""1"",""23044""
","
","","","-1","","","10","6343","3608","&#9728;","elianto","#f73b6a7A","-1","-1","1","0","[]","0","1","","","6343","18","0","4","lose","no-go","0"
"pit-trial","136","938311","0.0-22.0","battery-v0.2","","""event"",""trial"",""time""
""fullscreenenter"",""1"",""23044""
","
","
","""event"",""trial"",""time""
""fullscreenenter"",""1"",""23044""
","
","","","908.2000000001863","","","10","6343","3608","&#9733;","elianto","#3366ff99","-1"," ","0","+10","[1759.5]","1","1","","","6343","19","2","2","win","no-go","1"
"pit-trial","137","942102","0.0-23.0","battery-v0.2","","""event"",""trial"",""time""
""fullscreenenter"",""1"",""23044""
","
","
","""event"",""trial"",""time""
""fullscreenenter"",""1"",""23044""
","
","","","929.5","","","10","6343","3608","&#9730;","elianto","#3366ff99"," "," ","1","+10","[1786.1000000000931]","1","1","","","6343","20","1","1","win","go","0"
"pit-instructions","138","955137","0.0-24.0","battery-v0.2","","""event"",""trial"",""time""
""fullscreenenter"",""1"",""23044""
","
","
","""event"",""trial"",""time""
""fullscreenenter"",""1"",""23044""
","
","","[{""page_index"":0,""viewing_time"":6049.700000000186},{""page_index"":1,""viewing_time"":6982.799999999814}]","13033.100000000093","","","","","","","","","","","","","","","","","","","","","","","",""
"pit-trial","139","960006","0.0-25.0","battery-v0.2","","""event"",""trial"",""time""
""fullscreenenter"",""1"",""23044""
","
","
","""event"",""trial"",""time""
""fullscreenenter"",""1"",""23044""
","
","","","-1","","","10","6343","3608","u","elianto","#f73b6a7A"," ","-1","0","-10","[]","0","2","","","6343","21","0","3","lose","go","0"
"pit-trial","140","964870","0.0-26.0","battery-v0.2","","""event"",""trial"",""time""
""fullscreenenter"",""1"",""23044""
","
","
","""event"",""trial"",""time""
""fullscreenenter"",""1"",""23044""
","
","","","-1","","","10","6343","3608","g","elianto","#f73b6a7A","-1","-1","1","0","[]","0","2","","","6343","22","3","4","lose","no-go","0"
"pit-trial","141","969737","0.0-27.0","battery-v0.2","","""event"",""trial"",""time""
""fullscreenenter"",""1"",""23044""
","
","
","""event"",""trial"",""time""
""fullscreenenter"",""1"",""23044""
","
","","","-1","","","10","6343","3608","a","elianto","#f73b6a7A"," ","-1","0","-10","[]","0","2","","","6343","23","2","3","lose","go","0"
"pit-trial","142","973616","0.0-28.0","battery-v0.2","","""event"",""trial"",""time""
""fullscreenenter"",""1"",""23044""
","
","
","""event"",""trial"",""time""
""fullscreenenter"",""1"",""23044""
","
","","","1022.6999999997206","","","10","6343","3608","l","elianto","#3366ff99","-1"," ","0","0","[1872.8999999999069]","1","2","","","6343","24","1","2","win","no-go","0"
"pit-trial","143","977998","0.0-29.0","battery-v0.2","","""event"",""trial"",""time""
""fullscreenenter"",""1"",""23044""
","
","
","""event"",""trial"",""time""
""fullscreenenter"",""1"",""23044""
","
","","","1517","","","10","6343","3608","a","elianto","#f73b6a7A"," "," ","1","0","[2372.5]","1","2","","","6343","25","2","3","lose","go","0"
"pit-trial","144","982863","0.0-30.0","battery-v0.2","","""event"",""trial"",""time""
""fullscreenenter"",""1"",""23044""
","
","
","""event"",""trial"",""time""
""fullscreenenter"",""1"",""23044""
","
","","","-1","","","10","6343","3608","l","elianto","#3366ff99","-1","-1","1","+10","[]","0","2","","","6343","26","1","2","win","no-go","0"
"pit-trial","145","986783","0.0-31.0","battery-v0.2","","""event"",""trial"",""time""
""fullscreenenter"",""1"",""23044""
","
","
","""event"",""trial"",""time""
""fullscreenenter"",""1"",""23044""
","
","","","1052.2999999998137","","","10","6343","3608","u","elianto","#f73b6a7A"," "," ","1","0","[1911.5]","1","2","","","6343","27","0","3","lose","go","0"
"pit-trial","146","991647","0.0-32.0","battery-v0.2","","""event"",""trial"",""time""
""fullscreenenter"",""1"",""23044""
","
","
","""event"",""trial"",""time""
""fullscreenenter"",""1"",""23044""
","
","","","-1","","","10","6343","3608","g","elianto","#f73b6a7A","-1","-1","1","0","[]","0","2","","","6343","28","3","4","lose","no-go","0"
"pit-trial","147","995281","0.0-33.0","battery-v0.2","","""event"",""trial"",""time""
""fullscreenenter"",""1"",""23044""
","
","
","""event"",""trial"",""time""
""fullscreenenter"",""1"",""23044""
","
","","","765.5","","","10","6343","3608","l","elianto","#3366ff99","-1"," ","0","0","[1624.1000000000931]","1","2","","","6343","29","1","2","win","no-go","0"
"pit-trial","148","1000146","0.0-34.0","battery-v0.2","","""event"",""trial"",""time""
""fullscreenenter"",""1"",""23044""
","
","
","""event"",""trial"",""time""
""fullscreenenter"",""1"",""23044""
","
","","","-1","","","10","6343","3608","u","elianto","#f73b6a7A"," ","-1","0","-10","[]","0","2","","","6343","30","0","3","lose","go","0"
"pit-trial","149","1005017","0.0-35.0","battery-v0.2","","""event"",""trial"",""time""
""fullscreenenter"",""1"",""23044""
","
","
","""event"",""trial"",""time""
""fullscreenenter"",""1"",""23044""
","
","","","-1","","","10","6343","3608","g","elianto","#f73b6a7A","-1","-1","1","-10","[3747]","1","2","","","6343","31","3","4","lose","no-go","1"
"pit-trial","150","1009881","0.0-36.0","battery-v0.2","","""event"",""trial"",""time""
""fullscreenenter"",""1"",""23044""
","
","
","""event"",""trial"",""time""
""fullscreenenter"",""1"",""23044""
","
","","","-1","","","10","6343","3608","a","elianto","#f73b6a7A"," ","-1","0","-10","[3644.6999999997206]","1","2","","","6343","32","2","3","lose","go","0"
"pit-trial","151","1014746","0.0-37.0","battery-v0.2","","""event"",""trial"",""time""
""fullscreenenter"",""1"",""23044""
","
","
","""event"",""trial"",""time""
""fullscreenenter"",""1"",""23044""
","
","","","-1","","","10","6343","3608","g","elianto","#f73b6a7A","-1","-1","1","-10","[3178.399999999907]","1","2","","","6343","33","3","4","lose","no-go","1"
"pit-trial","152","1019611","0.0-38.0","battery-v0.2","","""event"",""trial"",""time""
""fullscreenenter"",""1"",""23044""
","
","
","""event"",""trial"",""time""
""fullscreenenter"",""1"",""23044""
","
","","","-1","","","10","6343","3608","u","elianto","#f73b6a7A"," ","-1","0","-10","[3150.899999999907]","1","2","","","6343","34","0","3","lose","go","0"
"pit-trial","153","1023297","0.0-39.0","battery-v0.2","","""event"",""trial"",""time""
""fullscreenenter"",""1"",""23044""
","
","
","""event"",""trial"",""time""
""fullscreenenter"",""1"",""23044""
","
","","","819.6000000000931","","","10","6343","3608","l","elianto","#3366ff99","-1"," ","0","0","[1679.4000000003725]","1","2","","","6343","35","1","2","win","no-go","0"
"pit-trial","154","1028115","0.0-40.0","battery-v0.2","","""event"",""trial"",""time""
""fullscreenenter"",""1"",""23044""
","
","
","""event"",""trial"",""time""
""fullscreenenter"",""1"",""23044""
","
","","","1952.6000000000931","","","10","6343","3608","a","elianto","#f73b6a7A"," "," ","1","0","[2806.6999999997206]","1","2","","","6343","36","2","3","lose","go","0"
"pit-trial","155","1031674","0.0-41.0","battery-v0.2","","""event"",""trial"",""time""
""fullscreenenter"",""1"",""23044""
","
","
","""event"",""trial"",""time""
""fullscreenenter"",""1"",""23044""
","
","","","687.1999999997206","","","10","6343","3608","l","elianto","#3366ff99","-1"," ","0","0","[1548.1999999997206]","1","2","","","6343","37","1","2","win","no-go","0"
"pit-trial","156","1035976","0.0-42.0","battery-v0.2","","""event"",""trial"",""time""
""fullscreenenter"",""1"",""23044""
","
","
","""event"",""trial"",""time""
""fullscreenenter"",""1"",""23044""
","
","","","1442.8999999999069","","","10","6343","3608","g","elianto","#f73b6a7A","-1"," ","0","-10","[2294.1999999997206]","1","2","","","6343","38","3","4","lose","no-go","0"
"pit-trial","157","1039633","0.0-43.0","battery-v0.2","","""event"",""trial"",""time""
""fullscreenenter"",""1"",""23044""
","
","
","""event"",""trial"",""time""
""fullscreenenter"",""1"",""23044""
","
","","","798.2000000001863","","","10","6343","3608","a","elianto","#f73b6a7A"," "," ","1","0","[1648.5]","1","2","","","6343","39","2","3","lose","go","0"
"pit-trial","158","1043691","0.0-44.0","battery-v0.2","","""event"",""trial"",""time""
""fullscreenenter"",""1"",""23044""
","
","
","""event"",""trial"",""time""
""fullscreenenter"",""1"",""23044""
","
","","","1189.8999999999069","","","10","6343","3608","u","elianto","#f73b6a7A"," "," ","1","-10","[2046.1000000000931]","1","2","","","6343","40","0","3","lose","go","1"
"pit-trial","159","1048555","0.0-45.0","battery-v0.2","","""event"",""trial"",""time""
""fullscreenenter"",""1"",""23044""
","
","
","""event"",""trial"",""time""
""fullscreenenter"",""1"",""23044""
","
","","","-1","","","10","6343","3608","g","elianto","#f73b6a7A","-1","-1","1","0","[]","0","2","","","6343","41","3","4","lose","no-go","0"
"pit-trial","160","1052091","0.0-46.0","battery-v0.2","","""event"",""trial"",""time""
""fullscreenenter"",""1"",""23044""
","
","
","""event"",""trial"",""time""
""fullscreenenter"",""1"",""23044""
","
","","","671.1000000000931","","","10","6343","3608","l","elianto","#3366ff99","-1"," ","0","0","[1522.5]","1","2","","","6343","42","1","2","win","no-go","0"
"pit-trial","161","1056955","0.0-47.0","battery-v0.2","","""event"",""trial"",""time""
""fullscreenenter"",""1"",""23044""
","
","
","""event"",""trial"",""time""
""fullscreenenter"",""1"",""23044""
","
","","","-1","","","10","6343","3608","u","elianto","#f73b6a7A"," ","-1","0","-10","[]","0","2","","","6343","43","0","3","lose","go","0"
"pit-trial","162","1060578","0.0-48.0","battery-v0.2","","""event"",""trial"",""time""
""fullscreenenter"",""1"",""23044""
","
","
","""event"",""trial"",""time""
""fullscreenenter"",""1"",""23044""
","
","","","761.8000000002794","","","10","6343","3608","a","elianto","#f73b6a7A"," "," ","1","0","[1613.6000000000931]","1","2","","","6343","44","2","3","lose","go","0"
"pit-trial","163","1064113","0.0-49.0","battery-v0.2","","""event"",""trial"",""time""
""fullscreenenter"",""1"",""23044""
","
","
","""event"",""trial"",""time""
""fullscreenenter"",""1"",""23044""
","
","","","679.4000000003725","","","10","6343","3608","a","elianto","#f73b6a7A"," "," ","1","0","[1529.6000000000931]","1","2","","","6343","45","2","3","lose","go","0"
"pit-trial","164","1067643","0.0-50.0","battery-v0.2","","""event"",""trial"",""time""
""fullscreenenter"",""1"",""23044""
","
","
","""event"",""trial"",""time""
""fullscreenenter"",""1"",""23044""
","
","","","664.8999999999069","","","10","6343","3608","l","elianto","#3366ff99","-1"," ","0","0","[1522.2000000001863]","1","2","","","6343","46","1","2","win","no-go","0"
"pit-trial","165","1072507","0.0-51.0","battery-v0.2","","""event"",""trial"",""time""
""fullscreenenter"",""1"",""23044""
","
","
","""event"",""trial"",""time""
""fullscreenenter"",""1"",""23044""
","
","","","-1","","","10","6343","3608","g","elianto","#f73b6a7A","-1","-1","1","0","[]","0","2","","","6343","47","3","4","lose","no-go","0"
"pit-trial","166","1076083","0.0-52.0","battery-v0.2","","""event"",""trial"",""time""
""fullscreenenter"",""1"",""23044""
","
","
","""event"",""trial"",""time""
""fullscreenenter"",""1"",""23044""
","
","","","713.1000000000931","","","10","6343","3608","u","elianto","#f73b6a7A"," "," ","1","0","[1567.7999999998137]","1","2","","","6343","48","0","3","lose","go","0"
"pit-trial","167","1079717","0.0-53.0","battery-v0.2","","""event"",""trial"",""time""
""fullscreenenter"",""1"",""23044""
","
","
","""event"",""trial"",""time""
""fullscreenenter"",""1"",""23044""
","
","","","769.5","","","10","6343","3608","l","elianto","#3366ff99","-1"," ","0","0","[1620.5999999996275]","1","2","","","6343","49","1","2","win","no-go","0"
"pit-trial","168","1084588","0.0-54.0","battery-v0.2","","""event"",""trial"",""time""
""fullscreenenter"",""1"",""23044""
","
","
","""event"",""trial"",""time""
""fullscreenenter"",""1"",""23044""
","
","","","-1","","","10","6343","3608","g","elianto","#f73b6a7A","-1","-1","1","0","[]","0","2","","","6343","50","3","4","lose","no-go","0"
"pit-trial","169","1088234","0.0-55.0","battery-v0.2","","""event"",""trial"",""time""
""fullscreenenter"",""1"",""23044""
","
","
","""event"",""trial"",""time""
""fullscreenenter"",""1"",""23044""
","
","","","782.8999999999069","","","10","6343","3608","a","elianto","#f73b6a7A"," "," ","1","0","[1635.5999999996275]","1","2","","","6343","51","2","3","lose","go","0"
"pit-trial","170","1091821","0.0-56.0","battery-v0.2","","""event"",""trial"",""time""
""fullscreenenter"",""1"",""23044""
","
","
","""event"",""trial"",""time""
""fullscreenenter"",""1"",""23044""
","
","","","722","","","10","6343","3608","u","elianto","#f73b6a7A"," "," ","1","0","[1579.5]","1","2","","","6343","52","0","3","lose","go","0"
"pit-trial","171","1096692","0.0-57.0","battery-v0.2","","""event"",""trial"",""time""
""fullscreenenter"",""1"",""23044""
","
","
","""event"",""trial"",""time""
""fullscreenenter"",""1"",""23044""
","
","","","-1","","","10","6343","3608","l","elianto","#3366ff99","-1","-1","1","+10","[]","0","2","","","6343","53","1","2","win","no-go","0"
"pit-trial","172","1101556","0.0-58.0","battery-v0.2","","""event"",""trial"",""time""
""fullscreenenter"",""1"",""23044""
","
","
","""event"",""trial"",""time""
""fullscreenenter"",""1"",""23044""
","
","","","-1","","","10","6343","3608","g","elianto","#f73b6a7A","-1","-1","1","-10","[]","0","2","","","6343","54","3","4","lose","no-go","1"
"pit-trial","173","1105173","0.0-59.0","battery-v0.2","","""event"",""trial"",""time""
""fullscreenenter"",""1"",""23044""
","
","
","""event"",""trial"",""time""
""fullscreenenter"",""1"",""23044""
","
","","","751.2999999998137","","","10","6343","3608","u","elianto","#f73b6a7A"," "," ","1","0","[1603.6999999997206]","1","2","","","6343","55","0","3","lose","go","0"
"pit-trial","174","1108818","0.0-60.0","battery-v0.2","","""event"",""trial"",""time""
""fullscreenenter"",""1"",""23044""
","
","
","""event"",""trial"",""time""
""fullscreenenter"",""1"",""23044""
","
","","","778.1000000000931","","","10","6343","3608","a","elianto","#f73b6a7A"," "," ","1","0","[1638.2000000001863]","1","2","","","6343","56","2","3","lose","go","0"
"pit-trial","175","1113683","0.0-61.0","battery-v0.2","","""event"",""trial"",""time""
""fullscreenenter"",""1"",""23044""
","
","
","""event"",""trial"",""time""
""fullscreenenter"",""1"",""23044""
","
","","","-1","","","10","6343","3608","g","elianto","#f73b6a7A","-1","-1","1","0","[]","0","2","","","6343","57","3","4","lose","no-go","0"
"pit-trial","176","1117270","0.0-62.0","battery-v0.2","","""event"",""trial"",""time""
""fullscreenenter"",""1"",""23044""
","
","
","""event"",""trial"",""time""
""fullscreenenter"",""1"",""23044""
","
","","","726.3000000002794","","","10","6343","3608","a","elianto","#f73b6a7A"," "," ","1","0","[1576.8000000002794]","1","2","","","6343","58","2","3","lose","go","0"
"pit-trial","177","1122141","0.0-63.0","battery-v0.2","","""event"",""trial"",""time""
""fullscreenenter"",""1"",""23044""
","
","
","""event"",""trial"",""time""
""fullscreenenter"",""1"",""23044""
","
","","","-1","","","10","6343","3608","p","elianto","#3366ff99"," ","-1","0","0","[]","0","2","","","6343","59","4","1","win","go","0"
"pit-trial","178","1127006","0.0-64.0","battery-v0.2","","""event"",""trial"",""time""
""fullscreenenter"",""1"",""23044""
","
","
","""event"",""trial"",""time""
""fullscreenenter"",""1"",""23044""
","
","","","-1","","","10","6343","3608","u","elianto","#f73b6a7A"," ","-1","0","-10","[2859.2000000001863]","1","2","","","6343","60","0","3","lose","go","0"
"pit-trial","179","1130716","0.0-65.0","battery-v0.2","","""event"",""trial"",""time""
""fullscreenenter"",""1"",""23044""
","
","
","""event"",""trial"",""time""
""fullscreenenter"",""1"",""23044""
","
","","","837.3999999999069","","","10","6343","3608","a","elianto","#f73b6a7A"," "," ","1","0","[1699.7999999998137]","1","2","","","6343","61","2","3","lose","go","0"
"pit-trial","180","1135580","0.0-66.0","battery-v0.2","","""event"",""trial"",""time""
""fullscreenenter"",""1"",""23044""
","
","
","""event"",""trial"",""time""
""fullscreenenter"",""1"",""23044""
","
","","","-1","","","10","6343","3608","l","elianto","#3366ff99","-1","-1","1","+10","[]","0","2","","","6343","62","1","2","win","no-go","0"
"pit-trial","181","1139261","0.0-67.0","battery-v0.2","","""event"",""trial"",""time""
""fullscreenenter"",""1"",""23044""
","
","
","""event"",""trial"",""time""
""fullscreenenter"",""1"",""23044""
","
","","","816.1999999997206","","","10","6343","3608","p","elianto","#3366ff99"," "," ","1","+10","[1670.8999999999069]","1","2","","","6343","63","4","1","win","go","0"
"pit-trial","182","1144125","0.0-68.0","battery-v0.2","","""event"",""trial"",""time""
""fullscreenenter"",""1"",""23044""
","
","
","""event"",""trial"",""time""
""fullscreenenter"",""1"",""23044""
","
","","","-1","","","10","6343","3608","g","elianto","#f73b6a7A","-1","-1","1","0","[]","0","2","","","6343","64","3","4","lose","no-go","0"
"pit-trial","183","1148990","0.0-69.0","battery-v0.2","","""event"",""trial"",""time""
""fullscreenenter"",""1"",""23044""
","
","
","""event"",""trial"",""time""
""fullscreenenter"",""1"",""23044""
","
","","","-1","","","10","6343","3608","s","elianto","#3366ff99","-1","-1","1","0","[]","0","2","","","6343","65","5","2","win","no-go","1"
"pit-trial","184","1153861","0.0-70.0","battery-v0.2","","""event"",""trial"",""time""
""fullscreenenter"",""1"",""23044""
","
","
","""event"",""trial"",""time""
""fullscreenenter"",""1"",""23044""
","
","","","-1","","","10","6343","3608","g","elianto","#f73b6a7A","-1","-1","1","0","[]","0","2","","","6343","66","3","4","lose","no-go","0"
"pit-trial","185","1158725","0.0-71.0","battery-v0.2","","""event"",""trial"",""time""
""fullscreenenter"",""1"",""23044""
","
","
","""event"",""trial"",""time""
""fullscreenenter"",""1"",""23044""
","
","","","-1","","","10","6343","3608","l","elianto","#3366ff99","-1","-1","1","0","[]","0","2","","","6343","67","1","2","win","no-go","1"
"pit-trial","186","1163590","0.0-72.0","battery-v0.2","","""event"",""trial"",""time""
""fullscreenenter"",""1"",""23044""
","
","
","""event"",""trial"",""time""
""fullscreenenter"",""1"",""23044""
","
","","","-1","","","10","6343","3608","p","elianto","#3366ff99"," ","-1","0","0","[3108.399999999907]","1","2","","","6343","68","4","1","win","go","0"
"pit-trial","187","1167619","0.0-73.0","battery-v0.2","","""event"",""trial"",""time""
""fullscreenenter"",""1"",""23044""
","
","
","""event"",""trial"",""time""
""fullscreenenter"",""1"",""23044""
","
","","","1169.6999999997206","","","10","6343","3608","a","elianto","#f73b6a7A"," "," ","1","0","[2021.6000000000931]","1","2","","","6343","69","2","3","lose","go","0"
"pit-trial","188","1172484","0.0-74.0","battery-v0.2","","""event"",""trial"",""time""
""fullscreenenter"",""1"",""23044""
","
","
","""event"",""trial"",""time""
""fullscreenenter"",""1"",""23044""
","
","","","-1","","","10","6343","3608","l","elianto","#3366ff99","-1","-1","1","+10","[]","0","2","","","6343","70","1","2","win","no-go","0"
"pit-trial","189","1176600","0.0-75.0","battery-v0.2","","""event"",""trial"",""time""
""fullscreenenter"",""1"",""23044""
","
","
","""event"",""trial"",""time""
""fullscreenenter"",""1"",""23044""
","
","","","1248.1000000000931","","","10","6343","3608","s","elianto","#3366ff99","-1"," ","0","0","[2103.399999999907]","1","2","","","6343","71","5","2","win","no-go","0"
"pit-trial","190","1179984","0.0-76.0","battery-v0.2","","""event"",""trial"",""time""
""fullscreenenter"",""1"",""23044""
","
","
","""event"",""trial"",""time""
""fullscreenenter"",""1"",""23044""
","
","","","516.2999999998137","","","10","6343","3608","p","elianto","#3366ff99"," "," ","1","+10","[1373.7999999998137]","1","2","","","6343","72","4","1","win","go","0"
"pit-trial","191","1184855","0.0-77.0","battery-v0.2","","""event"",""trial"",""time""
""fullscreenenter"",""1"",""23044""
","
","
","""event"",""trial"",""time""
""fullscreenenter"",""1"",""23044""
","
","","","-1","","","10","6343","3608","l","elianto","#3366ff99","-1","-1","1","+10","[]","0","2","","","6343","73","1","2","win","no-go","0"
"pit-trial","192","1189574","0.0-78.0","battery-v0.2","","""event"",""trial"",""time""
""fullscreenenter"",""1"",""23044""
","
","
","""event"",""trial"",""time""
""fullscreenenter"",""1"",""23044""
","
","","","1858.2000000001863","","","10","6343","3608","p","elianto","#3366ff99"," "," ","1","+10","[2709.600000000093]","1","2","","","6343","74","4","1","win","go","0"
"pit-trial","193","1193504","0.0-79.0","battery-v0.2","","""event"",""trial"",""time""
""fullscreenenter"",""1"",""23044""
","
","
","""event"",""trial"",""time""
""fullscreenenter"",""1"",""23044""
","
","","","1062.3999999999069","","","10","6343","3608","s","elianto","#3366ff99","-1"," ","0","0","[1914.8999999999069]","1","2","","","6343","75","5","2","win","no-go","0"
"pit-trial","194","1198375","0.0-80.0","battery-v0.2","","""event"",""trial"",""time""
""fullscreenenter"",""1"",""23044""
","
","
","""event"",""trial"",""time""
""fullscreenenter"",""1"",""23044""
","
","","","-1","","","10","6343","3608","g","elianto","#f73b6a7A","-1","-1","1","0","[]","0","2","","","6343","76","3","4","lose","no-go","0"
"pit-trial","195","1203239","0.0-81.0","battery-v0.2","","""event"",""trial"",""time""
""fullscreenenter"",""1"",""23044""
","
","
","""event"",""trial"",""time""
""fullscreenenter"",""1"",""23044""
","
","","","-1","","","10","6343","3608","s","elianto","#3366ff99","-1","-1","1","0","[]","0","2","","","6343","77","5","2","win","no-go","1"
"pit-trial","196","1208104","0.0-82.0","battery-v0.2","","""event"",""trial"",""time""
""fullscreenenter"",""1"",""23044""
","
","
","""event"",""trial"",""time""
""fullscreenenter"",""1"",""23044""
","
","","","-1","","","10","6343","3608","g","elianto","#f73b6a7A","-1","-1","1","0","[]","0","2","","","6343","78","3","4","lose","no-go","0"
"pit-trial","197","1212975","0.0-83.0","battery-v0.2","","""event"",""trial"",""time""
""fullscreenenter"",""1"",""23044""
","
","
","""event"",""trial"",""time""
""fullscreenenter"",""1"",""23044""
","
","","","-1","","","10","6343","3608","p","elianto","#3366ff99"," ","-1","0","0","[]","0","2","","","6343","79","4","1","win","go","0"
"pit-trial","198","1216597","0.0-84.0","battery-v0.2","","""event"",""trial"",""time""
""fullscreenenter"",""1"",""23044""
","
","
","""event"",""trial"",""time""
""fullscreenenter"",""1"",""23044""
","
","","","765.5","","","10","6343","3608","p","elianto","#3366ff99"," "," ","1","+10","[1617.3999999999069]","1","2","","","6343","80","4","1","win","go","0"
"pit-trial","199","1221462","0.0-85.0","battery-v0.2","","""event"",""trial"",""time""
""fullscreenenter"",""1"",""23044""
","
","
","""event"",""trial"",""time""
""fullscreenenter"",""1"",""23044""
","
","","","-1","","","10","6343","3608","g","elianto","#f73b6a7A","-1","-1","1","0","[]","0","2","","","6343","81","3","4","lose","no-go","0"
"pit-trial","200","1225009","0.0-86.0","battery-v0.2","","""event"",""trial"",""time""
""fullscreenenter"",""1"",""23044""
","
","
","""event"",""trial"",""time""
""fullscreenenter"",""1"",""23044""
","
","","","675","","","10","6343","3608","s","elianto","#3366ff99","-1"," ","0","0","[1532.1999999997206]","1","2","","","6343","82","5","2","win","no-go","0"
"pit-trial","201","1229879","0.0-87.0","battery-v0.2","","""event"",""trial"",""time""
""fullscreenenter"",""1"",""23044""
","
","
","""event"",""trial"",""time""
""fullscreenenter"",""1"",""23044""
","
","","","-1","","","10","6343","3608","e","elianto","#f73b6a7A","-1","-1","1","0","[]","0","2","","","6343","83","7","4","lose","no-go","0"
"pit-trial","202","1233682","0.0-88.0","battery-v0.2","","""event"",""trial"",""time""
""fullscreenenter"",""1"",""23044""
","
","
","""event"",""trial"",""time""
""fullscreenenter"",""1"",""23044""
","
","","","937.8000000002794","","","10","6343","3608","p","elianto","#3366ff99"," "," ","1","+10","[1790.8000000002794]","1","2","","","6343","84","4","1","win","go","0"
"pit-trial","203","1238552","0.0-89.0","battery-v0.2","","""event"",""trial"",""time""
""fullscreenenter"",""1"",""23044""
","
","
","""event"",""trial"",""time""
""fullscreenenter"",""1"",""23044""
","
","","","-1","","","10","6343","3608","s","elianto","#3366ff99","-1","-1","1","+10","[]","0","2","","","6343","85","5","2","win","no-go","0"
"pit-trial","204","1243202","0.0-90.0","battery-v0.2","","""event"",""trial"",""time""
""fullscreenenter"",""1"",""23044""
","
","
","""event"",""trial"",""time""
""fullscreenenter"",""1"",""23044""
","
","","","1785.7000000001863","","","10","6343","3608","w","elianto","#f73b6a7A"," "," ","1","0","[2639]","1","2","","","6343","86","6","3","lose","go","0"
"pit-trial","205","1247538","0.0-91.0","battery-v0.2","","""event"",""trial"",""time""
""fullscreenenter"",""1"",""23044""
","
","
","""event"",""trial"",""time""
""fullscreenenter"",""1"",""23044""
","
","","","1463.9000000003725","","","10","6343","3608","p","elianto","#3366ff99"," "," ","1","0","[2324.100000000093]","1","2","","","6343","87","4","1","win","go","1"
"pit-trial","206","1251602","0.0-92.0","battery-v0.2","","""event"",""trial"",""time""
""fullscreenenter"",""1"",""23044""
","
","
","""event"",""trial"",""time""
""fullscreenenter"",""1"",""23044""
","
","","","1192.2000000001863","","","10","6343","3608","e","elianto","#f73b6a7A","-1"," ","0","0","[2050.399999999907]","1","2","","","6343","88","7","4","lose","no-go","1"
"pit-trial","207","1255424","0.0-93.0","battery-v0.2","","""event"",""trial"",""time""
""fullscreenenter"",""1"",""23044""
","
","
","""event"",""trial"",""time""
""fullscreenenter"",""1"",""23044""
","
","","","953.2000000001863","","","10","6343","3608","s","elianto","#3366ff99","-1"," ","0","0","[1810.8000000002794]","1","2","","","6343","89","5","2","win","no-go","0"
"pit-trial","208","1260287","0.0-94.0","battery-v0.2","","""event"",""trial"",""time""
""fullscreenenter"",""1"",""23044""
","
","
","""event"",""trial"",""time""
""fullscreenenter"",""1"",""23044""
","
","","","-1","","","10","6343","3608","p","elianto","#3366ff99"," ","-1","0","0","[3034.7999999998137]","1","2","","","6343","90","4","1","win","go","0"
"pit-trial","209","1265151","0.0-95.0","battery-v0.2","","""event"",""trial"",""time""
""fullscreenenter"",""1"",""23044""
","
","
","""event"",""trial"",""time""
""fullscreenenter"",""1"",""23044""
","
","","","-1","","","10","6343","3608","w","elianto","#f73b6a7A"," ","-1","0","0","[]","0","2","","","6343","91","6","3","lose","go","1"
"pit-trial","210","1269561","0.0-96.0","battery-v0.2","","""event"",""trial"",""time""
""fullscreenenter"",""1"",""23044""
","
","
","""event"",""trial"",""time""
""fullscreenenter"",""1"",""23044""
","
","","","1548.3000000002794","","","10","6343","3608","e","elianto","#f73b6a7A","-1"," ","0","-10","[2398.8000000002794]","1","2","","","6343","92","7","4","lose","no-go","0"
"pit-trial","211","1273313","0.0-97.0","battery-v0.2","","""event"",""trial"",""time""
""fullscreenenter"",""1"",""23044""
","
","
","""event"",""trial"",""time""
""fullscreenenter"",""1"",""23044""
","
","","","893.9000000003725","","","10","6343","3608","s","elianto","#3366ff99","-1"," ","0","0","[1746]","1","2","","","6343","93","5","2","win","no-go","0"
"pit-trial","212","1278178","0.0-98.0","battery-v0.2","","""event"",""trial"",""time""
""fullscreenenter"",""1"",""23044""
","
","
","""event"",""trial"",""time""
""fullscreenenter"",""1"",""23044""
","
","","","-1","","","10","6343","3608","e","elianto","#f73b6a7A","-1","-1","1","-10","[]","0","2","","","6343","94","7","4","lose","no-go","1"
"pit-trial","213","1281986","0.0-99.0","battery-v0.2","","""event"",""trial"",""time""
""fullscreenenter"",""1"",""23044""
","
","
","""event"",""trial"",""time""
""fullscreenenter"",""1"",""23044""
","
","","","946.1000000000931","","","10","6343","3608","d","elianto","#3366ff99"," "," ","1","+10","[1800.5999999996275]","1","2","","","6343","95","8","1","win","go","0"
"pit-trial","214","1286856","0.0-100.0","battery-v0.2","","""event"",""trial"",""time""
""fullscreenenter"",""1"",""23044""
","
","
","""event"",""trial"",""time""
""fullscreenenter"",""1"",""23044""
","
","","","-1","","","10","6343","3608","w","elianto","#f73b6a7A"," ","-1","0","-10","[]","0","2","","","6343","96","6","3","lose","go","0"
"pit-trial","215","1291721","0.0-101.0","battery-v0.2","","""event"",""trial"",""time""
""fullscreenenter"",""1"",""23044""
","
","
","""event"",""trial"",""time""
""fullscreenenter"",""1"",""23044""
","
","","","-1","","","10","6343","3608","s","elianto","#3366ff99","-1","-1","1","+10","[]","0","2","","","6343","97","5","2","win","no-go","0"
"pit-trial","216","1296586","0.0-102.0","battery-v0.2","","""event"",""trial"",""time""
""fullscreenenter"",""1"",""23044""
","
","
","""event"",""trial"",""time""
""fullscreenenter"",""1"",""23044""
","
","","","-1","","","10","6343","3608","w","elianto","#f73b6a7A"," ","-1","0","-10","[]","0","2","","","6343","98","6","3","lose","go","0"
"pit-trial","217","1300104","0.0-103.0","battery-v0.2","","""event"",""trial"",""time""
""fullscreenenter"",""1"",""23044""
","
","
","""event"",""trial"",""time""
""fullscreenenter"",""1"",""23044""
","
","","","660.5","","","10","6343","3608","d","elianto","#3366ff99"," "," ","1","+10","[1511.1000000000931]","1","2","","","6343","99","8","1","win","go","0"
"pit-trial","218","1303616","0.0-104.0","battery-v0.2","","""event"",""trial"",""time""
""fullscreenenter"",""1"",""23044""
","
","
","""event"",""trial"",""time""
""fullscreenenter"",""1"",""23044""
","
","","","647.6000000000931","","","10","6343","3608","e","elianto","#f73b6a7A","-1"," ","0","0","[1504.7000000001863]","1","2","","","6343","100","7","4","lose","no-go","1"
"pit-trial","219","1308480","0.0-105.0","battery-v0.2","","""event"",""trial"",""time""
""fullscreenenter"",""1"",""23044""
","
","
","""event"",""trial"",""time""
""fullscreenenter"",""1"",""23044""
","
","","","-1","","","10","6343","3608","s","elianto","#3366ff99","-1","-1","1","+10","[]","0","2","","","6343","101","5","2","win","no-go","0"
"pit-trial","220","1312481","0.0-106.0","battery-v0.2","","""event"",""trial"",""time""
""fullscreenenter"",""1"",""23044""
","
","
","""event"",""trial"",""time""
""fullscreenenter"",""1"",""23044""
","
","","","1139.3999999999069","","","10","6343","3608","d","elianto","#3366ff99"," "," ","1","+10","[1991.5]","1","2","","","6343","102","8","1","win","go","0"
"pit-trial","221","1315836","0.0-107.0","battery-v0.2","","""event"",""trial"",""time""
""fullscreenenter"",""1"",""23044""
","
","
","""event"",""trial"",""time""
""fullscreenenter"",""1"",""23044""
","
","","","486.09999999962747","","","10","6343","3608","e","elianto","#f73b6a7A","-1"," ","0","0","[1341.1000000000931]","1","2","","","6343","103","7","4","lose","no-go","1"
"pit-trial","222","1320707","0.0-108.0","battery-v0.2","","""event"",""trial"",""time""
""fullscreenenter"",""1"",""23044""
","
","
","""event"",""trial"",""time""
""fullscreenenter"",""1"",""23044""
","
","","","-1","","","10","6343","3608","j","elianto","#3366ff99"," ","-1","0","0","[]","0","2","","","6343","104","9","1","win","go","0"
"pit-trial","223","1324439","0.0-109.0","battery-v0.2","","""event"",""trial"",""time""
""fullscreenenter"",""1"",""23044""
","
","
","""event"",""trial"",""time""
""fullscreenenter"",""1"",""23044""
","
","","","864.4000000003725","","","10","6343","3608","d","elianto","#3366ff99"," "," ","1","+10","[1723.5]","1","2","","","6343","105","8","1","win","go","0"
"pit-trial","224","1328224","0.0-110.0","battery-v0.2","","""event"",""trial"",""time""
""fullscreenenter"",""1"",""23044""
","
","
","""event"",""trial"",""time""
""fullscreenenter"",""1"",""23044""
","
","","","919.2000000001863","","","10","6343","3608","j","elianto","#3366ff99"," "," ","1","+10","[1776.7999999998137]","1","2","","","6343","106","9","1","win","go","0"
"pit-trial","225","1332514","0.0-111.0","battery-v0.2","","""event"",""trial"",""time""
""fullscreenenter"",""1"",""23044""
","
","
","""event"",""trial"",""time""
""fullscreenenter"",""1"",""23044""
","
","","","1426.2999999998137","","","10","6343","3608","w","elianto","#f73b6a7A"," "," ","1","0","[2282.7000000001863]","1","2","","","6343","107","6","3","lose","go","0"
"pit-trial","226","1336264","0.0-112.0","battery-v0.2","","""event"",""trial"",""time""
""fullscreenenter"",""1"",""23044""
","
","
","""event"",""trial"",""time""
""fullscreenenter"",""1"",""23044""
","
","","","885.9000000003725","","","10","6343","3608","p","elianto","#3366ff99"," "," ","1","+10","[1746.2000000001863]","1","2","","","6343","108","4","1","win","go","0"
"pit-trial","227","1339916","0.0-113.0","battery-v0.2","","""event"",""trial"",""time""
""fullscreenenter"",""1"",""23044""
","
","
","""event"",""trial"",""time""
""fullscreenenter"",""1"",""23044""
","
","","","783.0999999996275","","","10","6343","3608","d","elianto","#3366ff99"," "," ","1","+10","[1641.2999999998137]","1","2","","","6343","109","8","1","win","go","0"
"pit-trial","228","1344786","0.0-114.0","battery-v0.2","","""event"",""trial"",""time""
""fullscreenenter"",""1"",""23044""
","
","
","""event"",""trial"",""time""
""fullscreenenter"",""1"",""23044""
","
","","","-1","","","10","6343","3608","s","elianto","#3366ff99","-1","-1","1","0","[]","0","2","","","6343","110","5","2","win","no-go","1"
"pit-trial","229","1349378","0.0-115.0","battery-v0.2","","""event"",""trial"",""time""
""fullscreenenter"",""1"",""23044""
","
","
","""event"",""trial"",""time""
""fullscreenenter"",""1"",""23044""
","
","","","1728.5","","","10","6343","3608","j","elianto","#3366ff99"," "," ","1","+10","[2581.399999999441]","1","2","","","6343","111","9","1","win","go","0"
"pit-trial","230","1353506","0.0-116.0","battery-v0.2","","""event"",""trial"",""time""
""fullscreenenter"",""1"",""23044""
","
","
","""event"",""trial"",""time""
""fullscreenenter"",""1"",""23044""
","
","","","1260.9000000003725","","","10","6343","3608","w","elianto","#f73b6a7A"," "," ","1","0","[2115.5999999996275]","1","2","","","6343","112","6","3","lose","go","0"
"pit-trial","231","1357000","0.0-117.0","battery-v0.2","","""event"",""trial"",""time""
""fullscreenenter"",""1"",""23044""
","
","
","""event"",""trial"",""time""
""fullscreenenter"",""1"",""23044""
","
","","","639.1000000005588","","","10","6343","3608","w","elianto","#f73b6a7A"," "," ","1","0","[1490.5]","1","2","","","6343","113","6","3","lose","go","0"
"pit-trial","232","1360669","0.0-118.0","battery-v0.2","","""event"",""trial"",""time""
""fullscreenenter"",""1"",""23044""
","
","
","""event"",""trial"",""time""
""fullscreenenter"",""1"",""23044""
","
","","","804.1000000005588","","","10","6343","3608","s","elianto","#3366ff99","-1"," ","0","0","[1659.800000000745]","1","2","","","6343","114","5","2","win","no-go","0"
"pit-trial","233","1364506","0.0-119.0","battery-v0.2","","""event"",""trial"",""time""
""fullscreenenter"",""1"",""23044""
","
","
","""event"",""trial"",""time""
""fullscreenenter"",""1"",""23044""
","
","","","973.0999999996275","","","10","6343","3608","d","elianto","#3366ff99"," "," ","1","+10","[1828.7999999998137]","1","2","","","6343","115","8","1","win","go","0"
"pit-trial","234","1368518","0.0-120.0","battery-v0.2","","""event"",""trial"",""time""
""fullscreenenter"",""1"",""23044""
","
","
","""event"",""trial"",""time""
""fullscreenenter"",""1"",""23044""
","
","","","1150.4000000003725","","","10","6343","3608","j","elianto","#3366ff99"," "," ","1","+10","[2002.6000000005588]","1","2","","","6343","116","9","1","win","go","0"
"pit-trial","235","1373388","0.0-121.0","battery-v0.2","","""event"",""trial"",""time""
""fullscreenenter"",""1"",""23044""
","
","
","""event"",""trial"",""time""
""fullscreenenter"",""1"",""23044""
","
","","","-1","","","10","6343","3608","s","elianto","#3366ff99","-1","-1","1","+10","[]","0","2","","","6343","117","5","2","win","no-go","0"
"pit-trial","236","1377330","0.0-122.0","battery-v0.2","","""event"",""trial"",""time""
""fullscreenenter"",""1"",""23044""
","
","
","""event"",""trial"",""time""
""fullscreenenter"",""1"",""23044""
","
","","","1078.7000000001863","","","10","6343","3608","j","elianto","#3366ff99"," "," ","1","0","[1932.4000000003725]","1","2","","","6343","118","9","1","win","go","1"
"pit-trial","237","1381162","0.0-123.0","battery-v0.2","","""event"",""trial"",""time""
""fullscreenenter"",""1"",""23044""
","
","
","""event"",""trial"",""time""
""fullscreenenter"",""1"",""23044""
","
","","","968.6000000005588","","","10","6343","3608","w","elianto","#f73b6a7A"," "," ","1","0","[1824.9000000003725]","1","2","","","6343","119","6","3","lose","go","0"
"pit-trial","238","1384778","0.0-124.0","battery-v0.2","","""event"",""trial"",""time""
""fullscreenenter"",""1"",""23044""
","
","
","""event"",""trial"",""time""
""fullscreenenter"",""1"",""23044""
","
","","","747.7999999998137","","","10","6343","3608","d","elianto","#3366ff99"," "," ","1","+10","[1605.5999999996275]","1","2","","","6343","120","8","1","win","go","0"
"pit-trial","239","1388482","0.0-125.0","battery-v0.2","","""event"",""trial"",""time""
""fullscreenenter"",""1"",""23044""
","
","
","""event"",""trial"",""time""
""fullscreenenter"",""1"",""23044""
","
","","","837.8000000007451","","","10","6343","3608","e","elianto","#f73b6a7A","-1"," ","0","-10","[1694.800000000745]","1","2","","","6343","121","7","4","lose","no-go","0"
"pit-trial","240","1392244","0.0-126.0","battery-v0.2","","""event"",""trial"",""time""
""fullscreenenter"",""1"",""23044""
","
","
","""event"",""trial"",""time""
""fullscreenenter"",""1"",""23044""
","
","","","896.8999999994412","","","10","6343","3608","w","elianto","#f73b6a7A"," "," ","1","-10","[1753.6000000005588]","1","2","","","6343","122","6","3","lose","go","1"
"pit-trial","241","1395907","0.0-127.0","battery-v0.2","","""event"",""trial"",""time""
""fullscreenenter"",""1"",""23044""
","
","
","""event"",""trial"",""time""
""fullscreenenter"",""1"",""23044""
","
","","","806.2000000001863","","","10","6343","3608","d","elianto","#3366ff99"," "," ","1","+10","[1656.3999999994412]","1","2","","","6343","123","8","1","win","go","0"
"pit-trial","242","1399842","0.0-128.0","battery-v0.2","","""event"",""trial"",""time""
""fullscreenenter"",""1"",""23044""
","
","
","""event"",""trial"",""time""
""fullscreenenter"",""1"",""23044""
","
","","","1070.7999999998137","","","10","6343","3608","j","elianto","#3366ff99"," "," ","1","+10","[1924.5]","1","2","","","6343","124","9","1","win","go","0"
"pit-trial","243","1403639","0.0-129.0","battery-v0.2","","""event"",""trial"",""time""
""fullscreenenter"",""1"",""23044""
","
","
","""event"",""trial"",""time""
""fullscreenenter"",""1"",""23044""
","
","","","933.7999999998137","","","10","6343","3608","e","elianto","#f73b6a7A","-1"," ","0","-10","[1784.7999999998137]","1","2","","","6343","125","7","4","lose","no-go","0"
"pit-trial","244","1407476","0.0-130.0","battery-v0.2","","""event"",""trial"",""time""
""fullscreenenter"",""1"",""23044""
","
","
","""event"",""trial"",""time""
""fullscreenenter"",""1"",""23044""
","
","","","972.5","","","10","6343","3608","w","elianto","#f73b6a7A"," "," ","1","-10","[1824.7999999998137]","1","2","","","6343","126","6","3","lose","go","1"
"pit-trial","245","1411250","0.0-131.0","battery-v0.2","","""event"",""trial"",""time""
""fullscreenenter"",""1"",""23044""
","
","
","""event"",""trial"",""time""
""fullscreenenter"",""1"",""23044""
","
","","","913.5","","","10","6343","3608","d","elianto","#3366ff99"," "," ","1","+10","[1765.800000000745]","1","2","","","6343","127","8","1","win","go","0"
"pit-trial","246","1414773","0.0-132.0","battery-v0.2","","""event"",""trial"",""time""
""fullscreenenter"",""1"",""23044""
","
","
","""event"",""trial"",""time""
""fullscreenenter"",""1"",""23044""
","
","","","657.1000000005588","","","10","6343","3608","j","elianto","#3366ff99"," "," ","1","0","[1514]","1","2","","","6343","128","9","1","win","go","1"
"pit-trial","247","1418332","0.0-133.0","battery-v0.2","","""event"",""trial"",""time""
""fullscreenenter"",""1"",""23044""
","
","
","""event"",""trial"",""time""
""fullscreenenter"",""1"",""23044""
","
","","","698.9000000003725","","","10","6343","3608","j","elianto","#3366ff99"," "," ","1","+10","[1550.0999999996275]","1","2","","","6343","129","9","1","win","go","0"
"pit-trial","248","1422070","0.0-134.0","battery-v0.2","","""event"",""trial"",""time""
""fullscreenenter"",""1"",""23044""
","
","
","""event"",""trial"",""time""
""fullscreenenter"",""1"",""23044""
","
","","","866.8000000007451","","","10","6343","3608","w","elianto","#f73b6a7A"," "," ","1","-10","[1724.2000000001863]","1","2","","","6343","130","6","3","lose","go","1"
"pit-trial","249","1425837","0.0-135.0","battery-v0.2","","""event"",""trial"",""time""
""fullscreenenter"",""1"",""23044""
","
","
","""event"",""trial"",""time""
""fullscreenenter"",""1"",""23044""
","
","","","897.5","","","10","6343","3608","d","elianto","#3366ff99"," "," ","1","+10","[1757.9000000003725]","1","2","","","6343","131","8","1","win","go","0"
"pit-trial","250","1430703","0.0-136.0","battery-v0.2","","""event"",""trial"",""time""
""fullscreenenter"",""1"",""23044""
","
","
","""event"",""trial"",""time""
""fullscreenenter"",""1"",""23044""
","
","","","-1","","","10","6343","3608","e","elianto","#f73b6a7A","-1","-1","1","0","[]","0","2","","","6343","132","7","4","lose","no-go","0"
"pit-trial","251","1434621","0.0-137.0","battery-v0.2","","""event"",""trial"",""time""
""fullscreenenter"",""1"",""23044""
","
","
","""event"",""trial"",""time""
""fullscreenenter"",""1"",""23044""
","
","","","1044.699999999255","","","10","6343","3608","d","elianto","#3366ff99"," "," ","1","+10","[1906.9000000003725]","1","2","","","6343","133","8","1","win","go","0"
"pit-trial","252","1439486","0.0-138.0","battery-v0.2","","""event"",""trial"",""time""
""fullscreenenter"",""1"",""23044""
","
","
","""event"",""trial"",""time""
""fullscreenenter"",""1"",""23044""
","
","","","-1","","","10","6343","3608","w","elianto","#f73b6a7A"," ","-1","0","-10","[3534.5]","1","2","","","6343","134","6","3","lose","go","0"
"pit-trial","253","1444351","0.0-139.0","battery-v0.2","","""event"",""trial"",""time""
""fullscreenenter"",""1"",""23044""
","
","
","""event"",""trial"",""time""
""fullscreenenter"",""1"",""23044""
","
","","","-1","","","10","6343","3608","e","elianto","#f73b6a7A","-1","-1","1","0","[]","0","2","","","6343","135","7","4","lose","no-go","0"
"pit-trial","254","1447979","0.0-140.0","battery-v0.2","","""event"",""trial"",""time""
""fullscreenenter"",""1"",""23044""
","
","
","""event"",""trial"",""time""
""fullscreenenter"",""1"",""23044""
","
","","","761.5999999996275","","","10","6343","3608","j","elianto","#3366ff99"," "," ","1","+10","[1624.7000000001863]","1","2","","","6343","136","9","1","win","go","0"
"pit-trial","255","1452844","0.0-141.0","battery-v0.2","","""event"",""trial"",""time""
""fullscreenenter"",""1"",""23044""
","
","
","""event"",""trial"",""time""
""fullscreenenter"",""1"",""23044""
","
","","","-1","","","10","6343","3608","e","elianto","#f73b6a7A","-1","-1","1","0","[]","0","2","","","6343","137","7","4","lose","no-go","0"
"pit-trial","256","1456245","0.0-142.0","battery-v0.2","","""event"",""trial"",""time""
""fullscreenenter"",""1"",""23044""
","
","
","""event"",""trial"",""time""
""fullscreenenter"",""1"",""23044""
","
","","","536.7999999998137","","","10","6343","3608","w","elianto","#f73b6a7A"," "," ","1","-10","[1394.6000000005588]","1","2","","","6343","138","6","3","lose","go","1"
"pit-trial","257","1461110","0.0-143.0","battery-v0.2","","""event"",""trial"",""time""
""fullscreenenter"",""1"",""23044""
","
","
","""event"",""trial"",""time""
""fullscreenenter"",""1"",""23044""
","
","","","-1","","","10","6343","3608","d","elianto","#3366ff99"," ","-1","0","+10","[]","0","2","","","6343","139","8","1","win","go","1"
"pit-trial","258","1465243","0.0-144.0","battery-v0.2","","""event"",""trial"",""time""
""fullscreenenter"",""1"",""23044""
","
","
","""event"",""trial"",""time""
""fullscreenenter"",""1"",""23044""
","
","","","1276.0999999996275","","","10","6343","3608","j","elianto","#3366ff99"," "," ","1","+10","[2127.600000000559]","1","2","","","6343","140","9","1","win","go","0"
"pit-instructions","259","1487622","0.0-145.0","battery-v0.2","","""event"",""trial"",""time""
""fullscreenenter"",""1"",""23044""
","
","
","""event"",""trial"",""time""
""fullscreenenter"",""1"",""23044""
","
","","[{""page_index"":0,""viewing_time"":14308.799999999814},{""page_index"":1,""viewing_time"":8066.9000000003725}]","22376.099999999627","","","","","","","","","","","","","","","","","","","","","","","",""
"pit-trial","260","1492496","0.0-146.0","battery-v0.2","","""event"",""trial"",""time""
""fullscreenenter"",""1"",""23044""
","
","
","""event"",""trial"",""time""
""fullscreenenter"",""1"",""23044""
","
","","","-1","","","10","6343","3608","m","elianto","#f73b6a7A","-1","-1","1","-10","[]","0","3","","","6343","141","0","4","lose","no-go","1"
"pit-trial","261","1496118","0.0-147.0","battery-v0.2","","""event"",""trial"",""time""
""fullscreenenter"",""1"",""23044""
","
","
","""event"",""trial"",""time""
""fullscreenenter"",""1"",""23044""
","
","","","752.1999999992549","","","10","6343","3608","r","elianto","#3366ff99"," "," ","1","+10","[1611]","1","3","","","6343","142","1","1","win","go","0"
"pit-trial","262","1500983","0.0-148.0","battery-v0.2","","""event"",""trial"",""time""
""fullscreenenter"",""1"",""23044""
","
","
","""event"",""trial"",""time""
""fullscreenenter"",""1"",""23044""
","
","","","-1","","","10","6343","3608","y","elianto","#f73b6a7A","-1","-1","1","0","[]","0","3","","","6343","143","2","4","lose","no-go","0"
"pit-trial","263","1505848","0.0-149.0","battery-v0.2","","""event"",""trial"",""time""
""fullscreenenter"",""1"",""23044""
","
","
","""event"",""trial"",""time""
""fullscreenenter"",""1"",""23044""
","
","","","-1","","","10","6343","3608","h","elianto","#f73b6a7A"," ","-1","0","-10","[]","0","3","","","6343","144","3","3","lose","go","0"
"pit-trial","264","1510713","0.0-150.0","battery-v0.2","","""event"",""trial"",""time""
""fullscreenenter"",""1"",""23044""
","
","
","""event"",""trial"",""time""
""fullscreenenter"",""1"",""23044""
","
","","","-1","","","10","6343","3608","y","elianto","#f73b6a7A","-1","-1","1","0","[]","0","3","","","6343","145","2","4","lose","no-go","0"
"pit-trial","265","1514289","0.0-151.0","battery-v0.2","","""event"",""trial"",""time""
""fullscreenenter"",""1"",""23044""
","
","
","""event"",""trial"",""time""
""fullscreenenter"",""1"",""23044""
","
","","","704.5","","","10","6343","3608","h","elianto","#f73b6a7A"," "," ","1","0","[1567.8999999994412]","1","3","","","6343","146","3","3","lose","go","0"
"pit-trial","266","1518168","0.0-152.0","battery-v0.2","","""event"",""trial"",""time""
