"trial_type","trial_index","time_elapsed","internal_node_id","task_version","subject_id","interactions","blur_events","focus_events","fullscreenenter_events","fullscreenexit_events","success","view_history","rt","responses","num_errors","age","subject","participantId","rune","rune_set","hex","correct","choice","accuracy","outcome","keys","total_keys","block","practice","value","sub","trial","stimulus","robot","valence","action","sham"
"pavlovia","0","274","0.0-0.0","battery-v0.2","","""event"",""trial"",""time""
""fullscreenenter"",""1"",""10724""
","
","
","""event"",""trial"",""time""
""fullscreenenter"",""1"",""10724""
","
","","","","","","","","","","","","","","","","","","","","","","","","","","",""
"fullscreen","1","11710","0.0-1.0","battery-v0.2","","""event"",""trial"",""time""
""fullscreenenter"",""1"",""10724""
","
","
","""event"",""trial"",""time""
""fullscreenenter"",""1"",""10724""
","
","true","","","","","","","","","","","","","","","","","","","","","","","","","",""
"pit-instructions","2","18881","0.0-2.0-0.0","battery-v0.2","","""event"",""trial"",""time""
""fullscreenenter"",""1"",""10724""
","
","
","""event"",""trial"",""time""
""fullscreenenter"",""1"",""10724""
","
","","[{""page_index"":0,""viewing_time"":7164.54500000691}]","7167.034999991301","","","","","","","","","","","","","","","","","","","","","","","",""
"pit-comprehension","3","22358","0.0-2.0-1.0-0.0","battery-v0.2","","""event"",""trial"",""time""
""fullscreenenter"",""1"",""10724""
","
","
","""event"",""trial"",""time""
""fullscreenenter"",""1"",""10724""
","
","","","3471.9350000086706","[""shark""]","0","23","19841","7294","","","","","","","","","","","","","","","","","","",""
"pit-instructions","4","28276","0.0-2.0-1.0-1.0","battery-v0.2","","""event"",""trial"",""time""
""fullscreenenter"",""1"",""10724""
","
","
","""event"",""trial"",""time""
""fullscreenenter"",""1"",""10724""
","
","","[{""page_index"":0,""viewing_time"":5901.494999998249}]","5902.014999999665","","","","","","","","","","","","","","","","","","","","","","","",""
"pit-comprehension","5","31884","0.0-2.0-2.0-0.0","battery-v0.2","","""event"",""trial"",""time""
""fullscreenenter"",""1"",""10724""
","
","
","""event"",""trial"",""time""
""fullscreenenter"",""1"",""10724""
","
","","","3603.514999995241","[""tiger""]","0","23","19841","7294","","","","","","","","","","","","","","","","","","",""
"pit-instructions","6","33004","0.0-2.0-2.0-1.0","battery-v0.2","","""event"",""trial"",""time""
""fullscreenenter"",""1"",""10724""
","
","
","""event"",""trial"",""time""
""fullscreenenter"",""1"",""10724""
","
","","[{""page_index"":0,""viewing_time"":1115.2750000183005}]","1115.9650000045076","","","","","","","","","","","","","","","","","","","","","","","",""
"pit-instructions","7","146840","0.0-2.0-3.0","battery-v0.2","","""event"",""trial"",""time""
""fullscreenenter"",""1"",""10724""
","
","
","""event"",""trial"",""time""
""fullscreenenter"",""1"",""10724""
","
","","[{""page_index"":0,""viewing_time"":9822.184999997262},{""page_index"":1,""viewing_time"":6169.110000017099},{""page_index"":2,""viewing_time"":10846.285000006901},{""page_index"":3,""viewing_time"":6796.709999995073},{""page_index"":4,""viewing_time"":8863.069999992149},{""page_index"":5,""viewing_time"":6448.425000009593},{""page_index"":6,""viewing_time"":7998.339999991003},{""page_index"":5,""viewing_time"":2140.2499999967404},{""page_index"":6,""viewing_time"":4872.434999997495},{""page_index"":7,""viewing_time"":3826.1400000192225},{""page_index"":8,""viewing_time"":4287.004999991041},{""page_index"":9,""viewing_time"":8252.630000002682},{""page_index"":10,""viewing_time"":10517.17499998631},{""page_index"":11,""viewing_time"":8565.384999994421},{""page_index"":12,""viewing_time"":6338.615000015125},{""page_index"":13,""viewing_time"":8091.435000009369}]","113835.92500002123","","","","","","","","","","","","","","","","","","","","","","","",""
"pit-trial","8","150416","0.0-2.0-4.0-0.0","battery-v0.2","","""event"",""trial"",""time""
""fullscreenenter"",""1"",""10724""
","
","
","""event"",""trial"",""time""
""fullscreenenter"",""1"",""10724""
","
","","","717.7300000039395","","","23","19841","7294","&#9784;","elianto","#FFFFF080"," "," ","1","&#10004","[1568.1749999930616]","1","0","0","","","","","","","",""
"pit-trial","9","154143","0.0-2.0-4.1-0.1","battery-v0.2","","""event"",""trial"",""time""
""fullscreenenter"",""1"",""10724""
","
","
","""event"",""trial"",""time""
""fullscreenenter"",""1"",""10724""
","
","","","869.6799999743234","","","23","19841","7294","&#9784;","elianto","#FFFFF080"," "," ","1","&#10004","[1719.8800000187475]","1","0","0","","","","","","","",""
"pit-trial","10","157748","0.0-2.0-4.2-0.2","battery-v0.2","","""event"",""trial"",""time""
""fullscreenenter"",""1"",""10724""
","
","
","""event"",""trial"",""time""
""fullscreenenter"",""1"",""10724""
","
","","","750.5150000215508","","","23","19841","7294","&#9784;","elianto","#FFFFF080"," "," ","1","&#10004","[1601.0949999908917]","1","0","0","","","","","","","",""
"pit-trial","11","161353","0.0-2.0-4.3-0.3","battery-v0.2","","""event"",""trial"",""time""
""fullscreenenter"",""1"",""10724""
","
","
","""event"",""trial"",""time""
""fullscreenenter"",""1"",""10724""
","
","","","746.7900000046939","","","23","19841","7294","&#9784;","elianto","#FFFFF080"," "," ","1","&#10004","[1597.2400000027847]","1","0","0","","","","","","","",""
"pit-trial","12","164923","0.0-2.0-4.4-0.4","battery-v0.2","","""event"",""trial"",""time""
""fullscreenenter"",""1"",""10724""
","
","
","""event"",""trial"",""time""
""fullscreenenter"",""1"",""10724""
","
","","","712.8950000042096","","","23","19841","7294","&#9784;","elianto","#FFFFF080"," "," ","1","&#10004","[1564.9649999977555]","1","0","0","","","","","","","",""
"pit-instructions","13","191700","0.0-2.0-5.0","battery-v0.2","","""event"",""trial"",""time""
""fullscreenenter"",""1"",""10724""
","
","
","""event"",""trial"",""time""
""fullscreenenter"",""1"",""10724""
","
","","[{""page_index"":0,""viewing_time"":5065.250000014203},{""page_index"":1,""viewing_time"":8916.26999998698},{""page_index"":2,""viewing_time"":7724.054999998771},{""page_index"":3,""viewing_time"":5067.940000008093}]","26774.055000016233","","","","","","","","","","","","","","","","","","","","","","","",""
"pit-trial","14","196563","0.0-2.0-6.0-0.0","battery-v0.2","","""event"",""trial"",""time""
""fullscreenenter"",""1"",""10724""
","
","
","""event"",""trial"",""time""
""fullscreenenter"",""1"",""10724""
","
","","","-1","","","23","19841","7294","&#9854;","elianto","#FFFFF080","-1","-1","1","&#10004","[]","0","0","1","","","","","","","",""
"pit-trial","15","199559","0.0-2.0-6.1-0.1","battery-v0.2","","""event"",""trial"",""time""
""fullscreenenter"",""1"",""10724""
","
","
","""event"",""trial"",""time""
""fullscreenenter"",""1"",""10724""
","
","","","139.84499999787658","","","23","19841","7294","&#9854;","elianto","#FFFFF080","-1"," ","0","&#10060","[991.6450000018813]","1","0","1","","","","","","","",""
"pit-trial","16","204418","0.0-2.0-6.2-0.2","battery-v0.2","","""event"",""trial"",""time""
""fullscreenenter"",""1"",""10724""
","
","
","""event"",""trial"",""time""
""fullscreenenter"",""1"",""10724""
","
","","","-1","","","23","19841","7294","&#9854;","elianto","#FFFFF080","-1","-1","1","&#10004","[]","0","0","1","","","","","","","",""
"pit-trial","17","209277","0.0-2.0-6.3-0.3","battery-v0.2","","""event"",""trial"",""time""
""fullscreenenter"",""1"",""10724""
","
","
","""event"",""trial"",""time""
""fullscreenenter"",""1"",""10724""
","
","","","-1","","","23","19841","7294","&#9854;","elianto","#FFFFF080","-1","-1","1","&#10004","[]","0","0","1","","","","","","","",""
"pit-trial","18","214135","0.0-2.0-6.4-0.4","battery-v0.2","","""event"",""trial"",""time""
""fullscreenenter"",""1"",""10724""
","
","
","""event"",""trial"",""time""
""fullscreenenter"",""1"",""10724""
","
","","","-1","","","23","19841","7294","&#9854;","elianto","#FFFFF080","-1","-1","1","&#10004","[]","0","0","1","","","","","","","",""
"pit-instructions","19","348288","0.0-2.0-7.0","battery-v0.2","","""event"",""trial"",""time""
""fullscreenenter"",""1"",""10724""
","
","
","""event"",""trial"",""time""
""fullscreenenter"",""1"",""10724""
","
","","[{""page_index"":0,""viewing_time"":6455.979999998817},{""page_index"":1,""viewing_time"":8655.534999998054},{""page_index"":2,""viewing_time"":9215.295000001788},{""page_index"":3,""viewing_time"":8099.08000001451},{""page_index"":4,""viewing_time"":6097.729999979492},{""page_index"":5,""viewing_time"":5446.920000016689},{""page_index"":6,""viewing_time"":5019.880000007106},{""page_index"":7,""viewing_time"":8082.644999987679},{""page_index"":8,""viewing_time"":6653.989999991609},{""page_index"":9,""viewing_time"":6263.33000001614},{""page_index"":10,""viewing_time"":8246.719999995548},{""page_index"":11,""viewing_time"":6720.679999998538},{""page_index"":12,""viewing_time"":6751.874999987194},{""page_index"":13,""viewing_time"":9824.385000014445},{""page_index"":14,""viewing_time"":6744.4200000027195},{""page_index"":15,""viewing_time"":11065.679999999702},{""page_index"":16,""viewing_time"":7210.244999994757},{""page_index"":17,""viewing_time"":7594.459999992978}]","134149.78500001598","","","","","","","","","","","","","","","","","","","","","","","",""
"pit-trial","20","352239","0.0-2.0-8.0-0.0","battery-v0.2","","""event"",""trial"",""time""
""fullscreenenter"",""1"",""10724""
","
","
","""event"",""trial"",""time""
""fullscreenenter"",""1"",""10724""
","
","","","1095.709999994142","","","23","19841","7294","&#9776;","elianto","#3366ff99"," "," ","1","+10","[1946.670000004815]","1","0","1","","","","","","","",""
"pit-trial","21","355623","0.0-2.0-8.0-1.0","battery-v0.2","","""event"",""trial"",""time""
""fullscreenenter"",""1"",""10724""
","
","
","""event"",""trial"",""time""
""fullscreenenter"",""1"",""10724""
","
","","","527.250000013737","","","23","19841","7294","&#9776;","elianto","#3366ff99"," "," ","1","+10","[1378.020000003744]","1","0","1","","","","","","","",""
"pit-trial","22","358755","0.0-2.0-8.0-2.0","battery-v0.2","","""event"",""trial"",""time""
""fullscreenenter"",""1"",""10724""
","
","
","""event"",""trial"",""time""
""fullscreenenter"",""1"",""10724""
","
","","","271.03999999235384","","","23","19841","7294","&#9776;","elianto","#3366ff99"," "," ","1","+10","[1122.3299999837764]","1","0","1","","","","","","","",""
"pit-trial","23","361834","0.0-2.0-8.0-3.0","battery-v0.2","","""event"",""trial"",""time""
""fullscreenenter"",""1"",""10724""
","
","
","""event"",""trial"",""time""
""fullscreenenter"",""1"",""10724""
","
","","","224.7149999893736","","","23","19841","7294","&#9776;","elianto","#3366ff99"," "," ","1","0","[1076.9450000079814]","1","0","1","","","","","","","",""
"pit-trial","24","364899","0.0-2.0-8.0-4.0","battery-v0.2","","""event"",""trial"",""time""
""fullscreenenter"",""1"",""10724""
","
","
","""event"",""trial"",""time""
""fullscreenenter"",""1"",""10724""
","
","","","210.62999998684973","","","23","19841","7294","&#9776;","elianto","#3366ff99"," "," ","1","+10","[1062.1550000214484]","1","0","1","","","","","","","",""
"pit-trial","25","368025","0.0-2.0-8.1-0.1","battery-v0.2","","""event"",""trial"",""time""
""fullscreenenter"",""1"",""10724""
","
","
","""event"",""trial"",""time""
""fullscreenenter"",""1"",""10724""
","
","","","266.5299999935087","","","23","19841","7294","&#9776;","elianto","#3366ff99"," "," ","1","+10","[1116.989999980433]","1","0","1","","","","","","","",""
"pit-trial","26","371151","0.0-2.0-8.1-1.1","battery-v0.2","","""event"",""trial"",""time""
""fullscreenenter"",""1"",""10724""
","
","
","""event"",""trial"",""time""
""fullscreenenter"",""1"",""10724""
","
","","","273.2450000185054","","","23","19841","7294","&#9776;","elianto","#3366ff99"," "," ","1","+10","[1123.4000000113156]","1","0","1","","","","","","","",""
"pit-trial","27","374088","0.0-2.0-8.1-2.1","battery-v0.2","","""event"",""trial"",""time""
""fullscreenenter"",""1"",""10724""
","
","
","""event"",""trial"",""time""
""fullscreenenter"",""1"",""10724""
","
","","","83.15500000026077","","","23","19841","7294","&#9776;","elianto","#3366ff99"," "," ","1","+10","[933.534999989206]","1","0","1","","","","","","","",""
"pit-trial","28","377432","0.0-2.0-8.1-3.1","battery-v0.2","","""event"",""trial"",""time""
""fullscreenenter"",""1"",""10724""
","
","
","""event"",""trial"",""time""
""fullscreenenter"",""1"",""10724""
","
","","","486.6000000038184","","","23","19841","7294","&#9776;","elianto","#3366ff99"," "," ","1","0","[1336.8599999812432]","1","0","1","","","","","","","",""
"pit-trial","29","380805","0.0-2.0-8.1-4.1","battery-v0.2","","""event"",""trial"",""time""
""fullscreenenter"",""1"",""10724""
","
","
","""event"",""trial"",""time""
""fullscreenenter"",""1"",""10724""
","
","","","513.9699999999721","","","23","19841","7294","&#9776;","elianto","#3366ff99"," "," ","1","+10","[1367.2150000056718]","1","0","1","","","","","","","",""
"pit-trial","30","383864","0.0-2.0-8.2-0.2","battery-v0.2","","""event"",""trial"",""time""
""fullscreenenter"",""1"",""10724""
","
","
","""event"",""trial"",""time""
""fullscreenenter"",""1"",""10724""
","
","","","200.97000000532717","","","23","19841","7294","&#9776;","elianto","#3366ff99"," "," ","1","+10","[1051.2199999939185]","1","0","1","","","","","","","",""
"pit-trial","31","387234","0.0-2.0-8.2-1.2","battery-v0.2","","""event"",""trial"",""time""
""fullscreenenter"",""1"",""10724""
","
","
","""event"",""trial"",""time""
""fullscreenenter"",""1"",""10724""
","
","","","510.48999998602085","","","23","19841","7294","&#9776;","elianto","#3366ff99"," "," ","1","+10","[1361.6949999995995]","1","0","1","","","","","","","",""
"pit-trial","32","390171","0.0-2.0-8.2-2.2","battery-v0.2","","""event"",""trial"",""time""
""fullscreenenter"",""1"",""10724""
","
","
","""event"",""trial"",""time""
""fullscreenenter"",""1"",""10724""
","
","","","79.02999999350868","","","23","19841","7294","&#9776;","elianto","#3366ff99"," "," ","1","+10","[929.680000001099]","1","0","1","","","","","","","",""
"pit-trial","33","393285","0.0-2.0-8.2-3.2","battery-v0.2","","""event"",""trial"",""time""
""fullscreenenter"",""1"",""10724""
","
","
","""event"",""trial"",""time""
""fullscreenenter"",""1"",""10724""
","
","","","254.90499997977167","","","23","19841","7294","&#9776;","elianto","#3366ff99"," "," ","1","0","[1108.9949999877717]","1","0","1","","","","","","","",""
"pit-trial","34","398144","0.0-2.0-8.2-4.2","battery-v0.2","","""event"",""trial"",""time""
""fullscreenenter"",""1"",""10724""
","
","
","""event"",""trial"",""time""
""fullscreenenter"",""1"",""10724""
","
","","","-1","","","23","19841","7294","&#9776;","elianto","#3366ff99"," ","-1","0","0","[846.9049999839626]","1","0","1","","","","","","","",""
"call-function","35","398148","0.0-2.0-9.0","battery-v0.2","","""event"",""trial"",""time""
""fullscreenenter"",""1"",""10724""
","
","
","""event"",""trial"",""time""
""fullscreenenter"",""1"",""10724""
","
","","","","","","","","","","","","","","","","","","","","","","","","","","",""
"pit-instructions","36","440324","0.0-2.0-10.0","battery-v0.2","","""event"",""trial"",""time""
""fullscreenenter"",""1"",""10724""
","
","
","""event"",""trial"",""time""
""fullscreenenter"",""1"",""10724""
","
","","[{""page_index"":0,""viewing_time"":5987.169999978505},{""page_index"":1,""viewing_time"":7455.810000014026},{""page_index"":2,""viewing_time"":10670.435000007274},{""page_index"":3,""viewing_time"":9368.109999981243},{""page_index"":4,""viewing_time"":8694.355000014184}]","42176.55000000377","","","","","","","","","","","","","","","","","","","","","","","",""
"pit-trial","37","443637","0.0-2.0-11.0-0.0","battery-v0.2","","""event"",""trial"",""time""
""fullscreenenter"",""1"",""10724""
","
","
","""event"",""trial"",""time""
""fullscreenenter"",""1"",""10724""
","
","","","453.3299999893643","","","23","19841","7294","&#9761;","elianto","#3366ff99","-1"," ","0","0","[1306.0349999868777]","1","0","2","","","","","","","",""
"pit-trial","38","446702","0.0-2.0-11.0-1.0","battery-v0.2","","""event"",""trial"",""time""
""fullscreenenter"",""1"",""10724""
","
","
","""event"",""trial"",""time""
""fullscreenenter"",""1"",""10724""
","
","","","208.67500000167638","","","23","19841","7294","&#9761;","elianto","#3366ff99","-1"," ","0","0","[1058.7799999921117]","1","0","2","","","","","","","",""
"pit-trial","39","449848","0.0-2.0-11.0-2.0","battery-v0.2","","""event"",""trial"",""time""
""fullscreenenter"",""1"",""10724""
","
","
","""event"",""trial"",""time""
""fullscreenenter"",""1"",""10724""
","
","","","289.5600000047125","","","23","19841","7294","&#9761;","elianto","#3366ff99","-1"," ","0","0","[1139.6850000019185]","1","0","2","","","","","","","",""
"pit-trial","40","452843","0.0-2.0-11.0-3.0","battery-v0.2","","""event"",""trial"",""time""
""fullscreenenter"",""1"",""10724""
","
","
","""event"",""trial"",""time""
""fullscreenenter"",""1"",""10724""
","
","","","140.74999999138527","","","23","19841","7294","&#9761;","elianto","#3366ff99","-1"," ","0","+10","[991.0600000002887]","1","0","2","","","","","","","",""
"pit-trial","41","455902","0.0-2.0-11.0-4.0","battery-v0.2","","""event"",""trial"",""time""
""fullscreenenter"",""1"",""10724""
","
","
","""event"",""trial"",""time""
""fullscreenenter"",""1"",""10724""
","
","","","203.0349999840837","","","23","19841","7294","&#9761;","elianto","#3366ff99","-1"," ","0","0","[1054.1749999974854]","1","0","2","","","","","","","",""
"pit-trial","42","460761","0.0-2.0-11.1-0.1","battery-v0.2","","""event"",""trial"",""time""
""fullscreenenter"",""1"",""10724""
","
","
","""event"",""trial"",""time""
""fullscreenenter"",""1"",""10724""
","
","","","-1","","","23","19841","7294","&#9761;","elianto","#3366ff99","-1","-1","1","+10","[4629.3449999939185]","1","0","2","","","","","","","",""
"pit-trial","43","465614","0.0-2.0-11.1-1.1","battery-v0.2","","""event"",""trial"",""time""
""fullscreenenter"",""1"",""10724""
","
","
","""event"",""trial"",""time""
""fullscreenenter"",""1"",""10724""
","
","","","-1","","","23","19841","7294","&#9761;","elianto","#3366ff99","-1","-1","1","+10","[]","0","0","2","","","","","","","",""
"pit-trial","44","469086","0.0-2.0-11.1-2.1","battery-v0.2","","""event"",""trial"",""time""
""fullscreenenter"",""1"",""10724""
","
","
","""event"",""trial"",""time""
""fullscreenenter"",""1"",""10724""
","
","","","618.5300000070129","","","23","19841","7294","&#9761;","elianto","#3366ff99","-1"," ","0","0","[1469.0249999985099]","1","0","2","","","","","","","",""
"pit-trial","45","472186","0.0-2.0-11.1-3.1","battery-v0.2","","""event"",""trial"",""time""
""fullscreenenter"",""1"",""10724""
","
","
","""event"",""trial"",""time""
""fullscreenenter"",""1"",""10724""
","
","","","242.73500000708736","","","23","19841","7294","&#9761;","elianto","#3366ff99","-1"," ","0","+10","[1094.344999990426]","1","0","2","","","","","","","",""
"pit-trial","46","477045","0.0-2.0-11.1-4.1","battery-v0.2","","""event"",""trial"",""time""
""fullscreenenter"",""1"",""10724""
","
","
","""event"",""trial"",""time""
""fullscreenenter"",""1"",""10724""
","
","","","-1","","","23","19841","7294","&#9761;","elianto","#3366ff99","-1","-1","1","+10","[743.8299999921583]","1","0","2","","","","","","","",""
"pit-trial","47","480046","0.0-2.0-11.2-0.2","battery-v0.2","","""event"",""trial"",""time""
""fullscreenenter"",""1"",""10724""
","
","
","""event"",""trial"",""time""
""fullscreenenter"",""1"",""10724""
","
","","","144.72499999101274","","","23","19841","7294","&#9761;","elianto","#3366ff99","-1"," ","0","0","[994.8399999993853]","1","0","2","","","","","","","",""
"pit-trial","48","483226","0.0-2.0-11.2-1.2","battery-v0.2","","""event"",""trial"",""time""
""fullscreenenter"",""1"",""10724""
","
","
","""event"",""trial"",""time""
""fullscreenenter"",""1"",""10724""
","
","","","323.9600000088103","","","23","19841","7294","&#9761;","elianto","#3366ff99","-1"," ","0","0","[1174.6049999783281]","1","0","2","","","","","","","",""
"pit-trial","49","486616","0.0-2.0-11.2-2.2","battery-v0.2","","""event"",""trial"",""time""
""fullscreenenter"",""1"",""10724""
","
","
","""event"",""trial"",""time""
""fullscreenenter"",""1"",""10724""
","
","","","531.0999999928754","","","23","19841","7294","&#9761;","elianto","#3366ff99","-1"," ","0","0","[1384.5300000102725]","1","0","2","","","","","","","",""
"pit-trial","50","489728","0.0-2.0-11.2-3.2","battery-v0.2","","""event"",""trial"",""time""
""fullscreenenter"",""1"",""10724""
","
","
","""event"",""trial"",""time""
""fullscreenenter"",""1"",""10724""
","
","","","255.3650000190828","","","23","19841","7294","&#9761;","elianto","#3366ff99","-1"," ","0","+10","[1106.1199999821838]","1","0","2","","","","","","","",""
"pit-trial","51","492984","0.0-2.0-11.2-4.2","battery-v0.2","","""event"",""trial"",""time""
""fullscreenenter"",""1"",""10724""
","
","
","""event"",""trial"",""time""
""fullscreenenter"",""1"",""10724""
","
","","","398.76499999081716","","","23","19841","7294","&#9761;","elianto","#3366ff99","-1"," ","0","0","[1250.6049999792594]","1","0","2","","","","","","","",""
"pit-trial","52","496166","0.0-2.0-11.3-0.3","battery-v0.2","","""event"",""trial"",""time""
""fullscreenenter"",""1"",""10724""
","
","
","""event"",""trial"",""time""
""fullscreenenter"",""1"",""10724""
","
","","","324.15000000037253","","","23","19841","7294","&#9761;","elianto","#3366ff99","-1"," ","0","0","[1176.2649999873247]","1","0","2","","","","","","","",""
"pit-trial","53","501024","0.0-2.0-11.3-1.3","battery-v0.2","","""event"",""trial"",""time""
""fullscreenenter"",""1"",""10724""
","
","
","""event"",""trial"",""time""
""fullscreenenter"",""1"",""10724""
","
","","","-1","","","23","19841","7294","&#9761;","elianto","#3366ff99","-1","-1","1","+10","[807.5250000110827,3013.3700000005774]","2","0","2","","","","","","","",""
"pit-trial","54","504130","0.0-2.0-11.3-2.3","battery-v0.2","","""event"",""trial"",""time""
""fullscreenenter"",""1"",""10724""
","
","
","""event"",""trial"",""time""
""fullscreenenter"",""1"",""10724""
","
","","","246.74999999115244","","","23","19841","7294","&#9761;","elianto","#3366ff99","-1"," ","0","0","[1098.7249999889173]","1","0","2","","","","","","","",""
"pit-trial","55","507270","0.0-2.0-11.3-3.3","battery-v0.2","","""event"",""trial"",""time""
""fullscreenenter"",""1"",""10724""
","
","
","""event"",""trial"",""time""
""fullscreenenter"",""1"",""10724""
","
","","","281.3650000025518","","","23","19841","7294","&#9761;","elianto","#3366ff99","-1"," ","0","+10","[1135.1949999807402]","1","0","2","","","","","","","",""
"pit-trial","56","510283","0.0-2.0-11.3-4.3","battery-v0.2","","""event"",""trial"",""time""
""fullscreenenter"",""1"",""10724""
","
","
","""event"",""trial"",""time""
""fullscreenenter"",""1"",""10724""
","
","","","157.92500000679865","","","23","19841","7294","&#9761;","elianto","#3366ff99","-1"," ","0","0","[1008.655000012368]","1","0","2","","","","","","","",""
"call-function","57","510287","0.0-2.0-12.0","battery-v0.2","","""event"",""trial"",""time""
""fullscreenenter"",""1"",""10724""
","
","
","""event"",""trial"",""time""
""fullscreenenter"",""1"",""10724""
","
","","","","","","","","","","","","","","","","","","","","","","","","","","",""
"pit-instructions","58","550858","0.0-2.0-13.0","battery-v0.2","","""event"",""trial"",""time""
""fullscreenenter"",""1"",""10724""
","
","
","""event"",""trial"",""time""
""fullscreenenter"",""1"",""10724""
","
","","[{""page_index"":0,""viewing_time"":5247.18499998562},{""page_index"":1,""viewing_time"":8456.225000001723},{""page_index"":2,""viewing_time"":4763.62500002142},{""page_index"":3,""viewing_time"":14863.424999988638},{""page_index"":4,""viewing_time"":7239.889999997104}]","40570.95500000287","","","","","","","","","","","","","","","","","","","","","","","",""
"pit-trial","59","554773","0.0-2.0-14.0-0.0","battery-v0.2","","""event"",""trial"",""time""
""fullscreenenter"",""1"",""10724""
","
","
","""event"",""trial"",""time""
""fullscreenenter"",""1"",""10724""
","
","","","1062.5","","","23","19841","7294","&#9826;","elianto","#f73b6a7A","-1"," ","0","-10","[1913.2099999987986]","1","0","3","","","","","","","",""
"pit-trial","60","558383","0.0-2.0-14.0-1.0","battery-v0.2","","""event"",""trial"",""time""
""fullscreenenter"",""1"",""10724""
","
","
","""event"",""trial"",""time""
""fullscreenenter"",""1"",""10724""
","
","","","754.5749999990221","","","23","19841","7294","&#9826;","elianto","#f73b6a7A","-1"," ","0","-10","[1604.8350000055507]","1","0","3","","","","","","","",""
"pit-trial","61","561941","0.0-2.0-14.0-2.0","battery-v0.2","","""event"",""trial"",""time""
""fullscreenenter"",""1"",""10724""
","
","
","""event"",""trial"",""time""
""fullscreenenter"",""1"",""10724""
","
","","","702.9400000174064","","","23","19841","7294","&#9826;","elianto","#f73b6a7A","-1"," ","0","-10","[1553.1599999812897]","1","0","3","","","","","","","",""
"pit-trial","62","564989","0.0-2.0-14.0-3.0","battery-v0.2","","""event"",""trial"",""time""
""fullscreenenter"",""1"",""10724""
","
","
","""event"",""trial"",""time""
""fullscreenenter"",""1"",""10724""
","
","","","192.9050000035204","","","23","19841","7294","&#9826;","elianto","#f73b6a7A","-1"," ","0","0","[1043.0899999919347]","1","0","3","","","","","","","",""
"pit-trial","63","568124","0.0-2.0-14.0-4.0","battery-v0.2","","""event"",""trial"",""time""
""fullscreenenter"",""1"",""10724""
","
","
","""event"",""trial"",""time""
""fullscreenenter"",""1"",""10724""
","
","","","280.38999999989755","","","23","19841","7294","&#9826;","elianto","#f73b6a7A","-1"," ","0","-10","[1130.5350000038743]","1","0","3","","","","","","","",""
"pit-trial","64","571102","0.0-2.0-14.1-0.1","battery-v0.2","","""event"",""trial"",""time""
""fullscreenenter"",""1"",""10724""
","
","
","""event"",""trial"",""time""
""fullscreenenter"",""1"",""10724""
","
","","","119.5949999964796","","","23","19841","7294","&#9826;","elianto","#f73b6a7A","-1"," ","0","-10","[972.0049999887124]","1","0","3","","","","","","","",""
"pit-trial","65","574248","0.0-2.0-14.1-1.1","battery-v0.2","","""event"",""trial"",""time""
""fullscreenenter"",""1"",""10724""
","
","
","""event"",""trial"",""time""
""fullscreenenter"",""1"",""10724""
","
","","","288.4349999949336","","","23","19841","7294","&#9826;","elianto","#f73b6a7A","-1"," ","0","-10","[1139.4450000079814]","1","0","3","","","","","","","",""
"pit-trial","66","577452","0.0-2.0-14.1-2.1","battery-v0.2","","""event"",""trial"",""time""
""fullscreenenter"",""1"",""10724""
","
","
","""event"",""trial"",""time""
""fullscreenenter"",""1"",""10724""
","
","","","348.2050000166055","","","23","19841","7294","&#9826;","elianto","#f73b6a7A","-1"," ","0","-10","[1198.6399999877904]","1","0","3","","","","","","","",""
"pit-trial","67","580786","0.0-2.0-14.1-3.1","battery-v0.2","","""event"",""trial"",""time""
""fullscreenenter"",""1"",""10724""
","
","
","""event"",""trial"",""time""
""fullscreenenter"",""1"",""10724""
","
","","","480.06999999051914","","","23","19841","7294","&#9826;","elianto","#f73b6a7A","-1"," ","0","0","[1330.9900000167545]","1","0","3","","","","","","","",""
"pit-trial","68","583685","0.0-2.0-14.1-4.1","battery-v0.2","","""event"",""trial"",""time""
""fullscreenenter"",""1"",""10724""
","
","
","""event"",""trial"",""time""
""fullscreenenter"",""1"",""10724""
","
","","","39.16499999468215","","","23","19841","7294","&#9826;","elianto","#f73b6a7A","-1"," ","0","-10","[892.0499999949243]","1","0","3","","","","","","","",""
"pit-trial","69","586878","0.0-2.0-14.2-0.2","battery-v0.2","","""event"",""trial"",""time""
""fullscreenenter"",""1"",""10724""
","
","
","""event"",""trial"",""time""
""fullscreenenter"",""1"",""10724""
","
","","","334.2699999921024","","","23","19841","7294","&#9826;","elianto","#f73b6a7A","-1"," ","0","-10","[1184.60999999661]","1","0","3","","","","","","","",""
"pit-trial","70","589895","0.0-2.0-14.2-1.2","battery-v0.2","","""event"",""trial"",""time""
""fullscreenenter"",""1"",""10724""
","
","
","""event"",""trial"",""time""
""fullscreenenter"",""1"",""10724""
","
","","","158.1550000119023","","","23","19841","7294","&#9826;","elianto","#f73b6a7A","-1"," ","0","-10","[1012.2499999997672]","1","0","3","","","","","","","",""
"pit-trial","71","593496","0.0-2.0-14.2-2.2","battery-v0.2","","""event"",""trial"",""time""
""fullscreenenter"",""1"",""10724""
","
","
","""event"",""trial"",""time""
""fullscreenenter"",""1"",""10724""
","
","","","744.860000006156","","","23","19841","7294","&#9826;","elianto","#f73b6a7A","-1"," ","0","-10","[1596.014999988256]","1","0","3","","","","","","","",""
"pit-trial","72","596729","0.0-2.0-14.2-3.2","battery-v0.2","","""event"",""trial"",""time""
""fullscreenenter"",""1"",""10724""
","
","
","""event"",""trial"",""time""
""fullscreenenter"",""1"",""10724""
","
","","","375.7949999999255","","","23","19841","7294","&#9826;","elianto","#f73b6a7A","-1"," ","0","0","[1226.6299999901094]","1","0","3","","","","","","","",""
"pit-trial","73","601588","0.0-2.0-14.2-4.2","battery-v0.2","","""event"",""trial"",""time""
""fullscreenenter"",""1"",""10724""
","
","
","""event"",""trial"",""time""
""fullscreenenter"",""1"",""10724""
","
","","","-1","","","23","19841","7294","&#9826;","elianto","#f73b6a7A","-1","-1","1","0","[]","0","0","3","","","","","","","",""
"pit-trial","74","606443","0.0-2.0-14.3-0.3","battery-v0.2","","""event"",""trial"",""time""
""fullscreenenter"",""1"",""10724""
","
","
","""event"",""trial"",""time""
""fullscreenenter"",""1"",""10724""
","
","","","-1","","","23","19841","7294","&#9826;","elianto","#f73b6a7A","-1","-1","1","0","[]","0","0","3","","","","","","","",""
"pit-trial","75","611298","0.0-2.0-14.3-1.3","battery-v0.2","","""event"",""trial"",""time""
""fullscreenenter"",""1"",""10724""
","
","
","""event"",""trial"",""time""
""fullscreenenter"",""1"",""10724""
","
","","","-1","","","23","19841","7294","&#9826;","elianto","#f73b6a7A","-1","-1","1","0","[]","0","0","3","","","","","","","",""
"pit-trial","76","616158","0.0-2.0-14.3-2.3","battery-v0.2","","""event"",""trial"",""time""
""fullscreenenter"",""1"",""10724""
","
","
","""event"",""trial"",""time""
""fullscreenenter"",""1"",""10724""
","
","","","-1","","","23","19841","7294","&#9826;","elianto","#f73b6a7A","-1","-1","1","0","[]","0","0","3","","","","","","","",""
"pit-trial","77","621016","0.0-2.0-14.3-3.3","battery-v0.2","","""event"",""trial"",""time""
""fullscreenenter"",""1"",""10724""
","
","
","""event"",""trial"",""time""
""fullscreenenter"",""1"",""10724""
","
","","","-1","","","23","19841","7294","&#9826;","elianto","#f73b6a7A","-1","-1","1","-10","[]","0","0","3","","","","","","","",""
"pit-trial","78","625875","0.0-2.0-14.3-4.3","battery-v0.2","","""event"",""trial"",""time""
""fullscreenenter"",""1"",""10724""
","
","
","""event"",""trial"",""time""
""fullscreenenter"",""1"",""10724""
","
","","","-1","","","23","19841","7294","&#9826;","elianto","#f73b6a7A","-1","-1","1","0","[]","0","0","3","","","","","","","",""
"call-function","79","625877","0.0-2.0-15.0","battery-v0.2","","""event"",""trial"",""time""
""fullscreenenter"",""1"",""10724""
","
","
","""event"",""trial"",""time""
""fullscreenenter"",""1"",""10724""
","
","","","","","","","","","","","","","","","","","","","","","","","","","","",""
"pit-instructions","80","656366","0.0-2.0-16.0","battery-v0.2","","""event"",""trial"",""time""
""fullscreenenter"",""1"",""10724""
","
","
","""event"",""trial"",""time""
""fullscreenenter"",""1"",""10724""
","
","","[{""page_index"":0,""viewing_time"":6981.480000016745},{""page_index"":1,""viewing_time"":10106.744999997318},{""page_index"":2,""viewing_time"":5092.015000001993},{""page_index"":3,""viewing_time"":8307.849999982864}]","30488.750000018626","","","","","","","","","","","","","","","","","","","","","","","",""
"pit-trial","81","661222","0.0-2.0-17.0-0.0","battery-v0.2","","""event"",""trial"",""time""
""fullscreenenter"",""1"",""10724""
","
","
","""event"",""trial"",""time""
""fullscreenenter"",""1"",""10724""
","
","","","-1","","","23","19841","7294","&#9789;","elianto","#f73b6a7A"," ","-1","0","-10","[]","0","0","4","","","","","","","",""
"pit-trial","82","666081","0.0-2.0-17.0-1.0","battery-v0.2","","""event"",""trial"",""time""
""fullscreenenter"",""1"",""10724""
","
","
","""event"",""trial"",""time""
""fullscreenenter"",""1"",""10724""
","
","","","-1","","","23","19841","7294","&#9789;","elianto","#f73b6a7A"," ","-1","0","-10","[]","0","0","4","","","","","","","",""
"pit-trial","83","670930","0.0-2.0-17.0-2.0","battery-v0.2","","""event"",""trial"",""time""
""fullscreenenter"",""1"",""10724""
","
","
","""event"",""trial"",""time""
""fullscreenenter"",""1"",""10724""
","
","","","1992.015000025276","","","23","19841","7294","&#9789;","elianto","#f73b6a7A"," "," ","1","0","[2842.4299999896903]","1","0","4","","","","","","","",""
"pit-trial","84","674530","0.0-2.0-17.0-3.0","battery-v0.2","","""event"",""trial"",""time""
""fullscreenenter"",""1"",""10724""
","
","
","""event"",""trial"",""time""
""fullscreenenter"",""1"",""10724""
","
","","","740.555000025779","","","23","19841","7294","&#9789;","elianto","#f73b6a7A"," "," ","1","-10","[1590.7400000141934]","1","0","4","","","","","","","",""
"pit-trial","85","677958","0.0-2.0-17.0-4.0","battery-v0.2","","""event"",""trial"",""time""
""fullscreenenter"",""1"",""10724""
","
","
","""event"",""trial"",""time""
""fullscreenenter"",""1"",""10724""
","
","","","566.6850000270642","","","23","19841","7294","&#9789;","elianto","#f73b6a7A"," "," ","1","0","[1420.6450000056066]","1","0","4","","","","","","","",""
"pit-trial","86","681133","0.0-2.0-17.1-0.1","battery-v0.2","","""event"",""trial"",""time""
""fullscreenenter"",""1"",""10724""
","
","
","""event"",""trial"",""time""
""fullscreenenter"",""1"",""10724""
","
","","","303.7049999984447","","","23","19841","7294","&#9789;","elianto","#f73b6a7A"," "," ","1","0","[1169.5350000227336]","1","0","4","","","","","","","",""
"pit-trial","87","685395","0.0-2.0-17.1-1.1","battery-v0.2","","""event"",""trial"",""time""
""fullscreenenter"",""1"",""10724""
","
","
","""event"",""trial"",""time""
""fullscreenenter"",""1"",""10724""
","
","","","1407.4499999987893","","","23","19841","7294","&#9789;","elianto","#f73b6a7A"," "," ","1","0","[2257.7800000144634]","1","0","4","","","","","","","",""
"pit-trial","88","690254","0.0-2.0-17.1-2.1","battery-v0.2","","""event"",""trial"",""time""
""fullscreenenter"",""1"",""10724""
","
","
","""event"",""trial"",""time""
""fullscreenenter"",""1"",""10724""
","
","","","-1","","","23","19841","7294","&#9789;","elianto","#f73b6a7A"," ","-1","0","-10","[]","0","0","4","","","","","","","",""
"pit-trial","89","694148","0.0-2.0-17.1-3.1","battery-v0.2","","""event"",""trial"",""time""
""fullscreenenter"",""1"",""10724""
","
","
","""event"",""trial"",""time""
""fullscreenenter"",""1"",""10724""
","
","","","1036.6549999744166","","","23","19841","7294","&#9789;","elianto","#f73b6a7A"," "," ","1","-10","[828.8149999862071,1889.4349999900442]","2","0","4","","","","","","","",""
"pit-trial","90","697747","0.0-2.0-17.1-4.1","battery-v0.2","","""event"",""trial"",""time""
""fullscreenenter"",""1"",""10724""
","
","
","""event"",""trial"",""time""
""fullscreenenter"",""1"",""10724""
","
","","","744.2549999977928","","","23","19841","7294","&#9789;","elianto","#f73b6a7A"," "," ","1","0","[1595.1200000126846]","1","0","4","","","","","","","",""
"pit-trial","91","701091","0.0-2.0-17.2-0.2","battery-v0.2","","""event"",""trial"",""time""
""fullscreenenter"",""1"",""10724""
","
","
","""event"",""trial"",""time""
""fullscreenenter"",""1"",""10724""
","
","","","489.31499998434447","","","23","19841","7294","&#9789;","elianto","#f73b6a7A"," "," ","1","0","[1339.8750000051223]","1","0","4","","","","","","","",""
"pit-trial","92","704221","0.0-2.0-17.2-1.2","battery-v0.2","","""event"",""trial"",""time""
""fullscreenenter"",""1"",""10724""
","
","
","""event"",""trial"",""time""
""fullscreenenter"",""1"",""10724""
","
","","","275.5600000091363","","","23","19841","7294","&#9789;","elianto","#f73b6a7A"," "," ","1","0","[1125.8499999821652]","1","0","4","","","","","","","",""
"pit-trial","93","707308","0.0-2.0-17.2-2.2","battery-v0.2","","""event"",""trial"",""time""
""fullscreenenter"",""1"",""10724""
","
","
","""event"",""trial"",""time""
""fullscreenenter"",""1"",""10724""
","
","","","229.68999997829087","","","23","19841","7294","&#9789;","elianto","#f73b6a7A"," "," ","1","0","[1080.4099999950267]","1","0","4","","","","","","","",""
"pit-trial","94","710205","0.0-2.0-17.2-3.2","battery-v0.2","","""event"",""trial"",""time""
""fullscreenenter"",""1"",""10724""
","
","
","""event"",""trial"",""time""
""fullscreenenter"",""1"",""10724""
","
","","","31.244999991031364","","","23","19841","7294","&#9789;","elianto","#f73b6a7A"," "," ","1","-10","[881.7100000160281]","1","0","4","","","","","","","",""
"pit-trial","95","713346","0.0-2.0-17.2-4.2","battery-v0.2","","""event"",""trial"",""time""
""fullscreenenter"",""1"",""10724""
","
","
","""event"",""trial"",""time""
""fullscreenenter"",""1"",""10724""
","
","","","285.5500000005122","","","23","19841","7294","&#9789;","elianto","#f73b6a7A"," "," ","1","0","[1136.4250000042375]","1","0","4","","","","","","","",""
"pit-trial","96","716496","0.0-2.0-17.3-0.3","battery-v0.2","","""event"",""trial"",""time""
""fullscreenenter"",""1"",""10724""
","
","
","""event"",""trial"",""time""
""fullscreenenter"",""1"",""10724""
","
","","","289.100000023609","","","23","19841","7294","&#9789;","elianto","#f73b6a7A"," "," ","1","0","[1140.8250000094995]","1","0","4","","","","","","","",""
"pit-trial","97","719492","0.0-2.0-17.3-1.3","battery-v0.2","","""event"",""trial"",""time""
""fullscreenenter"",""1"",""10724""
","
","
","""event"",""trial"",""time""
""fullscreenenter"",""1"",""10724""
","
","","","142.1449999907054","","","23","19841","7294","&#9789;","elianto","#f73b6a7A"," "," ","1","0","[992.419999995036]","1","0","4","","","","","","","",""
"pit-trial","98","722511","0.0-2.0-17.3-2.3","battery-v0.2","","""event"",""trial"",""time""
""fullscreenenter"",""1"",""10724""
","
","
","""event"",""trial"",""time""
""fullscreenenter"",""1"",""10724""
","
","","","162.6150000083726","","","23","19841","7294","&#9789;","elianto","#f73b6a7A"," "," ","1","0","[1012.7400000055786]","1","0","4","","","","","","","",""
"pit-trial","99","727370","0.0-2.0-17.3-3.3","battery-v0.2","","""event"",""trial"",""time""
""fullscreenenter"",""1"",""10724""
","
","
","""event"",""trial"",""time""
""fullscreenenter"",""1"",""10724""
","
","","","-1","","","23","19841","7294","&#9789;","elianto","#f73b6a7A"," ","-1","0","0","[]","0","0","4","","","","","","","",""
"pit-trial","100","730551","0.0-2.0-17.3-4.3","battery-v0.2","","""event"",""trial"",""time""
""fullscreenenter"",""1"",""10724""
","
","
","""event"",""trial"",""time""
""fullscreenenter"",""1"",""10724""
","
","","","325.2799999900162","","","23","19841","7294","&#9789;","elianto","#f73b6a7A"," "," ","1","0","[1175.8299999928568]","1","0","4","","","","","","","",""
"call-function","101","730553","0.0-2.0-18.0","battery-v0.2","","""event"",""trial"",""time""
""fullscreenenter"",""1"",""10724""
","
","
","""event"",""trial"",""time""
""fullscreenenter"",""1"",""10724""
","
","","","","","","","","","","","","","","","","","","","","","","","","","","",""
"pit-instructions","102","808612","0.0-2.0-19.0","battery-v0.2","","""event"",""trial"",""time""
""fullscreenenter"",""1"",""10724""
","
","
","""event"",""trial"",""time""
""fullscreenenter"",""1"",""10724""
","
","","[{""page_index"":0,""viewing_time"":13029.745000007097},{""page_index"":1,""viewing_time"":6992.915000009816},{""page_index"":2,""viewing_time"":10212.294999975711},{""page_index"":3,""viewing_time"":5304.930000012973},{""page_index"":4,""viewing_time"":6239.260000002105},{""page_index"":5,""viewing_time"":9505.524999985937},{""page_index"":6,""viewing_time"":9479.749999998603},{""page_index"":7,""viewing_time"":6849.840000009863},{""page_index"":8,""viewing_time"":10446.010000014212}]","78060.84499999997","","","","","","","","","","","","","","","","","","","","","","","",""
"pit-comprehension","103","812847","0.0-2.0-20.0-0.0","battery-v0.2","","""event"",""trial"",""time""
""fullscreenenter"",""1"",""10724""
","
","
","""event"",""trial"",""time""
""fullscreenenter"",""1"",""10724""
","
","","","4230.855000001611","[""SPACE""]","0","23","19841","7294","","","","","","","","","","","","","","","","","","",""
"pit-instructions","104","816337","0.0-2.0-20.0-1.0","battery-v0.2","","""event"",""trial"",""time""
""fullscreenenter"",""1"",""10724""
","
","
","""event"",""trial"",""time""
""fullscreenenter"",""1"",""10724""
","
","","[{""page_index"":0,""viewing_time"":3440.1099999959115}]","3440.6549999839626","","","","","","","","","","","","","","","","","","","","","","","",""
"pit-comprehension","105","820832","0.0-2.0-21.0-0.0","battery-v0.2","","""event"",""trial"",""time""
""fullscreenenter"",""1"",""10724""
","
","
","""event"",""trial"",""time""
""fullscreenenter"",""1"",""10724""
","
","","","4490.669999999227","[""10""]","0","23","19841","7294","","","","","","","","","","","","","","","","","","",""
"pit-instructions","106","823156","0.0-2.0-21.0-1.0","battery-v0.2","","""event"",""trial"",""time""
""fullscreenenter"",""1"",""10724""
","
","
","""event"",""trial"",""time""
""fullscreenenter"",""1"",""10724""
","
","","[{""page_index"":0,""viewing_time"":2283.5199999972247}]","2284.155000001192","","","","","","","","","","","","","","","","","","","","","","","",""
"pit-comprehension","107","831670","0.0-2.0-22.0-0.0","battery-v0.2","","""event"",""trial"",""time""
""fullscreenenter"",""1"",""10724""
","
","
","""event"",""trial"",""time""
""fullscreenenter"",""1"",""10724""
","
","","","8509.714999992866","[""0""]","0","23","19841","7294","","","","","","","","","","","","","","","","","","",""
"pit-instructions","108","835371","0.0-2.0-22.0-1.0","battery-v0.2","","""event"",""trial"",""time""
""fullscreenenter"",""1"",""10724""
","
","
","""event"",""trial"",""time""
""fullscreenenter"",""1"",""10724""
","
","","[{""page_index"":0,""viewing_time"":3660.845000005793}]","3661.1899999843445","","","","","","","","","","","","","","","","","","","","","","","",""
"pit-comprehension","109","843893","0.0-2.0-23.0-0.0","battery-v0.2","","""event"",""trial"",""time""
""fullscreenenter"",""1"",""10724""
","
","
","""event"",""trial"",""time""
""fullscreenenter"",""1"",""10724""
","
","","","8519.125000020722","[""True""]","0","23","19841","7294","","","","","","","","","","","","","","","","","","",""
"pit-instructions","110","846202","0.0-2.0-23.0-1.0","battery-v0.2","","""event"",""trial"",""time""
""fullscreenenter"",""1"",""10724""
","
","
","""event"",""trial"",""time""
""fullscreenenter"",""1"",""10724""
","
","","[{""page_index"":0,""viewing_time"":2270.2100000169594}]","2270.810000016354","","","","","","","","","","","","","","","","","","","","","","","",""
"pit-comprehension","111","853671","0.0-2.0-24.0-0.0","battery-v0.2","","""event"",""trial"",""time""
""fullscreenenter"",""1"",""10724""
","
","
","""event"",""trial"",""time""
""fullscreenenter"",""1"",""10724""
","
","","","7465.100000001257","[""True""]","0","23","19841","7294","","","","","","","","","","","","","","","","","","",""
"pit-instructions","112","855875","0.0-2.0-24.0-1.0","battery-v0.2","","""event"",""trial"",""time""
""fullscreenenter"",""1"",""10724""
","
","
","""event"",""trial"",""time""
""fullscreenenter"",""1"",""10724""
","
","","[{""page_index"":0,""viewing_time"":2165.240000002086}]","2165.8949999837205","","","","","","","","","","","","","","","","","","","","","","","",""
"pit-comprehension","113","862567","0.0-2.0-25.0-0.0","battery-v0.2","","""event"",""trial"",""time""
""fullscreenenter"",""1"",""10724""
","
","
","""event"",""trial"",""time""
""fullscreenenter"",""1"",""10724""
","
","","","6686.814999993658","[""True""]","0","23","19841","7294","","","","","","","","","","","","","","","","","","",""
"pit-instructions","114","864452","0.0-2.0-25.0-1.0","battery-v0.2","","""event"",""trial"",""time""
""fullscreenenter"",""1"",""10724""
","
","
","""event"",""trial"",""time""
""fullscreenenter"",""1"",""10724""
","
","","[{""page_index"":0,""viewing_time"":1843.155000009574}]","1843.7550000089686","","","","","","","","","","","","","","","","","","","","","","","",""
"pit-comprehension","115","869817","0.0-2.0-26.0-0.0","battery-v0.2","","""event"",""trial"",""time""
""fullscreenenter"",""1"",""10724""
","
","
","""event"",""trial"",""time""
""fullscreenenter"",""1"",""10724""
","
","","","5361.574999988079","[""False""]","0","23","19841","7294","","","","","","","","","","","","","","","","","","",""
"pit-instructions","116","872198","0.0-2.0-26.0-1.0","battery-v0.2","","""event"",""trial"",""time""
""fullscreenenter"",""1"",""10724""
""fullscreenexit"",""117"",""883424""
""blur"",""117"",""894190""
""focus"",""117"",""925716""
""blur"",""117"",""925755""
""focus"",""117"",""929279""
""blur"",""117"",""929310""
""focus"",""117"",""929418""
""blur"",""117"",""929495""
""focus"",""117"",""943281""
","""event"",""trial"",""time""
""blur"",""117"",""894190""
""blur"",""117"",""925755""
""blur"",""117"",""929310""
""blur"",""117"",""929495""
","""event"",""trial"",""time""
""focus"",""117"",""925716""
""focus"",""117"",""929279""
""focus"",""117"",""929418""
""focus"",""117"",""943281""
","""event"",""trial"",""time""
""fullscreenenter"",""1"",""10724""
","""event"",""trial"",""time""
""fullscreenexit"",""117"",""883424""
","","[{""page_index"":0,""viewing_time"":2340.23500001058}]","2340.649999998277","","","","","","","","","","","","","","","","","","","","","","","",""
"pit-instructions","117","944340","0.0-3.0","battery-v0.2","","""event"",""trial"",""time""
""fullscreenenter"",""1"",""10724""
""fullscreenexit"",""117"",""883424""
""blur"",""117"",""894190""
""focus"",""117"",""925716""
""blur"",""117"",""925755""
""focus"",""117"",""929279""
""blur"",""117"",""929310""
""focus"",""117"",""929418""
""blur"",""117"",""929495""
""focus"",""117"",""943281""
","""event"",""trial"",""time""
""blur"",""117"",""894190""
""blur"",""117"",""925755""
""blur"",""117"",""929310""
""blur"",""117"",""929495""
","""event"",""trial"",""time""
""focus"",""117"",""925716""
""focus"",""117"",""929279""
""focus"",""117"",""929418""
""focus"",""117"",""943281""
","""event"",""trial"",""time""
""fullscreenenter"",""1"",""10724""
","""event"",""trial"",""time""
""fullscreenexit"",""117"",""883424""
","","[{""page_index"":0,""viewing_time"":4080.2399999811314},{""page_index"":1,""viewing_time"":9109.330000006594},{""page_index"":2,""viewing_time"":58951.09000001685}]","72141.6849999805","","","","","","","","","","","","","","","","","","","","","","","",""
"pit-trial","118","948706","0.0-4.0","battery-v0.2","","""event"",""trial"",""time""
""fullscreenenter"",""1"",""10724""
""fullscreenexit"",""117"",""883424""
""blur"",""117"",""894190""
""focus"",""117"",""925716""
""blur"",""117"",""925755""
""focus"",""117"",""929279""
""blur"",""117"",""929310""
""focus"",""117"",""929418""
""blur"",""117"",""929495""
""focus"",""117"",""943281""
","""event"",""trial"",""time""
""blur"",""117"",""894190""
""blur"",""117"",""925755""
""blur"",""117"",""929310""
""blur"",""117"",""929495""
","""event"",""trial"",""time""
""focus"",""117"",""925716""
""focus"",""117"",""929279""
""focus"",""117"",""929418""
""focus"",""117"",""943281""
","""event"",""trial"",""time""
""fullscreenenter"",""1"",""10724""
","""event"",""trial"",""time""
""fullscreenexit"",""117"",""883424""
","","","1503.6550000077114","","","23","19841","7294","&#9752;","elianto","#f73b6a7A"," "," ","1","0","[2354.350000008708]","1","1","","","19841","1","3","3","lose","go","0"
"pit-trial","119","952462","0.0-5.0","battery-v0.2","","""event"",""trial"",""time""
""fullscreenenter"",""1"",""10724""
""fullscreenexit"",""117"",""883424""
""blur"",""117"",""894190""
""focus"",""117"",""925716""
""blur"",""117"",""925755""
""focus"",""117"",""929279""
""blur"",""117"",""929310""
""focus"",""117"",""929418""
""blur"",""117"",""929495""
""focus"",""117"",""943281""
","""event"",""trial"",""time""
""blur"",""117"",""894190""
""blur"",""117"",""925755""
""blur"",""117"",""929310""
""blur"",""117"",""929495""
","""event"",""trial"",""time""
""focus"",""117"",""925716""
""focus"",""117"",""929279""
""focus"",""117"",""929418""
""focus"",""117"",""943281""
","""event"",""trial"",""time""
""fullscreenenter"",""1"",""10724""
","""event"",""trial"",""time""
""fullscreenexit"",""117"",""883424""
","","","895.4799999773968","","","23","19841","7294","&#9733;","elianto","#3366ff99","-1"," ","0","0","[1748.7699999765027]","1","1","","","19841","2","2","2","win","no-go","0"
"pit-trial","120","956624","0.0-6.0","battery-v0.2","","""event"",""trial"",""time""
""fullscreenenter"",""1"",""10724""
""fullscreenexit"",""117"",""883424""
""blur"",""117"",""894190""
""focus"",""117"",""925716""
""blur"",""117"",""925755""
""focus"",""117"",""929279""
""blur"",""117"",""929310""
""focus"",""117"",""929418""
""blur"",""117"",""929495""
""focus"",""117"",""943281""
","""event"",""trial"",""time""
""blur"",""117"",""894190""
""blur"",""117"",""925755""
""blur"",""117"",""929310""
""blur"",""117"",""929495""
","""event"",""trial"",""time""
""focus"",""117"",""925716""
""focus"",""117"",""929279""
""focus"",""117"",""929418""
""focus"",""117"",""943281""
","""event"",""trial"",""time""
""fullscreenenter"",""1"",""10724""
","""event"",""trial"",""time""
""fullscreenexit"",""117"",""883424""
","","","1308.3850000111852","","","23","19841","7294","&#9728;","elianto","#f73b6a7A","-1"," ","0","-10","[2159.205000003567]","1","1","","","19841","3","0","4","lose","no-go","0"
"pit-trial","121","960443","0.0-7.0","battery-v0.2","","""event"",""trial"",""time""
""fullscreenenter"",""1"",""10724""
""fullscreenexit"",""117"",""883424""
""blur"",""117"",""894190""
""focus"",""117"",""925716""
""blur"",""117"",""925755""
""focus"",""117"",""929279""
""blur"",""117"",""929310""
""focus"",""117"",""929418""
""blur"",""117"",""929495""
""focus"",""117"",""943281""
","""event"",""trial"",""time""
""blur"",""117"",""894190""
""blur"",""117"",""925755""
""blur"",""117"",""929310""
""blur"",""117"",""929495""
","""event"",""trial"",""time""
""focus"",""117"",""925716""
""focus"",""117"",""929279""
""focus"",""117"",""929418""
""focus"",""117"",""943281""
","""event"",""trial"",""time""
""fullscreenenter"",""1"",""10724""
","""event"",""trial"",""time""
""fullscreenexit"",""117"",""883424""
","","","961.715000012191","","","23","19841","7294","&#9730;","elianto","#3366ff99"," "," ","1","+10","[1812.630000000354]","1","1","","","19841","4","1","1","win","go","0"
"pit-trial","122","964228","0.0-8.0","battery-v0.2","","""event"",""trial"",""time""
""fullscreenenter"",""1"",""10724""
""fullscreenexit"",""117"",""883424""
""blur"",""117"",""894190""
""focus"",""117"",""925716""
""blur"",""117"",""925755""
""focus"",""117"",""929279""
""blur"",""117"",""929310""
""focus"",""117"",""929418""
""blur"",""117"",""929495""
""focus"",""117"",""943281""
","""event"",""trial"",""time""
""blur"",""117"",""894190""
""blur"",""117"",""925755""
""blur"",""117"",""929310""
""blur"",""117"",""929495""
","""event"",""trial"",""time""
""focus"",""117"",""925716""
""focus"",""117"",""929279""
""focus"",""117"",""929418""
""focus"",""117"",""943281""
","""event"",""trial"",""time""
""fullscreenenter"",""1"",""10724""
","""event"",""trial"",""time""
""fullscreenexit"",""117"",""883424""
","","","927.5450000131968","","","23","19841","7294","&#9730;","elianto","#3366ff99"," "," ","1","+10","[1778.3050000143703]","1","1","","","19841","5","1","1","win","go","0"
"pit-trial","123","967950","0.0-9.0","battery-v0.2","","""event"",""trial"",""time""
""fullscreenenter"",""1"",""10724""
""fullscreenexit"",""117"",""883424""
""blur"",""117"",""894190""
""focus"",""117"",""925716""
""blur"",""117"",""925755""
""focus"",""117"",""929279""
""blur"",""117"",""929310""
""focus"",""117"",""929418""
""blur"",""117"",""929495""
""focus"",""117"",""943281""
","""event"",""trial"",""time""
""blur"",""117"",""894190""
""blur"",""117"",""925755""
""blur"",""117"",""929310""
""blur"",""117"",""929495""
","""event"",""trial"",""time""
""focus"",""117"",""925716""
""focus"",""117"",""929279""
""focus"",""117"",""929418""
""focus"",""117"",""943281""
","""event"",""trial"",""time""
""fullscreenenter"",""1"",""10724""
","""event"",""trial"",""time""
""fullscreenexit"",""117"",""883424""
","","","865.189999982249","","","23","19841","7294","&#9733;","elianto","#3366ff99","-1"," ","0","0","[1715.9150000079535]","1","1","","","19841","6","2","2","win","no-go","0"
"pit-trial","124","971919","0.0-10.0","battery-v0.2","","""event"",""trial"",""time""
""fullscreenenter"",""1"",""10724""
""fullscreenexit"",""117"",""883424""
""blur"",""117"",""894190""
""focus"",""117"",""925716""
""blur"",""117"",""925755""
""focus"",""117"",""929279""
""blur"",""117"",""929310""
""focus"",""117"",""929418""
""blur"",""117"",""929495""
""focus"",""117"",""943281""
","""event"",""trial"",""time""
""blur"",""117"",""894190""
""blur"",""117"",""925755""
""blur"",""117"",""929310""
""blur"",""117"",""929495""
","""event"",""trial"",""time""
""focus"",""117"",""925716""
""focus"",""117"",""929279""
""focus"",""117"",""929418""
""focus"",""117"",""943281""
","""event"",""trial"",""time""
""fullscreenenter"",""1"",""10724""
","""event"",""trial"",""time""
""fullscreenexit"",""117"",""883424""
","","","1114.6350000053644","","","23","19841","7294","&#9752;","elianto","#f73b6a7A"," "," ","1","-10","[1966.8649999948684]","1","1","","","19841","7","3","3","lose","go","1"
"pit-trial","125","975535","0.0-11.0","battery-v0.2","","""event"",""trial"",""time""
""fullscreenenter"",""1"",""10724""
""fullscreenexit"",""117"",""883424""
""blur"",""117"",""894190""
""focus"",""117"",""925716""
""blur"",""117"",""925755""
""focus"",""117"",""929279""
""blur"",""117"",""929310""
""focus"",""117"",""929418""
""blur"",""117"",""929495""
""focus"",""117"",""943281""
","""event"",""trial"",""time""
""blur"",""117"",""894190""
""blur"",""117"",""925755""
""blur"",""117"",""929310""
""blur"",""117"",""929495""
","""event"",""trial"",""time""
""focus"",""117"",""925716""
""focus"",""117"",""929279""
""focus"",""117"",""929418""
""focus"",""117"",""943281""
","""event"",""trial"",""time""
""fullscreenenter"",""1"",""10724""
","""event"",""trial"",""time""
""fullscreenexit"",""117"",""883424""
","","","760.4099999880418","","","23","19841","7294","&#9728;","elianto","#f73b6a7A","-1"," ","0","-10","[1611.76999998861]","1","1","","","19841","8","0","4","lose","no-go","0"
"pit-trial","126","980396","0.0-12.0","battery-v0.2","","""event"",""trial"",""time""
""fullscreenenter"",""1"",""10724""
""fullscreenexit"",""117"",""883424""
""blur"",""117"",""894190""
""focus"",""117"",""925716""
""blur"",""117"",""925755""
""focus"",""117"",""929279""
""blur"",""117"",""929310""
""focus"",""117"",""929418""
""blur"",""117"",""929495""
""focus"",""117"",""943281""
","""event"",""trial"",""time""
""blur"",""117"",""894190""
""blur"",""117"",""925755""
""blur"",""117"",""929310""
""blur"",""117"",""929495""
","""event"",""trial"",""time""
""focus"",""117"",""925716""
""focus"",""117"",""929279""
""focus"",""117"",""929418""
""focus"",""117"",""943281""
","""event"",""trial"",""time""
""fullscreenenter"",""1"",""10724""
","""event"",""trial"",""time""
""fullscreenexit"",""117"",""883424""
","","","-1","","","23","19841","7294","&#9752;","elianto","#f73b6a7A"," ","-1","0","0","[]","0","1","","","19841","9","3","3","lose","go","1"
"pit-trial","127","983755","0.0-13.0","battery-v0.2","","""event"",""trial"",""time""
""fullscreenenter"",""1"",""10724""
""fullscreenexit"",""117"",""883424""
""blur"",""117"",""894190""
""focus"",""117"",""925716""
""blur"",""117"",""925755""
""focus"",""117"",""929279""
""blur"",""117"",""929310""
""focus"",""117"",""929418""
""blur"",""117"",""929495""
""focus"",""117"",""943281""
""blur"",""128"",""984624""
","""event"",""trial"",""time""
""blur"",""117"",""894190""
""blur"",""117"",""925755""
""blur"",""117"",""929310""
""blur"",""117"",""929495""
""blur"",""128"",""984624""
","""event"",""trial"",""time""
""focus"",""117"",""925716""
""focus"",""117"",""929279""
""focus"",""117"",""929418""
""focus"",""117"",""943281""
","""event"",""trial"",""time""
""fullscreenenter"",""1"",""10724""
","""event"",""trial"",""time""
""fullscreenexit"",""117"",""883424""
","","","501.589999999851","","","23","19841","7294","&#9730;","elianto","#3366ff99"," "," ","1","+10","[1353.1300000031479]","1","1","","","19841","10","1","1","win","go","0"
"pit-trial","128","988613","0.0-14.0","battery-v0.2","","""event"",""trial"",""time""
""fullscreenenter"",""1"",""10724""
""fullscreenexit"",""117"",""883424""
""blur"",""117"",""894190""
""focus"",""117"",""925716""
""blur"",""117"",""925755""
""focus"",""117"",""929279""
""blur"",""117"",""929310""
""focus"",""117"",""929418""
""blur"",""117"",""929495""
""focus"",""117"",""943281""
""blur"",""128"",""984624""
","""event"",""trial"",""time""
""blur"",""117"",""894190""
""blur"",""117"",""925755""
""blur"",""117"",""929310""
""blur"",""117"",""929495""
""blur"",""128"",""984624""
","""event"",""trial"",""time""
""focus"",""117"",""925716""
""focus"",""117"",""929279""
""focus"",""117"",""929418""
""focus"",""117"",""943281""
","""event"",""trial"",""time""
""fullscreenenter"",""1"",""10724""
","""event"",""trial"",""time""
""fullscreenexit"",""117"",""883424""
","","","-1","","","23","19841","7294","&#9733;","elianto","#3366ff99","-1","-1","1","+10","[]","0","1","","","19841","11","2","2","win","no-go","0"
"pit-trial","129","993473","0.0-15.0","battery-v0.2","","""event"",""trial"",""time""
""fullscreenenter"",""1"",""10724""
""fullscreenexit"",""117"",""883424""
""blur"",""117"",""894190""
""focus"",""117"",""925716""
""blur"",""117"",""925755""
""focus"",""117"",""929279""
""blur"",""117"",""929310""
""focus"",""117"",""929418""
""blur"",""117"",""929495""
""focus"",""117"",""943281""
""blur"",""128"",""984624""
","""event"",""trial"",""time""
""blur"",""117"",""894190""
""blur"",""117"",""925755""
""blur"",""117"",""929310""
""blur"",""117"",""929495""
""blur"",""128"",""984624""
","""event"",""trial"",""time""
""focus"",""117"",""925716""
""focus"",""117"",""929279""
""focus"",""117"",""929418""
""focus"",""117"",""943281""
","""event"",""trial"",""time""
""fullscreenenter"",""1"",""10724""
","""event"",""trial"",""time""
""fullscreenexit"",""117"",""883424""
","","","-1","","","23","19841","7294","&#9728;","elianto","#f73b6a7A","-1","-1","1","0","[]","0","1","","","19841","12","0","4","lose","no-go","0"
"pit-trial","130","998328","0.0-16.0","battery-v0.2","","""event"",""trial"",""time""
""fullscreenenter"",""1"",""10724""
""fullscreenexit"",""117"",""883424""
""blur"",""117"",""894190""
""focus"",""117"",""925716""
""blur"",""117"",""925755""
""focus"",""117"",""929279""
""blur"",""117"",""929310""
""focus"",""117"",""929418""
""blur"",""117"",""929495""
""focus"",""117"",""943281""
""blur"",""128"",""984624""
","""event"",""trial"",""time""
""blur"",""117"",""894190""
""blur"",""117"",""925755""
""blur"",""117"",""929310""
""blur"",""117"",""929495""
""blur"",""128"",""984624""
","""event"",""trial"",""time""
""focus"",""117"",""925716""
""focus"",""117"",""929279""
""focus"",""117"",""929418""
""focus"",""117"",""943281""
","""event"",""trial"",""time""
""fullscreenenter"",""1"",""10724""
","""event"",""trial"",""time""
""fullscreenexit"",""117"",""883424""
","","","-1","","","23","19841","7294","&#9733;","elianto","#3366ff99","-1","-1","1","+10","[]","0","1","","","19841","13","2","2","win","no-go","0"
"pit-trial","131","1003190","0.0-17.0","battery-v0.2","","""event"",""trial"",""time""
""fullscreenenter"",""1"",""10724""
""fullscreenexit"",""117"",""883424""
""blur"",""117"",""894190""
""focus"",""117"",""925716""
""blur"",""117"",""925755""
""focus"",""117"",""929279""
""blur"",""117"",""929310""
""focus"",""117"",""929418""
""blur"",""117"",""929495""
""focus"",""117"",""943281""
""blur"",""128"",""984624""
","""event"",""trial"",""time""
""blur"",""117"",""894190""
""blur"",""117"",""925755""
""blur"",""117"",""929310""
""blur"",""117"",""929495""
""blur"",""128"",""984624""
","""event"",""trial"",""time""
""focus"",""117"",""925716""
""focus"",""117"",""929279""
""focus"",""117"",""929418""
""focus"",""117"",""943281""
","""event"",""trial"",""time""
""fullscreenenter"",""1"",""10724""
","""event"",""trial"",""time""
""fullscreenexit"",""117"",""883424""
","","","-1","","","23","19841","7294","&#9728;","elianto","#f73b6a7A","-1","-1","1","0","[]","0","1","","","19841","14","0","4","lose","no-go","0"
"pit-trial","132","1008048","0.0-18.0","battery-v0.2","","""event"",""trial"",""time""
""fullscreenenter"",""1"",""10724""
""fullscreenexit"",""117"",""883424""
""blur"",""117"",""894190""
""focus"",""117"",""925716""
""blur"",""117"",""925755""
""focus"",""117"",""929279""
""blur"",""117"",""929310""
""focus"",""117"",""929418""
""blur"",""117"",""929495""
""focus"",""117"",""943281""
""blur"",""128"",""984624""
","""event"",""trial"",""time""
""blur"",""117"",""894190""
""blur"",""117"",""925755""
""blur"",""117"",""929310""
""blur"",""117"",""929495""
""blur"",""128"",""984624""
","""event"",""trial"",""time""
""focus"",""117"",""925716""
""focus"",""117"",""929279""
""focus"",""117"",""929418""
""focus"",""117"",""943281""
","""event"",""trial"",""time""
""fullscreenenter"",""1"",""10724""
","""event"",""trial"",""time""
""fullscreenexit"",""117"",""883424""
","","","-1","","","23","19841","7294","&#9752;","elianto","#f73b6a7A"," ","-1","0","-10","[]","0","1","","","19841","15","3","3","lose","go","0"
"pit-trial","133","1012907","0.0-19.0","battery-v0.2","","""event"",""trial"",""time""
""fullscreenenter"",""1"",""10724""
""fullscreenexit"",""117"",""883424""
""blur"",""117"",""894190""
""focus"",""117"",""925716""
""blur"",""117"",""925755""
""focus"",""117"",""929279""
""blur"",""117"",""929310""
""focus"",""117"",""929418""
""blur"",""117"",""929495""
""focus"",""117"",""943281""
""blur"",""128"",""984624""
""focus"",""134"",""1013304""
""blur"",""134"",""1015511""
","""event"",""trial"",""time""
""blur"",""117"",""894190""
""blur"",""117"",""925755""
""blur"",""117"",""929310""
""blur"",""117"",""929495""
""blur"",""128"",""984624""
""blur"",""134"",""1015511""
","""event"",""trial"",""time""
""focus"",""117"",""925716""
""focus"",""117"",""929279""
""focus"",""117"",""929418""
""focus"",""117"",""943281""
""focus"",""134"",""1013304""
","""event"",""trial"",""time""
""fullscreenenter"",""1"",""10724""
","""event"",""trial"",""time""
""fullscreenexit"",""117"",""883424""
","","","-1","","","23","19841","7294","&#9730;","elianto","#3366ff99"," ","-1","0","0","[]","0","1","","","19841","16","1","1","win","go","0"
"pit-trial","134","1016100","0.0-20.0","battery-v0.2","","""event"",""trial"",""time""
""fullscreenenter"",""1"",""10724""
""fullscreenexit"",""117"",""883424""
""blur"",""117"",""894190""
""focus"",""117"",""925716""
""blur"",""117"",""925755""
""focus"",""117"",""929279""
""blur"",""117"",""929310""
""focus"",""117"",""929418""
""blur"",""117"",""929495""
""focus"",""117"",""943281""
""blur"",""128"",""984624""
""focus"",""134"",""1013304""
""blur"",""134"",""1015511""
","""event"",""trial"",""time""
""blur"",""117"",""894190""
""blur"",""117"",""925755""
""blur"",""117"",""929310""
""blur"",""117"",""929495""
""blur"",""128"",""984624""
""blur"",""134"",""1015511""
","""event"",""trial"",""time""
""focus"",""117"",""925716""
""focus"",""117"",""929279""
""focus"",""117"",""929418""
""focus"",""117"",""943281""
""focus"",""134"",""1013304""
","""event"",""trial"",""time""
""fullscreenenter"",""1"",""10724""
","""event"",""trial"",""time""
""fullscreenexit"",""117"",""883424""
","","","314.99499999335967","","","23","19841","7294","&#9728;","elianto","#f73b6a7A","-1"," ","0","-10","[1169.2449999973178]","1","1","","","19841","17","0","4","lose","no-go","0"
"pit-trial","135","1020958","0.0-21.0","battery-v0.2","","""event"",""trial"",""time""
""fullscreenenter"",""1"",""10724""
""fullscreenexit"",""117"",""883424""
""blur"",""117"",""894190""
""focus"",""117"",""925716""
""blur"",""117"",""925755""
""focus"",""117"",""929279""
""blur"",""117"",""929310""
""focus"",""117"",""929418""
""blur"",""117"",""929495""
""focus"",""117"",""943281""
""blur"",""128"",""984624""
""focus"",""134"",""1013304""
""blur"",""134"",""1015511""
""focus"",""136"",""1022764""
","""event"",""trial"",""time""
""blur"",""117"",""894190""
""blur"",""117"",""925755""
""blur"",""117"",""929310""
""blur"",""117"",""929495""
""blur"",""128"",""984624""
""blur"",""134"",""1015511""
","""event"",""trial"",""time""
""focus"",""117"",""925716""
""focus"",""117"",""929279""
""focus"",""117"",""929418""
""focus"",""117"",""943281""
""focus"",""134"",""1013304""
""focus"",""136"",""1022764""
","""event"",""trial"",""time""
""fullscreenenter"",""1"",""10724""
","""event"",""trial"",""time""
""fullscreenexit"",""117"",""883424""
","","","-1","","","23","19841","7294","&#9733;","elianto","#3366ff99","-1","-1","1","+10","[]","0","1","","","19841","18","2","2","win","no-go","0"
"pit-trial","136","1025813","0.0-22.0","battery-v0.2","","""event"",""trial"",""time""
""fullscreenenter"",""1"",""10724""
""fullscreenexit"",""117"",""883424""
""blur"",""117"",""894190""
""focus"",""117"",""925716""
""blur"",""117"",""925755""
""focus"",""117"",""929279""
""blur"",""117"",""929310""
""focus"",""117"",""929418""
""blur"",""117"",""929495""
""focus"",""117"",""943281""
""blur"",""128"",""984624""
""focus"",""134"",""1013304""
""blur"",""134"",""1015511""
""focus"",""136"",""1022764""
","""event"",""trial"",""time""
""blur"",""117"",""894190""
""blur"",""117"",""925755""
""blur"",""117"",""929310""
""blur"",""117"",""929495""
""blur"",""128"",""984624""
""blur"",""134"",""1015511""
","""event"",""trial"",""time""
""focus"",""117"",""925716""
""focus"",""117"",""929279""
""focus"",""117"",""929418""
""focus"",""117"",""943281""
""focus"",""134"",""1013304""
""focus"",""136"",""1022764""
","""event"",""trial"",""time""
""fullscreenenter"",""1"",""10724""
","""event"",""trial"",""time""
""fullscreenexit"",""117"",""883424""
","","","-1","","","23","19841","7294","&#9752;","elianto","#f73b6a7A"," ","-1","0","-10","[2898.0400000000373]","1","1","","","19841","19","3","3","lose","go","0"
"pit-trial","137","1030101","0.0-23.0","battery-v0.2","","""event"",""trial"",""time""
""fullscreenenter"",""1"",""10724""
""fullscreenexit"",""117"",""883424""
""blur"",""117"",""894190""
""focus"",""117"",""925716""
""blur"",""117"",""925755""
""focus"",""117"",""929279""
""blur"",""117"",""929310""
""focus"",""117"",""929418""
""blur"",""117"",""929495""
""focus"",""117"",""943281""
""blur"",""128"",""984624""
""focus"",""134"",""1013304""
""blur"",""134"",""1015511""
""focus"",""136"",""1022764""
""blur"",""138"",""1035398""
""focus"",""138"",""1037671""
","""event"",""trial"",""time""
""blur"",""117"",""894190""
""blur"",""117"",""925755""
""blur"",""117"",""929310""
""blur"",""117"",""929495""
""blur"",""128"",""984624""
""blur"",""134"",""1015511""
""blur"",""138"",""1035398""
","""event"",""trial"",""time""
""focus"",""117"",""925716""
""focus"",""117"",""929279""
""focus"",""117"",""929418""
""focus"",""117"",""943281""
""focus"",""134"",""1013304""
""focus"",""136"",""1022764""
""focus"",""138"",""1037671""
","""event"",""trial"",""time""
""fullscreenenter"",""1"",""10724""
","""event"",""trial"",""time""
""fullscreenexit"",""117"",""883424""
","","","1430.1050000067335","","","23","19841","7294","&#9730;","elianto","#3366ff99"," "," ","1","+10","[2280.7249999896158]","1","1","","","19841","20","1","1","win","go","0"
"pit-instructions","138","1047178","0.0-24.0","battery-v0.2","","""event"",""trial"",""time""
""fullscreenenter"",""1"",""10724""
""fullscreenexit"",""117"",""883424""
""blur"",""117"",""894190""
""focus"",""117"",""925716""
""blur"",""117"",""925755""
""focus"",""117"",""929279""
""blur"",""117"",""929310""
""focus"",""117"",""929418""
""blur"",""117"",""929495""
""focus"",""117"",""943281""
""blur"",""128"",""984624""
""focus"",""134"",""1013304""
""blur"",""134"",""1015511""
""focus"",""136"",""1022764""
""blur"",""138"",""1035398""
""focus"",""138"",""1037671""
","""event"",""trial"",""time""
""blur"",""117"",""894190""
""blur"",""117"",""925755""
""blur"",""117"",""929310""
""blur"",""117"",""929495""
""blur"",""128"",""984624""
""blur"",""134"",""1015511""
""blur"",""138"",""1035398""
","""event"",""trial"",""time""
""focus"",""117"",""925716""
""focus"",""117"",""929279""
""focus"",""117"",""929418""
""focus"",""117"",""943281""
""focus"",""134"",""1013304""
""focus"",""136"",""1022764""
""focus"",""138"",""1037671""
","""event"",""trial"",""time""
""fullscreenenter"",""1"",""10724""
","""event"",""trial"",""time""
""fullscreenexit"",""117"",""883424""
","","[{""page_index"":0,""viewing_time"":8118.914999999106},{""page_index"":1,""viewing_time"":8956.185000017285}]","17075.63000000664","","","","","","","","","","","","","","","","","","","","","","","",""
"pit-trial","139","1050720","0.0-25.0","battery-v0.2","","""event"",""trial"",""time""
""fullscreenenter"",""1"",""10724""
""fullscreenexit"",""117"",""883424""
""blur"",""117"",""894190""
""focus"",""117"",""925716""
""blur"",""117"",""925755""
""focus"",""117"",""929279""
""blur"",""117"",""929310""
""focus"",""117"",""929418""
""blur"",""117"",""929495""
""focus"",""117"",""943281""
""blur"",""128"",""984624""
""focus"",""134"",""1013304""
""blur"",""134"",""1015511""
""focus"",""136"",""1022764""
""blur"",""138"",""1035398""
""focus"",""138"",""1037671""
""blur"",""140"",""1051759""
","""event"",""trial"",""time""
""blur"",""117"",""894190""
""blur"",""117"",""925755""
""blur"",""117"",""929310""
""blur"",""117"",""929495""
""blur"",""128"",""984624""
""blur"",""134"",""1015511""
""blur"",""138"",""1035398""
""blur"",""140"",""1051759""
","""event"",""trial"",""time""
""focus"",""117"",""925716""
""focus"",""117"",""929279""
""focus"",""117"",""929418""
""focus"",""117"",""943281""
""focus"",""134"",""1013304""
""focus"",""136"",""1022764""
""focus"",""138"",""1037671""
","""event"",""trial"",""time""
""fullscreenenter"",""1"",""10724""
","""event"",""trial"",""time""
""fullscreenexit"",""117"",""883424""
","","","684.7899999993388","","","23","19841","7294","u","elianto","#f73b6a7A"," "," ","1","0","[1536.2800000002608]","1","2","","","19841","21","0","3","lose","go","0"
"pit-trial","140","1055579","0.0-26.0","battery-v0.2","","""event"",""trial"",""time""
""fullscreenenter"",""1"",""10724""
""fullscreenexit"",""117"",""883424""
""blur"",""117"",""894190""
""focus"",""117"",""925716""
""blur"",""117"",""925755""
""focus"",""117"",""929279""
""blur"",""117"",""929310""
""focus"",""117"",""929418""
""blur"",""117"",""929495""
""focus"",""117"",""943281""
""blur"",""128"",""984624""
""focus"",""134"",""1013304""
""blur"",""134"",""1015511""
""focus"",""136"",""1022764""
""blur"",""138"",""1035398""
""focus"",""138"",""1037671""
""blur"",""140"",""1051759""
""focus"",""141"",""1060164""
","""event"",""trial"",""time""
""blur"",""117"",""894190""
""blur"",""117"",""925755""
""blur"",""117"",""929310""
""blur"",""117"",""929495""
""blur"",""128"",""984624""
""blur"",""134"",""1015511""
""blur"",""138"",""1035398""
""blur"",""140"",""1051759""
","""event"",""trial"",""time""
""focus"",""117"",""925716""
""focus"",""117"",""929279""
""focus"",""117"",""929418""
""focus"",""117"",""943281""
""focus"",""134"",""1013304""
""focus"",""136"",""1022764""
""focus"",""138"",""1037671""
""focus"",""141"",""1060164""
","""event"",""trial"",""time""
""fullscreenenter"",""1"",""10724""
","""event"",""trial"",""time""
""fullscreenexit"",""117"",""883424""
","","","-1","","","23","19841","7294","g","elianto","#f73b6a7A","-1","-1","1","-10","[]","0","2","","","19841","22","3","4","lose","no-go","1"
"pit-trial","141","1060437","0.0-27.0","battery-v0.2","","""event"",""trial"",""time""
""fullscreenenter"",""1"",""10724""
""fullscreenexit"",""117"",""883424""
""blur"",""117"",""894190""
""focus"",""117"",""925716""
""blur"",""117"",""925755""
""focus"",""117"",""929279""
""blur"",""117"",""929310""
""focus"",""117"",""929418""
""blur"",""117"",""929495""
""focus"",""117"",""943281""
""blur"",""128"",""984624""
""focus"",""134"",""1013304""
""blur"",""134"",""1015511""
""focus"",""136"",""1022764""
""blur"",""138"",""1035398""
""focus"",""138"",""1037671""
""blur"",""140"",""1051759""
""focus"",""141"",""1060164""
","""event"",""trial"",""time""
""blur"",""117"",""894190""
""blur"",""117"",""925755""
""blur"",""117"",""929310""
""blur"",""117"",""929495""
""blur"",""128"",""984624""
""blur"",""134"",""1015511""
""blur"",""138"",""1035398""
""blur"",""140"",""1051759""
","""event"",""trial"",""time""
""focus"",""117"",""925716""
""focus"",""117"",""929279""
""focus"",""117"",""929418""
""focus"",""117"",""943281""
""focus"",""134"",""1013304""
""focus"",""136"",""1022764""
""focus"",""138"",""1037671""
""focus"",""141"",""1060164""
","""event"",""trial"",""time""
""fullscreenenter"",""1"",""10724""
","""event"",""trial"",""time""
""fullscreenexit"",""117"",""883424""
","","","-1","","","23","19841","7294","a","elianto","#f73b6a7A"," ","-1","0","-10","[]","0","2","","","19841","23","2","3","lose","go","0"
"pit-trial","142","1065302","0.0-28.0","battery-v0.2","","""event"",""trial"",""time""
""fullscreenenter"",""1"",""10724""
""fullscreenexit"",""117"",""883424""
""blur"",""117"",""894190""
""focus"",""117"",""925716""
""blur"",""117"",""925755""
""focus"",""117"",""929279""
""blur"",""117"",""929310""
""focus"",""117"",""929418""
""blur"",""117"",""929495""
""focus"",""117"",""943281""
""blur"",""128"",""984624""
""focus"",""134"",""1013304""
""blur"",""134"",""1015511""
""focus"",""136"",""1022764""
""blur"",""138"",""1035398""
""focus"",""138"",""1037671""
""blur"",""140"",""1051759""
""focus"",""141"",""1060164""
","""event"",""trial"",""time""
""blur"",""117"",""894190""
""blur"",""117"",""925755""
""blur"",""117"",""929310""
""blur"",""117"",""929495""
""blur"",""128"",""984624""
""blur"",""134"",""1015511""
""blur"",""138"",""1035398""
""blur"",""140"",""1051759""
","""event"",""trial"",""time""
""focus"",""117"",""925716""
""focus"",""117"",""929279""
""focus"",""117"",""929418""
""focus"",""117"",""943281""
""focus"",""134"",""1013304""
""focus"",""136"",""1022764""
""focus"",""138"",""1037671""
""focus"",""141"",""1060164""
","""event"",""trial"",""time""
""fullscreenenter"",""1"",""10724""
","""event"",""trial"",""time""
""fullscreenexit"",""117"",""883424""
","","","-1","","","23","19841","7294","l","elianto","#3366ff99","-1","-1","1","+10","[2899.7399999934714]","1","2","","","19841","24","1","2","win","no-go","0"
"pit-trial","143","1070160","0.0-29.0","battery-v0.2","","""event"",""trial"",""time""
""fullscreenenter"",""1"",""10724""
""fullscreenexit"",""117"",""883424""
""blur"",""117"",""894190""
""focus"",""117"",""925716""
""blur"",""117"",""925755""
""focus"",""117"",""929279""
""blur"",""117"",""929310""
""focus"",""117"",""929418""
""blur"",""117"",""929495""
""focus"",""117"",""943281""
""blur"",""128"",""984624""
""focus"",""134"",""1013304""
""blur"",""134"",""1015511""
""focus"",""136"",""1022764""
""blur"",""138"",""1035398""
""focus"",""138"",""1037671""
""blur"",""140"",""1051759""
""focus"",""141"",""1060164""
","""event"",""trial"",""time""
""blur"",""117"",""894190""
""blur"",""117"",""925755""
""blur"",""117"",""929310""
""blur"",""117"",""929495""
""blur"",""128"",""984624""
""blur"",""134"",""1015511""
""blur"",""138"",""1035398""
""blur"",""140"",""1051759""
","""event"",""trial"",""time""
""focus"",""117"",""925716""
""focus"",""117"",""929279""
""focus"",""117"",""929418""
""focus"",""117"",""943281""
""focus"",""134"",""1013304""
""focus"",""136"",""1022764""
""focus"",""138"",""1037671""
""focus"",""141"",""1060164""
","""event"",""trial"",""time""
""fullscreenenter"",""1"",""10724""
","""event"",""trial"",""time""
""fullscreenexit"",""117"",""883424""
","","","-1","","","23","19841","7294","a","elianto","#f73b6a7A"," ","-1","0","-10","[]","0","2","","","19841","25","2","3","lose","go","0"
"pit-trial","144","1074548","0.0-30.0","battery-v0.2","","""event"",""trial"",""time""
""fullscreenenter"",""1"",""10724""
""fullscreenexit"",""117"",""883424""
""blur"",""117"",""894190""
""focus"",""117"",""925716""
""blur"",""117"",""925755""
""focus"",""117"",""929279""
""blur"",""117"",""929310""
""focus"",""117"",""929418""
""blur"",""117"",""929495""
""focus"",""117"",""943281""
""blur"",""128"",""984624""
""focus"",""134"",""1013304""
""blur"",""134"",""1015511""
""focus"",""136"",""1022764""
""blur"",""138"",""1035398""
""focus"",""138"",""1037671""
""blur"",""140"",""1051759""
""focus"",""141"",""1060164""
","""event"",""trial"",""time""
""blur"",""117"",""894190""
""blur"",""117"",""925755""
""blur"",""117"",""929310""
""blur"",""117"",""929495""
""blur"",""128"",""984624""
""blur"",""134"",""1015511""
""blur"",""138"",""1035398""
""blur"",""140"",""1051759""
","""event"",""trial"",""time""
""focus"",""117"",""925716""
""focus"",""117"",""929279""
""focus"",""117"",""929418""
""focus"",""117"",""943281""
""focus"",""134"",""1013304""
""focus"",""136"",""1022764""
""focus"",""138"",""1037671""
""focus"",""141"",""1060164""
","""event"",""trial"",""time""
""fullscreenenter"",""1"",""10724""
","""event"",""trial"",""time""
""fullscreenexit"",""117"",""883424""
","","","1530.9950000082608","","","23","19841","7294","u","elianto","#f73b6a7A"," "," ","1","0","[2381.179999996675]","1","2","","","19841","26","0","3","lose","go","0"
"pit-trial","145","1079005","0.0-31.0","battery-v0.2","","""event"",""trial"",""time""
""fullscreenenter"",""1"",""10724""
""fullscreenexit"",""117"",""883424""
""blur"",""117"",""894190""
""focus"",""117"",""925716""
""blur"",""117"",""925755""
""focus"",""117"",""929279""
""blur"",""117"",""929310""
""focus"",""117"",""929418""
""blur"",""117"",""929495""
""focus"",""117"",""943281""
""blur"",""128"",""984624""
""focus"",""134"",""1013304""
""blur"",""134"",""1015511""
""focus"",""136"",""1022764""
""blur"",""138"",""1035398""
""focus"",""138"",""1037671""
""blur"",""140"",""1051759""
""focus"",""141"",""1060164""
","""event"",""trial"",""time""
""blur"",""117"",""894190""
""blur"",""117"",""925755""
""blur"",""117"",""929310""
""blur"",""117"",""929495""
""blur"",""128"",""984624""
""blur"",""134"",""1015511""
""blur"",""138"",""1035398""
""blur"",""140"",""1051759""
","""event"",""trial"",""time""
""focus"",""117"",""925716""
""focus"",""117"",""929279""
""focus"",""117"",""929418""
""focus"",""117"",""943281""
""focus"",""134"",""1013304""
""focus"",""136"",""1022764""
""focus"",""138"",""1037671""
""focus"",""141"",""1060164""
","""event"",""trial"",""time""
""fullscreenenter"",""1"",""10724""
","""event"",""trial"",""time""
""fullscreenexit"",""117"",""883424""
","","","1598.2099999964703","","","23","19841","7294","l","elianto","#3366ff99","-1"," ","0","+10","[2451.1050000146497]","1","2","","","19841","27","1","2","win","no-go","1"
"pit-trial","146","1083858","0.0-32.0","battery-v0.2","","""event"",""trial"",""time""
""fullscreenenter"",""1"",""10724""
""fullscreenexit"",""117"",""883424""
""blur"",""117"",""894190""
""focus"",""117"",""925716""
""blur"",""117"",""925755""
""focus"",""117"",""929279""
""blur"",""117"",""929310""
""focus"",""117"",""929418""
""blur"",""117"",""929495""
""focus"",""117"",""943281""
""blur"",""128"",""984624""
""focus"",""134"",""1013304""
""blur"",""134"",""1015511""
""focus"",""136"",""1022764""
""blur"",""138"",""1035398""
""focus"",""138"",""1037671""
""blur"",""140"",""1051759""
""focus"",""141"",""1060164""
","""event"",""trial"",""time""
""blur"",""117"",""894190""
""blur"",""117"",""925755""
""blur"",""117"",""929310""
""blur"",""117"",""929495""
""blur"",""128"",""984624""
""blur"",""134"",""1015511""
""blur"",""138"",""1035398""
""blur"",""140"",""1051759""
","""event"",""trial"",""time""
""focus"",""117"",""925716""
""focus"",""117"",""929279""
""focus"",""117"",""929418""
""focus"",""117"",""943281""
""focus"",""134"",""1013304""
""focus"",""136"",""1022764""
""focus"",""138"",""1037671""
""focus"",""141"",""1060164""
","""event"",""trial"",""time""
""fullscreenenter"",""1"",""10724""
","""event"",""trial"",""time""
""fullscreenexit"",""117"",""883424""
","","","-1","","","23","19841","7294","g","elianto","#f73b6a7A","-1","-1","1","0","[3619.8399999993853]","1","2","","","19841","28","3","4","lose","no-go","0"
"pit-trial","147","1086937","0.0-33.0","battery-v0.2","","""event"",""trial"",""time""
""fullscreenenter"",""1"",""10724""
""fullscreenexit"",""117"",""883424""
""blur"",""117"",""894190""
""focus"",""117"",""925716""
""blur"",""117"",""925755""
""focus"",""117"",""929279""
""blur"",""117"",""929310""
""focus"",""117"",""929418""
""blur"",""117"",""929495""
""focus"",""117"",""943281""
""blur"",""128"",""984624""
""focus"",""134"",""1013304""
""blur"",""134"",""1015511""
""focus"",""136"",""1022764""
""blur"",""138"",""1035398""
""focus"",""138"",""1037671""
""blur"",""140"",""1051759""
""focus"",""141"",""1060164""
","""event"",""trial"",""time""
""blur"",""117"",""894190""
""blur"",""117"",""925755""
""blur"",""117"",""929310""
""blur"",""117"",""929495""
""blur"",""128"",""984624""
""blur"",""134"",""1015511""
""blur"",""138"",""1035398""
""blur"",""140"",""1051759""
","""event"",""trial"",""time""
""focus"",""117"",""925716""
""focus"",""117"",""929279""
""focus"",""117"",""929418""
""focus"",""117"",""943281""
""focus"",""134"",""1013304""
""focus"",""136"",""1022764""
""focus"",""138"",""1037671""
""focus"",""141"",""1060164""
","""event"",""trial"",""time""
""fullscreenenter"",""1"",""10724""
","""event"",""trial"",""time""
""fullscreenexit"",""117"",""883424""
","","","146.9750000105705","","","23","19841","7294","u","elianto","#f73b6a7A"," "," ","1","0","[1004.2750000138767]","1","2","","","19841","29","0","3","lose","go","0"
"pit-trial","148","1091798","0.0-34.0","battery-v0.2","","""event"",""trial"",""time""
""fullscreenenter"",""1"",""10724""
""fullscreenexit"",""117"",""883424""
""blur"",""117"",""894190""
""focus"",""117"",""925716""
""blur"",""117"",""925755""
""focus"",""117"",""929279""
""blur"",""117"",""929310""
""focus"",""117"",""929418""
""blur"",""117"",""929495""
""focus"",""117"",""943281""
""blur"",""128"",""984624""
""focus"",""134"",""1013304""
""blur"",""134"",""1015511""
""focus"",""136"",""1022764""
""blur"",""138"",""1035398""
""focus"",""138"",""1037671""
""blur"",""140"",""1051759""
""focus"",""141"",""1060164""
","""event"",""trial"",""time""
""blur"",""117"",""894190""
""blur"",""117"",""925755""
""blur"",""117"",""929310""
""blur"",""117"",""929495""
""blur"",""128"",""984624""
""blur"",""134"",""1015511""
""blur"",""138"",""1035398""
""blur"",""140"",""1051759""
","""event"",""trial"",""time""
""focus"",""117"",""925716""
""focus"",""117"",""929279""
""focus"",""117"",""929418""
""focus"",""117"",""943281""
""focus"",""134"",""1013304""
""focus"",""136"",""1022764""
""focus"",""138"",""1037671""
""focus"",""141"",""1060164""
","""event"",""trial"",""time""
""fullscreenenter"",""1"",""10724""
","""event"",""trial"",""time""
""fullscreenexit"",""117"",""883424""
","","","-1","","","23","19841","7294","g","elianto","#f73b6a7A","-1","-1","1","-10","[]","0","2","","","19841","30","3","4","lose","no-go","1"
"pit-trial","149","1095310","0.0-35.0","battery-v0.2","","""event"",""trial"",""time""
""fullscreenenter"",""1"",""10724""
""fullscreenexit"",""117"",""883424""
""blur"",""117"",""894190""
""focus"",""117"",""925716""
""blur"",""117"",""925755""
""focus"",""117"",""929279""
""blur"",""117"",""929310""
""focus"",""117"",""929418""
""blur"",""117"",""929495""
""focus"",""117"",""943281""
""blur"",""128"",""984624""
""focus"",""134"",""1013304""
""blur"",""134"",""1015511""
""focus"",""136"",""1022764""
""blur"",""138"",""1035398""
""focus"",""138"",""1037671""
""blur"",""140"",""1051759""
""focus"",""141"",""1060164""
","""event"",""trial"",""time""
""blur"",""117"",""894190""
""blur"",""117"",""925755""
""blur"",""117"",""929310""
""blur"",""117"",""929495""
""blur"",""128"",""984624""
""blur"",""134"",""1015511""
""blur"",""138"",""1035398""
""blur"",""140"",""1051759""
","""event"",""trial"",""time""
""focus"",""117"",""925716""
""focus"",""117"",""929279""
""focus"",""117"",""929418""
""focus"",""117"",""943281""
""focus"",""134"",""1013304""
""focus"",""136"",""1022764""
""focus"",""138"",""1037671""
""focus"",""141"",""1060164""
","""event"",""trial"",""time""
""fullscreenenter"",""1"",""10724""
","""event"",""trial"",""time""
""fullscreenexit"",""117"",""883424""
","","","654.1549999965355","","","23","19841","7294","a","elianto","#f73b6a7A"," "," ","1","-10","[714.8900000029244,1507.5899999937974]","2","2","","","19841","31","2","3","lose","go","1"
"pit-trial","150","1100170","0.0-36.0","battery-v0.2","","""event"",""trial"",""time""
""fullscreenenter"",""1"",""10724""
""fullscreenexit"",""117"",""883424""
""blur"",""117"",""894190""
""focus"",""117"",""925716""
""blur"",""117"",""925755""
""focus"",""117"",""929279""
""blur"",""117"",""929310""
""focus"",""117"",""929418""
""blur"",""117"",""929495""
""focus"",""117"",""943281""
""blur"",""128"",""984624""
""focus"",""134"",""1013304""
""blur"",""134"",""1015511""
""focus"",""136"",""1022764""
""blur"",""138"",""1035398""
""focus"",""138"",""1037671""
""blur"",""140"",""1051759""
""focus"",""141"",""1060164""
","""event"",""trial"",""time""
""blur"",""117"",""894190""
""blur"",""117"",""925755""
""blur"",""117"",""929310""
""blur"",""117"",""929495""
""blur"",""128"",""984624""
""blur"",""134"",""1015511""
""blur"",""138"",""1035398""
""blur"",""140"",""1051759""
","""event"",""trial"",""time""
""focus"",""117"",""925716""
""focus"",""117"",""929279""
""focus"",""117"",""929418""
""focus"",""117"",""943281""
""focus"",""134"",""1013304""
""focus"",""136"",""1022764""
""focus"",""138"",""1037671""
""focus"",""141"",""1060164""
","""event"",""trial"",""time""
""fullscreenenter"",""1"",""10724""
","""event"",""trial"",""time""
""fullscreenexit"",""117"",""883424""
","","","-1","","","23","19841","7294","l","elianto","#3366ff99","-1","-1","1","+10","[2915.81999999471]","1","2","","","19841","32","1","2","win","no-go","0"
"pit-trial","151","1105028","0.0-37.0","battery-v0.2","","""event"",""trial"",""time""
""fullscreenenter"",""1"",""10724""
""fullscreenexit"",""117"",""883424""
""blur"",""117"",""894190""
""focus"",""117"",""925716""
""blur"",""117"",""925755""
""focus"",""117"",""929279""
""blur"",""117"",""929310""
""focus"",""117"",""929418""
""blur"",""117"",""929495""
""focus"",""117"",""943281""
""blur"",""128"",""984624""
""focus"",""134"",""1013304""
""blur"",""134"",""1015511""
""focus"",""136"",""1022764""
""blur"",""138"",""1035398""
""focus"",""138"",""1037671""
""blur"",""140"",""1051759""
""focus"",""141"",""1060164""
","""event"",""trial"",""time""
""blur"",""117"",""894190""
""blur"",""117"",""925755""
""blur"",""117"",""929310""
""blur"",""117"",""929495""
""blur"",""128"",""984624""
""blur"",""134"",""1015511""
""blur"",""138"",""1035398""
""blur"",""140"",""1051759""
","""event"",""trial"",""time""
""focus"",""117"",""925716""
""focus"",""117"",""929279""
""focus"",""117"",""929418""
""focus"",""117"",""943281""
""focus"",""134"",""1013304""
""focus"",""136"",""1022764""
""focus"",""138"",""1037671""
""focus"",""141"",""1060164""
","""event"",""trial"",""time""
""fullscreenenter"",""1"",""10724""
","""event"",""trial"",""time""
""fullscreenexit"",""117"",""883424""
","","","-1","","","23","19841","7294","l","elianto","#3366ff99","-1","-1","1","+10","[]","0","2","","","19841","33","1","2","win","no-go","0"
"pit-trial","152","1107997","0.0-38.0","battery-v0.2","","""event"",""trial"",""time""
""fullscreenenter"",""1"",""10724""
""fullscreenexit"",""117"",""883424""
""blur"",""117"",""894190""
""focus"",""117"",""925716""
""blur"",""117"",""925755""
""focus"",""117"",""929279""
""blur"",""117"",""929310""
""focus"",""117"",""929418""
""blur"",""117"",""929495""
""focus"",""117"",""943281""
""blur"",""128"",""984624""
""focus"",""134"",""1013304""
""blur"",""134"",""1015511""
""focus"",""136"",""1022764""
""blur"",""138"",""1035398""
""focus"",""138"",""1037671""
""blur"",""140"",""1051759""
""focus"",""141"",""1060164""
","""event"",""trial"",""time""
""blur"",""117"",""894190""
""blur"",""117"",""925755""
""blur"",""117"",""929310""
""blur"",""117"",""929495""
""blur"",""128"",""984624""
""blur"",""134"",""1015511""
""blur"",""138"",""1035398""
""blur"",""140"",""1051759""
","""event"",""trial"",""time""
""focus"",""117"",""925716""
""focus"",""117"",""929279""
""focus"",""117"",""929418""
""focus"",""117"",""943281""
""focus"",""134"",""1013304""
""focus"",""136"",""1022764""
""focus"",""138"",""1037671""
""focus"",""141"",""1060164""
","""event"",""trial"",""time""
""fullscreenenter"",""1"",""10724""
","""event"",""trial"",""time""
""fullscreenexit"",""117"",""883424""
","","","111.17999997804873","","","23","19841","7294","g","elianto","#f73b6a7A","-1"," ","0","0","[961.6800000076182]","1","2","","","19841","34","3","4","lose","no-go","1"
"pit-trial","153","1112851","0.0-39.0","battery-v0.2","","""event"",""trial"",""time""
""fullscreenenter"",""1"",""10724""
""fullscreenexit"",""117"",""883424""
""blur"",""117"",""894190""
""focus"",""117"",""925716""
""blur"",""117"",""925755""
""focus"",""117"",""929279""
""blur"",""117"",""929310""
""focus"",""117"",""929418""
""blur"",""117"",""929495""
""focus"",""117"",""943281""
""blur"",""128"",""984624""
""focus"",""134"",""1013304""
""blur"",""134"",""1015511""
""focus"",""136"",""1022764""
""blur"",""138"",""1035398""
""focus"",""138"",""1037671""
""blur"",""140"",""1051759""
""focus"",""141"",""1060164""
","""event"",""trial"",""time""
""blur"",""117"",""894190""
""blur"",""117"",""925755""
""blur"",""117"",""929310""
""blur"",""117"",""929495""
""blur"",""128"",""984624""
""blur"",""134"",""1015511""
""blur"",""138"",""1035398""
""blur"",""140"",""1051759""
","""event"",""trial"",""time""
""focus"",""117"",""925716""
""focus"",""117"",""929279""
""focus"",""117"",""929418""
""focus"",""117"",""943281""
""focus"",""134"",""1013304""
""focus"",""136"",""1022764""
""focus"",""138"",""1037671""
""focus"",""141"",""1060164""
","""event"",""trial"",""time""
""fullscreenenter"",""1"",""10724""
","""event"",""trial"",""time""
""fullscreenexit"",""117"",""883424""
","","","-1","","","23","19841","7294","a","elianto","#f73b6a7A"," ","-1","0","0","[4240.985000011278]","1","2","","","19841","35","2","3","lose","go","1"
"pit-trial","154","1117709","0.0-40.0","battery-v0.2","","""event"",""trial"",""time""
""fullscreenenter"",""1"",""10724""
""fullscreenexit"",""117"",""883424""
""blur"",""117"",""894190""
""focus"",""117"",""925716""
""blur"",""117"",""925755""
""focus"",""117"",""929279""
""blur"",""117"",""929310""
""focus"",""117"",""929418""
""blur"",""117"",""929495""
""focus"",""117"",""943281""
""blur"",""128"",""984624""
""focus"",""134"",""1013304""
""blur"",""134"",""1015511""
""focus"",""136"",""1022764""
""blur"",""138"",""1035398""
""focus"",""138"",""1037671""
""blur"",""140"",""1051759""
""focus"",""141"",""1060164""
","""event"",""trial"",""time""
""blur"",""117"",""894190""
""blur"",""117"",""925755""
""blur"",""117"",""929310""
""blur"",""117"",""929495""
""blur"",""128"",""984624""
""blur"",""134"",""1015511""
""blur"",""138"",""1035398""
""blur"",""140"",""1051759""
","""event"",""trial"",""time""
""focus"",""117"",""925716""
""focus"",""117"",""929279""
""focus"",""117"",""929418""
""focus"",""117"",""943281""
""focus"",""134"",""1013304""
""focus"",""136"",""1022764""
""focus"",""138"",""1037671""
""focus"",""141"",""1060164""
","""event"",""trial"",""time""
""fullscreenenter"",""1"",""10724""
","""event"",""trial"",""time""
""fullscreenexit"",""117"",""883424""
","","","-1","","","23","19841","7294","u","elianto","#f73b6a7A"," ","-1","0","-10","[3342.145000002347]","1","2","","","19841","36","0","3","lose","go","0"
"pit-trial","155","1122567","0.0-41.0","battery-v0.2","","""event"",""trial"",""time""
""fullscreenenter"",""1"",""10724""
""fullscreenexit"",""117"",""883424""
""blur"",""117"",""894190""
""focus"",""117"",""925716""
""blur"",""117"",""925755""
""focus"",""117"",""929279""
""blur"",""117"",""929310""
""focus"",""117"",""929418""
""blur"",""117"",""929495""
""focus"",""117"",""943281""
""blur"",""128"",""984624""
""focus"",""134"",""1013304""
""blur"",""134"",""1015511""
""focus"",""136"",""1022764""
""blur"",""138"",""1035398""
""focus"",""138"",""1037671""
""blur"",""140"",""1051759""
""focus"",""141"",""1060164""
","""event"",""trial"",""time""
""blur"",""117"",""894190""
""blur"",""117"",""925755""
""blur"",""117"",""929310""
""blur"",""117"",""929495""
""blur"",""128"",""984624""
""blur"",""134"",""1015511""
""blur"",""138"",""1035398""
""blur"",""140"",""1051759""
","""event"",""trial"",""time""
""focus"",""117"",""925716""
""focus"",""117"",""929279""
""focus"",""117"",""929418""
""focus"",""117"",""943281""
""focus"",""134"",""1013304""
""focus"",""136"",""1022764""
""focus"",""138"",""1037671""
""focus"",""141"",""1060164""
","""event"",""trial"",""time""
""fullscreenenter"",""1"",""10724""
","""event"",""trial"",""time""
""fullscreenexit"",""117"",""883424""
","","","-1","","","23","19841","7294","u","elianto","#f73b6a7A"," ","-1","0","-10","[]","0","2","","","19841","37","0","3","lose","go","0"
"pit-trial","156","1127142","0.0-42.0","battery-v0.2","","""event"",""trial"",""time""
""fullscreenenter"",""1"",""10724""
""fullscreenexit"",""117"",""883424""
""blur"",""117"",""894190""
""focus"",""117"",""925716""
""blur"",""117"",""925755""
""focus"",""117"",""929279""
""blur"",""117"",""929310""
""focus"",""117"",""929418""
""blur"",""117"",""929495""
""focus"",""117"",""943281""
""blur"",""128"",""984624""
""focus"",""134"",""1013304""
""blur"",""134"",""1015511""
""focus"",""136"",""1022764""
""blur"",""138"",""1035398""
""focus"",""138"",""1037671""
""blur"",""140"",""1051759""
""focus"",""141"",""1060164""
","""event"",""trial"",""time""
""blur"",""117"",""894190""
""blur"",""117"",""925755""
""blur"",""117"",""929310""
""blur"",""117"",""929495""
""blur"",""128"",""984624""
""blur"",""134"",""1015511""
""blur"",""138"",""1035398""
""blur"",""140"",""1051759""
","""event"",""trial"",""time""
""focus"",""117"",""925716""
""focus"",""117"",""929279""
""focus"",""117"",""929418""
""focus"",""117"",""943281""
""focus"",""134"",""1013304""
""focus"",""136"",""1022764""
""focus"",""138"",""1037671""
""focus"",""141"",""1060164""
","""event"",""trial"",""time""
""fullscreenenter"",""1"",""10724""
","""event"",""trial"",""time""
""fullscreenexit"",""117"",""883424""
","","","1719.9949999921955","","","23","19841","7294","g","elianto","#f73b6a7A","-1"," ","0","-10","[2570.57499999064]","1","2","","","19841","38","3","4","lose","no-go","0"
"pit-trial","157","1132003","0.0-43.0","battery-v0.2","","""event"",""trial"",""time""
""fullscreenenter"",""1"",""10724""
""fullscreenexit"",""117"",""883424""
""blur"",""117"",""894190""
""focus"",""117"",""925716""
""blur"",""117"",""925755""
""focus"",""117"",""929279""
""blur"",""117"",""929310""
""focus"",""117"",""929418""
""blur"",""117"",""929495""
""focus"",""117"",""943281""
""blur"",""128"",""984624""
""focus"",""134"",""1013304""
""blur"",""134"",""1015511""
""focus"",""136"",""1022764""
""blur"",""138"",""1035398""
""focus"",""138"",""1037671""
""blur"",""140"",""1051759""
""focus"",""141"",""1060164""
","""event"",""trial"",""time""
""blur"",""117"",""894190""
""blur"",""117"",""925755""
""blur"",""117"",""929310""
""blur"",""117"",""929495""
""blur"",""128"",""984624""
""blur"",""134"",""1015511""
""blur"",""138"",""1035398""
""blur"",""140"",""1051759""
","""event"",""trial"",""time""
""focus"",""117"",""925716""
""focus"",""117"",""929279""
""focus"",""117"",""929418""
""focus"",""117"",""943281""
""focus"",""134"",""1013304""
""focus"",""136"",""1022764""
""focus"",""138"",""1037671""
""focus"",""141"",""1060164""
","""event"",""trial"",""time""
""fullscreenenter"",""1"",""10724""
","""event"",""trial"",""time""
""fullscreenexit"",""117"",""883424""
","","","-1","","","23","19841","7294","a","elianto","#f73b6a7A"," ","-1","0","-10","[3109.3349999864586]","1","2","","","19841","39","2","3","lose","go","0"
"pit-trial","158","1134889","0.0-44.0","battery-v0.2","","""event"",""trial"",""time""
""fullscreenenter"",""1"",""10724""
""fullscreenexit"",""117"",""883424""
""blur"",""117"",""894190""
""focus"",""117"",""925716""
""blur"",""117"",""925755""
""focus"",""117"",""929279""
""blur"",""117"",""929310""
""focus"",""117"",""929418""
""blur"",""117"",""929495""
