"trial_type","trial_index","time_elapsed","internal_node_id","task_version","subject_id","interactions","blur_events","focus_events","fullscreenenter_events","fullscreenexit_events","success","view_history","rt","responses","num_errors","age","subject","participantId","rune","rune_set","hex","correct","choice","accuracy","outcome","keys","total_keys","block","practice","value","sub","trial","stimulus","robot","valence","action","sham"
"pavlovia","0","8","0.0-0.0","battery-v0.2","","""event"",""trial"",""time""
""fullscreenenter"",""1"",""2738""
""fullscreenenter"",""1"",""2739""
","
","
","""event"",""trial"",""time""
""fullscreenenter"",""1"",""2738""
""fullscreenenter"",""1"",""2739""
","
","","","","","","","","","","","","","","","","","","","","","","","","","","",""
"fullscreen","1","3648","0.0-1.0","battery-v0.2","","""event"",""trial"",""time""
""fullscreenenter"",""1"",""2738""
""fullscreenenter"",""1"",""2739""
","
","
","""event"",""trial"",""time""
""fullscreenenter"",""1"",""2738""
""fullscreenenter"",""1"",""2739""
","
","true","","","","","","","","","","","","","","","","","","","","","","","","","",""
"pit-instructions","2","10250","0.0-2.0-0.0","battery-v0.2","","""event"",""trial"",""time""
""fullscreenenter"",""1"",""2738""
""fullscreenenter"",""1"",""2739""
","
","
","""event"",""trial"",""time""
""fullscreenenter"",""1"",""2738""
""fullscreenenter"",""1"",""2739""
","
","","[{""page_index"":0,""viewing_time"":6598}]","6598","","","","","","","","","","","","","","","","","","","","","","","",""
"pit-comprehension","3","13572","0.0-2.0-1.0-0.0","battery-v0.2","","""event"",""trial"",""time""
""fullscreenenter"",""1"",""2738""
""fullscreenenter"",""1"",""2739""
","
","
","""event"",""trial"",""time""
""fullscreenenter"",""1"",""2738""
""fullscreenenter"",""1"",""2739""
","
","","","3248","[""shark""]","0","19","10980","3830","","","","","","","","","","","","","","","","","","",""
"pit-instructions","4","18060","0.0-2.0-1.0-1.0","battery-v0.2","","""event"",""trial"",""time""
""fullscreenenter"",""1"",""2738""
""fullscreenenter"",""1"",""2739""
","
","
","""event"",""trial"",""time""
""fullscreenenter"",""1"",""2738""
""fullscreenenter"",""1"",""2739""
","
","","[{""page_index"":0,""viewing_time"":4481.000000000004}]","4481.000000000004","","","","","","","","","","","","","","","","","","","","","","","",""
"pit-comprehension","5","20423","0.0-2.0-2.0-0.0","battery-v0.2","","""event"",""trial"",""time""
""fullscreenenter"",""1"",""2738""
""fullscreenenter"",""1"",""2739""
","
","
","""event"",""trial"",""time""
""fullscreenenter"",""1"",""2738""
""fullscreenenter"",""1"",""2739""
","
","","","2359.9999999999964","[""tiger""]","0","19","10980","3830","","","","","","","","","","","","","","","","","","",""
"pit-instructions","6","21712","0.0-2.0-2.0-1.0","battery-v0.2","","""event"",""trial"",""time""
""fullscreenenter"",""1"",""2738""
""fullscreenenter"",""1"",""2739""
","
","
","""event"",""trial"",""time""
""fullscreenenter"",""1"",""2738""
""fullscreenenter"",""1"",""2739""
","
","","[{""page_index"":0,""viewing_time"":1285}]","1285","","","","","","","","","","","","","","","","","","","","","","","",""
"pit-instructions","7","145544","0.0-2.0-3.0","battery-v0.2","","""event"",""trial"",""time""
""fullscreenenter"",""1"",""2738""
""fullscreenenter"",""1"",""2739""
","
","
","""event"",""trial"",""time""
""fullscreenenter"",""1"",""2738""
""fullscreenenter"",""1"",""2739""
","
","","[{""page_index"":0,""viewing_time"":13811},{""page_index"":1,""viewing_time"":6328},{""page_index"":2,""viewing_time"":11074},{""page_index"":3,""viewing_time"":5016},{""page_index"":4,""viewing_time"":12345},{""page_index"":5,""viewing_time"":10502},{""page_index"":6,""viewing_time"":5090},{""page_index"":7,""viewing_time"":8882.000000000015},{""page_index"":8,""viewing_time"":6324.999999999985},{""page_index"":9,""viewing_time"":10129},{""page_index"":10,""viewing_time"":14149},{""page_index"":11,""viewing_time"":4226},{""page_index"":12,""viewing_time"":6640.000000000029},{""page_index"":13,""viewing_time"":9277.99999999997}]","123796","","","","","","","","","","","","","","","","","","","","","","","",""
"pit-trial","8","149027","0.0-2.0-4.0-0.0","battery-v0.2","","""event"",""trial"",""time""
""fullscreenenter"",""1"",""2738""
""fullscreenenter"",""1"",""2739""
","
","
","""event"",""trial"",""time""
""fullscreenenter"",""1"",""2738""
""fullscreenenter"",""1"",""2739""
","
","","","629","","","19","10980","3830","&#9784;","elianto","#FFFFF080"," "," ","1","&#10004","[1480]","1","0","0","","","","","","","",""
"pit-trial","9","152542","0.0-2.0-4.1-0.1","battery-v0.2","","""event"",""trial"",""time""
""fullscreenenter"",""1"",""2738""
""fullscreenenter"",""1"",""2739""
","
","
","""event"",""trial"",""time""
""fullscreenenter"",""1"",""2738""
""fullscreenenter"",""1"",""2739""
","
","","","660","","","19","10980","3830","&#9784;","elianto","#FFFFF080"," "," ","1","&#10004","[1511]","1","0","0","","","","","","","",""
"pit-trial","10","156037","0.0-2.0-4.2-0.2","battery-v0.2","","""event"",""trial"",""time""
""fullscreenenter"",""1"",""2738""
""fullscreenenter"",""1"",""2739""
","
","
","""event"",""trial"",""time""
""fullscreenenter"",""1"",""2738""
""fullscreenenter"",""1"",""2739""
","
","","","642","","","19","10980","3830","&#9784;","elianto","#FFFFF080"," "," ","1","&#10004","[1492]","1","0","0","","","","","","","",""
"pit-trial","11","159743","0.0-2.0-4.3-0.3","battery-v0.2","","""event"",""trial"",""time""
""fullscreenenter"",""1"",""2738""
""fullscreenenter"",""1"",""2739""
","
","
","""event"",""trial"",""time""
""fullscreenenter"",""1"",""2738""
""fullscreenenter"",""1"",""2739""
","
","","","851.9999999999709","","","19","10980","3830","&#9784;","elianto","#FFFFF080"," "," ","1","&#10004","[1703]","1","0","0","","","","","","","",""
"pit-trial","12","163277","0.0-2.0-4.4-0.4","battery-v0.2","","""event"",""trial"",""time""
""fullscreenenter"",""1"",""2738""
""fullscreenenter"",""1"",""2739""
","
","
","""event"",""trial"",""time""
""fullscreenenter"",""1"",""2738""
""fullscreenenter"",""1"",""2739""
","
","","","679","","","19","10980","3830","&#9784;","elianto","#FFFFF080"," "," ","1","&#10004","[1531]","1","0","0","","","","","","","",""
"pit-instructions","13","186751","0.0-2.0-5.0","battery-v0.2","","""event"",""trial"",""time""
""fullscreenenter"",""1"",""2738""
""fullscreenenter"",""1"",""2739""
","
","
","""event"",""trial"",""time""
""fullscreenenter"",""1"",""2738""
""fullscreenenter"",""1"",""2739""
","
","","[{""page_index"":0,""viewing_time"":6019},{""page_index"":1,""viewing_time"":6786},{""page_index"":2,""viewing_time"":4611},{""page_index"":3,""viewing_time"":6055}]","23471","","","","","","","","","","","","","","","","","","","","","","","",""
"pit-trial","14","191605","0.0-2.0-6.0-0.0","battery-v0.2","","""event"",""trial"",""time""
""fullscreenenter"",""1"",""2738""
""fullscreenenter"",""1"",""2739""
","
","
","""event"",""trial"",""time""
""fullscreenenter"",""1"",""2738""
""fullscreenenter"",""1"",""2739""
","
","","","-1","","","19","10980","3830","&#9854;","elianto","#FFFFF080","-1","-1","1","&#10004","[]","0","0","1","","","","","","","",""
"pit-trial","15","196460","0.0-2.0-6.1-0.1","battery-v0.2","","""event"",""trial"",""time""
""fullscreenenter"",""1"",""2738""
""fullscreenenter"",""1"",""2739""
","
","
","""event"",""trial"",""time""
""fullscreenenter"",""1"",""2738""
""fullscreenenter"",""1"",""2739""
","
","","","-1","","","19","10980","3830","&#9854;","elianto","#FFFFF080","-1","-1","1","&#10004","[]","0","0","1","","","","","","","",""
"pit-trial","16","201314","0.0-2.0-6.2-0.2","battery-v0.2","","""event"",""trial"",""time""
""fullscreenenter"",""1"",""2738""
""fullscreenenter"",""1"",""2739""
","
","
","""event"",""trial"",""time""
""fullscreenenter"",""1"",""2738""
""fullscreenenter"",""1"",""2739""
","
","","","-1","","","19","10980","3830","&#9854;","elianto","#FFFFF080","-1","-1","1","&#10004","[]","0","0","1","","","","","","","",""
"pit-trial","17","206167","0.0-2.0-6.3-0.3","battery-v0.2","","""event"",""trial"",""time""
""fullscreenenter"",""1"",""2738""
""fullscreenenter"",""1"",""2739""
","
","
","""event"",""trial"",""time""
""fullscreenenter"",""1"",""2738""
""fullscreenenter"",""1"",""2739""
","
","","","-1","","","19","10980","3830","&#9854;","elianto","#FFFFF080","-1","-1","1","&#10004","[]","0","0","1","","","","","","","",""
"pit-trial","18","211021","0.0-2.0-6.4-0.4","battery-v0.2","","""event"",""trial"",""time""
""fullscreenenter"",""1"",""2738""
""fullscreenenter"",""1"",""2739""
","
","
","""event"",""trial"",""time""
""fullscreenenter"",""1"",""2738""
""fullscreenenter"",""1"",""2739""
","
","","","-1","","","19","10980","3830","&#9854;","elianto","#FFFFF080","-1","-1","1","&#10004","[]","0","0","1","","","","","","","",""
"pit-instructions","19","401564","0.0-2.0-7.0","battery-v0.2","","""event"",""trial"",""time""
""fullscreenenter"",""1"",""2738""
""fullscreenenter"",""1"",""2739""
","
","
","""event"",""trial"",""time""
""fullscreenenter"",""1"",""2738""
""fullscreenenter"",""1"",""2739""
","
","","[{""page_index"":0,""viewing_time"":5761},{""page_index"":1,""viewing_time"":8433},{""page_index"":2,""viewing_time"":7731},{""page_index"":3,""viewing_time"":8967},{""page_index"":4,""viewing_time"":12157},{""page_index"":5,""viewing_time"":7693},{""page_index"":6,""viewing_time"":5439},{""page_index"":7,""viewing_time"":10567},{""page_index"":8,""viewing_time"":17082},{""page_index"":9,""viewing_time"":11014},{""page_index"":10,""viewing_time"":8726},{""page_index"":11,""viewing_time"":7067.000000000058},{""page_index"":12,""viewing_time"":12115.999999999942},{""page_index"":13,""viewing_time"":11984},{""page_index"":14,""viewing_time"":12132},{""page_index"":15,""viewing_time"":21976},{""page_index"":16,""viewing_time"":8600},{""page_index"":17,""viewing_time"":13097}]","190542","","","","","","","","","","","","","","","","","","","","","","","",""
"pit-trial","20","405033","0.0-2.0-8.0-0.0","battery-v0.2","","""event"",""trial"",""time""
""fullscreenenter"",""1"",""2738""
""fullscreenenter"",""1"",""2739""
","
","
","""event"",""trial"",""time""
""fullscreenenter"",""1"",""2738""
""fullscreenenter"",""1"",""2739""
","
","","","616","","","19","10980","3830","&#9776;","elianto","#3366ff99"," "," ","1","+10","[1466]","1","0","1","","","","","","","",""
"pit-trial","21","408638","0.0-2.0-8.0-1.0","battery-v0.2","","""event"",""trial"",""time""
""fullscreenenter"",""1"",""2738""
""fullscreenenter"",""1"",""2739""
","
","
","""event"",""trial"",""time""
""fullscreenenter"",""1"",""2738""
""fullscreenenter"",""1"",""2739""
","
","","","750","","","19","10980","3830","&#9776;","elianto","#3366ff99"," "," ","1","+10","[1601]","1","0","1","","","","","","","",""
"pit-trial","22","412251","0.0-2.0-8.0-2.0","battery-v0.2","","""event"",""trial"",""time""
""fullscreenenter"",""1"",""2738""
""fullscreenenter"",""1"",""2739""
","
","
","""event"",""trial"",""time""
""fullscreenenter"",""1"",""2738""
""fullscreenenter"",""1"",""2739""
","
","","","760","","","19","10980","3830","&#9776;","elianto","#3366ff99"," "," ","1","+10","[1611]","1","0","1","","","","","","","",""
"pit-trial","23","415796","0.0-2.0-8.0-3.0","battery-v0.2","","""event"",""trial"",""time""
""fullscreenenter"",""1"",""2738""
""fullscreenenter"",""1"",""2739""
","
","
","""event"",""trial"",""time""
""fullscreenenter"",""1"",""2738""
""fullscreenenter"",""1"",""2739""
","
","","","690","","","19","10980","3830","&#9776;","elianto","#3366ff99"," "," ","1","0","[1541]","1","0","1","","","","","","","",""
"pit-trial","24","419186","0.0-2.0-8.0-4.0","battery-v0.2","","""event"",""trial"",""time""
""fullscreenenter"",""1"",""2738""
""fullscreenenter"",""1"",""2739""
","
","
","""event"",""trial"",""time""
""fullscreenenter"",""1"",""2738""
""fullscreenenter"",""1"",""2739""
","
","","","537","","","19","10980","3830","&#9776;","elianto","#3366ff99"," "," ","1","+10","[1387]","1","0","1","","","","","","","",""
"pit-trial","25","422747","0.0-2.0-8.1-0.1","battery-v0.2","","""event"",""trial"",""time""
""fullscreenenter"",""1"",""2738""
""fullscreenenter"",""1"",""2739""
","
","
","""event"",""trial"",""time""
""fullscreenenter"",""1"",""2738""
""fullscreenenter"",""1"",""2739""
","
","","","707","","","19","10980","3830","&#9776;","elianto","#3366ff99"," "," ","1","+10","[1557]","1","0","1","","","","","","","",""
"pit-trial","26","426084","0.0-2.0-8.1-1.1","battery-v0.2","","""event"",""trial"",""time""
""fullscreenenter"",""1"",""2738""
""fullscreenenter"",""1"",""2739""
","
","
","""event"",""trial"",""time""
""fullscreenenter"",""1"",""2738""
""fullscreenenter"",""1"",""2739""
","
","","","484","","","19","10980","3830","&#9776;","elianto","#3366ff99"," "," ","1","+10","[1335]","1","0","1","","","","","","","",""
"pit-trial","27","429428","0.0-2.0-8.1-2.1","battery-v0.2","","""event"",""trial"",""time""
""fullscreenenter"",""1"",""2738""
""fullscreenenter"",""1"",""2739""
","
","
","""event"",""trial"",""time""
""fullscreenenter"",""1"",""2738""
""fullscreenenter"",""1"",""2739""
","
","","","491.0000000000582","","","19","10980","3830","&#9776;","elianto","#3366ff99"," "," ","1","+10","[1341.0000000000582]","1","0","1","","","","","","","",""
"pit-trial","28","432812","0.0-2.0-8.1-3.1","battery-v0.2","","""event"",""trial"",""time""
""fullscreenenter"",""1"",""2738""
""fullscreenenter"",""1"",""2739""
","
","
","""event"",""trial"",""time""
""fullscreenenter"",""1"",""2738""
""fullscreenenter"",""1"",""2739""
","
","","","530","","","19","10980","3830","&#9776;","elianto","#3366ff99"," "," ","1","0","[1381]","1","0","1","","","","","","","",""
"pit-trial","29","436218","0.0-2.0-8.1-4.1","battery-v0.2","","""event"",""trial"",""time""
""fullscreenenter"",""1"",""2738""
""fullscreenenter"",""1"",""2739""
","
","
","""event"",""trial"",""time""
""fullscreenenter"",""1"",""2738""
""fullscreenenter"",""1"",""2739""
","
","","","551.9999999999418","","","19","10980","3830","&#9776;","elianto","#3366ff99"," "," ","1","+10","[1403]","1","0","1","","","","","","","",""
"pit-trial","30","439554","0.0-2.0-8.2-0.2","battery-v0.2","","""event"",""trial"",""time""
""fullscreenenter"",""1"",""2738""
""fullscreenenter"",""1"",""2739""
","
","
","""event"",""trial"",""time""
""fullscreenenter"",""1"",""2738""
""fullscreenenter"",""1"",""2739""
","
","","","480.0000000000582","","","19","10980","3830","&#9776;","elianto","#3366ff99"," "," ","1","+10","[1331.0000000000582]","1","0","1","","","","","","","",""
"pit-trial","31","443102","0.0-2.0-8.2-1.2","battery-v0.2","","""event"",""trial"",""time""
""fullscreenenter"",""1"",""2738""
""fullscreenenter"",""1"",""2739""
","
","
","""event"",""trial"",""time""
""fullscreenenter"",""1"",""2738""
""fullscreenenter"",""1"",""2739""
","
","","","694","","","19","10980","3830","&#9776;","elianto","#3366ff99"," "," ","1","+10","[1545]","1","0","1","","","","","","","",""
"pit-trial","32","446459","0.0-2.0-8.2-2.2","battery-v0.2","","""event"",""trial"",""time""
""fullscreenenter"",""1"",""2738""
""fullscreenenter"",""1"",""2739""
","
","
","""event"",""trial"",""time""
""fullscreenenter"",""1"",""2738""
""fullscreenenter"",""1"",""2739""
","
","","","503","","","19","10980","3830","&#9776;","elianto","#3366ff99"," "," ","1","+10","[1354]","1","0","1","","","","","","","",""
"pit-trial","33","449874","0.0-2.0-8.2-3.2","battery-v0.2","","""event"",""trial"",""time""
""fullscreenenter"",""1"",""2738""
""fullscreenenter"",""1"",""2739""
","
","
","""event"",""trial"",""time""
""fullscreenenter"",""1"",""2738""
""fullscreenenter"",""1"",""2739""
","
","","","561","","","19","10980","3830","&#9776;","elianto","#3366ff99"," "," ","1","0","[1412]","1","0","1","","","","","","","",""
"pit-trial","34","453306","0.0-2.0-8.2-4.2","battery-v0.2","","""event"",""trial"",""time""
""fullscreenenter"",""1"",""2738""
""fullscreenenter"",""1"",""2739""
","
","
","""event"",""trial"",""time""
""fullscreenenter"",""1"",""2738""
""fullscreenenter"",""1"",""2739""
","
","","","578","","","19","10980","3830","&#9776;","elianto","#3366ff99"," "," ","1","+10","[1429]","1","0","1","","","","","","","",""
"call-function","35","453309","0.0-2.0-9.0","battery-v0.2","","""event"",""trial"",""time""
""fullscreenenter"",""1"",""2738""
""fullscreenenter"",""1"",""2739""
","
","
","""event"",""trial"",""time""
""fullscreenenter"",""1"",""2738""
""fullscreenenter"",""1"",""2739""
","
","","","","","","","","","","","","","","","","","","","","","","","","","","",""
"pit-instructions","36","498927","0.0-2.0-10.0","battery-v0.2","","""event"",""trial"",""time""
""fullscreenenter"",""1"",""2738""
""fullscreenenter"",""1"",""2739""
","
","
","""event"",""trial"",""time""
""fullscreenenter"",""1"",""2738""
""fullscreenenter"",""1"",""2739""
","
","","[{""page_index"":0,""viewing_time"":7051.000000000058},{""page_index"":1,""viewing_time"":6942},{""page_index"":2,""viewing_time"":14056.999999999942},{""page_index"":3,""viewing_time"":10449},{""page_index"":4,""viewing_time"":7119.000000000058}]","45619","","","","","","","","","","","","","","","","","","","","","","","",""
"pit-trial","37","502762","0.0-2.0-11.0-0.0","battery-v0.2","","""event"",""trial"",""time""
""fullscreenenter"",""1"",""2738""
""fullscreenenter"",""1"",""2739""
","
","
","""event"",""trial"",""time""
""fullscreenenter"",""1"",""2738""
""fullscreenenter"",""1"",""2739""
","
","","","980","","","19","10980","3830","&#9761;","elianto","#3366ff99","-1"," ","0","0","[1831]","1","0","2","","","","","","","",""
"pit-trial","38","506592","0.0-2.0-11.0-1.0","battery-v0.2","","""event"",""trial"",""time""
""fullscreenenter"",""1"",""2738""
""fullscreenenter"",""1"",""2739""
","
","
","""event"",""trial"",""time""
""fullscreenenter"",""1"",""2738""
""fullscreenenter"",""1"",""2739""
","
","","","977","","","19","10980","3830","&#9761;","elianto","#3366ff99","-1"," ","0","0","[1827]","1","0","2","","","","","","","",""
"pit-trial","39","510395","0.0-2.0-11.0-2.0","battery-v0.2","","""event"",""trial"",""time""
""fullscreenenter"",""1"",""2738""
""fullscreenenter"",""1"",""2739""
","
","
","""event"",""trial"",""time""
""fullscreenenter"",""1"",""2738""
""fullscreenenter"",""1"",""2739""
","
","","","950","","","19","10980","3830","&#9761;","elianto","#3366ff99","-1"," ","0","0","[1801]","1","0","2","","","","","","","",""
"pit-trial","40","515250","0.0-2.0-11.0-3.0","battery-v0.2","","""event"",""trial"",""time""
""fullscreenenter"",""1"",""2738""
""fullscreenenter"",""1"",""2739""
","
","
","""event"",""trial"",""time""
""fullscreenenter"",""1"",""2738""
""fullscreenenter"",""1"",""2739""
","
","","","-1","","","19","10980","3830","&#9761;","elianto","#3366ff99","-1","-1","1","0","[]","0","0","2","","","","","","","",""
"pit-trial","41","518967","0.0-2.0-11.0-4.0","battery-v0.2","","""event"",""trial"",""time""
""fullscreenenter"",""1"",""2738""
""fullscreenenter"",""1"",""2739""
","
","
","""event"",""trial"",""time""
""fullscreenenter"",""1"",""2738""
""fullscreenenter"",""1"",""2739""
","
","","","865.0000000000582","","","19","10980","3830","&#9761;","elianto","#3366ff99","-1"," ","0","0","[1714.9999999999418]","1","0","2","","","","","","","",""
"pit-trial","42","523821","0.0-2.0-11.1-0.1","battery-v0.2","","""event"",""trial"",""time""
""fullscreenenter"",""1"",""2738""
""fullscreenenter"",""1"",""2739""
","
","
","""event"",""trial"",""time""
""fullscreenenter"",""1"",""2738""
""fullscreenenter"",""1"",""2739""
","
","","","-1","","","19","10980","3830","&#9761;","elianto","#3366ff99","-1","-1","1","+10","[]","0","0","2","","","","","","","",""
"pit-trial","43","527109","0.0-2.0-11.1-1.1","battery-v0.2","","""event"",""trial"",""time""
""fullscreenenter"",""1"",""2738""
""fullscreenenter"",""1"",""2739""
","
","
","""event"",""trial"",""time""
""fullscreenenter"",""1"",""2738""
""fullscreenenter"",""1"",""2739""
","
","","","434","","","19","10980","3830","&#9761;","elianto","#3366ff99","-1"," ","0","0","[1285]","1","0","2","","","","","","","",""
"pit-trial","44","530716","0.0-2.0-11.1-2.1","battery-v0.2","","""event"",""trial"",""time""
""fullscreenenter"",""1"",""2738""
""fullscreenenter"",""1"",""2739""
","
","
","""event"",""trial"",""time""
""fullscreenenter"",""1"",""2738""
""fullscreenenter"",""1"",""2739""
","
","","","751","","","19","10980","3830","&#9761;","elianto","#3366ff99","-1"," ","0","0","[1603]","1","0","2","","","","","","","",""
"pit-trial","45","535570","0.0-2.0-11.1-3.1","battery-v0.2","","""event"",""trial"",""time""
""fullscreenenter"",""1"",""2738""
""fullscreenenter"",""1"",""2739""
","
","
","""event"",""trial"",""time""
""fullscreenenter"",""1"",""2738""
""fullscreenenter"",""1"",""2739""
","
","","","-1","","","19","10980","3830","&#9761;","elianto","#3366ff99","-1","-1","1","0","[]","0","0","2","","","","","","","",""
"pit-trial","46","538860","0.0-2.0-11.1-4.1","battery-v0.2","","""event"",""trial"",""time""
""fullscreenenter"",""1"",""2738""
""fullscreenenter"",""1"",""2739""
","
","
","""event"",""trial"",""time""
""fullscreenenter"",""1"",""2738""
""fullscreenenter"",""1"",""2739""
","
","","","432","","","19","10980","3830","&#9761;","elianto","#3366ff99","-1"," ","0","0","[1283]","1","0","2","","","","","","","",""
"pit-trial","47","543714","0.0-2.0-11.2-0.2","battery-v0.2","","""event"",""trial"",""time""
""fullscreenenter"",""1"",""2738""
""fullscreenenter"",""1"",""2739""
","
","
","""event"",""trial"",""time""
""fullscreenenter"",""1"",""2738""
""fullscreenenter"",""1"",""2739""
","
","","","-1","","","19","10980","3830","&#9761;","elianto","#3366ff99","-1","-1","1","+10","[]","0","0","2","","","","","","","",""
"pit-trial","48","547378","0.0-2.0-11.2-1.2","battery-v0.2","","""event"",""trial"",""time""
""fullscreenenter"",""1"",""2738""
""fullscreenenter"",""1"",""2739""
","
","
","""event"",""trial"",""time""
""fullscreenenter"",""1"",""2738""
""fullscreenenter"",""1"",""2739""
","
","","","809.0000000001164","","","19","10980","3830","&#9761;","elianto","#3366ff99","-1"," ","0","0","[1660.0000000001164]","1","0","2","","","","","","","",""
"pit-trial","49","552232","0.0-2.0-11.2-2.2","battery-v0.2","","""event"",""trial"",""time""
""fullscreenenter"",""1"",""2738""
""fullscreenenter"",""1"",""2739""
","
","
","""event"",""trial"",""time""
""fullscreenenter"",""1"",""2738""
""fullscreenenter"",""1"",""2739""
","
","","","-1","","","19","10980","3830","&#9761;","elianto","#3366ff99","-1","-1","1","+10","[3489]","1","0","2","","","","","","","",""
"pit-trial","50","557086","0.0-2.0-11.2-3.2","battery-v0.2","","""event"",""trial"",""time""
""fullscreenenter"",""1"",""2738""
""fullscreenenter"",""1"",""2739""
","
","
","""event"",""trial"",""time""
""fullscreenenter"",""1"",""2738""
""fullscreenenter"",""1"",""2739""
","
","","","-1","","","19","10980","3830","&#9761;","elianto","#3366ff99","-1","-1","1","0","[]","0","0","2","","","","","","","",""
"pit-trial","51","560450","0.0-2.0-11.2-4.2","battery-v0.2","","""event"",""trial"",""time""
""fullscreenenter"",""1"",""2738""
""fullscreenenter"",""1"",""2739""
","
","
","""event"",""trial"",""time""
""fullscreenenter"",""1"",""2738""
""fullscreenenter"",""1"",""2739""
","
","","","509.0000000001164","","","19","10980","3830","&#9761;","elianto","#3366ff99","-1"," ","0","0","[1360.0000000001164]","1","0","2","","","","","","","",""
"pit-trial","52","565304","0.0-2.0-11.3-0.3","battery-v0.2","","""event"",""trial"",""time""
""fullscreenenter"",""1"",""2738""
""fullscreenenter"",""1"",""2739""
","
","
","""event"",""trial"",""time""
""fullscreenenter"",""1"",""2738""
""fullscreenenter"",""1"",""2739""
","
","","","-1","","","19","10980","3830","&#9761;","elianto","#3366ff99","-1","-1","1","+10","[]","0","0","2","","","","","","","",""
"pit-trial","53","570157","0.0-2.0-11.3-1.3","battery-v0.2","","""event"",""trial"",""time""
""fullscreenenter"",""1"",""2738""
""fullscreenenter"",""1"",""2739""
","
","
","""event"",""trial"",""time""
""fullscreenenter"",""1"",""2738""
""fullscreenenter"",""1"",""2739""
","
","","","-1","","","19","10980","3830","&#9761;","elianto","#3366ff99","-1","-1","1","+10","[]","0","0","2","","","","","","","",""
"pit-trial","54","575010","0.0-2.0-11.3-2.3","battery-v0.2","","""event"",""trial"",""time""
""fullscreenenter"",""1"",""2738""
""fullscreenenter"",""1"",""2739""
","
","
","""event"",""trial"",""time""
""fullscreenenter"",""1"",""2738""
""fullscreenenter"",""1"",""2739""
","
","","","-1","","","19","10980","3830","&#9761;","elianto","#3366ff99","-1","-1","1","+10","[3756]","1","0","2","","","","","","","",""
"pit-trial","55","579864","0.0-2.0-11.3-3.3","battery-v0.2","","""event"",""trial"",""time""
""fullscreenenter"",""1"",""2738""
""fullscreenenter"",""1"",""2739""
","
","
","""event"",""trial"",""time""
""fullscreenenter"",""1"",""2738""
""fullscreenenter"",""1"",""2739""
","
","","","-1","","","19","10980","3830","&#9761;","elianto","#3366ff99","-1","-1","1","0","[]","0","0","2","","","","","","","",""
"pit-trial","56","584718","0.0-2.0-11.3-4.3","battery-v0.2","","""event"",""trial"",""time""
""fullscreenenter"",""1"",""2738""
""fullscreenenter"",""1"",""2739""
","
","
","""event"",""trial"",""time""
""fullscreenenter"",""1"",""2738""
""fullscreenenter"",""1"",""2739""
","
","","","-1","","","19","10980","3830","&#9761;","elianto","#3366ff99","-1","-1","1","+10","[3473.9999999998836]","1","0","2","","","","","","","",""
"call-function","57","584720","0.0-2.0-12.0","battery-v0.2","","""event"",""trial"",""time""
""fullscreenenter"",""1"",""2738""
""fullscreenenter"",""1"",""2739""
","
","
","""event"",""trial"",""time""
""fullscreenenter"",""1"",""2738""
""fullscreenenter"",""1"",""2739""
","
","","","","","","","","","","","","","","","","","","","","","","","","","","",""
"pit-instructions","58","629445","0.0-2.0-13.0","battery-v0.2","","""event"",""trial"",""time""
""fullscreenenter"",""1"",""2738""
""fullscreenenter"",""1"",""2739""
","
","
","""event"",""trial"",""time""
""fullscreenenter"",""1"",""2738""
""fullscreenenter"",""1"",""2739""
","
","","[{""page_index"":0,""viewing_time"":5024},{""page_index"":1,""viewing_time"":10081},{""page_index"":2,""viewing_time"":7463},{""page_index"":3,""viewing_time"":11018},{""page_index"":4,""viewing_time"":11139}]","44725","","","","","","","","","","","","","","","","","","","","","","","",""
"pit-trial","59","634298","0.0-2.0-14.0-0.0","battery-v0.2","","""event"",""trial"",""time""
""fullscreenenter"",""1"",""2738""
""fullscreenenter"",""1"",""2739""
","
","
","""event"",""trial"",""time""
""fullscreenenter"",""1"",""2738""
""fullscreenenter"",""1"",""2739""
","
","","","-1","","","19","10980","3830","&#9826;","elianto","#f73b6a7A","-1","-1","1","0","[]","0","0","3","","","","","","","",""
"pit-trial","60","639152","0.0-2.0-14.0-1.0","battery-v0.2","","""event"",""trial"",""time""
""fullscreenenter"",""1"",""2738""
""fullscreenenter"",""1"",""2739""
","
","
","""event"",""trial"",""time""
""fullscreenenter"",""1"",""2738""
""fullscreenenter"",""1"",""2739""
","
","","","-1","","","19","10980","3830","&#9826;","elianto","#f73b6a7A","-1","-1","1","0","[]","0","0","3","","","","","","","",""
"pit-trial","61","644005","0.0-2.0-14.0-2.0","battery-v0.2","","""event"",""trial"",""time""
""fullscreenenter"",""1"",""2738""
""fullscreenenter"",""1"",""2739""
","
","
","""event"",""trial"",""time""
""fullscreenenter"",""1"",""2738""
""fullscreenenter"",""1"",""2739""
","
","","","-1","","","19","10980","3830","&#9826;","elianto","#f73b6a7A","-1","-1","1","0","[]","0","0","3","","","","","","","",""
"pit-trial","62","648858","0.0-2.0-14.0-3.0","battery-v0.2","","""event"",""trial"",""time""
""fullscreenenter"",""1"",""2738""
""fullscreenenter"",""1"",""2739""
","
","
","""event"",""trial"",""time""
""fullscreenenter"",""1"",""2738""
""fullscreenenter"",""1"",""2739""
","
","","","-1","","","19","10980","3830","&#9826;","elianto","#f73b6a7A","-1","-1","1","-10","[]","0","0","3","","","","","","","",""
"pit-trial","63","653712","0.0-2.0-14.0-4.0","battery-v0.2","","""event"",""trial"",""time""
""fullscreenenter"",""1"",""2738""
""fullscreenenter"",""1"",""2739""
","
","
","""event"",""trial"",""time""
""fullscreenenter"",""1"",""2738""
""fullscreenenter"",""1"",""2739""
","
","","","-1","","","19","10980","3830","&#9826;","elianto","#f73b6a7A","-1","-1","1","0","[]","0","0","3","","","","","","","",""
"pit-trial","64","658566","0.0-2.0-14.1-0.1","battery-v0.2","","""event"",""trial"",""time""
""fullscreenenter"",""1"",""2738""
""fullscreenenter"",""1"",""2739""
","
","
","""event"",""trial"",""time""
""fullscreenenter"",""1"",""2738""
""fullscreenenter"",""1"",""2739""
","
","","","-1","","","19","10980","3830","&#9826;","elianto","#f73b6a7A","-1","-1","1","0","[]","0","0","3","","","","","","","",""
"pit-trial","65","663420","0.0-2.0-14.1-1.1","battery-v0.2","","""event"",""trial"",""time""
""fullscreenenter"",""1"",""2738""
""fullscreenenter"",""1"",""2739""
","
","
","""event"",""trial"",""time""
""fullscreenenter"",""1"",""2738""
""fullscreenenter"",""1"",""2739""
","
","","","-1","","","19","10980","3830","&#9826;","elianto","#f73b6a7A","-1","-1","1","0","[]","0","0","3","","","","","","","",""
"pit-trial","66","668274","0.0-2.0-14.1-2.1","battery-v0.2","","""event"",""trial"",""time""
""fullscreenenter"",""1"",""2738""
""fullscreenenter"",""1"",""2739""
","
","
","""event"",""trial"",""time""
""fullscreenenter"",""1"",""2738""
""fullscreenenter"",""1"",""2739""
","
","","","-1","","","19","10980","3830","&#9826;","elianto","#f73b6a7A","-1","-1","1","0","[]","0","0","3","","","","","","","",""
"pit-trial","67","673127","0.0-2.0-14.1-3.1","battery-v0.2","","""event"",""trial"",""time""
""fullscreenenter"",""1"",""2738""
""fullscreenenter"",""1"",""2739""
","
","
","""event"",""trial"",""time""
""fullscreenenter"",""1"",""2738""
""fullscreenenter"",""1"",""2739""
","
","","","-1","","","19","10980","3830","&#9826;","elianto","#f73b6a7A","-1","-1","1","-10","[]","0","0","3","","","","","","","",""
"pit-trial","68","677981","0.0-2.0-14.1-4.1","battery-v0.2","","""event"",""trial"",""time""
""fullscreenenter"",""1"",""2738""
""fullscreenenter"",""1"",""2739""
","
","
","""event"",""trial"",""time""
""fullscreenenter"",""1"",""2738""
""fullscreenenter"",""1"",""2739""
","
","","","-1","","","19","10980","3830","&#9826;","elianto","#f73b6a7A","-1","-1","1","0","[]","0","0","3","","","","","","","",""
"pit-trial","69","682835","0.0-2.0-14.2-0.2","battery-v0.2","","""event"",""trial"",""time""
""fullscreenenter"",""1"",""2738""
""fullscreenenter"",""1"",""2739""
","
","
","""event"",""trial"",""time""
""fullscreenenter"",""1"",""2738""
""fullscreenenter"",""1"",""2739""
","
","","","-1","","","19","10980","3830","&#9826;","elianto","#f73b6a7A","-1","-1","1","0","[]","0","0","3","","","","","","","",""
"pit-trial","70","687688","0.0-2.0-14.2-1.2","battery-v0.2","","""event"",""trial"",""time""
""fullscreenenter"",""1"",""2738""
""fullscreenenter"",""1"",""2739""
","
","
","""event"",""trial"",""time""
""fullscreenenter"",""1"",""2738""
""fullscreenenter"",""1"",""2739""
","
","","","-1","","","19","10980","3830","&#9826;","elianto","#f73b6a7A","-1","-1","1","0","[]","0","0","3","","","","","","","",""
"pit-trial","71","692541","0.0-2.0-14.2-2.2","battery-v0.2","","""event"",""trial"",""time""
""fullscreenenter"",""1"",""2738""
""fullscreenenter"",""1"",""2739""
","
","
","""event"",""trial"",""time""
""fullscreenenter"",""1"",""2738""
""fullscreenenter"",""1"",""2739""
","
","","","-1","","","19","10980","3830","&#9826;","elianto","#f73b6a7A","-1","-1","1","0","[]","0","0","3","","","","","","","",""
"pit-trial","72","697395","0.0-2.0-14.2-3.2","battery-v0.2","","""event"",""trial"",""time""
""fullscreenenter"",""1"",""2738""
""fullscreenenter"",""1"",""2739""
","
","
","""event"",""trial"",""time""
""fullscreenenter"",""1"",""2738""
""fullscreenenter"",""1"",""2739""
","
","","","-1","","","19","10980","3830","&#9826;","elianto","#f73b6a7A","-1","-1","1","-10","[]","0","0","3","","","","","","","",""
"pit-trial","73","702249","0.0-2.0-14.2-4.2","battery-v0.2","","""event"",""trial"",""time""
""fullscreenenter"",""1"",""2738""
""fullscreenenter"",""1"",""2739""
","
","
","""event"",""trial"",""time""
""fullscreenenter"",""1"",""2738""
""fullscreenenter"",""1"",""2739""
","
","","","-1","","","19","10980","3830","&#9826;","elianto","#f73b6a7A","-1","-1","1","0","[]","0","0","3","","","","","","","",""
"pit-trial","74","707103","0.0-2.0-14.3-0.3","battery-v0.2","","""event"",""trial"",""time""
""fullscreenenter"",""1"",""2738""
""fullscreenenter"",""1"",""2739""
","
","
","""event"",""trial"",""time""
""fullscreenenter"",""1"",""2738""
""fullscreenenter"",""1"",""2739""
","
","","","-1","","","19","10980","3830","&#9826;","elianto","#f73b6a7A","-1","-1","1","0","[]","0","0","3","","","","","","","",""
"pit-trial","75","711957","0.0-2.0-14.3-1.3","battery-v0.2","","""event"",""trial"",""time""
""fullscreenenter"",""1"",""2738""
""fullscreenenter"",""1"",""2739""
","
","
","""event"",""trial"",""time""
""fullscreenenter"",""1"",""2738""
""fullscreenenter"",""1"",""2739""
","
","","","-1","","","19","10980","3830","&#9826;","elianto","#f73b6a7A","-1","-1","1","0","[]","0","0","3","","","","","","","",""
"pit-trial","76","716811","0.0-2.0-14.3-2.3","battery-v0.2","","""event"",""trial"",""time""
""fullscreenenter"",""1"",""2738""
""fullscreenenter"",""1"",""2739""
","
","
","""event"",""trial"",""time""
""fullscreenenter"",""1"",""2738""
""fullscreenenter"",""1"",""2739""
","
","","","-1","","","19","10980","3830","&#9826;","elianto","#f73b6a7A","-1","-1","1","0","[]","0","0","3","","","","","","","",""
"pit-trial","77","721664","0.0-2.0-14.3-3.3","battery-v0.2","","""event"",""trial"",""time""
""fullscreenenter"",""1"",""2738""
""fullscreenenter"",""1"",""2739""
","
","
","""event"",""trial"",""time""
""fullscreenenter"",""1"",""2738""
""fullscreenenter"",""1"",""2739""
","
","","","-1","","","19","10980","3830","&#9826;","elianto","#f73b6a7A","-1","-1","1","-10","[]","0","0","3","","","","","","","",""
"pit-trial","78","726518","0.0-2.0-14.3-4.3","battery-v0.2","","""event"",""trial"",""time""
""fullscreenenter"",""1"",""2738""
""fullscreenenter"",""1"",""2739""
","
","
","""event"",""trial"",""time""
""fullscreenenter"",""1"",""2738""
""fullscreenenter"",""1"",""2739""
","
","","","-1","","","19","10980","3830","&#9826;","elianto","#f73b6a7A","-1","-1","1","0","[]","0","0","3","","","","","","","",""
"call-function","79","726520","0.0-2.0-15.0","battery-v0.2","","""event"",""trial"",""time""
""fullscreenenter"",""1"",""2738""
""fullscreenenter"",""1"",""2739""
","
","
","""event"",""trial"",""time""
""fullscreenenter"",""1"",""2738""
""fullscreenenter"",""1"",""2739""
","
","","","","","","","","","","","","","","","","","","","","","","","","","","",""
"pit-instructions","80","759046","0.0-2.0-16.0","battery-v0.2","","""event"",""trial"",""time""
""fullscreenenter"",""1"",""2738""
""fullscreenenter"",""1"",""2739""
","
","
","""event"",""trial"",""time""
""fullscreenenter"",""1"",""2738""
""fullscreenenter"",""1"",""2739""
","
","","[{""page_index"":0,""viewing_time"":6722},{""page_index"":1,""viewing_time"":10034},{""page_index"":2,""viewing_time"":5098.000000000116},{""page_index"":3,""viewing_time"":10670.999999999884}]","32526","","","","","","","","","","","","","","","","","","","","","","","",""
"pit-trial","81","763899","0.0-2.0-17.0-0.0","battery-v0.2","","""event"",""trial"",""time""
""fullscreenenter"",""1"",""2738""
""fullscreenenter"",""1"",""2739""
","
","
","""event"",""trial"",""time""
""fullscreenenter"",""1"",""2738""
""fullscreenenter"",""1"",""2739""
","
","","","-1","","","19","10980","3830","&#9789;","elianto","#f73b6a7A"," ","-1","0","-10","[]","0","0","4","","","","","","","",""
"pit-trial","82","768753","0.0-2.0-17.0-1.0","battery-v0.2","","""event"",""trial"",""time""
""fullscreenenter"",""1"",""2738""
""fullscreenenter"",""1"",""2739""
","
","
","""event"",""trial"",""time""
""fullscreenenter"",""1"",""2738""
""fullscreenenter"",""1"",""2739""
","
","","","-1","","","19","10980","3830","&#9789;","elianto","#f73b6a7A"," ","-1","0","-10","[]","0","0","4","","","","","","","",""
"pit-trial","83","773607","0.0-2.0-17.0-2.0","battery-v0.2","","""event"",""trial"",""time""
""fullscreenenter"",""1"",""2738""
""fullscreenenter"",""1"",""2739""
","
","
","""event"",""trial"",""time""
""fullscreenenter"",""1"",""2738""
""fullscreenenter"",""1"",""2739""
","
","","","-1","","","19","10980","3830","&#9789;","elianto","#f73b6a7A"," ","-1","0","-10","[]","0","0","4","","","","","","","",""
"pit-trial","84","778460","0.0-2.0-17.0-3.0","battery-v0.2","","""event"",""trial"",""time""
""fullscreenenter"",""1"",""2738""
""fullscreenenter"",""1"",""2739""
","
","
","""event"",""trial"",""time""
""fullscreenenter"",""1"",""2738""
""fullscreenenter"",""1"",""2739""
","
","","","-1","","","19","10980","3830","&#9789;","elianto","#f73b6a7A"," ","-1","0","0","[]","0","0","4","","","","","","","",""
"pit-trial","85","783313","0.0-2.0-17.0-4.0","battery-v0.2","","""event"",""trial"",""time""
""fullscreenenter"",""1"",""2738""
""fullscreenenter"",""1"",""2739""
","
","
","""event"",""trial"",""time""
""fullscreenenter"",""1"",""2738""
""fullscreenenter"",""1"",""2739""
","
","","","-1","","","19","10980","3830","&#9789;","elianto","#f73b6a7A"," ","-1","0","-10","[]","0","0","4","","","","","","","",""
"pit-trial","86","788167","0.0-2.0-17.1-0.1","battery-v0.2","","""event"",""trial"",""time""
""fullscreenenter"",""1"",""2738""
""fullscreenenter"",""1"",""2739""
","
","
","""event"",""trial"",""time""
""fullscreenenter"",""1"",""2738""
""fullscreenenter"",""1"",""2739""
","
","","","-1","","","19","10980","3830","&#9789;","elianto","#f73b6a7A"," ","-1","0","-10","[]","0","0","4","","","","","","","",""
"pit-trial","87","793022","0.0-2.0-17.1-1.1","battery-v0.2","","""event"",""trial"",""time""
""fullscreenenter"",""1"",""2738""
""fullscreenenter"",""1"",""2739""
","
","
","""event"",""trial"",""time""
""fullscreenenter"",""1"",""2738""
""fullscreenenter"",""1"",""2739""
","
","","","-1","","","19","10980","3830","&#9789;","elianto","#f73b6a7A"," ","-1","0","-10","[]","0","0","4","","","","","","","",""
"pit-trial","88","797876","0.0-2.0-17.1-2.1","battery-v0.2","","""event"",""trial"",""time""
""fullscreenenter"",""1"",""2738""
""fullscreenenter"",""1"",""2739""
","
","
","""event"",""trial"",""time""
""fullscreenenter"",""1"",""2738""
""fullscreenenter"",""1"",""2739""
","
","","","-1","","","19","10980","3830","&#9789;","elianto","#f73b6a7A"," ","-1","0","-10","[]","0","0","4","","","","","","","",""
"pit-trial","89","802730","0.0-2.0-17.1-3.1","battery-v0.2","","""event"",""trial"",""time""
""fullscreenenter"",""1"",""2738""
""fullscreenenter"",""1"",""2739""
","
","
","""event"",""trial"",""time""
""fullscreenenter"",""1"",""2738""
""fullscreenenter"",""1"",""2739""
","
","","","-1","","","19","10980","3830","&#9789;","elianto","#f73b6a7A"," ","-1","0","0","[]","0","0","4","","","","","","","",""
"pit-trial","90","807583","0.0-2.0-17.1-4.1","battery-v0.2","","""event"",""trial"",""time""
""fullscreenenter"",""1"",""2738""
""fullscreenenter"",""1"",""2739""
","
","
","""event"",""trial"",""time""
""fullscreenenter"",""1"",""2738""
""fullscreenenter"",""1"",""2739""
","
","","","-1","","","19","10980","3830","&#9789;","elianto","#f73b6a7A"," ","-1","0","-10","[]","0","0","4","","","","","","","",""
"pit-trial","91","812436","0.0-2.0-17.2-0.2","battery-v0.2","","""event"",""trial"",""time""
""fullscreenenter"",""1"",""2738""
""fullscreenenter"",""1"",""2739""
","
","
","""event"",""trial"",""time""
""fullscreenenter"",""1"",""2738""
""fullscreenenter"",""1"",""2739""
","
","","","-1","","","19","10980","3830","&#9789;","elianto","#f73b6a7A"," ","-1","0","-10","[]","0","0","4","","","","","","","",""
"pit-trial","92","817290","0.0-2.0-17.2-1.2","battery-v0.2","","""event"",""trial"",""time""
""fullscreenenter"",""1"",""2738""
""fullscreenenter"",""1"",""2739""
","
","
","""event"",""trial"",""time""
""fullscreenenter"",""1"",""2738""
""fullscreenenter"",""1"",""2739""
","
","","","-1","","","19","10980","3830","&#9789;","elianto","#f73b6a7A"," ","-1","0","-10","[]","0","0","4","","","","","","","",""
"pit-trial","93","822143","0.0-2.0-17.2-2.2","battery-v0.2","","""event"",""trial"",""time""
""fullscreenenter"",""1"",""2738""
""fullscreenenter"",""1"",""2739""
","
","
","""event"",""trial"",""time""
""fullscreenenter"",""1"",""2738""
""fullscreenenter"",""1"",""2739""
","
","","","-1","","","19","10980","3830","&#9789;","elianto","#f73b6a7A"," ","-1","0","-10","[]","0","0","4","","","","","","","",""
"pit-trial","94","826997","0.0-2.0-17.2-3.2","battery-v0.2","","""event"",""trial"",""time""
""fullscreenenter"",""1"",""2738""
""fullscreenenter"",""1"",""2739""
""fullscreenexit"",""95"",""829057""
""fullscreenexit"",""95"",""829057""
","
","
","""event"",""trial"",""time""
""fullscreenenter"",""1"",""2738""
""fullscreenenter"",""1"",""2739""
","""event"",""trial"",""time""
""fullscreenexit"",""95"",""829057""
""fullscreenexit"",""95"",""829057""
","","","-1","","","19","10980","3830","&#9789;","elianto","#f73b6a7A"," ","-1","0","0","[]","0","0","4","","","","","","","",""
"pit-trial","95","831852","0.0-2.0-17.2-4.2","battery-v0.2","","""event"",""trial"",""time""
""fullscreenenter"",""1"",""2738""
""fullscreenenter"",""1"",""2739""
""fullscreenexit"",""95"",""829057""
""fullscreenexit"",""95"",""829057""
","
","
","""event"",""trial"",""time""
""fullscreenenter"",""1"",""2738""
""fullscreenenter"",""1"",""2739""
","""event"",""trial"",""time""
""fullscreenexit"",""95"",""829057""
""fullscreenexit"",""95"",""829057""
","","","-1","","","19","10980","3830","&#9789;","elianto","#f73b6a7A"," ","-1","0","-10","[]","0","0","4","","","","","","","",""
"pit-trial","96","836706","0.0-2.0-17.3-0.3","battery-v0.2","","""event"",""trial"",""time""
""fullscreenenter"",""1"",""2738""
""fullscreenenter"",""1"",""2739""
""fullscreenexit"",""95"",""829057""
""fullscreenexit"",""95"",""829057""
","
","
","""event"",""trial"",""time""
""fullscreenenter"",""1"",""2738""
""fullscreenenter"",""1"",""2739""
","""event"",""trial"",""time""
""fullscreenexit"",""95"",""829057""
""fullscreenexit"",""95"",""829057""
","","","-1","","","19","10980","3830","&#9789;","elianto","#f73b6a7A"," ","-1","0","-10","[]","0","0","4","","","","","","","",""
"pit-trial","97","841559","0.0-2.0-17.3-1.3","battery-v0.2","","""event"",""trial"",""time""
""fullscreenenter"",""1"",""2738""
""fullscreenenter"",""1"",""2739""
""fullscreenexit"",""95"",""829057""
""fullscreenexit"",""95"",""829057""
","
","
","""event"",""trial"",""time""
""fullscreenenter"",""1"",""2738""
""fullscreenenter"",""1"",""2739""
","""event"",""trial"",""time""
""fullscreenexit"",""95"",""829057""
""fullscreenexit"",""95"",""829057""
","","","-1","","","19","10980","3830","&#9789;","elianto","#f73b6a7A"," ","-1","0","-10","[]","0","0","4","","","","","","","",""
"pit-trial","98","846412","0.0-2.0-17.3-2.3","battery-v0.2","","""event"",""trial"",""time""
""fullscreenenter"",""1"",""2738""
""fullscreenenter"",""1"",""2739""
""fullscreenexit"",""95"",""829057""
""fullscreenexit"",""95"",""829057""
","
","
","""event"",""trial"",""time""
""fullscreenenter"",""1"",""2738""
""fullscreenenter"",""1"",""2739""
","""event"",""trial"",""time""
""fullscreenexit"",""95"",""829057""
""fullscreenexit"",""95"",""829057""
","","","-1","","","19","10980","3830","&#9789;","elianto","#f73b6a7A"," ","-1","0","-10","[]","0","0","4","","","","","","","",""
"pit-trial","99","851265","0.0-2.0-17.3-3.3","battery-v0.2","","""event"",""trial"",""time""
""fullscreenenter"",""1"",""2738""
""fullscreenenter"",""1"",""2739""
""fullscreenexit"",""95"",""829057""
""fullscreenexit"",""95"",""829057""
","
","
","""event"",""trial"",""time""
""fullscreenenter"",""1"",""2738""
""fullscreenenter"",""1"",""2739""
","""event"",""trial"",""time""
""fullscreenexit"",""95"",""829057""
""fullscreenexit"",""95"",""829057""
","","","-1","","","19","10980","3830","&#9789;","elianto","#f73b6a7A"," ","-1","0","0","[]","0","0","4","","","","","","","",""
"pit-trial","100","856119","0.0-2.0-17.3-4.3","battery-v0.2","","""event"",""trial"",""time""
""fullscreenenter"",""1"",""2738""
""fullscreenenter"",""1"",""2739""
""fullscreenexit"",""95"",""829057""
""fullscreenexit"",""95"",""829057""
","
","
","""event"",""trial"",""time""
""fullscreenenter"",""1"",""2738""
""fullscreenenter"",""1"",""2739""
","""event"",""trial"",""time""
""fullscreenexit"",""95"",""829057""
""fullscreenexit"",""95"",""829057""
","","","-1","","","19","10980","3830","&#9789;","elianto","#f73b6a7A"," ","-1","0","-10","[]","0","0","4","","","","","","","",""
"call-function","101","856122","0.0-2.0-18.0","battery-v0.2","","""event"",""trial"",""time""
""fullscreenenter"",""1"",""2738""
""fullscreenenter"",""1"",""2739""
""fullscreenexit"",""95"",""829057""
""fullscreenexit"",""95"",""829057""
","
","
","""event"",""trial"",""time""
""fullscreenenter"",""1"",""2738""
""fullscreenenter"",""1"",""2739""
","""event"",""trial"",""time""
""fullscreenexit"",""95"",""829057""
""fullscreenexit"",""95"",""829057""
","","","","","","","","","","","","","","","","","","","","","","","","","","",""
"pit-instructions","102","993546","0.0-2.0-19.0","battery-v0.2","","""event"",""trial"",""time""
""fullscreenenter"",""1"",""2738""
""fullscreenenter"",""1"",""2739""
""fullscreenexit"",""95"",""829057""
""fullscreenexit"",""95"",""829057""
","
","
","""event"",""trial"",""time""
""fullscreenenter"",""1"",""2738""
""fullscreenenter"",""1"",""2739""
","""event"",""trial"",""time""
""fullscreenexit"",""95"",""829057""
""fullscreenexit"",""95"",""829057""
","","[{""page_index"":0,""viewing_time"":28253},{""page_index"":1,""viewing_time"":18190.000000000116},{""page_index"":2,""viewing_time"":26348.999999999884},{""page_index"":3,""viewing_time"":18202},{""page_index"":4,""viewing_time"":10501},{""page_index"":5,""viewing_time"":10377},{""page_index"":6,""viewing_time"":10353},{""page_index"":7,""viewing_time"":11340},{""page_index"":8,""viewing_time"":3860}]","137425","","","","","","","","","","","","","","","","","","","","","","","",""
"pit-comprehension","103","999005","0.0-2.0-20.0-0.0","battery-v0.2","","""event"",""trial"",""time""
""fullscreenenter"",""1"",""2738""
""fullscreenenter"",""1"",""2739""
""fullscreenexit"",""95"",""829057""
""fullscreenexit"",""95"",""829057""
","
","
","""event"",""trial"",""time""
""fullscreenenter"",""1"",""2738""
""fullscreenenter"",""1"",""2739""
","""event"",""trial"",""time""
""fullscreenexit"",""95"",""829057""
""fullscreenexit"",""95"",""829057""
","","","5456","[""SPACE""]","0","19","10980","3830","","","","","","","","","","","","","","","","","","",""
"pit-instructions","104","1004710","0.0-2.0-20.0-1.0","battery-v0.2","","""event"",""trial"",""time""
""fullscreenenter"",""1"",""2738""
""fullscreenenter"",""1"",""2739""
""fullscreenexit"",""95"",""829057""
""fullscreenexit"",""95"",""829057""
","
","
","""event"",""trial"",""time""
""fullscreenenter"",""1"",""2738""
""fullscreenenter"",""1"",""2739""
","""event"",""trial"",""time""
""fullscreenexit"",""95"",""829057""
""fullscreenexit"",""95"",""829057""
","","[{""page_index"":0,""viewing_time"":5670}]","5670","","","","","","","","","","","","","","","","","","","","","","","",""
"pit-comprehension","105","1010573","0.0-2.0-21.0-0.0","battery-v0.2","","""event"",""trial"",""time""
""fullscreenenter"",""1"",""2738""
""fullscreenenter"",""1"",""2739""
""fullscreenexit"",""95"",""829057""
""fullscreenexit"",""95"",""829057""
","
","
","""event"",""trial"",""time""
""fullscreenenter"",""1"",""2738""
""fullscreenenter"",""1"",""2739""
","""event"",""trial"",""time""
""fullscreenexit"",""95"",""829057""
""fullscreenexit"",""95"",""829057""
","","","5860.999999999884","[""10""]","0","19","10980","3830","","","","","","","","","","","","","","","","","","",""
"pit-instructions","106","1014209","0.0-2.0-21.0-1.0","battery-v0.2","","""event"",""trial"",""time""
""fullscreenenter"",""1"",""2738""
""fullscreenenter"",""1"",""2739""
""fullscreenexit"",""95"",""829057""
""fullscreenexit"",""95"",""829057""
","
","
","""event"",""trial"",""time""
""fullscreenenter"",""1"",""2738""
""fullscreenenter"",""1"",""2739""
","""event"",""trial"",""time""
""fullscreenexit"",""95"",""829057""
""fullscreenexit"",""95"",""829057""
","","[{""page_index"":0,""viewing_time"":3596}]","3596","","","","","","","","","","","","","","","","","","","","","","","",""
"pit-comprehension","107","1020849","0.0-2.0-22.0-0.0","battery-v0.2","","""event"",""trial"",""time""
""fullscreenenter"",""1"",""2738""
""fullscreenenter"",""1"",""2739""
""fullscreenexit"",""95"",""829057""
""fullscreenexit"",""95"",""829057""
","
","
","""event"",""trial"",""time""
""fullscreenenter"",""1"",""2738""
""fullscreenenter"",""1"",""2739""
","""event"",""trial"",""time""
""fullscreenexit"",""95"",""829057""
""fullscreenexit"",""95"",""829057""
","","","6635.999999999884","[""-10""]","1","19","10980","3830","","","","","","","","","","","","","","","","","","",""
"pit-instructions","108","1026590","0.0-2.0-22.0-1.0","battery-v0.2","","""event"",""trial"",""time""
""fullscreenenter"",""1"",""2738""
""fullscreenenter"",""1"",""2739""
""fullscreenexit"",""95"",""829057""
""fullscreenexit"",""95"",""829057""
","
","
","""event"",""trial"",""time""
""fullscreenenter"",""1"",""2738""
""fullscreenenter"",""1"",""2739""
","""event"",""trial"",""time""
""fullscreenexit"",""95"",""829057""
""fullscreenexit"",""95"",""829057""
","","[{""page_index"":0,""viewing_time"":5707}]","5707","","","","","","","","","","","","","","","","","","","","","","","",""
"pit-instructions","109","1027962","0.0-2.0-22.0-2.0-0.0","battery-v0.2","","""event"",""trial"",""time""
""fullscreenenter"",""1"",""2738""
""fullscreenenter"",""1"",""2739""
""fullscreenexit"",""95"",""829057""
""fullscreenexit"",""95"",""829057""
","
","
","""event"",""trial"",""time""
""fullscreenenter"",""1"",""2738""
""fullscreenenter"",""1"",""2739""
","""event"",""trial"",""time""
""fullscreenexit"",""95"",""829057""
""fullscreenexit"",""95"",""829057""
","","[{""page_index"":0,""viewing_time"":1368.0000000002328}]","1369.0000000002328","","","","","","","","","","","","","","","","","","","","","","","",""
"pit-comprehension","110","1034750","0.0-2.0-22.1-0.1","battery-v0.2","","""event"",""trial"",""time""
""fullscreenenter"",""1"",""2738""
""fullscreenenter"",""1"",""2739""
""fullscreenexit"",""95"",""829057""
""fullscreenexit"",""95"",""829057""
","
","
","""event"",""trial"",""time""
""fullscreenenter"",""1"",""2738""
""fullscreenenter"",""1"",""2739""
","""event"",""trial"",""time""
""fullscreenexit"",""95"",""829057""
""fullscreenexit"",""95"",""829057""
","","","6785.000000000116","[""0""]","0","19","10980","3830","","","","","","","","","","","","","","","","","","",""
"pit-instructions","111","1036679","0.0-2.0-22.1-1.1","battery-v0.2","","""event"",""trial"",""time""
""fullscreenenter"",""1"",""2738""
""fullscreenenter"",""1"",""2739""
""fullscreenexit"",""95"",""829057""
""fullscreenexit"",""95"",""829057""
","
","
","""event"",""trial"",""time""
""fullscreenenter"",""1"",""2738""
""fullscreenenter"",""1"",""2739""
","""event"",""trial"",""time""
""fullscreenexit"",""95"",""829057""
""fullscreenexit"",""95"",""829057""
","","[{""page_index"":0,""viewing_time"":1894}]","1894","","","","","","","","","","","","","","","","","","","","","","","",""
"pit-comprehension","112","1045161","0.0-2.0-23.0-0.0","battery-v0.2","","""event"",""trial"",""time""
""fullscreenenter"",""1"",""2738""
""fullscreenenter"",""1"",""2739""
""fullscreenexit"",""95"",""829057""
""fullscreenexit"",""95"",""829057""
","
","
","""event"",""trial"",""time""
""fullscreenenter"",""1"",""2738""
""fullscreenenter"",""1"",""2739""
","""event"",""trial"",""time""
""fullscreenexit"",""95"",""829057""
""fullscreenexit"",""95"",""829057""
","","","8478.999999999767","[""True""]","0","19","10980","3830","","","","","","","","","","","","","","","","","","",""
"pit-instructions","113","1048317","0.0-2.0-23.0-1.0","battery-v0.2","","""event"",""trial"",""time""
""fullscreenenter"",""1"",""2738""
""fullscreenenter"",""1"",""2739""
""fullscreenexit"",""95"",""829057""
""fullscreenexit"",""95"",""829057""
","
","
","""event"",""trial"",""time""
""fullscreenenter"",""1"",""2738""
""fullscreenenter"",""1"",""2739""
","""event"",""trial"",""time""
""fullscreenexit"",""95"",""829057""
""fullscreenexit"",""95"",""829057""
","","[{""page_index"":0,""viewing_time"":3118.0000000001164}]","3118.0000000001164","","","","","","","","","","","","","","","","","","","","","","","",""
"pit-comprehension","114","1055945","0.0-2.0-24.0-0.0","battery-v0.2","","""event"",""trial"",""time""
""fullscreenenter"",""1"",""2738""
""fullscreenenter"",""1"",""2739""
""fullscreenexit"",""95"",""829057""
""fullscreenexit"",""95"",""829057""
","
","
","""event"",""trial"",""time""
""fullscreenenter"",""1"",""2738""
""fullscreenenter"",""1"",""2739""
","""event"",""trial"",""time""
""fullscreenexit"",""95"",""829057""
""fullscreenexit"",""95"",""829057""
","","","7625","[""True""]","0","19","10980","3830","","","","","","","","","","","","","","","","","","",""
"pit-instructions","115","1063737","0.0-2.0-24.0-1.0","battery-v0.2","","""event"",""trial"",""time""
""fullscreenenter"",""1"",""2738""
""fullscreenenter"",""1"",""2739""
""fullscreenexit"",""95"",""829057""
""fullscreenexit"",""95"",""829057""
","
","
","""event"",""trial"",""time""
""fullscreenenter"",""1"",""2738""
""fullscreenenter"",""1"",""2739""
","""event"",""trial"",""time""
""fullscreenexit"",""95"",""829057""
""fullscreenexit"",""95"",""829057""
","","[{""page_index"":0,""viewing_time"":7757}]","7758.000000000233","","","","","","","","","","","","","","","","","","","","","","","",""
"pit-comprehension","116","1087623","0.0-2.0-25.0-0.0","battery-v0.2","","""event"",""trial"",""time""
""fullscreenenter"",""1"",""2738""
""fullscreenenter"",""1"",""2739""
""fullscreenexit"",""95"",""829057""
""fullscreenexit"",""95"",""829057""
","
","
","""event"",""trial"",""time""
""fullscreenenter"",""1"",""2738""
""fullscreenenter"",""1"",""2739""
","""event"",""trial"",""time""
""fullscreenexit"",""95"",""829057""
""fullscreenexit"",""95"",""829057""
","","","23882","[""True""]","0","19","10980","3830","","","","","","","","","","","","","","","","","","",""
"pit-instructions","117","1090306","0.0-2.0-25.0-1.0","battery-v0.2","","""event"",""trial"",""time""
""fullscreenenter"",""1"",""2738""
""fullscreenenter"",""1"",""2739""
""fullscreenexit"",""95"",""829057""
""fullscreenexit"",""95"",""829057""
","
","
","""event"",""trial"",""time""
""fullscreenenter"",""1"",""2738""
""fullscreenenter"",""1"",""2739""
","""event"",""trial"",""time""
""fullscreenexit"",""95"",""829057""
""fullscreenexit"",""95"",""829057""
","","[{""page_index"":0,""viewing_time"":2642.000000000233}]","2642.000000000233","","","","","","","","","","","","","","","","","","","","","","","",""
"pit-comprehension","118","1095377","0.0-2.0-26.0-0.0","battery-v0.2","","""event"",""trial"",""time""
""fullscreenenter"",""1"",""2738""
""fullscreenenter"",""1"",""2739""
""fullscreenexit"",""95"",""829057""
""fullscreenexit"",""95"",""829057""
","
","
","""event"",""trial"",""time""
""fullscreenenter"",""1"",""2738""
""fullscreenenter"",""1"",""2739""
","""event"",""trial"",""time""
""fullscreenexit"",""95"",""829057""
""fullscreenexit"",""95"",""829057""
","","","5068","[""True""]","1","19","10980","3830","","","","","","","","","","","","","","","","","","",""
"pit-instructions","119","1101416","0.0-2.0-26.0-1.0","battery-v0.2","","""event"",""trial"",""time""
""fullscreenenter"",""1"",""2738""
""fullscreenenter"",""1"",""2739""
""fullscreenexit"",""95"",""829057""
""fullscreenexit"",""95"",""829057""
","
","
","""event"",""trial"",""time""
""fullscreenenter"",""1"",""2738""
""fullscreenenter"",""1"",""2739""
","""event"",""trial"",""time""
""fullscreenexit"",""95"",""829057""
""fullscreenexit"",""95"",""829057""
","","[{""page_index"":0,""viewing_time"":6000}]","6000","","","","","","","","","","","","","","","","","","","","","","","",""
"pit-instructions","120","1105568","0.0-2.0-26.0-2.0-0.0","battery-v0.2","","""event"",""trial"",""time""
""fullscreenenter"",""1"",""2738""
""fullscreenenter"",""1"",""2739""
""fullscreenexit"",""95"",""829057""
""fullscreenexit"",""95"",""829057""
","
","
","""event"",""trial"",""time""
""fullscreenenter"",""1"",""2738""
""fullscreenenter"",""1"",""2739""
","""event"",""trial"",""time""
""fullscreenexit"",""95"",""829057""
""fullscreenexit"",""95"",""829057""
","","[{""page_index"":0,""viewing_time"":4149}]","4149","","","","","","","","","","","","","","","","","","","","","","","",""
"pit-comprehension","121","1113775","0.0-2.0-26.1-0.1","battery-v0.2","","""event"",""trial"",""time""
""fullscreenenter"",""1"",""2738""
""fullscreenenter"",""1"",""2739""
""fullscreenexit"",""95"",""829057""
""fullscreenexit"",""95"",""829057""
","
","
","""event"",""trial"",""time""
""fullscreenenter"",""1"",""2738""
""fullscreenenter"",""1"",""2739""
","""event"",""trial"",""time""
""fullscreenexit"",""95"",""829057""
""fullscreenexit"",""95"",""829057""
","","","8202","[""False""]","0","19","10980","3830","","","","","","","","","","","","","","","","","","",""
"pit-instructions","122","1118308","0.0-2.0-26.1-1.1","battery-v0.2","","""event"",""trial"",""time""
""fullscreenenter"",""1"",""2738""
""fullscreenenter"",""1"",""2739""
""fullscreenexit"",""95"",""829057""
""fullscreenexit"",""95"",""829057""
","
","
","""event"",""trial"",""time""
""fullscreenenter"",""1"",""2738""
""fullscreenenter"",""1"",""2739""
","""event"",""trial"",""time""
""fullscreenexit"",""95"",""829057""
""fullscreenexit"",""95"",""829057""
","","[{""page_index"":0,""viewing_time"":4497}]","4497","","","","","","","","","","","","","","","","","","","","","","","",""
"pit-instructions","123","1136859","0.0-3.0","battery-v0.2","","""event"",""trial"",""time""
""fullscreenenter"",""1"",""2738""
""fullscreenenter"",""1"",""2739""
""fullscreenexit"",""95"",""829057""
""fullscreenexit"",""95"",""829057""
","
","
","""event"",""trial"",""time""
""fullscreenenter"",""1"",""2738""
""fullscreenenter"",""1"",""2739""
","""event"",""trial"",""time""
""fullscreenexit"",""95"",""829057""
""fullscreenexit"",""95"",""829057""
","","[{""page_index"":0,""viewing_time"":3934},{""page_index"":1,""viewing_time"":8121},{""page_index"":2,""viewing_time"":6494}]","18550","","","","","","","","","","","","","","","","","","","","","","","",""
"pit-trial","124","1140596","0.0-4.0","battery-v0.2","","""event"",""trial"",""time""
""fullscreenenter"",""1"",""2738""
""fullscreenenter"",""1"",""2739""
""fullscreenexit"",""95"",""829057""
""fullscreenexit"",""95"",""829057""
","
","
","""event"",""trial"",""time""
""fullscreenenter"",""1"",""2738""
""fullscreenenter"",""1"",""2739""
","""event"",""trial"",""time""
""fullscreenexit"",""95"",""829057""
""fullscreenexit"",""95"",""829057""
","","","881","","","19","10980","3830","&#9728;","elianto","#f73b6a7A","-1"," ","0","-10","[1732]","1","1","","","10980","1","0","4","lose","no-go","0"
"pit-trial","125","1144148","0.0-5.0","battery-v0.2","","""event"",""trial"",""time""
""fullscreenenter"",""1"",""2738""
""fullscreenenter"",""1"",""2739""
""fullscreenexit"",""95"",""829057""
""fullscreenexit"",""95"",""829057""
","
","
","""event"",""trial"",""time""
""fullscreenenter"",""1"",""2738""
""fullscreenenter"",""1"",""2739""
","""event"",""trial"",""time""
""fullscreenexit"",""95"",""829057""
""fullscreenexit"",""95"",""829057""
","","","697","","","19","10980","3830","&#9733;","elianto","#3366ff99","-1"," ","0","0","[1548]","1","1","","","10980","2","2","2","win","no-go","0"
"pit-trial","126","1148015","0.0-6.0","battery-v0.2","","""event"",""trial"",""time""
""fullscreenenter"",""1"",""2738""
""fullscreenenter"",""1"",""2739""
""fullscreenexit"",""95"",""829057""
""fullscreenexit"",""95"",""829057""
","
","
","""event"",""trial"",""time""
""fullscreenenter"",""1"",""2738""
""fullscreenenter"",""1"",""2739""
","""event"",""trial"",""time""
""fullscreenexit"",""95"",""829057""
""fullscreenexit"",""95"",""829057""
","","","1013","","","19","10980","3830","&#9730;","elianto","#3366ff99"," "," ","1","+10","[1862.9999999997672]","1","1","","","10980","3","1","1","win","go","0"
"pit-trial","127","1152870","0.0-7.0","battery-v0.2","","""event"",""trial"",""time""
""fullscreenenter"",""1"",""2738""
""fullscreenenter"",""1"",""2739""
""fullscreenexit"",""95"",""829057""
""fullscreenexit"",""95"",""829057""
","
","
","""event"",""trial"",""time""
""fullscreenenter"",""1"",""2738""
""fullscreenenter"",""1"",""2739""
","""event"",""trial"",""time""
""fullscreenexit"",""95"",""829057""
""fullscreenexit"",""95"",""829057""
","","","-1","","","19","10980","3830","&#9752;","elianto","#f73b6a7A"," ","-1","0","-10","[]","0","1","","","10980","4","3","3","lose","go","0"
"pit-trial","128","1157724","0.0-8.0","battery-v0.2","","""event"",""trial"",""time""
""fullscreenenter"",""1"",""2738""
""fullscreenenter"",""1"",""2739""
""fullscreenexit"",""95"",""829057""
""fullscreenexit"",""95"",""829057""
","
","
","""event"",""trial"",""time""
""fullscreenenter"",""1"",""2738""
""fullscreenenter"",""1"",""2739""
","""event"",""trial"",""time""
""fullscreenexit"",""95"",""829057""
""fullscreenexit"",""95"",""829057""
","","","-1","","","19","10980","3830","&#9752;","elianto","#f73b6a7A"," ","-1","0","0","[]","0","1","","","10980","5","3","3","lose","go","1"
"pit-trial","129","1161139","0.0-9.0","battery-v0.2","","""event"",""trial"",""time""
""fullscreenenter"",""1"",""2738""
""fullscreenenter"",""1"",""2739""
""fullscreenexit"",""95"",""829057""
""fullscreenexit"",""95"",""829057""
","
","
","""event"",""trial"",""time""
""fullscreenenter"",""1"",""2738""
""fullscreenenter"",""1"",""2739""
","""event"",""trial"",""time""
""fullscreenexit"",""95"",""829057""
""fullscreenexit"",""95"",""829057""
","","","560","","","19","10980","3830","&#9733;","elianto","#3366ff99","-1"," ","0","+10","[1409.9999999997672]","1","1","","","10980","6","2","2","win","no-go","1"
"pit-trial","130","1165993","0.0-10.0","battery-v0.2","","""event"",""trial"",""time""
""fullscreenenter"",""1"",""2738""
""fullscreenenter"",""1"",""2739""
""fullscreenexit"",""95"",""829057""
""fullscreenexit"",""95"",""829057""
","
","
","""event"",""trial"",""time""
""fullscreenenter"",""1"",""2738""
""fullscreenenter"",""1"",""2739""
","""event"",""trial"",""time""
""fullscreenexit"",""95"",""829057""
""fullscreenexit"",""95"",""829057""
","","","-1","","","19","10980","3830","&#9730;","elianto","#3366ff99"," ","-1","0","0","[]","0","1","","","10980","7","1","1","win","go","0"
"pit-trial","131","1170848","0.0-11.0","battery-v0.2","","""event"",""trial"",""time""
""fullscreenenter"",""1"",""2738""
""fullscreenenter"",""1"",""2739""
""fullscreenexit"",""95"",""829057""
""fullscreenexit"",""95"",""829057""
","
","
","""event"",""trial"",""time""
""fullscreenenter"",""1"",""2738""
""fullscreenenter"",""1"",""2739""
","""event"",""trial"",""time""
""fullscreenexit"",""95"",""829057""
""fullscreenexit"",""95"",""829057""
","","","-1","","","19","10980","3830","&#9728;","elianto","#f73b6a7A","-1","-1","1","-10","[]","0","1","","","10980","8","0","4","lose","no-go","1"
"pit-trial","132","1175703","0.0-12.0","battery-v0.2","","""event"",""trial"",""time""
""fullscreenenter"",""1"",""2738""
""fullscreenenter"",""1"",""2739""
""fullscreenexit"",""95"",""829057""
""fullscreenexit"",""95"",""829057""
","
","
","""event"",""trial"",""time""
""fullscreenenter"",""1"",""2738""
""fullscreenenter"",""1"",""2739""
","""event"",""trial"",""time""
""fullscreenexit"",""95"",""829057""
""fullscreenexit"",""95"",""829057""
","","","-1","","","19","10980","3830","&#9728;","elianto","#f73b6a7A","-1","-1","1","-10","[]","0","1","","","10980","9","0","4","lose","no-go","1"
"pit-trial","133","1179148","0.0-13.0","battery-v0.2","","""event"",""trial"",""time""
""fullscreenenter"",""1"",""2738""
""fullscreenenter"",""1"",""2739""
""fullscreenexit"",""95"",""829057""
""fullscreenexit"",""95"",""829057""
","
","
","""event"",""trial"",""time""
""fullscreenenter"",""1"",""2738""
""fullscreenenter"",""1"",""2739""
","""event"",""trial"",""time""
""fullscreenexit"",""95"",""829057""
""fullscreenexit"",""95"",""829057""
","","","592","","","19","10980","3830","&#9730;","elianto","#3366ff99"," "," ","1","+10","[1442]","1","1","","","10980","10","1","1","win","go","0"
"pit-trial","134","1182863","0.0-14.0","battery-v0.2","","""event"",""trial"",""time""
""fullscreenenter"",""1"",""2738""
""fullscreenenter"",""1"",""2739""
""fullscreenexit"",""95"",""829057""
""fullscreenexit"",""95"",""829057""
","
","
","""event"",""trial"",""time""
""fullscreenenter"",""1"",""2738""
""fullscreenenter"",""1"",""2739""
","""event"",""trial"",""time""
""fullscreenexit"",""95"",""829057""
""fullscreenexit"",""95"",""829057""
","","","859.0000000002328","","","19","10980","3830","&#9733;","elianto","#3366ff99","-1"," ","0","0","[1709.0000000002328]","1","1","","","10980","11","2","2","win","no-go","0"
"pit-trial","135","1187718","0.0-15.0","battery-v0.2","","""event"",""trial"",""time""
""fullscreenenter"",""1"",""2738""
""fullscreenenter"",""1"",""2739""
""fullscreenexit"",""95"",""829057""
""fullscreenexit"",""95"",""829057""
","
","
","""event"",""trial"",""time""
""fullscreenenter"",""1"",""2738""
""fullscreenenter"",""1"",""2739""
","""event"",""trial"",""time""
""fullscreenexit"",""95"",""829057""
""fullscreenexit"",""95"",""829057""
","","","-1","","","19","10980","3830","&#9752;","elianto","#f73b6a7A"," ","-1","0","-10","[]","0","1","","","10980","12","3","3","lose","go","0"
"pit-trial","136","1191129","0.0-16.0","battery-v0.2","","""event"",""trial"",""time""
""fullscreenenter"",""1"",""2738""
""fullscreenenter"",""1"",""2739""
""fullscreenexit"",""95"",""829057""
""fullscreenexit"",""95"",""829057""
","
","
","""event"",""trial"",""time""
""fullscreenenter"",""1"",""2738""
""fullscreenenter"",""1"",""2739""
","""event"",""trial"",""time""
""fullscreenexit"",""95"",""829057""
""fullscreenexit"",""95"",""829057""
","","","556","","","19","10980","3830","&#9733;","elianto","#3366ff99","-1"," ","0","+10","[1406]","1","1","","","10980","13","2","2","win","no-go","1"
"pit-trial","137","1194902","0.0-17.0","battery-v0.2","","""event"",""trial"",""time""
""fullscreenenter"",""1"",""2738""
""fullscreenenter"",""1"",""2739""
""fullscreenexit"",""95"",""829057""
""fullscreenexit"",""95"",""829057""
","
","
","""event"",""trial"",""time""
""fullscreenenter"",""1"",""2738""
""fullscreenenter"",""1"",""2739""
","""event"",""trial"",""time""
""fullscreenexit"",""95"",""829057""
""fullscreenexit"",""95"",""829057""
","","","920","","","19","10980","3830","&#9730;","elianto","#3366ff99"," "," ","1","+10","[1770]","1","1","","","10980","14","1","1","win","go","0"
"pit-trial","138","1199756","0.0-18.0","battery-v0.2","","""event"",""trial"",""time""
""fullscreenenter"",""1"",""2738""
""fullscreenenter"",""1"",""2739""
""fullscreenexit"",""95"",""829057""
""fullscreenexit"",""95"",""829057""
","
","
","""event"",""trial"",""time""
""fullscreenenter"",""1"",""2738""
""fullscreenenter"",""1"",""2739""
","""event"",""trial"",""time""
""fullscreenexit"",""95"",""829057""
""fullscreenexit"",""95"",""829057""
","","","-1","","","19","10980","3830","&#9728;","elianto","#f73b6a7A","-1","-1","1","-10","[]","0","1","","","10980","15","0","4","lose","no-go","1"
"pit-trial","139","1204610","0.0-19.0","battery-v0.2","","""event"",""trial"",""time""
""fullscreenenter"",""1"",""2738""
""fullscreenenter"",""1"",""2739""
""fullscreenexit"",""95"",""829057""
""fullscreenexit"",""95"",""829057""
","
","
","""event"",""trial"",""time""
""fullscreenenter"",""1"",""2738""
""fullscreenenter"",""1"",""2739""
","""event"",""trial"",""time""
""fullscreenexit"",""95"",""829057""
""fullscreenexit"",""95"",""829057""
","","","-1","","","19","10980","3830","&#9752;","elianto","#f73b6a7A"," ","-1","0","0","[]","0","1","","","10980","16","3","3","lose","go","1"
"pit-trial","140","1209465","0.0-20.0","battery-v0.2","","""event"",""trial"",""time""
""fullscreenenter"",""1"",""2738""
""fullscreenenter"",""1"",""2739""
""fullscreenexit"",""95"",""829057""
""fullscreenexit"",""95"",""829057""
","
","
","""event"",""trial"",""time""
""fullscreenenter"",""1"",""2738""
""fullscreenenter"",""1"",""2739""
","""event"",""trial"",""time""
""fullscreenexit"",""95"",""829057""
""fullscreenexit"",""95"",""829057""
","","","-1","","","19","10980","3830","&#9752;","elianto","#f73b6a7A"," ","-1","0","-10","[]","0","1","","","10980","17","3","3","lose","go","0"
"pit-trial","141","1214321","0.0-21.0","battery-v0.2","","""event"",""trial"",""time""
""fullscreenenter"",""1"",""2738""
""fullscreenenter"",""1"",""2739""
""fullscreenexit"",""95"",""829057""
""fullscreenexit"",""95"",""829057""
","
","
","""event"",""trial"",""time""
""fullscreenenter"",""1"",""2738""
""fullscreenenter"",""1"",""2739""
","""event"",""trial"",""time""
""fullscreenexit"",""95"",""829057""
""fullscreenexit"",""95"",""829057""
","","","-1","","","19","10980","3830","&#9728;","elianto","#f73b6a7A","-1","-1","1","0","[]","0","1","","","10980","18","0","4","lose","no-go","0"
"pit-trial","142","1217833","0.0-22.0","battery-v0.2","","""event"",""trial"",""time""
""fullscreenenter"",""1"",""2738""
""fullscreenenter"",""1"",""2739""
""fullscreenexit"",""95"",""829057""
""fullscreenexit"",""95"",""829057""
","
","
","""event"",""trial"",""time""
""fullscreenenter"",""1"",""2738""
""fullscreenenter"",""1"",""2739""
","""event"",""trial"",""time""
""fullscreenexit"",""95"",""829057""
""fullscreenexit"",""95"",""829057""
","","","658","","","19","10980","3830","&#9733;","elianto","#3366ff99","-1"," ","0","0","[1509]","1","1","","","10980","19","2","2","win","no-go","0"
"pit-trial","143","1221293","0.0-23.0","battery-v0.2","","""event"",""trial"",""time""
""fullscreenenter"",""1"",""2738""
""fullscreenenter"",""1"",""2739""
""fullscreenexit"",""95"",""829057""
""fullscreenexit"",""95"",""829057""
","
","
","""event"",""trial"",""time""
""fullscreenenter"",""1"",""2738""
""fullscreenenter"",""1"",""2739""
","""event"",""trial"",""time""
""fullscreenexit"",""95"",""829057""
""fullscreenexit"",""95"",""829057""
","","","606","","","19","10980","3830","&#9730;","elianto","#3366ff99"," "," ","1","+10","[1456]","1","1","","","10980","20","1","1","win","go","0"
"pit-instructions","144","1240620","0.0-24.0","battery-v0.2","","""event"",""trial"",""time""
""fullscreenenter"",""1"",""2738""
""fullscreenenter"",""1"",""2739""
""fullscreenexit"",""95"",""829057""
""fullscreenexit"",""95"",""829057""
","
","
","""event"",""trial"",""time""
""fullscreenenter"",""1"",""2738""
""fullscreenenter"",""1"",""2739""
","""event"",""trial"",""time""
""fullscreenexit"",""95"",""829057""
""fullscreenexit"",""95"",""829057""
","","[{""page_index"":0,""viewing_time"":6174},{""page_index"":1,""viewing_time"":13149}]","19324.000000000233","","","","","","","","","","","","","","","","","","","","","","","",""
"pit-trial","145","1244263","0.0-25.0","battery-v0.2","","""event"",""trial"",""time""
""fullscreenenter"",""1"",""2738""
""fullscreenenter"",""1"",""2739""
""fullscreenexit"",""95"",""829057""
""fullscreenexit"",""95"",""829057""
","
","
","""event"",""trial"",""time""
""fullscreenenter"",""1"",""2738""
""fullscreenenter"",""1"",""2739""
","""event"",""trial"",""time""
""fullscreenexit"",""95"",""829057""
""fullscreenexit"",""95"",""829057""
","","","788","","","19","10980","3830","f","elianto","#3366ff99"," "," ","1","0","[1639]","1","2","","","10980","21","1","1","win","go","1"
"pit-trial","146","1249119","0.0-26.0","battery-v0.2","","""event"",""trial"",""time""
""fullscreenenter"",""1"",""2738""
""fullscreenenter"",""1"",""2739""
""fullscreenexit"",""95"",""829057""
""fullscreenexit"",""95"",""829057""
","
","
","""event"",""trial"",""time""
""fullscreenenter"",""1"",""2738""
""fullscreenenter"",""1"",""2739""
","""event"",""trial"",""time""
""fullscreenexit"",""95"",""829057""
""fullscreenexit"",""95"",""829057""
","","","-1","","","19","10980","3830","b","elianto","#f73b6a7A"," ","-1","0","-10","[]","0","2","","","10980","22","3","3","lose","go","0"
"pit-trial","147","1253973","0.0-27.0","battery-v0.2","","""event"",""trial"",""time""
""fullscreenenter"",""1"",""2738""
""fullscreenenter"",""1"",""2739""
""fullscreenexit"",""95"",""829057""
""fullscreenexit"",""95"",""829057""
","
","
","""event"",""trial"",""time""
""fullscreenenter"",""1"",""2738""
""fullscreenenter"",""1"",""2739""
","""event"",""trial"",""time""
""fullscreenexit"",""95"",""829057""
""fullscreenexit"",""95"",""829057""
","","","-1","","","19","10980","3830","t","elianto","#f73b6a7A","-1","-1","1","0","[]","0","2","","","10980","23","2","4","lose","no-go","0"
"pit-trial","148","1258827","0.0-28.0","battery-v0.2","","""event"",""trial"",""time""
""fullscreenenter"",""1"",""2738""
""fullscreenenter"",""1"",""2739""
""fullscreenexit"",""95"",""829057""
""fullscreenexit"",""95"",""829057""
","
","
","""event"",""trial"",""time""
""fullscreenenter"",""1"",""2738""
""fullscreenenter"",""1"",""2739""
","""event"",""trial"",""time""
""fullscreenexit"",""95"",""829057""
""fullscreenexit"",""95"",""829057""
","","","-1","","","19","10980","3830","n","elianto","#f73b6a7A","-1","-1","1","0","[]","0","2","","","10980","24","0","4","lose","no-go","0"
"pit-trial","149","1262271","0.0-29.0","battery-v0.2","","""event"",""trial"",""time""
""fullscreenenter"",""1"",""2738""
""fullscreenenter"",""1"",""2739""
""fullscreenexit"",""95"",""829057""
""fullscreenexit"",""95"",""829057""
","
","
","""event"",""trial"",""time""
""fullscreenenter"",""1"",""2738""
""fullscreenenter"",""1"",""2739""
","""event"",""trial"",""time""
""fullscreenexit"",""95"",""829057""
""fullscreenexit"",""95"",""829057""
","","","590","","","19","10980","3830","f","elianto","#3366ff99"," "," ","1","+10","[1440]","1","2","","","10980","25","1","1","win","go","0"
"pit-trial","150","1267125","0.0-30.0","battery-v0.2","","""event"",""trial"",""time""
""fullscreenenter"",""1"",""2738""
""fullscreenenter"",""1"",""2739""
""fullscreenexit"",""95"",""829057""
""fullscreenexit"",""95"",""829057""
","
","
","""event"",""trial"",""time""
""fullscreenenter"",""1"",""2738""
""fullscreenenter"",""1"",""2739""
","""event"",""trial"",""time""
""fullscreenexit"",""95"",""829057""
""fullscreenexit"",""95"",""829057""
","","","-1","","","19","10980","3830","b","elianto","#f73b6a7A"," ","-1","0","0","[]","0","2","","","10980","26","3","3","lose","go","1"
"pit-trial","151","1271981","0.0-31.0","battery-v0.2","","""event"",""trial"",""time""
""fullscreenenter"",""1"",""2738""
""fullscreenenter"",""1"",""2739""
""fullscreenexit"",""95"",""829057""
""fullscreenexit"",""95"",""829057""
","
","
","""event"",""trial"",""time""
""fullscreenenter"",""1"",""2738""
""fullscreenenter"",""1"",""2739""
","""event"",""trial"",""time""
""fullscreenexit"",""95"",""829057""
""fullscreenexit"",""95"",""829057""
","","","-1","","","19","10980","3830","t","elianto","#f73b6a7A","-1","-1","1","0","[]","0","2","","","10980","27","2","4","lose","no-go","0"
"pit-trial","152","1276836","0.0-32.0","battery-v0.2","","""event"",""trial"",""time""
""fullscreenenter"",""1"",""2738""
""fullscreenenter"",""1"",""2739""
""fullscreenexit"",""95"",""829057""
""fullscreenexit"",""95"",""829057""
","
","
","""event"",""trial"",""time""
""fullscreenenter"",""1"",""2738""
""fullscreenenter"",""1"",""2739""
","""event"",""trial"",""time""
""fullscreenexit"",""95"",""829057""
""fullscreenexit"",""95"",""829057""
","","","-1","","","19","10980","3830","n","elianto","#f73b6a7A","-1","-1","1","0","[]","0","2","","","10980","28","0","4","lose","no-go","0"
"pit-trial","153","1280318","0.0-33.0","battery-v0.2","","""event"",""trial"",""time""
""fullscreenenter"",""1"",""2738""
""fullscreenenter"",""1"",""2739""
""fullscreenexit"",""95"",""829057""
""fullscreenexit"",""95"",""829057""
","
","
","""event"",""trial"",""time""
""fullscreenenter"",""1"",""2738""
""fullscreenenter"",""1"",""2739""
","""event"",""trial"",""time""
""fullscreenexit"",""95"",""829057""
""fullscreenexit"",""95"",""829057""
","","","627","","","19","10980","3830","f","elianto","#3366ff99"," "," ","1","+10","[1477]","1","2","","","10980","29","1","1","win","go","0"
"pit-trial","154","1285172","0.0-34.0","battery-v0.2","","""event"",""trial"",""time""
""fullscreenenter"",""1"",""2738""
""fullscreenenter"",""1"",""2739""
""fullscreenexit"",""95"",""829057""
""fullscreenexit"",""95"",""829057""
","
","
","""event"",""trial"",""time""
""fullscreenenter"",""1"",""2738""
""fullscreenenter"",""1"",""2739""
","""event"",""trial"",""time""
""fullscreenexit"",""95"",""829057""
""fullscreenexit"",""95"",""829057""
","","","-1","","","19","10980","3830","b","elianto","#f73b6a7A"," ","-1","0","-10","[]","0","2","","","10980","30","3","3","lose","go","0"
"pit-trial","155","1290027","0.0-35.0","battery-v0.2","","""event"",""trial"",""time""
""fullscreenenter"",""1"",""2738""
""fullscreenenter"",""1"",""2739""
""fullscreenexit"",""95"",""829057""
""fullscreenexit"",""95"",""829057""
","
","
","""event"",""trial"",""time""
""fullscreenenter"",""1"",""2738""
""fullscreenenter"",""1"",""2739""
","""event"",""trial"",""time""
""fullscreenexit"",""95"",""829057""
""fullscreenexit"",""95"",""829057""
","","","-1","","","19","10980","3830","t","elianto","#f73b6a7A","-1","-1","1","0","[]","0","2","","","10980","31","2","4","lose","no-go","0"
"pit-trial","156","1294881","0.0-36.0","battery-v0.2","","""event"",""trial"",""time""
""fullscreenenter"",""1"",""2738""
""fullscreenenter"",""1"",""2739""
""fullscreenexit"",""95"",""829057""
""fullscreenexit"",""95"",""829057""
","
","
","""event"",""trial"",""time""
""fullscreenenter"",""1"",""2738""
""fullscreenenter"",""1"",""2739""
","""event"",""trial"",""time""
""fullscreenexit"",""95"",""829057""
""fullscreenexit"",""95"",""829057""
","","","-1","","","19","10980","3830","n","elianto","#f73b6a7A","-1","-1","1","0","[]","0","2","","","10980","32","0","4","lose","no-go","0"
"pit-trial","157","1299735","0.0-37.0","battery-v0.2","","""event"",""trial"",""time""
""fullscreenenter"",""1"",""2738""
""fullscreenenter"",""1"",""2739""
""fullscreenexit"",""95"",""829057""
""fullscreenexit"",""95"",""829057""
","
","
","""event"",""trial"",""time""
""fullscreenenter"",""1"",""2738""
""fullscreenenter"",""1"",""2739""
","""event"",""trial"",""time""
""fullscreenexit"",""95"",""829057""
""fullscreenexit"",""95"",""829057""
","","","-1","","","19","10980","3830","t","elianto","#f73b6a7A","-1","-1","1","0","[]","0","2","","","10980","33","2","4","lose","no-go","0"
"pit-trial","158","1304589","0.0-38.0","battery-v0.2","","""event"",""trial"",""time""
""fullscreenenter"",""1"",""2738""
""fullscreenenter"",""1"",""2739""
""fullscreenexit"",""95"",""829057""
""fullscreenexit"",""95"",""829057""
","
","
","""event"",""trial"",""time""
""fullscreenenter"",""1"",""2738""
""fullscreenenter"",""1"",""2739""
","""event"",""trial"",""time""
""fullscreenexit"",""95"",""829057""
""fullscreenexit"",""95"",""829057""
","","","-1","","","19","10980","3830","n","elianto","#f73b6a7A","-1","-1","1","0","[]","0","2","","","10980","34","0","4","lose","no-go","0"
"pit-trial","159","1309445","0.0-39.0","battery-v0.2","","""event"",""trial"",""time""
""fullscreenenter"",""1"",""2738""
""fullscreenenter"",""1"",""2739""
""fullscreenexit"",""95"",""829057""
""fullscreenexit"",""95"",""829057""
","
","
","""event"",""trial"",""time""
""fullscreenenter"",""1"",""2738""
""fullscreenenter"",""1"",""2739""
","""event"",""trial"",""time""
""fullscreenexit"",""95"",""829057""
""fullscreenexit"",""95"",""829057""
","","","-1","","","19","10980","3830","b","elianto","#f73b6a7A"," ","-1","0","-10","[]","0","2","","","10980","35","3","3","lose","go","0"
"pit-trial","160","1312891","0.0-40.0","battery-v0.2","","""event"",""trial"",""time""
""fullscreenenter"",""1"",""2738""
""fullscreenenter"",""1"",""2739""
""fullscreenexit"",""95"",""829057""
""fullscreenexit"",""95"",""829057""
","
","
","""event"",""trial"",""time""
""fullscreenenter"",""1"",""2738""
""fullscreenenter"",""1"",""2739""
","""event"",""trial"",""time""
""fullscreenexit"",""95"",""829057""
""fullscreenexit"",""95"",""829057""
","","","590","","","19","10980","3830","f","elianto","#3366ff99"," "," ","1","0","[1442]","1","2","","","10980","36","1","1","win","go","1"
"pit-trial","161","1317745","0.0-41.0","battery-v0.2","","""event"",""trial"",""time""
""fullscreenenter"",""1"",""2738""
""fullscreenenter"",""1"",""2739""
""fullscreenexit"",""95"",""829057""
""fullscreenexit"",""95"",""829057""
","
","
","""event"",""trial"",""time""
""fullscreenenter"",""1"",""2738""
""fullscreenenter"",""1"",""2739""
","""event"",""trial"",""time""
""fullscreenexit"",""95"",""829057""
""fullscreenexit"",""95"",""829057""
","","","-1","","","19","10980","3830","n","elianto","#f73b6a7A","-1","-1","1","0","[]","0","2","","","10980","37","0","4","lose","no-go","0"
"pit-trial","162","1322599","0.0-42.0","battery-v0.2","","""event"",""trial"",""time""
""fullscreenenter"",""1"",""2738""
""fullscreenenter"",""1"",""2739""
""fullscreenexit"",""95"",""829057""
""fullscreenexit"",""95"",""829057""
","
","
","""event"",""trial"",""time""
""fullscreenenter"",""1"",""2738""
""fullscreenenter"",""1"",""2739""
","""event"",""trial"",""time""
""fullscreenexit"",""95"",""829057""
""fullscreenexit"",""95"",""829057""
","","","-1","","","19","10980","3830","t","elianto","#f73b6a7A","-1","-1","1","-10","[]","0","2","","","10980","38","2","4","lose","no-go","1"
"pit-trial","163","1326183","0.0-43.0","battery-v0.2","","""event"",""trial"",""time""
""fullscreenenter"",""1"",""2738""
""fullscreenenter"",""1"",""2739""
""fullscreenexit"",""95"",""829057""
""fullscreenexit"",""95"",""829057""
","
","
","""event"",""trial"",""time""
""fullscreenenter"",""1"",""2738""
""fullscreenenter"",""1"",""2739""
","""event"",""trial"",""time""
""fullscreenexit"",""95"",""829057""
""fullscreenexit"",""95"",""829057""
","","","730","","","19","10980","3830","f","elianto","#3366ff99"," "," ","1","+10","[1580]","1","2","","","10980","39","1","1","win","go","0"
"pit-trial","164","1331037","0.0-44.0","battery-v0.2","","""event"",""trial"",""time""
""fullscreenenter"",""1"",""2738""
""fullscreenenter"",""1"",""2739""
""fullscreenexit"",""95"",""829057""
""fullscreenexit"",""95"",""829057""
","
","
","""event"",""trial"",""time""
""fullscreenenter"",""1"",""2738""
""fullscreenenter"",""1"",""2739""
","""event"",""trial"",""time""
""fullscreenexit"",""95"",""829057""
""fullscreenexit"",""95"",""829057""
","","","-1","","","19","10980","3830","b","elianto","#f73b6a7A"," ","-1","0","-10","[]","0","2","","","10980","40","3","3","lose","go","0"
"pit-trial","165","1335892","0.0-45.0","battery-v0.2","","""event"",""trial"",""time""
""fullscreenenter"",""1"",""2738""
""fullscreenenter"",""1"",""2739""
""fullscreenexit"",""95"",""829057""
""fullscreenexit"",""95"",""829057""
","
","
","""event"",""trial"",""time""
""fullscreenenter"",""1"",""2738""
""fullscreenenter"",""1"",""2739""
","""event"",""trial"",""time""
""fullscreenexit"",""95"",""829057""
""fullscreenexit"",""95"",""829057""
","","","-1","","","19","10980","3830","b","elianto","#f73b6a7A"," ","-1","0","-10","[]","0","2","","","10980","41","3","3","lose","go","0"
"pit-trial","166","1340747","0.0-46.0","battery-v0.2","","""event"",""trial"",""time""
""fullscreenenter"",""1"",""2738""
""fullscreenenter"",""1"",""2739""
""fullscreenexit"",""95"",""829057""
""fullscreenexit"",""95"",""829057""
","
","
","""event"",""trial"",""time""
""fullscreenenter"",""1"",""2738""
""fullscreenenter"",""1"",""2739""
","""event"",""trial"",""time""
""fullscreenexit"",""95"",""829057""
""fullscreenexit"",""95"",""829057""
","","","-1","","","19","10980","3830","t","elianto","#f73b6a7A","-1","-1","1","0","[]","0","2","","","10980","42","2","4","lose","no-go","0"
"pit-trial","167","1345603","0.0-47.0","battery-v0.2","","""event"",""trial"",""time""
""fullscreenenter"",""1"",""2738""
""fullscreenenter"",""1"",""2739""
""fullscreenexit"",""95"",""829057""
""fullscreenexit"",""95"",""829057""
","
","
","""event"",""trial"",""time""
""fullscreenenter"",""1"",""2738""
""fullscreenenter"",""1"",""2739""
","""event"",""trial"",""time""
""fullscreenexit"",""95"",""829057""
""fullscreenexit"",""95"",""829057""
","","","-1","","","19","10980","3830","n","elianto","#f73b6a7A","-1","-1","1","0","[]","0","2","","","10980","43","0","4","lose","no-go","0"
"pit-trial","168","1349036","0.0-48.0","battery-v0.2","","""event"",""trial"",""time""
""fullscreenenter"",""1"",""2738""
""fullscreenenter"",""1"",""2739""
""fullscreenexit"",""95"",""829057""
""fullscreenexit"",""95"",""829057""
","
","
","""event"",""trial"",""time""
""fullscreenenter"",""1"",""2738""
""fullscreenenter"",""1"",""2739""
","""event"",""trial"",""time""
""fullscreenexit"",""95"",""829057""
""fullscreenexit"",""95"",""829057""
","","","580","","","19","10980","3830","f","elianto","#3366ff99"," "," ","1","+10","[1430]","1","2","","","10980","44","1","1","win","go","0"
"pit-trial","169","1353890","0.0-49.0","battery-v0.2","","""event"",""trial"",""time""
""fullscreenenter"",""1"",""2738""
""fullscreenenter"",""1"",""2739""
""fullscreenexit"",""95"",""829057""
""fullscreenexit"",""95"",""829057""
","
","
","""event"",""trial"",""time""
""fullscreenenter"",""1"",""2738""
""fullscreenenter"",""1"",""2739""
","""event"",""trial"",""time""
""fullscreenexit"",""95"",""829057""
""fullscreenexit"",""95"",""829057""
","","","-1","","","19","10980","3830","n","elianto","#f73b6a7A","-1","-1","1","0","[]","0","2","","","10980","45","0","4","lose","no-go","0"
"pit-trial","170","1358745","0.0-50.0","battery-v0.2","","""event"",""trial"",""time""
""fullscreenenter"",""1"",""2738""
""fullscreenenter"",""1"",""2739""
""fullscreenexit"",""95"",""829057""
""fullscreenexit"",""95"",""829057""
","
","
","""event"",""trial"",""time""
""fullscreenenter"",""1"",""2738""
""fullscreenenter"",""1"",""2739""
","""event"",""trial"",""time""
""fullscreenexit"",""95"",""829057""
""fullscreenexit"",""95"",""829057""
","","","-1","","","19","10980","3830","t","elianto","#f73b6a7A","-1","-1","1","0","[]","0","2","","","10980","46","2","4","lose","no-go","0"
"pit-trial","171","1362254","0.0-51.0","battery-v0.2","","""event"",""trial"",""time""
""fullscreenenter"",""1"",""2738""
""fullscreenenter"",""1"",""2739""
""fullscreenexit"",""95"",""829057""
""fullscreenexit"",""95"",""829057""
","
","
","""event"",""trial"",""time""
""fullscreenenter"",""1"",""2738""
""fullscreenenter"",""1"",""2739""
","""event"",""trial"",""time""
""fullscreenexit"",""95"",""829057""
""fullscreenexit"",""95"",""829057""
","","","654.0000000002328","","","19","10980","3830","c","elianto","#3366ff99","-1"," ","0","0","[1505.0000000002328]","1","2","","","10980","47","4","2","win","no-go","0"
"pit-trial","172","1367108","0.0-52.0","battery-v0.2","","""event"",""trial"",""time""
""fullscreenenter"",""1"",""2738""
""fullscreenenter"",""1"",""2739""
""fullscreenexit"",""95"",""829057""
""fullscreenexit"",""95"",""829057""
","
","
","""event"",""trial"",""time""
""fullscreenenter"",""1"",""2738""
""fullscreenenter"",""1"",""2739""
","""event"",""trial"",""time""
""fullscreenexit"",""95"",""829057""
""fullscreenexit"",""95"",""829057""
","","","-1","","","19","10980","3830","b","elianto","#f73b6a7A"," ","-1","0","-10","[]","0","2","","","10980","48","3","3","lose","go","0"
"pit-trial","173","1371963","0.0-53.0","battery-v0.2","","""event"",""trial"",""time""
""fullscreenenter"",""1"",""2738""
""fullscreenenter"",""1"",""2739""
""fullscreenexit"",""95"",""829057""
""fullscreenexit"",""95"",""829057""
","
","
","""event"",""trial"",""time""
""fullscreenenter"",""1"",""2738""
""fullscreenenter"",""1"",""2739""
","""event"",""trial"",""time""
""fullscreenexit"",""95"",""829057""
""fullscreenexit"",""95"",""829057""
","","","-1","","","19","10980","3830","n","elianto","#f73b6a7A","-1","-1","1","0","[]","0","2","","","10980","49","0","4","lose","no-go","0"
"pit-trial","174","1375934","0.0-54.0","battery-v0.2","","""event"",""trial"",""time""
""fullscreenenter"",""1"",""2738""
""fullscreenenter"",""1"",""2739""
""fullscreenexit"",""95"",""829057""
""fullscreenexit"",""95"",""829057""
","
","
","""event"",""trial"",""time""
""fullscreenenter"",""1"",""2738""
""fullscreenenter"",""1"",""2739""
","""event"",""trial"",""time""
""fullscreenexit"",""95"",""829057""
""fullscreenexit"",""95"",""829057""
","","","1117","","","19","10980","3830","f","elianto","#3366ff99"," "," ","1","+10","[1968]","1","2","","","10980","50","1","1","win","go","0"
"pit-trial","175","1380788","0.0-55.0","battery-v0.2","","""event"",""trial"",""time""
""fullscreenenter"",""1"",""2738""
""fullscreenenter"",""1"",""2739""
""fullscreenexit"",""95"",""829057""
""fullscreenexit"",""95"",""829057""
","
","
","""event"",""trial"",""time""
""fullscreenenter"",""1"",""2738""
""fullscreenenter"",""1"",""2739""
","""event"",""trial"",""time""
""fullscreenexit"",""95"",""829057""
""fullscreenexit"",""95"",""829057""
","","","-1","","","19","10980","3830","b","elianto","#f73b6a7A"," ","-1","0","-10","[]","0","2","","","10980","51","3","3","lose","go","0"
"pit-trial","176","1384556","0.0-56.0","battery-v0.2","","""event"",""trial"",""time""
""fullscreenenter"",""1"",""2738""
""fullscreenenter"",""1"",""2739""
""fullscreenexit"",""95"",""829057""
""fullscreenexit"",""95"",""829057""
","
","
","""event"",""trial"",""time""
""fullscreenenter"",""1"",""2738""
""fullscreenenter"",""1"",""2739""
","""event"",""trial"",""time""
""fullscreenexit"",""95"",""829057""
""fullscreenexit"",""95"",""829057""
","","","914","","","19","10980","3830","c","elianto","#3366ff99","-1"," ","0","0","[1764]","1","2","","","10980","52","4","2","win","no-go","0"
"pit-trial","177","1388203","0.0-57.0","battery-v0.2","","""event"",""trial"",""time""
""fullscreenenter"",""1"",""2738""
""fullscreenenter"",""1"",""2739""
""fullscreenexit"",""95"",""829057""
""fullscreenexit"",""95"",""829057""
","
","
","""event"",""trial"",""time""
""fullscreenenter"",""1"",""2738""
""fullscreenenter"",""1"",""2739""
","""event"",""trial"",""time""
""fullscreenexit"",""95"",""829057""
""fullscreenexit"",""95"",""829057""
","","","793","","","19","10980","3830","f","elianto","#3366ff99"," "," ","1","+10","[1644]","1","2","","","10980","53","1","1","win","go","0"
"pit-trial","178","1393057","0.0-58.0","battery-v0.2","","""event"",""trial"",""time""
""fullscreenenter"",""1"",""2738""
""fullscreenenter"",""1"",""2739""
""fullscreenexit"",""95"",""829057""
""fullscreenexit"",""95"",""829057""
","
","
","""event"",""trial"",""time""
""fullscreenenter"",""1"",""2738""
""fullscreenenter"",""1"",""2739""
","""event"",""trial"",""time""
""fullscreenexit"",""95"",""829057""
""fullscreenexit"",""95"",""829057""
","","","-1","","","19","10980","3830","t","elianto","#f73b6a7A","-1","-1","1","0","[]","0","2","","","10980","54","2","4","lose","no-go","0"
"pit-trial","179","1396984","0.0-59.0","battery-v0.2","","""event"",""trial"",""time""
""fullscreenenter"",""1"",""2738""
""fullscreenenter"",""1"",""2739""
""fullscreenexit"",""95"",""829057""
""fullscreenexit"",""95"",""829057""
","
","
","""event"",""trial"",""time""
""fullscreenenter"",""1"",""2738""
""fullscreenenter"",""1"",""2739""
","""event"",""trial"",""time""
""fullscreenexit"",""95"",""829057""
""fullscreenexit"",""95"",""829057""
","","","1073.0000000002328","","","19","10980","3830","c","elianto","#3366ff99","-1"," ","0","0","[1923]","1","2","","","10980","55","4","2","win","no-go","0"
"pit-trial","180","1401839","0.0-60.0","battery-v0.2","","""event"",""trial"",""time""
""fullscreenenter"",""1"",""2738""
""fullscreenenter"",""1"",""2739""
""fullscreenexit"",""95"",""829057""
""fullscreenexit"",""95"",""829057""
","
","
","""event"",""trial"",""time""
""fullscreenenter"",""1"",""2738""
""fullscreenenter"",""1"",""2739""
","""event"",""trial"",""time""
""fullscreenexit"",""95"",""829057""
""fullscreenexit"",""95"",""829057""
","","","-1","","","19","10980","3830","n","elianto","#f73b6a7A","-1","-1","1","-10","[]","0","2","","","10980","56","0","4","lose","no-go","1"
"pit-trial","181","1406199","0.0-61.0","battery-v0.2","","""event"",""trial"",""time""
""fullscreenenter"",""1"",""2738""
""fullscreenenter"",""1"",""2739""
""fullscreenexit"",""95"",""829057""
""fullscreenexit"",""95"",""829057""
","
","
","""event"",""trial"",""time""
""fullscreenenter"",""1"",""2738""
""fullscreenenter"",""1"",""2739""
","""event"",""trial"",""time""
""fullscreenexit"",""95"",""829057""
""fullscreenexit"",""95"",""829057""
","","","1505","","","19","10980","3830","c","elianto","#3366ff99","-1"," ","0","0","[2355]","1","2","","","10980","57","4","2","win","no-go","0"
"pit-trial","182","1411054","0.0-62.0","battery-v0.2","","""event"",""trial"",""time""
""fullscreenenter"",""1"",""2738""
""fullscreenenter"",""1"",""2739""
""fullscreenexit"",""95"",""829057""
""fullscreenexit"",""95"",""829057""
","
","
","""event"",""trial"",""time""
""fullscreenenter"",""1"",""2738""
""fullscreenenter"",""1"",""2739""
","""event"",""trial"",""time""
""fullscreenexit"",""95"",""829057""
""fullscreenexit"",""95"",""829057""
","","","-1","","","19","10980","3830","f","elianto","#3366ff99"," ","-1","0","+10","[3407]","1","2","","","10980","58","1","1","win","go","1"
"pit-trial","183","1415909","0.0-63.0","battery-v0.2","","""event"",""trial"",""time""
""fullscreenenter"",""1"",""2738""
""fullscreenenter"",""1"",""2739""
""fullscreenexit"",""95"",""829057""
""fullscreenexit"",""95"",""829057""
","
","
","""event"",""trial"",""time""
""fullscreenenter"",""1"",""2738""
""fullscreenenter"",""1"",""2739""
","""event"",""trial"",""time""
""fullscreenexit"",""95"",""829057""
""fullscreenexit"",""95"",""829057""
","","","-1","","","19","10980","3830","b","elianto","#f73b6a7A"," ","-1","0","0","[]","0","2","","","10980","59","3","3","lose","go","1"
"pit-trial","184","1420763","0.0-64.0","battery-v0.2","","""event"",""trial"",""time""
""fullscreenenter"",""1"",""2738""
""fullscreenenter"",""1"",""2739""
""fullscreenexit"",""95"",""829057""
""fullscreenexit"",""95"",""829057""
","
","
","""event"",""trial"",""time""
""fullscreenenter"",""1"",""2738""
""fullscreenenter"",""1"",""2739""
","""event"",""trial"",""time""
""fullscreenexit"",""95"",""829057""
""fullscreenexit"",""95"",""829057""
","","","-1","","","19","10980","3830","n","elianto","#f73b6a7A","-1","-1","1","-10","[]","0","2","","","10980","60","0","4","lose","no-go","1"
"pit-trial","185","1425617","0.0-65.0","battery-v0.2","","""event"",""trial"",""time""
""fullscreenenter"",""1"",""2738""
""fullscreenenter"",""1"",""2739""
""fullscreenexit"",""95"",""829057""
""fullscreenexit"",""95"",""829057""
","
","
","""event"",""trial"",""time""
""fullscreenenter"",""1"",""2738""
""fullscreenenter"",""1"",""2739""
","""event"",""trial"",""time""
""fullscreenexit"",""95"",""829057""
""fullscreenexit"",""95"",""829057""
","","","-1","","","19","10980","3830","t","elianto","#f73b6a7A","-1","-1","1","-10","[]","0","2","","","10980","61","2","4","lose","no-go","1"
"pit-trial","186","1430471","0.0-66.0","battery-v0.2","","""event"",""trial"",""time""
""fullscreenenter"",""1"",""2738""
""fullscreenenter"",""1"",""2739""
""fullscreenexit"",""95"",""829057""
""fullscreenexit"",""95"",""829057""
","
","
","""event"",""trial"",""time""
""fullscreenenter"",""1"",""2738""
""fullscreenenter"",""1"",""2739""
","""event"",""trial"",""time""
""fullscreenexit"",""95"",""829057""
""fullscreenexit"",""95"",""829057""
","","","-1","","","19","10980","3830","b","elianto","#f73b6a7A"," ","-1","0","0","[]","0","2","","","10980","62","3","3","lose","go","1"
"pit-trial","187","1434365","0.0-67.0","battery-v0.2","","""event"",""trial"",""time""
""fullscreenenter"",""1"",""2738""
""fullscreenenter"",""1"",""2739""
""fullscreenexit"",""95"",""829057""
""fullscreenexit"",""95"",""829057""
","
","
","""event"",""trial"",""time""
""fullscreenenter"",""1"",""2738""
""fullscreenenter"",""1"",""2739""
","""event"",""trial"",""time""
""fullscreenexit"",""95"",""829057""
""fullscreenexit"",""95"",""829057""
","","","1039","","","19","10980","3830","c","elianto","#3366ff99","-1"," ","0","+10","[1889.9999999997672]","1","2","","","10980","63","4","2","win","no-go","1"
"pit-trial","188","1438276","0.0-68.0","battery-v0.2","","""event"",""trial"",""time""
""fullscreenenter"",""1"",""2738""
""fullscreenenter"",""1"",""2739""
""fullscreenexit"",""95"",""829057""
""fullscreenexit"",""95"",""829057""
","
","
","""event"",""trial"",""time""
""fullscreenenter"",""1"",""2738""
""fullscreenenter"",""1"",""2739""
","""event"",""trial"",""time""
""fullscreenexit"",""95"",""829057""
""fullscreenexit"",""95"",""829057""
","","","1056","","","19","10980","3830","f","elianto","#3366ff99"," "," ","1","+10","[1906]","1","2","","","10980","64","1","1","win","go","0"
"pit-trial","189","1443131","0.0-69.0","battery-v0.2","","""event"",""trial"",""time""
""fullscreenenter"",""1"",""2738""
""fullscreenenter"",""1"",""2739""
""fullscreenexit"",""95"",""829057""
""fullscreenexit"",""95"",""829057""
","
","
","""event"",""trial"",""time""
