"trial_type","trial_index","time_elapsed","internal_node_id","task_version","subject_id","interactions","blur_events","focus_events","fullscreenenter_events","fullscreenexit_events","success","view_history","rt","responses","num_errors","age","subject","participantId","rune","rune_set","hex","correct","choice","accuracy","outcome","keys","total_keys","block","practice","value","sub","trial","stimulus","robot","valence","action","sham"
"pavlovia","0","18","0.0-0.0","battery-v0.2","","""event"",""trial"",""time""
""fullscreenenter"",""1"",""3865""
","
","
","""event"",""trial"",""time""
""fullscreenenter"",""1"",""3865""
","
","","","","","","","","","","","","","","","","","","","","","","","","","","",""
"fullscreen","1","4817","0.0-1.0","battery-v0.2","","""event"",""trial"",""time""
""fullscreenenter"",""1"",""3865""
","
","
","""event"",""trial"",""time""
""fullscreenenter"",""1"",""3865""
","
","true","","","","","","","","","","","","","","","","","","","","","","","","","",""
"pit-instructions","2","9095","0.0-2.0-0.0","battery-v0.2","","""event"",""trial"",""time""
""fullscreenenter"",""1"",""3865""
","
","
","""event"",""trial"",""time""
""fullscreenenter"",""1"",""3865""
","
","","[{""page_index"":0,""viewing_time"":4262.799999952316}]","4263.299999952316","","","","","","","","","","","","","","","","","","","","","","","",""
"pit-comprehension","3","12172","0.0-2.0-1.0-0.0","battery-v0.2","","""event"",""trial"",""time""
""fullscreenenter"",""1"",""3865""
","
","
","""event"",""trial"",""time""
""fullscreenenter"",""1"",""3865""
","
","","","3071.5","[""shark""]","0","18","10266","4815","","","","","","","","","","","","","","","","","","",""
"pit-instructions","4","14906","0.0-2.0-1.0-1.0","battery-v0.2","","""event"",""trial"",""time""
""fullscreenenter"",""1"",""3865""
","
","
","""event"",""trial"",""time""
""fullscreenenter"",""1"",""3865""
","
","","[{""page_index"":0,""viewing_time"":2713.3000000715256}]","2713.7000000476837","","","","","","","","","","","","","","","","","","","","","","","",""
"pit-comprehension","5","20437","0.0-2.0-2.0-0.0","battery-v0.2","","""event"",""trial"",""time""
""fullscreenenter"",""1"",""3865""
","
","
","""event"",""trial"",""time""
""fullscreenenter"",""1"",""3865""
","
","","","5527.100000023842","[""tiger""]","0","18","10266","4815","","","","","","","","","","","","","","","","","","",""
"pit-instructions","6","26530","0.0-2.0-2.0-1.0","battery-v0.2","","""event"",""trial"",""time""
""fullscreenenter"",""1"",""3865""
","
","
","""event"",""trial"",""time""
""fullscreenenter"",""1"",""3865""
","
","","[{""page_index"":0,""viewing_time"":6088.300000071526}]","6088.700000047684","","","","","","","","","","","","","","","","","","","","","","","",""
"pit-instructions","7","141890","0.0-2.0-3.0","battery-v0.2","","""event"",""trial"",""time""
""fullscreenenter"",""1"",""3865""
","
","
","""event"",""trial"",""time""
""fullscreenenter"",""1"",""3865""
","
","","[{""page_index"":0,""viewing_time"":14145.600000023842},{""page_index"":1,""viewing_time"":10313.399999976158},{""page_index"":2,""viewing_time"":7120.200000047684},{""page_index"":3,""viewing_time"":5204.799999952316},{""page_index"":4,""viewing_time"":8701.200000047684},{""page_index"":5,""viewing_time"":6059.599999904633},{""page_index"":6,""viewing_time"":8776.300000071526},{""page_index"":7,""viewing_time"":7203},{""page_index"":8,""viewing_time"":6799.5},{""page_index"":9,""viewing_time"":11317.5},{""page_index"":10,""viewing_time"":8326.100000023842},{""page_index"":11,""viewing_time"":8822.399999976158},{""page_index"":12,""viewing_time"":6931.899999976158},{""page_index"":13,""viewing_time"":5633.899999976158}]","115355.89999997616","","","","","","","","","","","","","","","","","","","","","","","",""
"pit-trial","8","145848","0.0-2.0-4.0-0.0","battery-v0.2","","""event"",""trial"",""time""
""fullscreenenter"",""1"",""3865""
","
","
","""event"",""trial"",""time""
""fullscreenenter"",""1"",""3865""
","
","","","1097.1000000238419","","","18","10266","4815","&#9784;","elianto","#FFFFF080"," "," ","1","&#10004","[1949.1999999284744]","1","0","0","","","","","","","",""
"pit-trial","9","149297","0.0-2.0-4.1-0.1","battery-v0.2","","""event"",""trial"",""time""
""fullscreenenter"",""1"",""3865""
","
","
","""event"",""trial"",""time""
""fullscreenenter"",""1"",""3865""
","
","","","573.8000000715256","","","18","10266","4815","&#9784;","elianto","#FFFFF080"," "," ","1","&#10004","[1426.7000000476837]","1","0","0","","","","","","","",""
"pit-trial","10","152663","0.0-2.0-4.2-0.2","battery-v0.2","","""event"",""trial"",""time""
""fullscreenenter"",""1"",""3865""
","
","
","""event"",""trial"",""time""
""fullscreenenter"",""1"",""3865""
","
","","","506","","","18","10266","4815","&#9784;","elianto","#FFFFF080"," "," ","1","&#10004","[1357.0999999046326]","1","0","0","","","","","","","",""
"pit-trial","11","155997","0.0-2.0-4.3-0.3","battery-v0.2","","""event"",""trial"",""time""
""fullscreenenter"",""1"",""3865""
","
","
","""event"",""trial"",""time""
""fullscreenenter"",""1"",""3865""
","
","","","462.10000002384186","","","18","10266","4815","&#9784;","elianto","#FFFFF080"," "," ","1","&#10004","[1314.5]","1","0","0","","","","","","","",""
"pit-trial","12","159408","0.0-2.0-4.4-0.4","battery-v0.2","","""event"",""trial"",""time""
""fullscreenenter"",""1"",""3865""
","
","
","""event"",""trial"",""time""
""fullscreenenter"",""1"",""3865""
","
","","","549.8999999761581","","","18","10266","4815","&#9784;","elianto","#FFFFF080"," "," ","1","&#10004","[1402.2999999523163]","1","0","0","","","","","","","",""
"pit-instructions","13","184376","0.0-2.0-5.0","battery-v0.2","","""event"",""trial"",""time""
""fullscreenenter"",""1"",""3865""
","
","
","""event"",""trial"",""time""
""fullscreenenter"",""1"",""3865""
","
","","[{""page_index"":0,""viewing_time"":6550.100000023842},{""page_index"":1,""viewing_time"":6708.300000071526},{""page_index"":2,""viewing_time"":5662.399999976158},{""page_index"":3,""viewing_time"":6038.799999952316}]","24960.400000095367","","","","","","","","","","","","","","","","","","","","","","","",""
"pit-trial","14","189252","0.0-2.0-6.0-0.0","battery-v0.2","","""event"",""trial"",""time""
""fullscreenenter"",""1"",""3865""
","
","
","""event"",""trial"",""time""
""fullscreenenter"",""1"",""3865""
","
","","","-1","","","18","10266","4815","&#9854;","elianto","#FFFFF080","-1","-1","1","&#10004","[]","0","0","1","","","","","","","",""
"pit-trial","15","194117","0.0-2.0-6.1-0.1","battery-v0.2","","""event"",""trial"",""time""
""fullscreenenter"",""1"",""3865""
","
","
","""event"",""trial"",""time""
""fullscreenenter"",""1"",""3865""
","
","","","-1","","","18","10266","4815","&#9854;","elianto","#FFFFF080","-1","-1","1","&#10004","[]","0","0","1","","","","","","","",""
"pit-trial","16","198989","0.0-2.0-6.2-0.2","battery-v0.2","","""event"",""trial"",""time""
""fullscreenenter"",""1"",""3865""
","
","
","""event"",""trial"",""time""
""fullscreenenter"",""1"",""3865""
","
","","","-1","","","18","10266","4815","&#9854;","elianto","#FFFFF080","-1","-1","1","&#10004","[]","0","0","1","","","","","","","",""
"pit-trial","17","203860","0.0-2.0-6.3-0.3","battery-v0.2","","""event"",""trial"",""time""
""fullscreenenter"",""1"",""3865""
","
","
","""event"",""trial"",""time""
""fullscreenenter"",""1"",""3865""
","
","","","-1","","","18","10266","4815","&#9854;","elianto","#FFFFF080","-1","-1","1","&#10004","[]","0","0","1","","","","","","","",""
"pit-trial","18","208725","0.0-2.0-6.4-0.4","battery-v0.2","","""event"",""trial"",""time""
""fullscreenenter"",""1"",""3865""
","
","
","""event"",""trial"",""time""
""fullscreenenter"",""1"",""3865""
","
","","","-1","","","18","10266","4815","&#9854;","elianto","#FFFFF080","-1","-1","1","&#10004","[]","0","0","1","","","","","","","",""
"pit-instructions","19","333986","0.0-2.0-7.0","battery-v0.2","","""event"",""trial"",""time""
""fullscreenenter"",""1"",""3865""
","
","
","""event"",""trial"",""time""
""fullscreenenter"",""1"",""3865""
","
","","[{""page_index"":0,""viewing_time"":6858},{""page_index"":1,""viewing_time"":7271.600000023842},{""page_index"":2,""viewing_time"":6006.700000047684},{""page_index"":3,""viewing_time"":6099.399999976158},{""page_index"":4,""viewing_time"":5823.399999976158},{""page_index"":5,""viewing_time"":5392.899999976158},{""page_index"":6,""viewing_time"":5330.100000023842},{""page_index"":7,""viewing_time"":8349.399999976158},{""page_index"":8,""viewing_time"":7713},{""page_index"":9,""viewing_time"":6668.300000071526},{""page_index"":10,""viewing_time"":7345},{""page_index"":11,""viewing_time"":4630.399999976158},{""page_index"":12,""viewing_time"":7332.5},{""page_index"":13,""viewing_time"":7194.799999952316},{""page_index"":14,""viewing_time"":8451.5},{""page_index"":15,""viewing_time"":6941.5},{""page_index"":16,""viewing_time"":8837.100000023842},{""page_index"":17,""viewing_time"":9007.100000023842}]","125253.5","","","","","","","","","","","","","","","","","","","","","","","",""
"pit-trial","20","337415","0.0-2.0-8.0-0.0","battery-v0.2","","""event"",""trial"",""time""
""fullscreenenter"",""1"",""3865""
","
","
","""event"",""trial"",""time""
""fullscreenenter"",""1"",""3865""
","
","","","557.1000000238419","","","18","10266","4815","&#9776;","elianto","#3366ff99"," "," ","1","+10","[1410.6999999284744]","1","0","1","","","","","","","",""
"pit-trial","21","340291","0.0-2.0-8.0-1.0","battery-v0.2","","""event"",""trial"",""time""
""fullscreenenter"",""1"",""3865""
","
","
","""event"",""trial"",""time""
""fullscreenenter"",""1"",""3865""
","
","","","8.100000023841858","","","18","10266","4815","&#9776;","elianto","#3366ff99"," "," ","1","+10","[862.8000000715256]","1","0","1","","","","","","","",""
"pit-trial","22","343288","0.0-2.0-8.0-2.0","battery-v0.2","","""event"",""trial"",""time""
""fullscreenenter"",""1"",""3865""
","
","
","""event"",""trial"",""time""
""fullscreenenter"",""1"",""3865""
","
","","","127.79999995231628","","","18","10266","4815","&#9776;","elianto","#3366ff99"," "," ","1","+10","[982.7999999523163]","1","0","1","","","","","","","",""
"pit-trial","23","346338","0.0-2.0-8.0-3.0","battery-v0.2","","""event"",""trial"",""time""
""fullscreenenter"",""1"",""3865""
","
","
","""event"",""trial"",""time""
""fullscreenenter"",""1"",""3865""
","
","","","171.79999995231628","","","18","10266","4815","&#9776;","elianto","#3366ff99"," "," ","1","0","[1038.2999999523163]","1","0","1","","","","","","","",""
"pit-trial","24","350031","0.0-2.0-8.0-4.0","battery-v0.2","","""event"",""trial"",""time""
""fullscreenenter"",""1"",""3865""
","
","
","""event"",""trial"",""time""
""fullscreenenter"",""1"",""3865""
","
","","","826.3000000715256","","","18","10266","4815","&#9776;","elianto","#3366ff99"," "," ","1","+10","[1686.2000000476837]","1","0","1","","","","","","","",""
"pit-trial","25","353472","0.0-2.0-8.1-0.1","battery-v0.2","","""event"",""trial"",""time""
""fullscreenenter"",""1"",""3865""
","
","
","""event"",""trial"",""time""
""fullscreenenter"",""1"",""3865""
","
","","","576.3000000715256","","","18","10266","4815","&#9776;","elianto","#3366ff99"," "," ","1","+10","[1428.5]","1","0","1","","","","","","","",""
"pit-trial","26","356771","0.0-2.0-8.1-1.1","battery-v0.2","","""event"",""trial"",""time""
""fullscreenenter"",""1"",""3865""
","
","
","""event"",""trial"",""time""
""fullscreenenter"",""1"",""3865""
","
","","","436.60000002384186","","","18","10266","4815","&#9776;","elianto","#3366ff99"," "," ","1","+10","[1288]","1","0","1","","","","","","","",""
"pit-trial","27","360135","0.0-2.0-8.1-2.1","battery-v0.2","","""event"",""trial"",""time""
""fullscreenenter"",""1"",""3865""
","
","
","""event"",""trial"",""time""
""fullscreenenter"",""1"",""3865""
","
","","","491.89999997615814","","","18","10266","4815","&#9776;","elianto","#3366ff99"," "," ","1","+10","[1346.7000000476837]","1","0","1","","","","","","","",""
"pit-trial","28","363555","0.0-2.0-8.1-3.1","battery-v0.2","","""event"",""trial"",""time""
""fullscreenenter"",""1"",""3865""
","
","
","""event"",""trial"",""time""
""fullscreenenter"",""1"",""3865""
","
","","","563.6999999284744","","","18","10266","4815","&#9776;","elianto","#3366ff99"," "," ","1","0","[1415.1999999284744]","1","0","1","","","","","","","",""
"pit-trial","29","366873","0.0-2.0-8.1-4.1","battery-v0.2","","""event"",""trial"",""time""
""fullscreenenter"",""1"",""3865""
","
","
","""event"",""trial"",""time""
""fullscreenenter"",""1"",""3865""
","
","","","462.7999999523163","","","18","10266","4815","&#9776;","elianto","#3366ff99"," "," ","1","+10","[1313.1999999284744]","1","0","1","","","","","","","",""
"pit-trial","30","370242","0.0-2.0-8.2-0.2","battery-v0.2","","""event"",""trial"",""time""
""fullscreenenter"",""1"",""3865""
","
","
","""event"",""trial"",""time""
""fullscreenenter"",""1"",""3865""
","
","","","510.7999999523163","","","18","10266","4815","&#9776;","elianto","#3366ff99"," "," ","1","+10","[1362.8999999761581]","1","0","1","","","","","","","",""
"pit-trial","31","373299","0.0-2.0-8.2-1.2","battery-v0.2","","""event"",""trial"",""time""
""fullscreenenter"",""1"",""3865""
","
","
","""event"",""trial"",""time""
""fullscreenenter"",""1"",""3865""
","
","","","201.70000004768372","","","18","10266","4815","&#9776;","elianto","#3366ff99"," "," ","1","+10","[1053]","1","0","1","","","","","","","",""
"pit-trial","32","376741","0.0-2.0-8.2-2.2","battery-v0.2","","""event"",""trial"",""time""
""fullscreenenter"",""1"",""3865""
","
","
","""event"",""trial"",""time""
""fullscreenenter"",""1"",""3865""
","
","","","586.3999999761581","","","18","10266","4815","&#9776;","elianto","#3366ff99"," "," ","1","+10","[1436.6000000238419]","1","0","1","","","","","","","",""
"pit-trial","33","380073","0.0-2.0-8.2-3.2","battery-v0.2","","""event"",""trial"",""time""
""fullscreenenter"",""1"",""3865""
","
","
","""event"",""trial"",""time""
""fullscreenenter"",""1"",""3865""
","
","","","477.3000000715256","","","18","10266","4815","&#9776;","elianto","#3366ff99"," "," ","1","0","[1329.5]","1","0","1","","","","","","","",""
"pit-trial","34","383288","0.0-2.0-8.2-4.2","battery-v0.2","","""event"",""trial"",""time""
""fullscreenenter"",""1"",""3865""
","
","
","""event"",""trial"",""time""
""fullscreenenter"",""1"",""3865""
","
","","","359.10000002384186","","","18","10266","4815","&#9776;","elianto","#3366ff99"," "," ","1","+10","[1211]","1","0","1","","","","","","","",""
"call-function","35","383293","0.0-2.0-9.0","battery-v0.2","","""event"",""trial"",""time""
""fullscreenenter"",""1"",""3865""
","
","
","""event"",""trial"",""time""
""fullscreenenter"",""1"",""3865""
","
","","","","","","","","","","","","","","","","","","","","","","","","","","",""
"pit-instructions","36","434057","0.0-2.0-10.0","battery-v0.2","","""event"",""trial"",""time""
""fullscreenenter"",""1"",""3865""
","
","
","""event"",""trial"",""time""
""fullscreenenter"",""1"",""3865""
","
","","[{""page_index"":0,""viewing_time"":6571.199999928474},{""page_index"":1,""viewing_time"":9940.399999976158},{""page_index"":2,""viewing_time"":13716.100000023842},{""page_index"":3,""viewing_time"":10305},{""page_index"":4,""viewing_time"":10228}]","50761.699999928474","","","","","","","","","","","","","","","","","","","","","","","",""
"pit-trial","37","438919","0.0-2.0-11.0-0.0","battery-v0.2","","""event"",""trial"",""time""
""fullscreenenter"",""1"",""3865""
","
","
","""event"",""trial"",""time""
""fullscreenenter"",""1"",""3865""
","
","","","-1","","","18","10266","4815","&#9761;","elianto","#3366ff99","-1","-1","1","+10","[]","0","0","2","","","","","","","",""
"pit-trial","38","443792","0.0-2.0-11.0-1.0","battery-v0.2","","""event"",""trial"",""time""
""fullscreenenter"",""1"",""3865""
","
","
","""event"",""trial"",""time""
""fullscreenenter"",""1"",""3865""
","
","","","-1","","","18","10266","4815","&#9761;","elianto","#3366ff99","-1","-1","1","+10","[]","0","0","2","","","","","","","",""
"pit-trial","39","448666","0.0-2.0-11.0-2.0","battery-v0.2","","""event"",""trial"",""time""
""fullscreenenter"",""1"",""3865""
","
","
","""event"",""trial"",""time""
""fullscreenenter"",""1"",""3865""
","
","","","-1","","","18","10266","4815","&#9761;","elianto","#3366ff99","-1","-1","1","+10","[]","0","0","2","","","","","","","",""
"pit-trial","40","453528","0.0-2.0-11.0-3.0","battery-v0.2","","""event"",""trial"",""time""
""fullscreenenter"",""1"",""3865""
","
","
","""event"",""trial"",""time""
""fullscreenenter"",""1"",""3865""
","
","","","-1","","","18","10266","4815","&#9761;","elianto","#3366ff99","-1","-1","1","0","[]","0","0","2","","","","","","","",""
"pit-trial","41","458407","0.0-2.0-11.0-4.0","battery-v0.2","","""event"",""trial"",""time""
""fullscreenenter"",""1"",""3865""
","
","
","""event"",""trial"",""time""
""fullscreenenter"",""1"",""3865""
","
","","","-1","","","18","10266","4815","&#9761;","elianto","#3366ff99","-1","-1","1","+10","[]","0","0","2","","","","","","","",""
"pit-trial","42","463276","0.0-2.0-11.1-0.1","battery-v0.2","","""event"",""trial"",""time""
""fullscreenenter"",""1"",""3865""
","
","
","""event"",""trial"",""time""
""fullscreenenter"",""1"",""3865""
","
","","","-1","","","18","10266","4815","&#9761;","elianto","#3366ff99","-1","-1","1","+10","[]","0","0","2","","","","","","","",""
"pit-trial","43","468131","0.0-2.0-11.1-1.1","battery-v0.2","","""event"",""trial"",""time""
""fullscreenenter"",""1"",""3865""
","
","
","""event"",""trial"",""time""
""fullscreenenter"",""1"",""3865""
","
","","","-1","","","18","10266","4815","&#9761;","elianto","#3366ff99","-1","-1","1","+10","[]","0","0","2","","","","","","","",""
"pit-trial","44","472987","0.0-2.0-11.1-2.1","battery-v0.2","","""event"",""trial"",""time""
""fullscreenenter"",""1"",""3865""
","
","
","""event"",""trial"",""time""
""fullscreenenter"",""1"",""3865""
","
","","","-1","","","18","10266","4815","&#9761;","elianto","#3366ff99","-1","-1","1","+10","[]","0","0","2","","","","","","","",""
"pit-trial","45","477843","0.0-2.0-11.1-3.1","battery-v0.2","","""event"",""trial"",""time""
""fullscreenenter"",""1"",""3865""
","
","
","""event"",""trial"",""time""
""fullscreenenter"",""1"",""3865""
","
","","","-1","","","18","10266","4815","&#9761;","elianto","#3366ff99","-1","-1","1","0","[]","0","0","2","","","","","","","",""
"pit-trial","46","482697","0.0-2.0-11.1-4.1","battery-v0.2","","""event"",""trial"",""time""
""fullscreenenter"",""1"",""3865""
","
","
","""event"",""trial"",""time""
""fullscreenenter"",""1"",""3865""
","
","","","-1","","","18","10266","4815","&#9761;","elianto","#3366ff99","-1","-1","1","+10","[]","0","0","2","","","","","","","",""
"pit-trial","47","487567","0.0-2.0-11.2-0.2","battery-v0.2","","""event"",""trial"",""time""
""fullscreenenter"",""1"",""3865""
","
","
","""event"",""trial"",""time""
""fullscreenenter"",""1"",""3865""
","
","","","-1","","","18","10266","4815","&#9761;","elianto","#3366ff99","-1","-1","1","+10","[]","0","0","2","","","","","","","",""
"pit-trial","48","492422","0.0-2.0-11.2-1.2","battery-v0.2","","""event"",""trial"",""time""
""fullscreenenter"",""1"",""3865""
","
","
","""event"",""trial"",""time""
""fullscreenenter"",""1"",""3865""
","
","","","-1","","","18","10266","4815","&#9761;","elianto","#3366ff99","-1","-1","1","+10","[]","0","0","2","","","","","","","",""
"pit-trial","49","497277","0.0-2.0-11.2-2.2","battery-v0.2","","""event"",""trial"",""time""
""fullscreenenter"",""1"",""3865""
","
","
","""event"",""trial"",""time""
""fullscreenenter"",""1"",""3865""
","
","","","-1","","","18","10266","4815","&#9761;","elianto","#3366ff99","-1","-1","1","+10","[]","0","0","2","","","","","","","",""
"pit-trial","50","502132","0.0-2.0-11.2-3.2","battery-v0.2","","""event"",""trial"",""time""
""fullscreenenter"",""1"",""3865""
","
","
","""event"",""trial"",""time""
""fullscreenenter"",""1"",""3865""
","
","","","-1","","","18","10266","4815","&#9761;","elianto","#3366ff99","-1","-1","1","0","[]","0","0","2","","","","","","","",""
"pit-trial","51","507002","0.0-2.0-11.2-4.2","battery-v0.2","","""event"",""trial"",""time""
""fullscreenenter"",""1"",""3865""
","
","
","""event"",""trial"",""time""
""fullscreenenter"",""1"",""3865""
","
","","","-1","","","18","10266","4815","&#9761;","elianto","#3366ff99","-1","-1","1","+10","[]","0","0","2","","","","","","","",""
"pit-trial","52","511860","0.0-2.0-11.3-0.3","battery-v0.2","","""event"",""trial"",""time""
""fullscreenenter"",""1"",""3865""
","
","
","""event"",""trial"",""time""
""fullscreenenter"",""1"",""3865""
","
","","","-1","","","18","10266","4815","&#9761;","elianto","#3366ff99","-1","-1","1","+10","[]","0","0","2","","","","","","","",""
"pit-trial","53","516726","0.0-2.0-11.3-1.3","battery-v0.2","","""event"",""trial"",""time""
""fullscreenenter"",""1"",""3865""
","
","
","""event"",""trial"",""time""
""fullscreenenter"",""1"",""3865""
","
","","","-1","","","18","10266","4815","&#9761;","elianto","#3366ff99","-1","-1","1","+10","[]","0","0","2","","","","","","","",""
"pit-trial","54","521582","0.0-2.0-11.3-2.3","battery-v0.2","","""event"",""trial"",""time""
""fullscreenenter"",""1"",""3865""
","
","
","""event"",""trial"",""time""
""fullscreenenter"",""1"",""3865""
","
","","","-1","","","18","10266","4815","&#9761;","elianto","#3366ff99","-1","-1","1","+10","[]","0","0","2","","","","","","","",""
"pit-trial","55","526440","0.0-2.0-11.3-3.3","battery-v0.2","","""event"",""trial"",""time""
""fullscreenenter"",""1"",""3865""
","
","
","""event"",""trial"",""time""
""fullscreenenter"",""1"",""3865""
","
","","","-1","","","18","10266","4815","&#9761;","elianto","#3366ff99","-1","-1","1","0","[]","0","0","2","","","","","","","",""
"pit-trial","56","531294","0.0-2.0-11.3-4.3","battery-v0.2","","""event"",""trial"",""time""
""fullscreenenter"",""1"",""3865""
","
","
","""event"",""trial"",""time""
""fullscreenenter"",""1"",""3865""
","
","","","-1","","","18","10266","4815","&#9761;","elianto","#3366ff99","-1","-1","1","+10","[]","0","0","2","","","","","","","",""
"call-function","57","531298","0.0-2.0-12.0","battery-v0.2","","""event"",""trial"",""time""
""fullscreenenter"",""1"",""3865""
","
","
","""event"",""trial"",""time""
""fullscreenenter"",""1"",""3865""
","
","","","","","","","","","","","","","","","","","","","","","","","","","","",""
"pit-instructions","58","572367","0.0-2.0-13.0","battery-v0.2","","""event"",""trial"",""time""
""fullscreenenter"",""1"",""3865""
","
","
","""event"",""trial"",""time""
""fullscreenenter"",""1"",""3865""
","
","","[{""page_index"":0,""viewing_time"":12182},{""page_index"":1,""viewing_time"":7908.5},{""page_index"":2,""viewing_time"":3476.100000023842},{""page_index"":3,""viewing_time"":10155.899999976158},{""page_index"":4,""viewing_time"":7344}]","41067","","","","","","","","","","","","","","","","","","","","","","","",""
"pit-trial","59","575754","0.0-2.0-14.0-0.0","battery-v0.2","","""event"",""trial"",""time""
""fullscreenenter"",""1"",""3865""
","
","
","""event"",""trial"",""time""
""fullscreenenter"",""1"",""3865""
","
","","","522.6000000238419","","","18","10266","4815","&#9826;","elianto","#f73b6a7A","-1"," ","0","-10","[3.4000000953674316,1373.3000000715256]","2","0","3","","","","","","","",""
"pit-trial","60","580626","0.0-2.0-14.0-1.0","battery-v0.2","","""event"",""trial"",""time""
""fullscreenenter"",""1"",""3865""
","
","
","""event"",""trial"",""time""
""fullscreenenter"",""1"",""3865""
","
","","","-1","","","18","10266","4815","&#9826;","elianto","#f73b6a7A","-1","-1","1","0","[]","0","0","3","","","","","","","",""
"pit-trial","61","585497","0.0-2.0-14.0-2.0","battery-v0.2","","""event"",""trial"",""time""
""fullscreenenter"",""1"",""3865""
","
","
","""event"",""trial"",""time""
""fullscreenenter"",""1"",""3865""
","
","","","-1","","","18","10266","4815","&#9826;","elianto","#f73b6a7A","-1","-1","1","0","[]","0","0","3","","","","","","","",""
"pit-trial","62","590358","0.0-2.0-14.0-3.0","battery-v0.2","","""event"",""trial"",""time""
""fullscreenenter"",""1"",""3865""
","
","
","""event"",""trial"",""time""
""fullscreenenter"",""1"",""3865""
","
","","","-1","","","18","10266","4815","&#9826;","elianto","#f73b6a7A","-1","-1","1","-10","[]","0","0","3","","","","","","","",""
"pit-trial","63","595229","0.0-2.0-14.0-4.0","battery-v0.2","","""event"",""trial"",""time""
""fullscreenenter"",""1"",""3865""
","
","
","""event"",""trial"",""time""
""fullscreenenter"",""1"",""3865""
","
","","","-1","","","18","10266","4815","&#9826;","elianto","#f73b6a7A","-1","-1","1","0","[]","0","0","3","","","","","","","",""
"pit-trial","64","600102","0.0-2.0-14.1-0.1","battery-v0.2","","""event"",""trial"",""time""
""fullscreenenter"",""1"",""3865""
","
","
","""event"",""trial"",""time""
""fullscreenenter"",""1"",""3865""
","
","","","-1","","","18","10266","4815","&#9826;","elianto","#f73b6a7A","-1","-1","1","0","[]","0","0","3","","","","","","","",""
"pit-trial","65","604957","0.0-2.0-14.1-1.1","battery-v0.2","","""event"",""trial"",""time""
""fullscreenenter"",""1"",""3865""
","
","
","""event"",""trial"",""time""
""fullscreenenter"",""1"",""3865""
","
","","","-1","","","18","10266","4815","&#9826;","elianto","#f73b6a7A","-1","-1","1","0","[]","0","0","3","","","","","","","",""
"pit-trial","66","609814","0.0-2.0-14.1-2.1","battery-v0.2","","""event"",""trial"",""time""
""fullscreenenter"",""1"",""3865""
","
","
","""event"",""trial"",""time""
""fullscreenenter"",""1"",""3865""
","
","","","-1","","","18","10266","4815","&#9826;","elianto","#f73b6a7A","-1","-1","1","0","[]","0","0","3","","","","","","","",""
"pit-trial","67","614670","0.0-2.0-14.1-3.1","battery-v0.2","","""event"",""trial"",""time""
""fullscreenenter"",""1"",""3865""
","
","
","""event"",""trial"",""time""
""fullscreenenter"",""1"",""3865""
","
","","","-1","","","18","10266","4815","&#9826;","elianto","#f73b6a7A","-1","-1","1","-10","[]","0","0","3","","","","","","","",""
"pit-trial","68","619526","0.0-2.0-14.1-4.1","battery-v0.2","","""event"",""trial"",""time""
""fullscreenenter"",""1"",""3865""
","
","
","""event"",""trial"",""time""
""fullscreenenter"",""1"",""3865""
","
","","","-1","","","18","10266","4815","&#9826;","elianto","#f73b6a7A","-1","-1","1","0","[]","0","0","3","","","","","","","",""
"pit-trial","69","624382","0.0-2.0-14.2-0.2","battery-v0.2","","""event"",""trial"",""time""
""fullscreenenter"",""1"",""3865""
","
","
","""event"",""trial"",""time""
""fullscreenenter"",""1"",""3865""
","
","","","-1","","","18","10266","4815","&#9826;","elianto","#f73b6a7A","-1","-1","1","0","[]","0","0","3","","","","","","","",""
"pit-trial","70","629238","0.0-2.0-14.2-1.2","battery-v0.2","","""event"",""trial"",""time""
""fullscreenenter"",""1"",""3865""
","
","
","""event"",""trial"",""time""
""fullscreenenter"",""1"",""3865""
","
","","","-1","","","18","10266","4815","&#9826;","elianto","#f73b6a7A","-1","-1","1","0","[]","0","0","3","","","","","","","",""
"pit-trial","71","634095","0.0-2.0-14.2-2.2","battery-v0.2","","""event"",""trial"",""time""
""fullscreenenter"",""1"",""3865""
","
","
","""event"",""trial"",""time""
""fullscreenenter"",""1"",""3865""
","
","","","-1","","","18","10266","4815","&#9826;","elianto","#f73b6a7A","-1","-1","1","0","[]","0","0","3","","","","","","","",""
"pit-trial","72","638951","0.0-2.0-14.2-3.2","battery-v0.2","","""event"",""trial"",""time""
""fullscreenenter"",""1"",""3865""
","
","
","""event"",""trial"",""time""
""fullscreenenter"",""1"",""3865""
","
","","","-1","","","18","10266","4815","&#9826;","elianto","#f73b6a7A","-1","-1","1","-10","[]","0","0","3","","","","","","","",""
"pit-trial","73","643807","0.0-2.0-14.2-4.2","battery-v0.2","","""event"",""trial"",""time""
""fullscreenenter"",""1"",""3865""
","
","
","""event"",""trial"",""time""
""fullscreenenter"",""1"",""3865""
","
","","","-1","","","18","10266","4815","&#9826;","elianto","#f73b6a7A","-1","-1","1","0","[]","0","0","3","","","","","","","",""
"pit-trial","74","648665","0.0-2.0-14.3-0.3","battery-v0.2","","""event"",""trial"",""time""
""fullscreenenter"",""1"",""3865""
","
","
","""event"",""trial"",""time""
""fullscreenenter"",""1"",""3865""
","
","","","-1","","","18","10266","4815","&#9826;","elianto","#f73b6a7A","-1","-1","1","0","[]","0","0","3","","","","","","","",""
"pit-trial","75","653522","0.0-2.0-14.3-1.3","battery-v0.2","","""event"",""trial"",""time""
""fullscreenenter"",""1"",""3865""
","
","
","""event"",""trial"",""time""
""fullscreenenter"",""1"",""3865""
","
","","","-1","","","18","10266","4815","&#9826;","elianto","#f73b6a7A","-1","-1","1","0","[]","0","0","3","","","","","","","",""
"pit-trial","76","658377","0.0-2.0-14.3-2.3","battery-v0.2","","""event"",""trial"",""time""
""fullscreenenter"",""1"",""3865""
","
","
","""event"",""trial"",""time""
""fullscreenenter"",""1"",""3865""
","
","","","-1","","","18","10266","4815","&#9826;","elianto","#f73b6a7A","-1","-1","1","0","[]","0","0","3","","","","","","","",""
"pit-trial","77","663234","0.0-2.0-14.3-3.3","battery-v0.2","","""event"",""trial"",""time""
""fullscreenenter"",""1"",""3865""
","
","
","""event"",""trial"",""time""
""fullscreenenter"",""1"",""3865""
","
","","","-1","","","18","10266","4815","&#9826;","elianto","#f73b6a7A","-1","-1","1","-10","[]","0","0","3","","","","","","","",""
"pit-trial","78","668090","0.0-2.0-14.3-4.3","battery-v0.2","","""event"",""trial"",""time""
""fullscreenenter"",""1"",""3865""
","
","
","""event"",""trial"",""time""
""fullscreenenter"",""1"",""3865""
","
","","","-1","","","18","10266","4815","&#9826;","elianto","#f73b6a7A","-1","-1","1","0","[]","0","0","3","","","","","","","",""
"call-function","79","668094","0.0-2.0-15.0","battery-v0.2","","""event"",""trial"",""time""
""fullscreenenter"",""1"",""3865""
","
","
","""event"",""trial"",""time""
""fullscreenenter"",""1"",""3865""
","
","","","","","","","","","","","","","","","","","","","","","","","","","","",""
"pit-instructions","80","703630","0.0-2.0-16.0","battery-v0.2","","""event"",""trial"",""time""
""fullscreenenter"",""1"",""3865""
","
","
","""event"",""trial"",""time""
""fullscreenenter"",""1"",""3865""
","
","","[{""page_index"":0,""viewing_time"":15332.199999928474},{""page_index"":1,""viewing_time"":9543.100000023842},{""page_index"":2,""viewing_time"":5199.5},{""page_index"":3,""viewing_time"":5457.899999976158}]","35534.09999990463","","","","","","","","","","","","","","","","","","","","","","","",""
"pit-trial","81","707782","0.0-2.0-17.0-0.0","battery-v0.2","","""event"",""trial"",""time""
""fullscreenenter"",""1"",""3865""
","
","
","""event"",""trial"",""time""
""fullscreenenter"",""1"",""3865""
","
","","","1277.6000000238419","","","18","10266","4815","&#9789;","elianto","#f73b6a7A"," "," ","1","0","[191.60000002384186,2131.600000023842,2999.5]","3","0","4","","","","","","","",""
"pit-trial","82","711052","0.0-2.0-17.0-1.0","battery-v0.2","","""event"",""trial"",""time""
""fullscreenenter"",""1"",""3865""
","
","
","""event"",""trial"",""time""
""fullscreenenter"",""1"",""3865""
","
","","","413.7999999523163","","","18","10266","4815","&#9789;","elianto","#f73b6a7A"," "," ","1","0","[1265]","1","0","4","","","","","","","",""
"pit-trial","83","714821","0.0-2.0-17.0-2.0","battery-v0.2","","""event"",""trial"",""time""
""fullscreenenter"",""1"",""3865""
","
","
","""event"",""trial"",""time""
""fullscreenenter"",""1"",""3865""
","
","","","905.6000000238419","","","18","10266","4815","&#9789;","elianto","#f73b6a7A"," "," ","1","0","[398.60000002384186,1755.7999999523163,3649.2999999523163,3765]","4","0","4","","","","","","","",""
"pit-trial","84","717790","0.0-2.0-17.0-3.0","battery-v0.2","","""event"",""trial"",""time""
""fullscreenenter"",""1"",""3865""
","
","
","""event"",""trial"",""time""
""fullscreenenter"",""1"",""3865""
","
","","","108","","","18","10266","4815","&#9789;","elianto","#f73b6a7A"," "," ","1","-10","[112.70000004768372,235.30000007152557,260.2000000476837,339.60000002384186,442.8000000715256,637.2000000476837,803.2000000476837,959.9000000953674,1256.6000000238419,1451.3000000715256,1677.8000000715256,1860.4000000953674,2063,2272.5,2473.7000000476837,2666.100000023842,2844.100000023842]","17","0","4","","","","","","","",""
"pit-trial","85","720711","0.0-2.0-17.0-4.0","battery-v0.2","","""event"",""trial"",""time""
""fullscreenenter"",""1"",""3865""
","
","
","""event"",""trial"",""time""
""fullscreenenter"",""1"",""3865""
","
","","","58.700000047683716","","","18","10266","4815","&#9789;","elianto","#f73b6a7A"," "," ","1","0","[85.69999992847443,292.39999997615814,497.2999999523163,687.5,910.2999999523163,1074.6999999284744,1271,1492.7999999523163,1706.5,2180.5999999046326,2349.7999999523163,2703.399999976158]","12","0","4","","","","","","","",""
"pit-trial","86","723781","0.0-2.0-17.1-0.1","battery-v0.2","","""event"",""trial"",""time""
""fullscreenenter"",""1"",""3865""
","
","
","""event"",""trial"",""time""
""fullscreenenter"",""1"",""3865""
","
","","","208.70000004768372","","","18","10266","4815","&#9789;","elianto","#f73b6a7A"," "," ","1","0","[48.09999990463257,245.5,560,1064.7999999523163,1413.0999999046326,1675.5,1875.5,2251.5,2411.899999976158,2966.1999999284744]","10","0","4","","","","","","","",""
"pit-trial","87","726811","0.0-2.0-17.1-1.1","battery-v0.2","","""event"",""trial"",""time""
""fullscreenenter"",""1"",""3865""
","
","
","""event"",""trial"",""time""
""fullscreenenter"",""1"",""3865""
","
","","","161.60000002384186","","","18","10266","4815","&#9789;","elianto","#f73b6a7A"," "," ","1","0","[275.8000000715256,602.9000000953674,805.5,1014.1000000238419,1413.4000000953674,1607.2000000476837,1852.3000000715256,2261.8000000715256,2430.100000023842,2848]","10","0","4","","","","","","","",""
"pit-trial","88","729991","0.0-2.0-17.1-2.1","battery-v0.2","","""event"",""trial"",""time""
""fullscreenenter"",""1"",""3865""
","
","
","""event"",""trial"",""time""
""fullscreenenter"",""1"",""3865""
","
","","","313.10000002384186","","","18","10266","4815","&#9789;","elianto","#f73b6a7A"," "," ","1","0","[389.5,1165.0999999046326,1805.2999999523163,2374.0999999046326,2702.1999999284744,2997.5999999046326]","6","0","4","","","","","","","",""
"pit-trial","89","732875","0.0-2.0-17.1-3.1","battery-v0.2","","""event"",""trial"",""time""
""fullscreenenter"",""1"",""3865""
","
","
","""event"",""trial"",""time""
""fullscreenenter"",""1"",""3865""
","
","","","21.899999976158142","","","18","10266","4815","&#9789;","elianto","#f73b6a7A"," "," ","1","-10","[480,872.5999999046326,897.7999999523163,1139.3999999761581,1421.1999999284744,1788.1999999284744,2203.399999976158,2576.5]","8","0","4","","","","","","","",""
"pit-trial","90","736014","0.0-2.0-17.1-4.1","battery-v0.2","","""event"",""trial"",""time""
""fullscreenenter"",""1"",""3865""
","
","
","""event"",""trial"",""time""
""fullscreenenter"",""1"",""3865""
","
","","","277","","","18","10266","4815","&#9789;","elianto","#f73b6a7A"," "," ","1","0","[68.60000002384186,304,652.6000000238419,1127.2000000476837,1374,1675.9000000953674,2021.7000000476837,2244,2579.2000000476837,2911.3000000715256]","10","0","4","","","","","","","",""
"pit-trial","91","738988","0.0-2.0-17.2-0.2","battery-v0.2","","""event"",""trial"",""time""
""fullscreenenter"",""1"",""3865""
","
","
","""event"",""trial"",""time""
""fullscreenenter"",""1"",""3865""
","
","","","116.89999997615814","","","18","10266","4815","&#9789;","elianto","#f73b6a7A"," "," ","1","0","[32.09999990463257,599.1999999284744,968.1999999284744,1342.1999999284744,1649.5,1893.8999999761581,2254.899999976158,2491.5999999046326,2796.399999976158]","9","0","4","","","","","","","",""
"pit-trial","92","742218","0.0-2.0-17.2-1.2","battery-v0.2","","""event"",""trial"",""time""
""fullscreenenter"",""1"",""3865""
","
","
","""event"",""trial"",""time""
""fullscreenenter"",""1"",""3865""
","
","","","374.5","","","18","10266","4815","&#9789;","elianto","#f73b6a7A"," "," ","1","0","[127.70000004768372,339.60000002384186,820.4000000953674,1225,1522.7000000476837,1814.2000000476837,2230.5,2418.100000023842,2774.2000000476837,3060]","10","0","4","","","","","","","",""
"pit-trial","93","745342","0.0-2.0-17.2-2.2","battery-v0.2","","""event"",""trial"",""time""
""fullscreenenter"",""1"",""3865""
","
","
","""event"",""trial"",""time""
""fullscreenenter"",""1"",""3865""
","
","","","268.2000000476837","","","18","10266","4815","&#9789;","elianto","#f73b6a7A"," "," ","1","0","[100.39999997615814,546,758.8000000715256,1118.6000000238419,1409.3000000715256,1751.1000000238419,2151,2515.3000000715256,2893.399999976158]","9","0","4","","","","","","","",""
"pit-trial","94","748512","0.0-2.0-17.2-3.2","battery-v0.2","","""event"",""trial"",""time""
""fullscreenenter"",""1"",""3865""
","
","
","""event"",""trial"",""time""
""fullscreenenter"",""1"",""3865""
","
","","","313.3000000715256","","","18","10266","4815","&#9789;","elianto","#f73b6a7A"," "," ","1","-10","[195.89999997615814,400,776.5,1164.3999999761581,1477.7999999523163,1702.1999999284744,2141.6999999284744,2318.1999999284744,2712.5,3028.1999999284744]","10","0","4","","","","","","","",""
"pit-trial","95","751647","0.0-2.0-17.2-4.2","battery-v0.2","","""event"",""trial"",""time""
""fullscreenenter"",""1"",""3865""
","
","
","""event"",""trial"",""time""
""fullscreenenter"",""1"",""3865""
","
","","","276.60000002384186","","","18","10266","4815","&#9789;","elianto","#f73b6a7A"," "," ","1","0","[102.59999990463257,542.1999999284744,768.6999999284744,1130,1419.1999999284744,1949.6999999284744,2397.5999999046326,2799.7999999523163]","8","0","4","","","","","","","",""
"pit-trial","96","754536","0.0-2.0-17.3-0.3","battery-v0.2","","""event"",""trial"",""time""
""fullscreenenter"",""1"",""3865""
","
","
","""event"",""trial"",""time""
""fullscreenenter"",""1"",""3865""
","
","","","31.5","","","18","10266","4815","&#9789;","elianto","#f73b6a7A"," "," ","1","0","[74.79999995231628,883,1709.3999999761581,2568.7000000476837]","4","0","4","","","","","","","",""
"pit-trial","97","757828","0.0-2.0-17.3-1.3","battery-v0.2","","""event"",""trial"",""time""
""fullscreenenter"",""1"",""3865""
","
","
","""event"",""trial"",""time""
""fullscreenenter"",""1"",""3865""
","
","","","436.39999997615814","","","18","10266","4815","&#9789;","elianto","#f73b6a7A"," "," ","1","0","[544.2000000476837,1286.8999999761581,1994,2639.3000000715256]","4","0","4","","","","","","","",""
"pit-trial","98","761287","0.0-2.0-17.3-2.3","battery-v0.2","","""event"",""trial"",""time""
""fullscreenenter"",""1"",""3865""
","
","
","""event"",""trial"",""time""
""fullscreenenter"",""1"",""3865""
","
","","","602.6999999284744","","","18","10266","4815","&#9789;","elianto","#f73b6a7A"," "," ","1","0","[16.200000047683716,768.8000000715256,1453,2162.4000000953674,2721.100000023842,3274.8000000715256]","6","0","4","","","","","","","",""
"pit-trial","99","764473","0.0-2.0-17.3-3.3","battery-v0.2","","""event"",""trial"",""time""
""fullscreenenter"",""1"",""3865""
","
","
","""event"",""trial"",""time""
""fullscreenenter"",""1"",""3865""
","
","","","329.7999999523163","","","18","10266","4815","&#9789;","elianto","#f73b6a7A"," "," ","1","-10","[511,1180.6999999284744,1773.7999999523163,2184.7999999523163,2617.100000023842,3029.1999999284744]","6","0","4","","","","","","","",""
"pit-trial","100","767341","0.0-2.0-17.3-4.3","battery-v0.2","","""event"",""trial"",""time""
""fullscreenenter"",""1"",""3865""
","
","
","""event"",""trial"",""time""
""fullscreenenter"",""1"",""3865""
","
","","","11.699999928474426","","","18","10266","4815","&#9789;","elianto","#f73b6a7A"," "," ","1","0","[253,620.7000000476837,862,1067.4000000953674,1350.3000000715256,1614.2000000476837,1983.3000000715256,2321.3000000715256,2637.7000000476837]","9","0","4","","","","","","","",""
"call-function","101","767345","0.0-2.0-18.0","battery-v0.2","","""event"",""trial"",""time""
""fullscreenenter"",""1"",""3865""
","
","
","""event"",""trial"",""time""
""fullscreenenter"",""1"",""3865""
","
","","","","","","","","","","","","","","","","","","","","","","","","","","",""
"pit-instructions","102","832732","0.0-2.0-19.0","battery-v0.2","","""event"",""trial"",""time""
""fullscreenenter"",""1"",""3865""
","
","
","""event"",""trial"",""time""
""fullscreenenter"",""1"",""3865""
","
","","[{""page_index"":0,""viewing_time"":7227.400000095367},{""page_index"":1,""viewing_time"":6349.099999904633},{""page_index"":2,""viewing_time"":14791.200000047684},{""page_index"":3,""viewing_time"":8780.5},{""page_index"":4,""viewing_time"":6576.5},{""page_index"":5,""viewing_time"":8570.200000047684},{""page_index"":6,""viewing_time"":4465.599999904633},{""page_index"":7,""viewing_time"":4566.100000023842},{""page_index"":8,""viewing_time"":4058.399999976158}]","65385.800000071526","","","","","","","","","","","","","","","","","","","","","","","",""
"pit-comprehension","103","836768","0.0-2.0-20.0-0.0","battery-v0.2","","""event"",""trial"",""time""
""fullscreenenter"",""1"",""3865""
","
","
","""event"",""trial"",""time""
""fullscreenenter"",""1"",""3865""
","
","","","4025.6999999284744","[""SPACE""]","0","18","10266","4815","","","","","","","","","","","","","","","","","","",""
"pit-instructions","104","841908","0.0-2.0-20.0-1.0","battery-v0.2","","""event"",""trial"",""time""
""fullscreenenter"",""1"",""3865""
","
","
","""event"",""trial"",""time""
""fullscreenenter"",""1"",""3865""
","
","","[{""page_index"":0,""viewing_time"":5046.799999952316}]","5047.899999976158","","","","","","","","","","","","","","","","","","","","","","","",""
"pit-comprehension","105","846227","0.0-2.0-21.0-0.0","battery-v0.2","","""event"",""trial"",""time""
""fullscreenenter"",""1"",""3865""
","
","
","""event"",""trial"",""time""
""fullscreenenter"",""1"",""3865""
","
","","","4307.400000095367","[""10""]","0","18","10266","4815","","","","","","","","","","","","","","","","","","",""
"pit-instructions","106","849355","0.0-2.0-21.0-1.0","battery-v0.2","","""event"",""trial"",""time""
""fullscreenenter"",""1"",""3865""
","
","
","""event"",""trial"",""time""
""fullscreenenter"",""1"",""3865""
","
","","[{""page_index"":0,""viewing_time"":3025.100000023842}]","3025.5","","","","","","","","","","","","","","","","","","","","","","","",""
"pit-comprehension","107","856498","0.0-2.0-22.0-0.0","battery-v0.2","","""event"",""trial"",""time""
""fullscreenenter"",""1"",""3865""
","
","
","""event"",""trial"",""time""
""fullscreenenter"",""1"",""3865""
","
","","","7138.399999976158","[""0""]","0","18","10266","4815","","","","","","","","","","","","","","","","","","",""
"pit-instructions","108","859903","0.0-2.0-22.0-1.0","battery-v0.2","","""event"",""trial"",""time""
""fullscreenenter"",""1"",""3865""
","
","
","""event"",""trial"",""time""
""fullscreenenter"",""1"",""3865""
","
","","[{""page_index"":0,""viewing_time"":3302.899999976158}]","3303.600000023842","","","","","","","","","","","","","","","","","","","","","","","",""
"pit-comprehension","109","871020","0.0-2.0-23.0-0.0","battery-v0.2","","""event"",""trial"",""time""
""fullscreenenter"",""1"",""3865""
","
","
","""event"",""trial"",""time""
""fullscreenenter"",""1"",""3865""
","
","","","11108.400000095367","[""True""]","0","18","10266","4815","","","","","","","","","","","","","","","","","","",""
"pit-instructions","110","875898","0.0-2.0-23.0-1.0","battery-v0.2","","""event"",""trial"",""time""
""fullscreenenter"",""1"",""3865""
","
","
","""event"",""trial"",""time""
""fullscreenenter"",""1"",""3865""
","
","","[{""page_index"":0,""viewing_time"":4805.100000023842}]","4805.5","","","","","","","","","","","","","","","","","","","","","","","",""
"pit-comprehension","111","884830","0.0-2.0-24.0-0.0","battery-v0.2","","""event"",""trial"",""time""
""fullscreenenter"",""1"",""3865""
","
","
","""event"",""trial"",""time""
""fullscreenenter"",""1"",""3865""
","
","","","8927.100000023842","[""True""]","0","18","10266","4815","","","","","","","","","","","","","","","","","","",""
"pit-instructions","112","889113","0.0-2.0-24.0-1.0","battery-v0.2","","""event"",""trial"",""time""
""fullscreenenter"",""1"",""3865""
","
","
","""event"",""trial"",""time""
""fullscreenenter"",""1"",""3865""
","
","","[{""page_index"":0,""viewing_time"":4168.5}]","4169.399999976158","","","","","","","","","","","","","","","","","","","","","","","",""
"pit-comprehension","113","895668","0.0-2.0-25.0-0.0","battery-v0.2","","""event"",""trial"",""time""
""fullscreenenter"",""1"",""3865""
","
","
","""event"",""trial"",""time""
""fullscreenenter"",""1"",""3865""
","
","","","6544","[""True""]","0","18","10266","4815","","","","","","","","","","","","","","","","","","",""
"pit-instructions","114","897963","0.0-2.0-25.0-1.0","battery-v0.2","","""event"",""trial"",""time""
""fullscreenenter"",""1"",""3865""
","
","
","""event"",""trial"",""time""
""fullscreenenter"",""1"",""3865""
","
","","[{""page_index"":0,""viewing_time"":2202.7999999523163}]","2203.600000023842","","","","","","","","","","","","","","","","","","","","","","","",""
"pit-comprehension","115","903773","0.0-2.0-26.0-0.0","battery-v0.2","","""event"",""trial"",""time""
""fullscreenenter"",""1"",""3865""
","
","
","""event"",""trial"",""time""
""fullscreenenter"",""1"",""3865""
","
","","","5801.299999952316","[""False""]","0","18","10266","4815","","","","","","","","","","","","","","","","","","",""
"pit-instructions","116","906128","0.0-2.0-26.0-1.0","battery-v0.2","","""event"",""trial"",""time""
""fullscreenenter"",""1"",""3865""
","
","
","""event"",""trial"",""time""
""fullscreenenter"",""1"",""3865""
","
","","[{""page_index"":0,""viewing_time"":2275.600000023842}]","2276.2999999523163","","","","","","","","","","","","","","","","","","","","","","","",""
"pit-instructions","117","925604","0.0-3.0","battery-v0.2","","""event"",""trial"",""time""
""fullscreenenter"",""1"",""3865""
","
","
","""event"",""trial"",""time""
""fullscreenenter"",""1"",""3865""
","
","","[{""page_index"":0,""viewing_time"":5350.800000071526},{""page_index"":1,""viewing_time"":5968.199999928474},{""page_index"":2,""viewing_time"":8149}]","19468.600000023842","","","","","","","","","","","","","","","","","","","","","","","",""
"pit-trial","118","929059","0.0-4.0","battery-v0.2","","""event"",""trial"",""time""
""fullscreenenter"",""1"",""3865""
","
","
","""event"",""trial"",""time""
""fullscreenenter"",""1"",""3865""
","
","","","590.5","","","18","10266","4815","&#9730;","elianto","#3366ff99"," "," ","1","+10","[1442.1999999284744]","1","1","","","10266","1","1","1","win","go","0"
"pit-trial","119","932585","0.0-5.0","battery-v0.2","","""event"",""trial"",""time""
""fullscreenenter"",""1"",""3865""
","
","
","""event"",""trial"",""time""
""fullscreenenter"",""1"",""3865""
","
","","","657.2000000476837","","","18","10266","4815","&#9733;","elianto","#3366ff99","-1"," ","0","0","[1512.8000000715256]","1","1","","","10266","2","2","2","win","no-go","0"
"pit-trial","120","936874","0.0-6.0","battery-v0.2","","""event"",""trial"",""time""
""fullscreenenter"",""1"",""3865""
","
","
","""event"",""trial"",""time""
""fullscreenenter"",""1"",""3865""
","
","","","1418.1000000238419","","","18","10266","4815","&#9752;","elianto","#f73b6a7A"," "," ","1","0","[2275.399999976158]","1","1","","","10266","3","3","3","lose","go","0"
"pit-trial","121","940631","0.0-7.0","battery-v0.2","","""event"",""trial"",""time""
""fullscreenenter"",""1"",""3865""
","
","
","""event"",""trial"",""time""
""fullscreenenter"",""1"",""3865""
","
","","","892.2000000476837","","","18","10266","4815","&#9728;","elianto","#f73b6a7A","-1"," ","0","-10","[1744.8999999761581]","1","1","","","10266","4","0","4","lose","no-go","0"
"pit-trial","122","944379","0.0-8.0","battery-v0.2","","""event"",""trial"",""time""
""fullscreenenter"",""1"",""3865""
","
","
","""event"",""trial"",""time""
""fullscreenenter"",""1"",""3865""
","
","","","879.9000000953674","","","18","10266","4815","&#9730;","elianto","#3366ff99"," "," ","1","+10","[1734.2000000476837]","1","1","","","10266","5","1","1","win","go","0"
"pit-trial","123","949247","0.0-9.0","battery-v0.2","","""event"",""trial"",""time""
""fullscreenenter"",""1"",""3865""
","
","
","""event"",""trial"",""time""
""fullscreenenter"",""1"",""3865""
","
","","","-1","","","18","10266","4815","&#9752;","elianto","#f73b6a7A"," ","-1","0","-10","[]","0","1","","","10266","6","3","3","lose","go","0"
"pit-trial","124","952970","0.0-10.0","battery-v0.2","","""event"",""trial"",""time""
""fullscreenenter"",""1"",""3865""
","
","
","""event"",""trial"",""time""
""fullscreenenter"",""1"",""3865""
","
","","","855.8000000715256","","","18","10266","4815","&#9733;","elianto","#3366ff99","-1"," ","0","0","[1708.5]","1","1","","","10266","7","2","2","win","no-go","0"
"pit-trial","125","956820","0.0-11.0","battery-v0.2","","""event"",""trial"",""time""
""fullscreenenter"",""1"",""3865""
","
","
","""event"",""trial"",""time""
""fullscreenenter"",""1"",""3865""
","
","","","992.7999999523163","","","18","10266","4815","&#9728;","elianto","#f73b6a7A","-1"," ","0","-10","[1844.0999999046326]","1","1","","","10266","8","0","4","lose","no-go","0"
"pit-trial","126","960960","0.0-12.0","battery-v0.2","","""event"",""trial"",""time""
""fullscreenenter"",""1"",""3865""
","
","
","""event"",""trial"",""time""
""fullscreenenter"",""1"",""3865""
","
","","","1283.2999999523163","","","18","10266","4815","&#9733;","elianto","#3366ff99","-1"," ","0","0","[2133.899999976158]","1","1","","","10266","9","2","2","win","no-go","0"
"pit-trial","127","965013","0.0-13.0","battery-v0.2","","""event"",""trial"",""time""
""fullscreenenter"",""1"",""3865""
","
","
","""event"",""trial"",""time""
""fullscreenenter"",""1"",""3865""
","
","","","1197.5","","","18","10266","4815","&#9752;","elianto","#f73b6a7A"," "," ","1","0","[2048.2999999523163]","1","1","","","10266","10","3","3","lose","go","0"
"pit-trial","128","968565","0.0-14.0","battery-v0.2","","""event"",""trial"",""time""
""fullscreenenter"",""1"",""3865""
","
","
","""event"",""trial"",""time""
""fullscreenenter"",""1"",""3865""
","
","","","694.7000000476837","","","18","10266","4815","&#9730;","elianto","#3366ff99"," "," ","1","0","[1546.1000000238419]","1","1","","","10266","11","1","1","win","go","1"
"pit-trial","129","973422","0.0-15.0","battery-v0.2","","""event"",""trial"",""time""
""fullscreenenter"",""1"",""3865""
","
","
","""event"",""trial"",""time""
""fullscreenenter"",""1"",""3865""
","
","","","-1","","","18","10266","4815","&#9728;","elianto","#f73b6a7A","-1","-1","1","0","[]","0","1","","","10266","12","0","4","lose","no-go","0"
"pit-trial","130","978278","0.0-16.0","battery-v0.2","","""event"",""trial"",""time""
""fullscreenenter"",""1"",""3865""
","
","
","""event"",""trial"",""time""
""fullscreenenter"",""1"",""3865""
","
","","","-1","","","18","10266","4815","&#9752;","elianto","#f73b6a7A"," ","-1","0","-10","[]","0","1","","","10266","13","3","3","lose","go","0"
"pit-trial","131","982203","0.0-17.0","battery-v0.2","","""event"",""trial"",""time""
""fullscreenenter"",""1"",""3865""
","
","
","""event"",""trial"",""time""
""fullscreenenter"",""1"",""3865""
","
","","","1070.2999999523163","","","18","10266","4815","&#9730;","elianto","#3366ff99"," "," ","1","+10","[1921.6999999284744]","1","1","","","10266","14","1","1","win","go","0"
"pit-trial","132","987071","0.0-18.0","battery-v0.2","","""event"",""trial"",""time""
""fullscreenenter"",""1"",""3865""
","
","
","""event"",""trial"",""time""
""fullscreenenter"",""1"",""3865""
","
","","","-1","","","18","10266","4815","&#9733;","elianto","#3366ff99","-1","-1","1","+10","[]","0","1","","","10266","15","2","2","win","no-go","0"
"pit-trial","133","991927","0.0-19.0","battery-v0.2","","""event"",""trial"",""time""
""fullscreenenter"",""1"",""3865""
","
","
","""event"",""trial"",""time""
""fullscreenenter"",""1"",""3865""
","
","","","-1","","","18","10266","4815","&#9728;","elianto","#f73b6a7A","-1","-1","1","0","[]","0","1","","","10266","16","0","4","lose","no-go","0"
"pit-trial","134","996785","0.0-20.0","battery-v0.2","","""event"",""trial"",""time""
""fullscreenenter"",""1"",""3865""
","
","
","""event"",""trial"",""time""
""fullscreenenter"",""1"",""3865""
","
","","","-1","","","18","10266","4815","&#9733;","elianto","#3366ff99","-1","-1","1","0","[]","0","1","","","10266","17","2","2","win","no-go","1"
"pit-trial","135","1001246","0.0-21.0","battery-v0.2","","""event"",""trial"",""time""
""fullscreenenter"",""1"",""3865""
","
","
","""event"",""trial"",""time""
""fullscreenenter"",""1"",""3865""
","
","","","1601.8999999761581","","","18","10266","4815","&#9752;","elianto","#f73b6a7A"," "," ","1","0","[2455]","1","1","","","10266","18","3","3","lose","go","0"
"pit-trial","136","1004881","0.0-22.0","battery-v0.2","","""event"",""trial"",""time""
""fullscreenenter"",""1"",""3865""
","
","
","""event"",""trial"",""time""
""fullscreenenter"",""1"",""3865""
","
","","","779.1999999284744","","","18","10266","4815","&#9730;","elianto","#3366ff99"," "," ","1","+10","[1630.1999999284744]","1","1","","","10266","19","1","1","win","go","0"
"pit-trial","137","1009745","0.0-23.0","battery-v0.2","","""event"",""trial"",""time""
""fullscreenenter"",""1"",""3865""
","
","
","""event"",""trial"",""time""
""fullscreenenter"",""1"",""3865""
","
","","","-1","","","18","10266","4815","&#9728;","elianto","#f73b6a7A","-1","-1","1","0","[]","0","1","","","10266","20","0","4","lose","no-go","0"
"pit-instructions","138","1060261","0.0-24.0","battery-v0.2","","""event"",""trial"",""time""
""fullscreenenter"",""1"",""3865""
","
","
","""event"",""trial"",""time""
""fullscreenenter"",""1"",""3865""
","
","","[{""page_index"":0,""viewing_time"":42604.799999952316},{""page_index"":1,""viewing_time"":7907.200000047684}]","50512.299999952316","","","","","","","","","","","","","","","","","","","","","","","",""
"pit-trial","139","1064596","0.0-25.0","battery-v0.2","","""event"",""trial"",""time""
""fullscreenenter"",""1"",""3865""
","
","
","""event"",""trial"",""time""
""fullscreenenter"",""1"",""3865""
","
","","","1471.1999999284744","","","18","10266","4815","w","elianto","#f73b6a7A","-1"," ","0","-10","[2325.600000023842]","1","2","","","10266","21","3","4","lose","no-go","0"
"pit-trial","140","1068187","0.0-26.0","battery-v0.2","","""event"",""trial"",""time""
""fullscreenenter"",""1"",""3865""
","
","
","""event"",""trial"",""time""
""fullscreenenter"",""1"",""3865""
","
","","","720.7999999523163","","","18","10266","4815","d","elianto","#3366ff99","-1"," ","0","0","[1574.6999999284744]","1","2","","","10266","22","1","2","win","no-go","0"
"pit-trial","141","1072844","0.0-27.0","battery-v0.2","","""event"",""trial"",""time""
""fullscreenenter"",""1"",""3865""
","
","
","""event"",""trial"",""time""
""fullscreenenter"",""1"",""3865""
","
","","","1793.8999999761581","","","18","10266","4815","e","elianto","#f73b6a7A"," "," ","1","0","[2649]","1","2","","","10266","23","2","3","lose","go","0"
"pit-trial","142","1076619","0.0-28.0","battery-v0.2","","""event"",""trial"",""time""
""fullscreenenter"",""1"",""3865""
","
","
","""event"",""trial"",""time""
""fullscreenenter"",""1"",""3865""
","
","","","904.2999999523163","","","18","10266","4815","j","elianto","#f73b6a7A"," "," ","1","0","[1760.1999999284744]","1","2","","","10266","24","0","3","lose","go","0"
"pit-trial","143","1080932","0.0-29.0","battery-v0.2","","""event"",""trial"",""time""
""fullscreenenter"",""1"",""3865""
","
","
","""event"",""trial"",""time""
""fullscreenenter"",""1"",""3865""
","
","","","1452.6000000238419","","","18","10266","4815","d","elianto","#3366ff99","-1"," ","0","0","[2303.899999976158]","1","2","","","10266","25","1","2","win","no-go","0"
"pit-trial","144","1084765","0.0-30.0","battery-v0.2","","""event"",""trial"",""time""
""fullscreenenter"",""1"",""3865""
","
","
","""event"",""trial"",""time""
""fullscreenenter"",""1"",""3865""
","
","","","970.7000000476837","","","18","10266","4815","j","elianto","#f73b6a7A"," "," ","1","0","[1821.1000000238419]","1","2","","","10266","26","0","3","lose","go","0"
"pit-trial","145","1089626","0.0-31.0","battery-v0.2","","""event"",""trial"",""time""
""fullscreenenter"",""1"",""3865""
","
","
","""event"",""trial"",""time""
""fullscreenenter"",""1"",""3865""
","
","","","-1","","","18","10266","4815","w","elianto","#f73b6a7A","-1","-1","1","-10","[]","0","2","","","10266","27","3","4","lose","no-go","1"
"pit-trial","146","1094440","0.0-32.0","battery-v0.2","","""event"",""trial"",""time""
""fullscreenenter"",""1"",""3865""
","
","
","""event"",""trial"",""time""
""fullscreenenter"",""1"",""3865""
","
","","","1957.5","","","18","10266","4815","e","elianto","#f73b6a7A"," "," ","1","0","[2808.600000023842]","1","2","","","10266","28","2","3","lose","go","0"
"pit-trial","147","1099296","0.0-33.0","battery-v0.2","","""event"",""trial"",""time""
""fullscreenenter"",""1"",""3865""
","
","
","""event"",""trial"",""time""
""fullscreenenter"",""1"",""3865""
","
","","","-1","","","18","10266","4815","w","elianto","#f73b6a7A","-1","-1","1","0","[]","0","2","","","10266","29","3","4","lose","no-go","0"
"pit-trial","148","1103123","0.0-34.0","battery-v0.2","","""event"",""trial"",""time""
""fullscreenenter"",""1"",""3865""
","
","
","""event"",""trial"",""time""
""fullscreenenter"",""1"",""3865""
","
","","","970.8000000715256","","","18","10266","4815","j","elianto","#f73b6a7A"," "," ","1","0","[1821.1000000238419]","1","2","","","10266","30","0","3","lose","go","0"
"pit-trial","149","1107626","0.0-35.0","battery-v0.2","","""event"",""trial"",""time""
""fullscreenenter"",""1"",""3865""
","
","
","""event"",""trial"",""time""
""fullscreenenter"",""1"",""3865""
","
","","","1646.5","","","18","10266","4815","e","elianto","#f73b6a7A"," "," ","1","0","[2498.2000000476837]","1","2","","","10266","31","2","3","lose","go","0"
"pit-trial","150","1112483","0.0-36.0","battery-v0.2","","""event"",""trial"",""time""
""fullscreenenter"",""1"",""3865""
","
","
","""event"",""trial"",""time""
""fullscreenenter"",""1"",""3865""
","
","","","-1","","","18","10266","4815","d","elianto","#3366ff99","-1","-1","1","+10","[]","0","2","","","10266","32","1","2","win","no-go","0"
"pit-trial","151","1117340","0.0-37.0","battery-v0.2","","""event"",""trial"",""time""
""fullscreenenter"",""1"",""3865""
","
","
","""event"",""trial"",""time""
""fullscreenenter"",""1"",""3865""
","
","","","-1","","","18","10266","4815","e","elianto","#f73b6a7A"," ","-1","0","-10","[]","0","2","","","10266","33","2","3","lose","go","0"
"pit-trial","152","1121557","0.0-38.0","battery-v0.2","","""event"",""trial"",""time""
""fullscreenenter"",""1"",""3865""
","
","
","""event"",""trial"",""time""
""fullscreenenter"",""1"",""3865""
","
","","","1363.0999999046326","","","18","10266","4815","j","elianto","#f73b6a7A"," "," ","1","0","[2213.4000000953674]","1","2","","","10266","34","0","3","lose","go","0"
"pit-trial","153","1126415","0.0-39.0","battery-v0.2","","""event"",""trial"",""time""
""fullscreenenter"",""1"",""3865""
","
","
","""event"",""trial"",""time""
""fullscreenenter"",""1"",""3865""
","
","","","-1","","","18","10266","4815","d","elianto","#3366ff99","-1","-1","1","+10","[]","0","2","","","10266","35","1","2","win","no-go","0"
"pit-trial","154","1131272","0.0-40.0","battery-v0.2","","""event"",""trial"",""time""
""fullscreenenter"",""1"",""3865""
","
","
","""event"",""trial"",""time""
""fullscreenenter"",""1"",""3865""
","
","","","-1","","","18","10266","4815","w","elianto","#f73b6a7A","-1","-1","1","0","[]","0","2","","","10266","36","3","4","lose","no-go","0"
"pit-trial","155","1136128","0.0-41.0","battery-v0.2","","""event"",""trial"",""time""
""fullscreenenter"",""1"",""3865""
","
","
","""event"",""trial"",""time""
""fullscreenenter"",""1"",""3865""
","
","","","-1","","","18","10266","4815","d","elianto","#3366ff99","-1","-1","1","+10","[]","0","2","","","10266","37","1","2","win","no-go","0"
"pit-trial","156","1139699","0.0-42.0","battery-v0.2","","""event"",""trial"",""time""
""fullscreenenter"",""1"",""3865""
","
","
","""event"",""trial"",""time""
""fullscreenenter"",""1"",""3865""
","
","","","715.2999999523163","","","18","10266","4815","j","elianto","#f73b6a7A"," "," ","1","0","[1565.9000000953674]","1","2","","","10266","38","0","3","lose","go","0"
"pit-trial","157","1144556","0.0-43.0","battery-v0.2","","""event"",""trial"",""time""
""fullscreenenter"",""1"",""3865""
","
","
","""event"",""trial"",""time""
""fullscreenenter"",""1"",""3865""
","
","","","-1","","","18","10266","4815","w","elianto","#f73b6a7A","-1","-1","1","0","[]","0","2","","","10266","39","3","4","lose","no-go","0"
"pit-trial","158","1147999","0.0-44.0","battery-v0.2","","""event"",""trial"",""time""
""fullscreenenter"",""1"",""3865""
","
","
","""event"",""trial"",""time""
""fullscreenenter"",""1"",""3865""
","
","","","586.7999999523163","","","18","10266","4815","e","elianto","#f73b6a7A"," "," ","1","-10","[1437.3999999761581]","1","2","","","10266","40","2","3","lose","go","1"
"pit-trial","159","1151639","0.0-45.0","battery-v0.2","","""event"",""trial"",""time""
""fullscreenenter"",""1"",""3865""
","
","
","""event"",""trial"",""time""
""fullscreenenter"",""1"",""3865""
","
","","","778.7999999523163","","","18","10266","4815","e","elianto","#f73b6a7A"," "," ","1","0","[1629.1999999284744]","1","2","","","10266","41","2","3","lose","go","0"
"pit-trial","160","1156495","0.0-46.0","battery-v0.2","","""event"",""trial"",""time""
""fullscreenenter"",""1"",""3865""
","
","
","""event"",""trial"",""time""
""fullscreenenter"",""1"",""3865""
","
","","","-1","","","18","10266","4815","d","elianto","#3366ff99","-1","-1","1","+10","[]","0","2","","","10266","42","1","2","win","no-go","0"
"pit-trial","161","1161351","0.0-47.0","battery-v0.2","","""event"",""trial"",""time""
""fullscreenenter"",""1"",""3865""
","
","
","""event"",""trial"",""time""
""fullscreenenter"",""1"",""3865""
","
","","","-1","","","18","10266","4815","w","elianto","#f73b6a7A","-1","-1","1","-10","[]","0","2","","","10266","43","3","4","lose","no-go","1"
"pit-trial","162","1165313","0.0-48.0","battery-v0.2","","""event"",""trial"",""time""
""fullscreenenter"",""1"",""3865""
","
","
","""event"",""trial"",""time""
""fullscreenenter"",""1"",""3865""
","
","","","1106.3999999761581","","","18","10266","4815","j","elianto","#f73b6a7A"," "," ","1","0","[1956.7999999523163]","1","2","","","10266","44","0","3","lose","go","0"
"pit-trial","163","1170169","0.0-49.0","battery-v0.2","","""event"",""trial"",""time""
""fullscreenenter"",""1"",""3865""
","
","
","""event"",""trial"",""time""
""fullscreenenter"",""1"",""3865""
","
","","","-1","","","18","10266","4815","w","elianto","#f73b6a7A","-1","-1","1","0","[]","0","2","","","10266","45","3","4","lose","no-go","0"
"pit-trial","164","1175024","0.0-50.0","battery-v0.2","","""event"",""trial"",""time""
""fullscreenenter"",""1"",""3865""
","
","
","""event"",""trial"",""time""
""fullscreenenter"",""1"",""3865""
","
","","","-1","","","18","10266","4815","d","elianto","#3366ff99","-1","-1","1","0","[]","0","2","","","10266","46","1","2","win","no-go","1"
"pit-trial","165","1179310","0.0-51.0","battery-v0.2","","""event"",""trial"",""time""
""fullscreenenter"",""1"",""3865""
","
","
","""event"",""trial"",""time""
""fullscreenenter"",""1"",""3865""
","
","","","1425.7999999523163","","","18","10266","4815","j","elianto","#f73b6a7A"," "," ","1","0","[2276.2999999523163]","1","2","","","10266","47","0","3","lose","go","0"
"pit-trial","166","1182818","0.0-52.0","battery-v0.2","","""event"",""trial"",""time""
""fullscreenenter"",""1"",""3865""
","
","
","""event"",""trial"",""time""
""fullscreenenter"",""1"",""3865""
","
","","","651.8999999761581","","","18","10266","4815","e","elianto","#f73b6a7A"," "," ","1","0","[1502.6000000238419]","1","2","","","10266","48","2","3","lose","go","0"
"pit-trial","167","1186517","0.0-53.0","battery-v0.2","","""event"",""trial"",""time""
""fullscreenenter"",""1"",""3865""
","
","
","""event"",""trial"",""time""
""fullscreenenter"",""1"",""3865""
","
","","","843.1000000238419","","","18","10266","4815","e","elianto","#f73b6a7A"," "," ","1","0","[1693.8999999761581]","1","2","","","10266","49","2","3","lose","go","0"
"pit-trial","168","1190225","0.0-54.0","battery-v0.2","","""event"",""trial"",""time""
""fullscreenenter"",""1"",""3865""
","
","
","""event"",""trial"",""time""
""fullscreenenter"",""1"",""3865""
","
","","","851.8000000715256","","","18","10266","4815","j","elianto","#f73b6a7A"," "," ","1","0","[1703.1000000238419]","1","2","","","10266","50","0","3","lose","go","0"
"pit-trial","169","1195082","0.0-55.0","battery-v0.2","","""event"",""trial"",""time""
""fullscreenenter"",""1"",""3865""
","
","
","""event"",""trial"",""time""
""fullscreenenter"",""1"",""3865""
","
","","","-1","","","18","10266","4815","d","elianto","#3366ff99","-1","-1","1","+10","[]","0","2","","","10266","51","1","2","win","no-go","0"
"pit-trial","170","1199179","0.0-56.0","battery-v0.2","","""event"",""trial"",""time""
""fullscreenenter"",""1"",""3865""
","
","
","""event"",""trial"",""time""
""fullscreenenter"",""1"",""3865""
","
","","","1239.1999999284744","","","18","10266","4815","w","elianto","#f73b6a7A","-1"," ","0","-10","[2090.8000000715256]","1","2","","","10266","52","3","4","lose","no-go","0"
"pit-trial","171","1203212","0.0-57.0","battery-v0.2","","""event"",""trial"",""time""
""fullscreenenter"",""1"",""3865""
","
","
","""event"",""trial"",""time""
""fullscreenenter"",""1"",""3865""
","
","","","1173.7999999523163","","","18","10266","4815","e","elianto","#f73b6a7A"," "," ","1","-10","[2028]","1","2","","","10266","53","2","3","lose","go","1"
"pit-trial","172","1208068","0.0-58.0","battery-v0.2","","""event"",""trial"",""time""
""fullscreenenter"",""1"",""3865""
","
","
","""event"",""trial"",""time""
""fullscreenenter"",""1"",""3865""
","
","","","-1","","","18","10266","4815","d","elianto","#3366ff99","-1","-1","1","+10","[]","0","2","","","10266","54","1","2","win","no-go","0"
"pit-trial","173","1212163","0.0-59.0","battery-v0.2","","""event"",""trial"",""time""
""fullscreenenter"",""1"",""3865""
","
","
","""event"",""trial"",""time""
""fullscreenenter"",""1"",""3865""
","
","","","1239","","","18","10266","4815","j","elianto","#f73b6a7A"," "," ","1","0","[2089.7000000476837]","1","2","","","10266","55","0","3","lose","go","0"
"pit-trial","174","1217020","0.0-60.0","battery-v0.2","","""event"",""trial"",""time""
""fullscreenenter"",""1"",""3865""
","
","
","""event"",""trial"",""time""
""fullscreenenter"",""1"",""3865""
","
","","","-1","","","18","10266","4815","w","elianto","#f73b6a7A","-1","-1","1","0","[]","0","2","","","10266","56","3","4","lose","no-go","0"
"pit-trial","175","1221127","0.0-61.0","battery-v0.2","","""event"",""trial"",""time""
""fullscreenenter"",""1"",""3865""
","
","
","""event"",""trial"",""time""
""fullscreenenter"",""1"",""3865""
","
","","","1250.2999999523163","","","18","10266","4815","j","elianto","#f73b6a7A"," "," ","1","0","[2101.399999976158]","1","2","","","10266","57","0","3","lose","go","0"
"pit-trial","176","1225173","0.0-62.0","battery-v0.2","","""event"",""trial"",""time""
""fullscreenenter"",""1"",""3865""
","
","
","""event"",""trial"",""time""
""fullscreenenter"",""1"",""3865""
","
","","","1190.6000000238419","","","18","10266","4815","e","elianto","#f73b6a7A"," "," ","1","0","[2041.3999999761581]","1","2","","","10266","58","2","3","lose","go","0"
"pit-trial","177","1230029","0.0-63.0","battery-v0.2","","""event"",""trial"",""time""
""fullscreenenter"",""1"",""3865""
","
","
","""event"",""trial"",""time""
""fullscreenenter"",""1"",""3865""
","
","","","-1","","","18","10266","4815","w","elianto","#f73b6a7A","-1","-1","1","0","[]","0","2","","","10266","59","3","4","lose","no-go","0"
"pit-trial","178","1233985","0.0-64.0","battery-v0.2","","""event"",""trial"",""time""
""fullscreenenter"",""1"",""3865""
","
","
","""event"",""trial"",""time""
""fullscreenenter"",""1"",""3865""
","
","","","1085.4000000953674","","","18","10266","4815","s","elianto","#3366ff99"," "," ","1","+10","[1936.6000000238419]","1","2","","","10266","60","4","1","win","go","0"
"pit-trial","179","1238842","0.0-65.0","battery-v0.2","","""event"",""trial"",""time""
""fullscreenenter"",""1"",""3865""
","
","
","""event"",""trial"",""time""
""fullscreenenter"",""1"",""3865""
","
","","","-1","","","18","10266","4815","w","elianto","#f73b6a7A","-1","-1","1","-10","[]","0","2","","","10266","61","3","4","lose","no-go","1"
"pit-trial","180","1242967","0.0-66.0","battery-v0.2","","""event"",""trial"",""time""
""fullscreenenter"",""1"",""3865""
","
","
","""event"",""trial"",""time""
""fullscreenenter"",""1"",""3865""
","
","","","1269.4000000953674","","","18","10266","4815","d","elianto","#3366ff99","-1"," ","0","0","[2120.2000000476837]","1","2","","","10266","62","1","2","win","no-go","0"
"pit-trial","181","1247406","0.0-67.0","battery-v0.2","","""event"",""trial"",""time""
""fullscreenenter"",""1"",""3865""
","
","
","""event"",""trial"",""time""
""fullscreenenter"",""1"",""3865""
","
","","","1582.7999999523163","","","18","10266","4815","e","elianto","#f73b6a7A"," "," ","1","0","[2433.1999999284744]","1","2","","","10266","63","2","3","lose","go","0"
"pit-trial","182","1251280","0.0-68.0","battery-v0.2","","""event"",""trial"",""time""
""fullscreenenter"",""1"",""3865""
","
","
","""event"",""trial"",""time""
""fullscreenenter"",""1"",""3865""
","
","","","1018","","","18","10266","4815","s","elianto","#3366ff99"," "," ","1","+10","[1868.3000000715256]","1","2","","","10266","64","4","1","win","go","0"
"pit-trial","183","1255001","0.0-69.0","battery-v0.2","","""event"",""trial"",""time""
""fullscreenenter"",""1"",""3865""
","
","
","""event"",""trial"",""time""
""fullscreenenter"",""1"",""3865""
","
","","","864.7999999523163","","","18","10266","4815","s","elianto","#3366ff99"," "," ","1","+10","[1716.3000000715256]","1","2","","","10266","65","4","1","win","go","0"
"pit-trial","184","1259864","0.0-70.0","battery-v0.2","","""event"",""trial"",""time""
""fullscreenenter"",""1"",""3865""
","
","
","""event"",""trial"",""time""
""fullscreenenter"",""1"",""3865""
","
","","","-1","","","18","10266","4815","w","elianto","#f73b6a7A","-1","-1","1","0","[]","0","2","","","10266","66","3","4","lose","no-go","0"
"pit-trial","185","1264722","0.0-71.0","battery-v0.2","","""event"",""trial"",""time""
""fullscreenenter"",""1"",""3865""
","
","
","""event"",""trial"",""time""
""fullscreenenter"",""1"",""3865""
","
","","","-1","","","18","10266","4815","d","elianto","#3366ff99","-1","-1","1","+10","[]","0","2","","","10266","67","1","2","win","no-go","0"
"pit-trial","186","1268666","0.0-72.0","battery-v0.2","","""event"",""trial"",""time""
""fullscreenenter"",""1"",""3865""
","
","
","""event"",""trial"",""time""
""fullscreenenter"",""1"",""3865""
","
","","","1085.3999999761581","","","18","10266","4815","p","elianto","#3366ff99","-1"," ","0","0","[1938.8999999761581]","1","2","","","10266","68","5","2","win","no-go","0"
"pit-trial","187","1272448","0.0-73.0","battery-v0.2","","""event"",""trial"",""time""
""fullscreenenter"",""1"",""3865""
","
","
","""event"",""trial"",""time""
""fullscreenenter"",""1"",""3865""
","
","","","926.3000000715256","","","18","10266","4815","s","elianto","#3366ff99"," "," ","1","+10","[1776.7000000476837]","1","2","","","10266","69","4","1","win","go","0"
"pit-trial","188","1277305","0.0-74.0","battery-v0.2","","""event"",""trial"",""time""
""fullscreenenter"",""1"",""3865""
","
","
","""event"",""trial"",""time""
""fullscreenenter"",""1"",""3865""
","
","","","-1","","","18","10266","4815","d","elianto","#3366ff99","-1","-1","1","+10","[]","0","2","","","10266","70","1","2","win","no-go","0"
"pit-trial","189","1281762","0.0-75.0","battery-v0.2","","""event"",""trial"",""time""
""fullscreenenter"",""1"",""3865""
","
","
","""event"",""trial"",""time""
""fullscreenenter"",""1"",""3865""
","
","","","1598.6000000238419","","","18","10266","4815","e","elianto","#f73b6a7A"," "," ","1","0","[2452.600000023842]","1","2","","","10266","71","2","3","lose","go","0"
"pit-trial","190","1286619","0.0-76.0","battery-v0.2","","""event"",""trial"",""time""
""fullscreenenter"",""1"",""3865""
","
","
","""event"",""trial"",""time""
""fullscreenenter"",""1"",""3865""
","
","","","-1","","","18","10266","4815","p","elianto","#3366ff99","-1","-1","1","0","[]","0","2","","","10266","72","5","2","win","no-go","1"
"pit-trial","191","1291476","0.0-77.0","battery-v0.2","","""event"",""trial"",""time""
""fullscreenenter"",""1"",""3865""
","
","
","""event"",""trial"",""time""
""fullscreenenter"",""1"",""3865""
","
","","","-1","","","18","10266","4815","d","elianto","#3366ff99","-1","-1","1","0","[]","0","2","","","10266","73","1","2","win","no-go","1"
"pit-trial","192","1296333","0.0-78.0","battery-v0.2","","""event"",""trial"",""time""
""fullscreenenter"",""1"",""3865""
","
","
","""event"",""trial"",""time""
""fullscreenenter"",""1"",""3865""
","
","","","-1","","","18","10266","4815","w","elianto","#f73b6a7A","-1","-1","1","0","[]","0","2","","","10266","74","3","4","lose","no-go","0"
"pit-trial","193","1300211","0.0-79.0","battery-v0.2","","""event"",""trial"",""time""
""fullscreenenter"",""1"",""3865""
","
","
","""event"",""trial"",""time""
""fullscreenenter"",""1"",""3865""
","
","","","1020.8000000715256","","","18","10266","4815","s","elianto","#3366ff99"," "," ","1","+10","[1871.6000000238419]","1","2","","","10266","75","4","1","win","go","0"
"pit-trial","194","1305067","0.0-80.0","battery-v0.2","","""event"",""trial"",""time""
""fullscreenenter"",""1"",""3865""
","
","
","""event"",""trial"",""time""
""fullscreenenter"",""1"",""3865""
","
","","","-1","","","18","10266","4815","p","elianto","#3366ff99","-1","-1","1","+10","[]","0","2","","","10266","76","5","2","win","no-go","0"
"pit-trial","195","1309923","0.0-81.0","battery-v0.2","","""event"",""trial"",""time""
""fullscreenenter"",""1"",""3865""
","
","
","""event"",""trial"",""time""
""fullscreenenter"",""1"",""3865""
","
","","","-1","","","18","10266","4815","p","elianto","#3366ff99","-1","-1","1","0","[]","0","2","","","10266","77","5","2","win","no-go","1"
"pit-trial","196","1314779","0.0-82.0","battery-v0.2","","""event"",""trial"",""time""
""fullscreenenter"",""1"",""3865""
","
","
","""event"",""trial"",""time""
""fullscreenenter"",""1"",""3865""
","
","","","-1","","","18","10266","4815","w","elianto","#f73b6a7A","-1","-1","1","-10","[]","0","2","","","10266","78","3","4","lose","no-go","1"
"pit-trial","197","1318581","0.0-83.0","battery-v0.2","","""event"",""trial"",""time""
""fullscreenenter"",""1"",""3865""
","
","
","""event"",""trial"",""time""
""fullscreenenter"",""1"",""3865""
","
","","","944.9000000953674","","","18","10266","4815","s","elianto","#3366ff99"," "," ","1","+10","[1796]","1","2","","","10266","79","4","1","win","go","0"
"pit-trial","198","1322357","0.0-84.0","battery-v0.2","","""event"",""trial"",""time""
""fullscreenenter"",""1"",""3865""
","
","
","""event"",""trial"",""time""
""fullscreenenter"",""1"",""3865""
","
","","","920","","","18","10266","4815","s","elianto","#3366ff99"," "," ","1","+10","[1770.7000000476837]","1","2","","","10266","80","4","1","win","go","0"
"pit-trial","199","1326998","0.0-85.0","battery-v0.2","","""event"",""trial"",""time""
""fullscreenenter"",""1"",""3865""
","
","
","""event"",""trial"",""time""
""fullscreenenter"",""1"",""3865""
","
","","","1784.7999999523163","","","18","10266","4815","a","elianto","#f73b6a7A","-1"," ","0","-10","[2635.1999999284744]","1","2","","","10266","81","7","4","lose","no-go","0"
"pit-trial","200","1330947","0.0-86.0","battery-v0.2","","""event"",""trial"",""time""
""fullscreenenter"",""1"",""3865""
","
","
","""event"",""trial"",""time""
""fullscreenenter"",""1"",""3865""
","
","","","1092.5","","","18","10266","4815","p","elianto","#3366ff99","-1"," ","0","0","[1942.6999999284744]","1","2","","","10266","82","5","2","win","no-go","0"
"pit-trial","201","1334566","0.0-87.0","battery-v0.2","","""event"",""trial"",""time""
""fullscreenenter"",""1"",""3865""
","
","
","""event"",""trial"",""time""
""fullscreenenter"",""1"",""3865""
","
","","","761.7999999523163","","","18","10266","4815","s","elianto","#3366ff99"," "," ","1","0","[1613.2999999523163]","1","2","","","10266","83","4","1","win","go","1"
"pit-trial","202","1339422","0.0-88.0","battery-v0.2","","""event"",""trial"",""time""
""fullscreenenter"",""1"",""3865""
","
","
","""event"",""trial"",""time""
""fullscreenenter"",""1"",""3865""
","
","","","-1","","","18","10266","4815","w","elianto","#f73b6a7A","-1","-1","1","-10","[]","0","2","","","10266","84","3","4","lose","no-go","1"
"pit-trial","203","1343687","0.0-89.0","battery-v0.2","","""event"",""trial"",""time""
""fullscreenenter"",""1"",""3865""
","
","
","""event"",""trial"",""time""
""fullscreenenter"",""1"",""3865""
","
","","","1401.8000000715256","","","18","10266","4815","s","elianto","#3366ff99"," "," ","1","+10","[2261.5]","1","2","","","10266","85","4","1","win","go","0"
"pit-trial","204","1348544","0.0-90.0","battery-v0.2","","""event"",""trial"",""time""
""fullscreenenter"",""1"",""3865""
","
","
","""event"",""trial"",""time""
""fullscreenenter"",""1"",""3865""
","
","","","-1","","","18","10266","4815","p","elianto","#3366ff99","-1","-1","1","+10","[]","0","2","","","10266","86","5","2","win","no-go","0"
"pit-trial","205","1353415","0.0-91.0","battery-v0.2","","""event"",""trial"",""time""
""fullscreenenter"",""1"",""3865""
","
","
","""event"",""trial"",""time""
""fullscreenenter"",""1"",""3865""
","
","","","-1","","","18","10266","4815","a","elianto","#f73b6a7A","-1","-1","1","0","[]","0","2","","","10266","87","7","4","lose","no-go","0"
"pit-trial","206","1357876","0.0-92.0","battery-v0.2","","""event"",""trial"",""time""
""fullscreenenter"",""1"",""3865""
","
","
","""event"",""trial"",""time""
""fullscreenenter"",""1"",""3865""
","
","","","1604.3999999761581","","","18","10266","4815","g","elianto","#f73b6a7A"," "," ","1","0","[2456]","1","2","","","10266","88","6","3","lose","go","0"
"pit-trial","207","1361660","0.0-93.0","battery-v0.2","","""event"",""trial"",""time""
""fullscreenenter"",""1"",""3865""
","
","
","""event"",""trial"",""time""
""fullscreenenter"",""1"",""3865""
","
","","","927.5","","","18","10266","4815","g","elianto","#f73b6a7A"," "," ","1","0","[1777.8999999761581]","1","2","","","10266","89","6","3","lose","go","0"
"pit-trial","208","1365414","0.0-94.0","battery-v0.2","","""event"",""trial"",""time""
""fullscreenenter"",""1"",""3865""
","
","
","""event"",""trial"",""time""
""fullscreenenter"",""1"",""3865""
","
","","","898.8000000715256","","","18","10266","4815","s","elianto","#3366ff99"," "," ","1","+10","[1749.3999999761581]","1","2","","","10266","90","4","1","win","go","0"
"pit-trial","209","1370271","0.0-95.0","battery-v0.2","","""event"",""trial"",""time""
""fullscreenenter"",""1"",""3865""
","
","
","""event"",""trial"",""time""
""fullscreenenter"",""1"",""3865""
","
","","","-1","","","18","10266","4815","p","elianto","#3366ff99","-1","-1","1","0","[]","0","2","","","10266","91","5","2","win","no-go","1"
"pit-trial","210","1374528","0.0-96.0","battery-v0.2","","""event"",""trial"",""time""
""fullscreenenter"",""1"",""3865""
","
","
","""event"",""trial"",""time""
""fullscreenenter"",""1"",""3865""
","
","","","1400.5","","","18","10266","4815","a","elianto","#f73b6a7A","-1"," ","0","-10","[2251.2000000476837]","1","2","","","10266","92","7","4","lose","no-go","0"
"pit-trial","211","1378844","0.0-97.0","battery-v0.2","","""event"",""trial"",""time""
""fullscreenenter"",""1"",""3865""
","
","
","""event"",""trial"",""time""
""fullscreenenter"",""1"",""3865""
","
","","","1458.6000000238419","","","18","10266","4815","p","elianto","#3366ff99","-1"," ","0","0","[2309.7000000476837]","1","2","","","10266","93","5","2","win","no-go","0"
"pit-trial","212","1382861","0.0-98.0","battery-v0.2","","""event"",""trial"",""time""
""fullscreenenter"",""1"",""3865""
","
","
","""event"",""trial"",""time""
""fullscreenenter"",""1"",""3865""
","
","","","1161.5","","","18","10266","4815","g","elianto","#f73b6a7A"," "," ","1","0","[2012.3999999761581]","1","2","","","10266","94","6","3","lose","go","0"
"pit-trial","213","1387718","0.0-99.0","battery-v0.2","","""event"",""trial"",""time""
""fullscreenenter"",""1"",""3865""
","
","
","""event"",""trial"",""time""
""fullscreenenter"",""1"",""3865""
","
","","","-1","","","18","10266","4815","a","elianto","#f73b6a7A","-1","-1","1","0","[]","0","2","","","10266","95","7","4","lose","no-go","0"
"pit-trial","214","1391623","0.0-100.0","battery-v0.2","","""event"",""trial"",""time""
""fullscreenenter"",""1"",""3865""
","
","
","""event"",""trial"",""time""
""fullscreenenter"",""1"",""3865""
","
","","","1047.8999999761581","","","18","10266","4815","l","elianto","#3366ff99"," "," ","1","+10","[1898.8999999761581]","1","2","","","10266","96","8","1","win","go","0"
"pit-trial","215","1396479","0.0-101.0","battery-v0.2","","""event"",""trial"",""time""
""fullscreenenter"",""1"",""3865""
","
","
","""event"",""trial"",""time""
""fullscreenenter"",""1"",""3865""
","
","","","-1","","","18","10266","4815","a","elianto","#f73b6a7A","-1","-1","1","0","[]","0","2","","","10266","97","7","4","lose","no-go","0"
"pit-trial","216","1400112","0.0-102.0","battery-v0.2","","""event"",""trial"",""time""
""fullscreenenter"",""1"",""3865""
","
","
","""event"",""trial"",""time""
""fullscreenenter"",""1"",""3865""
","
","","","775.8999999761581","","","18","10266","4815","l","elianto","#3366ff99"," "," ","1","+10","[1627.2999999523163]","1","2","","","10266","98","8","1","win","go","0"
"pit-trial","217","1404968","0.0-103.0","battery-v0.2","","""event"",""trial"",""time""
""fullscreenenter"",""1"",""3865""
","
","
","""event"",""trial"",""time""
""fullscreenenter"",""1"",""3865""
","
","","","-1","","","18","10266","4815","p","elianto","#3366ff99","-1","-1","1","+10","[]","0","2","","","10266","99","5","2","win","no-go","0"
"pit-trial","218","1408770","0.0-104.0","battery-v0.2","","""event"",""trial"",""time""
""fullscreenenter"",""1"",""3865""
","
","
","""event"",""trial"",""time""
""fullscreenenter"",""1"",""3865""
","
","","","945.6000000238419","","","18","10266","4815","g","elianto","#f73b6a7A"," "," ","1","0","[1796.5]","1","2","","","10266","100","6","3","lose","go","0"
"pit-trial","219","1413627","0.0-105.0","battery-v0.2","","""event"",""trial"",""time""
""fullscreenenter"",""1"",""3865""
","
","
","""event"",""trial"",""time""
""fullscreenenter"",""1"",""3865""
","
","","","-1","","","18","10266","4815","p","elianto","#3366ff99","-1","-1","1","0","[]","0","2","","","10266","101","5","2","win","no-go","1"
"pit-trial","220","1418495","0.0-106.0","battery-v0.2","","""event"",""trial"",""time""
""fullscreenenter"",""1"",""3865""
","
","
","""event"",""trial"",""time""
""fullscreenenter"",""1"",""3865""
","
","","","-1","","","18","10266","4815","a","elianto","#f73b6a7A","-1","-1","1","0","[]","0","2","","","10266","102","7","4","lose","no-go","0"
"pit-trial","221","1422325","0.0-107.0","battery-v0.2","","""event"",""trial"",""time""
""fullscreenenter"",""1"",""3865""
","
","
","""event"",""trial"",""time""
""fullscreenenter"",""1"",""3865""
","
","","","972.2999999523163","","","18","10266","4815","u","elianto","#3366ff99"," "," ","1","+10","[1824]","1","2","","","10266","103","9","1","win","go","0"
"pit-trial","222","1425921","0.0-108.0","battery-v0.2","","""event"",""trial"",""time""
""fullscreenenter"",""1"",""3865""
","
","
","""event"",""trial"",""time""
""fullscreenenter"",""1"",""3865""
","
","","","739.3999999761581","","","18","10266","4815","l","elianto","#3366ff99"," "," ","1","+10","[1591.5]","1","2","","","10266","104","8","1","win","go","0"
"pit-trial","223","1429831","0.0-109.0","battery-v0.2","","""event"",""trial"",""time""
""fullscreenenter"",""1"",""3865""
","
","
","""event"",""trial"",""time""
""fullscreenenter"",""1"",""3865""
","
","","","1051.3000000715256","","","18","10266","4815","g","elianto","#f73b6a7A"," "," ","1","0","[1903.2999999523163]","1","2","","","10266","105","6","3","lose","go","0"
"pit-trial","224","1433452","0.0-110.0","battery-v0.2","","""event"",""trial"",""time""
""fullscreenenter"",""1"",""3865""
","
","
","""event"",""trial"",""time""
""fullscreenenter"",""1"",""3865""
","
","","","763","","","18","10266","4815","l","elianto","#3366ff99"," "," ","1","+10","[1614.8999999761581]","1","2","","","10266","106","8","1","win","go","0"
"pit-trial","225","1437232","0.0-111.0","battery-v0.2","","""event"",""trial"",""time""
""fullscreenenter"",""1"",""3865""
","
","
","""event"",""trial"",""time""
""fullscreenenter"",""1"",""3865""
","
","","","921","","","18","10266","4815","u","elianto","#3366ff99"," "," ","1","+10","[1774.8000000715256]","1","2","","","10266","107","9","1","win","go","0"
"pit-trial","226","1442089","0.0-112.0","battery-v0.2","","""event"",""trial"",""time""
""fullscreenenter"",""1"",""3865""
","
","
","""event"",""trial"",""time""
""fullscreenenter"",""1"",""3865""
","
","","","-1","","","18","10266","4815","s","elianto","#3366ff99"," ","-1","0","0","[]","0","2","","","10266","108","4","1","win","go","0"
"pit-trial","227","1446946","0.0-113.0","battery-v0.2","","""event"",""trial"",""time""
""fullscreenenter"",""1"",""3865""
","
","
","""event"",""trial"",""time""
""fullscreenenter"",""1"",""3865""
","
","","","-1","","","18","10266","4815","u","elianto","#3366ff99"," ","-1","0","0","[]","0","2","","","10266","109","9","1","win","go","0"
"pit-trial","228","1450485","0.0-114.0","battery-v0.2","","""event"",""trial"",""time""
""fullscreenenter"",""1"",""3865""
","
","
","""event"",""trial"",""time""
""fullscreenenter"",""1"",""3865""
","
","","","682.8999999761581","","","18","10266","4815","l","elianto","#3366ff99"," "," ","1","+10","[1533.4000000953674]","1","2","","","10266","110","8","1","win","go","0"
"pit-trial","229","1454399","0.0-115.0","battery-v0.2","","""event"",""trial"",""time""
""fullscreenenter"",""1"",""3865""
","
","
","""event"",""trial"",""time""
""fullscreenenter"",""1"",""3865""
","
","","","1057.4000000953674","","","18","10266","4815","g","elianto","#f73b6a7A"," "," ","1","0","[1908.3000000715256]","1","2","","","10266","111","6","3","lose","go","0"
"pit-trial","230","1459256","0.0-116.0","battery-v0.2","","""event"",""trial"",""time""
""fullscreenenter"",""1"",""3865""
","
","
","""event"",""trial"",""time""
""fullscreenenter"",""1"",""3865""
","
","","","-1","","","18","10266","4815","p","elianto","#3366ff99","-1","-1","1","+10","[]","0","2","","","10266","112","5","2","win","no-go","0"
"pit-trial","231","1463058","0.0-117.0","battery-v0.2","","""event"",""trial"",""time""
""fullscreenenter"",""1"",""3865""
","
","
","""event"",""trial"",""time""
""fullscreenenter"",""1"",""3865""
","
","","","943.2999999523163","","","18","10266","4815","u","elianto","#3366ff99"," "," ","1","+10","[1793.8000000715256]","1","2","","","10266","113","9","1","win","go","0"
"pit-trial","232","1467914","0.0-118.0","battery-v0.2","","""event"",""trial"",""time""
""fullscreenenter"",""1"",""3865""
","
","
","""event"",""trial"",""time""
""fullscreenenter"",""1"",""3865""
","
","","","-1","","","18","10266","4815","p","elianto","#3366ff99","-1","-1","1","+10","[]","0","2","","","10266","114","5","2","win","no-go","0"
"pit-trial","233","1471532","0.0-119.0","battery-v0.2","","""event"",""trial"",""time""
""fullscreenenter"",""1"",""3865""
","
","
","""event"",""trial"",""time""
""fullscreenenter"",""1"",""3865""
","
","","","762.6999999284744","","","18","10266","4815","l","elianto","#3366ff99"," "," ","1","+10","[1613.3000000715256]","1","2","","","10266","115","8","1","win","go","0"
"pit-trial","234","1475233","0.0-120.0","battery-v0.2","","""event"",""trial"",""time""
""fullscreenenter"",""1"",""3865""
","
","
","""event"",""trial"",""time""
""fullscreenenter"",""1"",""3865""
","
","","","841.1000000238419","","","18","10266","4815","g","elianto","#f73b6a7A"," "," ","1","0","[1693.7999999523163]","1","2","","","10266","116","6","3","lose","go","0"
"pit-trial","235","1478803","0.0-121.0","battery-v0.2","","""event"",""trial"",""time""
""fullscreenenter"",""1"",""3865""
","
","
","""event"",""trial"",""time""
""fullscreenenter"",""1"",""3865""
","
","","","714.7999999523163","","","18","10266","4815","l","elianto","#3366ff99"," "," ","1","+10","[1565]","1","2","","","10266","117","8","1","win","go","0"
"pit-trial","236","1482711","0.0-122.0","battery-v0.2","","""event"",""trial"",""time""
""fullscreenenter"",""1"",""3865""
","
","
","""event"",""trial"",""time""
""fullscreenenter"",""1"",""3865""
","
","","","1051.1000000238419","","","18","10266","4815","g","elianto","#f73b6a7A"," "," ","1","0","[1901.2999999523163]","1","2","","","10266","118","6","3","lose","go","0"
"pit-trial","237","1487568","0.0-123.0","battery-v0.2","","""event"",""trial"",""time""
""fullscreenenter"",""1"",""3865""
","
","
","""event"",""trial"",""time""
""fullscreenenter"",""1"",""3865""
","
","","","-1","","","18","10266","4815","p","elianto","#3366ff99","-1","-1","1","+10","[]","0","2","","","10266","119","5","2","win","no-go","0"
"pit-trial","238","1491216","0.0-124.0","battery-v0.2","","""event"",""trial"",""time""
""fullscreenenter"",""1"",""3865""
","
","
","""event"",""trial"",""time""
""fullscreenenter"",""1"",""3865""
","
","","","792.2999999523163","","","18","10266","4815","u","elianto","#3366ff99"," "," ","1","+10","[1642.6000000238419]","1","2","","","10266","120","9","1","win","go","0"
"pit-trial","239","1495100","0.0-125.0","battery-v0.2","","""event"",""trial"",""time""
""fullscreenenter"",""1"",""3865""
","
","
","""event"",""trial"",""time""
""fullscreenenter"",""1"",""3865""
","
","","","1028.1000000238419","","","18","10266","4815","g","elianto","#f73b6a7A"," "," ","1","0","[1878.2999999523163]","1","2","","","10266","121","6","3","lose","go","0"
"pit-trial","240","1498773","0.0-126.0","battery-v0.2","","""event"",""trial"",""time""
""fullscreenenter"",""1"",""3865""
","
","
","""event"",""trial"",""time""
""fullscreenenter"",""1"",""3865""
","
","","","815.1999999284744","","","18","10266","4815","l","elianto","#3366ff99"," "," ","1","+10","[1667.5]","1","2","","","10266","122","8","1","win","go","0"
"pit-trial","241","1502501","0.0-127.0","battery-v0.2","","""event"",""trial"",""time""
""fullscreenenter"",""1"",""3865""
","
","
","""event"",""trial"",""time""
""fullscreenenter"",""1"",""3865""
","
","","","872.2000000476837","","","18","10266","4815","u","elianto","#3366ff99"," "," ","1","+10","[1722.5]","1","2","","","10266","123","9","1","win","go","0"
"pit-trial","242","1507357","0.0-128.0","battery-v0.2","","""event"",""trial"",""time""
""fullscreenenter"",""1"",""3865""
","
","
","""event"",""trial"",""time""
""fullscreenenter"",""1"",""3865""
","
","","","-1","","","18","10266","4815","a","elianto","#f73b6a7A","-1","-1","1","0","[]","0","2","","","10266","124","7","4","lose","no-go","0"
"pit-trial","243","1511349","0.0-129.0","battery-v0.2","","""event"",""trial"",""time""
""fullscreenenter"",""1"",""3865""
","
","
","""event"",""trial"",""time""
""fullscreenenter"",""1"",""3865""
","
","","","1121.1000000238419","","","18","10266","4815","l","elianto","#3366ff99"," "," ","1","+10","[1971.8000000715256]","1","2","","","10266","125","8","1","win","go","0"
"pit-trial","244","1515337","0.0-130.0","battery-v0.2","","""event"",""trial"",""time""
""fullscreenenter"",""1"",""3865""
","
","
","""event"",""trial"",""time""
""fullscreenenter"",""1"",""3865""
","
","","","1130.5999999046326","","","18","10266","4815","u","elianto","#3366ff99"," "," ","1","+10","[1983]","1","2","","","10266","126","9","1","win","go","0"
"pit-trial","245","1520193","0.0-131.0","battery-v0.2","","""event"",""trial"",""time""
""fullscreenenter"",""1"",""3865""
","
","
","""event"",""trial"",""time""
""fullscreenenter"",""1"",""3865""
","
","","","-1","","","18","10266","4815","a","elianto","#f73b6a7A","-1","-1","1","0","[]","0","2","","","10266","127","7","4","lose","no-go","0"
"pit-trial","246","1523959","0.0-132.0","battery-v0.2","","""event"",""trial"",""time""
""fullscreenenter"",""1"",""3865""
","
","
","""event"",""trial"",""time""
""fullscreenenter"",""1"",""3865""
","
","","","910.2999999523163","","","18","10266","4815","g","elianto","#f73b6a7A"," "," ","1","-10","[1760.7999999523163]","1","2","","","10266","128","6","3","lose","go","1"
"pit-trial","247","1527502","0.0-133.0","battery-v0.2","","""event"",""trial"",""time""
""fullscreenenter"",""1"",""3865""
","
","
","""event"",""trial"",""time""
""fullscreenenter"",""1"",""3865""
","
","","","686.6000000238419","","","18","10266","4815","g","elianto","#f73b6a7A"," "," ","1","0","[1537.1000000238419]","1","2","","","10266","129","6","3","lose","go","0"
"pit-trial","248","1531030","0.0-134.0","battery-v0.2","","""event"",""trial"",""time""
""fullscreenenter"",""1"",""3865""
","
","
","""event"",""trial"",""time""
""fullscreenenter"",""1"",""3865""
","
","","","671.7000000476837","","","18","10266","4815","l","elianto","#3366ff99"," "," ","1","+10","[1522.6000000238419]","1","2","","","10266","130","8","1","win","go","0"
"pit-trial","249","1534325","0.0-135.0","battery-v0.2","","""event"",""trial"",""time""
""fullscreenenter"",""1"",""3865""
","
","
","""event"",""trial"",""time""
""fullscreenenter"",""1"",""3865""
","
","","","438.59999990463257","","","18","10266","4815","u","elianto","#3366ff99"," "," ","1","0","[1289.4000000953674]","1","2","","","10266","131","9","1","win","go","1"
"pit-trial","250","1539181","0.0-136.0","battery-v0.2","","""event"",""trial"",""time""
""fullscreenenter"",""1"",""3865""
","
","
","""event"",""trial"",""time""
""fullscreenenter"",""1"",""3865""
","
","","","-1","","","18","10266","4815","a","elianto","#f73b6a7A","-1","-1","1","0","[]","0","2","","","10266","132","7","4","lose","no-go","0"
"pit-trial","251","1543002","0.0-137.0","battery-v0.2","","""event"",""trial"",""time""
""fullscreenenter"",""1"",""3865""
","
","
","""event"",""trial"",""time""
""fullscreenenter"",""1"",""3865""
","
","","","961.1999999284744","","","18","10266","4815","u","elianto","#3366ff99"," "," ","1","+10","[1813.3000000715256]","1","2","","","10266","133","9","1","win","go","0"
"pit-trial","252","1547873","0.0-138.0","battery-v0.2","","""event"",""trial"",""time""
""fullscreenenter"",""1"",""3865""
","
","
","""event"",""trial"",""time""
""fullscreenenter"",""1"",""3865""
","
","","","-1","","","18","10266","4815","a","elianto","#f73b6a7A","-1","-1","1","0","[]","0","2","","","10266","134","7","4","lose","no-go","0"
"pit-trial","253","1551391","0.0-139.0","battery-v0.2","","""event"",""trial"",""time""
""fullscreenenter"",""1"",""3865""
","
","
","""event"",""trial"",""time""
""fullscreenenter"",""1"",""3865""
","
","","","660.5999999046326","","","18","10266","4815","g","elianto","#f73b6a7A"," "," ","1","-10","[1511.3000000715256]","1","2","","","10266","135","6","3","lose","go","1"
"pit-trial","254","1555045","0.0-140.0","battery-v0.2","","""event"",""trial"",""time""
""fullscreenenter"",""1"",""3865""
","
","
","""event"",""trial"",""time""
""fullscreenenter"",""1"",""3865""
","
","","","797.3999999761581","","","18","10266","4815","l","elianto","#3366ff99"," "," ","1","+10","[1648.5999999046326]","1","2","","","10266","136","8","1","win","go","0"
"pit-trial","255","1558486","0.0-141.0","battery-v0.2","","""event"",""trial"",""time""
""fullscreenenter"",""1"",""3865""
","
","
","""event"",""trial"",""time""
""fullscreenenter"",""1"",""3865""
","
","","","584.8000000715256","","","18","10266","4815","u","elianto","#3366ff99"," "," ","1","0","[1435.2000000476837]","1","2","","","10266","137","9","1","win","go","1"
"pit-trial","256","1562658","0.0-142.0","battery-v0.2","","""event"",""trial"",""time""
""fullscreenenter"",""1"",""3865""
","
","
","""event"",""trial"",""time""
""fullscreenenter"",""1"",""3865""
","
","","","1316.6000000238419","","","18","10266","4815","g","elianto","#f73b6a7A"," "," ","1","0","[2167.2999999523163]","1","2","","","10266","138","6","3","lose","go","0"
"pit-trial","257","1567516","0.0-143.0","battery-v0.2","","""event"",""trial"",""time""
""fullscreenenter"",""1"",""3865""
","
","
","""event"",""trial"",""time""
""fullscreenenter"",""1"",""3865""
","
","","","-1","","","18","10266","4815","a","elianto","#f73b6a7A","-1","-1","1","0","[]","0","2","","","10266","139","7","4","lose","no-go","0"
"pit-trial","258","1571070","0.0-144.0","battery-v0.2","","""event"",""trial"",""time""
""fullscreenenter"",""1"",""3865""
","
","
","""event"",""trial"",""time""
""fullscreenenter"",""1"",""3865""
","
","","","696.1999999284744","","","18","10266","4815","l","elianto","#3366ff99"," "," ","1","+10","[1548.8000000715256]","1","2","","","10266","140","8","1","win","go","0"
"pit-instructions","259","1593031","0.0-145.0","battery-v0.2","","""event"",""trial"",""time""
""fullscreenenter"",""1"",""3865""
","
","
","""event"",""trial"",""time""
""fullscreenenter"",""1"",""3865""
","
","","[{""page_index"":0,""viewing_time"":12942.099999904633},{""page_index"":1,""viewing_time"":9013.900000095367}]","21956.799999952316","","","","","","","","","","","","","","","","","","","","","","","",""
"pit-trial","260","1596707","0.0-146.0","battery-v0.2","","""event"",""trial"",""time""
""fullscreenenter"",""1"",""3865""
","
","
","""event"",""trial"",""time""
""fullscreenenter"",""1"",""3865""
","
