"trial_type","trial_index","time_elapsed","internal_node_id","task_version","subject_id","interactions","blur_events","focus_events","fullscreenenter_events","fullscreenexit_events","success","view_history","rt","responses","num_errors","age","subject","participantId","rune","rune_set","hex","correct","choice","accuracy","outcome","keys","total_keys","block","practice","value","sub","trial","stimulus","robot","valence","action","sham"
"pavlovia","0","10","0.0-0.0","battery-v0.2","","""event"",""trial"",""time""
""fullscreenenter"",""1"",""1792""
","
","
","""event"",""trial"",""time""
""fullscreenenter"",""1"",""1792""
","
","","","","","","","","","","","","","","","","","","","","","","","","","","",""
"fullscreen","1","2758","0.0-1.0","battery-v0.2","","""event"",""trial"",""time""
""fullscreenenter"",""1"",""1792""
","
","
","""event"",""trial"",""time""
""fullscreenenter"",""1"",""1792""
","
","true","","","","","","","","","","","","","","","","","","","","","","","","","",""
"pit-instructions","2","9890","0.0-2.0-0.0","battery-v0.2","","""event"",""trial"",""time""
""fullscreenenter"",""1"",""1792""
","
","
","""event"",""trial"",""time""
""fullscreenenter"",""1"",""1792""
","
","","[{""page_index"":0,""viewing_time"":7125.400000095367}]","7125.799999952316","","","","","","","","","","","","","","","","","","","","","","","",""
"pit-comprehension","3","13377","0.0-2.0-1.0-0.0","battery-v0.2","","""event"",""trial"",""time""
""fullscreenenter"",""1"",""1792""
","
","
","""event"",""trial"",""time""
""fullscreenenter"",""1"",""1792""
","
","","","3483.2000000476837","[""shark""]","0","24","14216","3975","","","","","","","","","","","","","","","","","","",""
"pit-instructions","4","15953","0.0-2.0-1.0-1.0","battery-v0.2","","""event"",""trial"",""time""
""fullscreenenter"",""1"",""1792""
","
","
","""event"",""trial"",""time""
""fullscreenenter"",""1"",""1792""
","
","","[{""page_index"":0,""viewing_time"":2550.4000000953674}]","2551.2999999523163","","","","","","","","","","","","","","","","","","","","","","","",""
"pit-comprehension","5","19794","0.0-2.0-2.0-0.0","battery-v0.2","","""event"",""trial"",""time""
""fullscreenenter"",""1"",""1792""
","
","
","""event"",""trial"",""time""
""fullscreenenter"",""1"",""1792""
","
","","","3833.5","[""tiger""]","0","24","14216","3975","","","","","","","","","","","","","","","","","","",""
"pit-instructions","6","24812","0.0-2.0-2.0-1.0","battery-v0.2","","""event"",""trial"",""time""
""fullscreenenter"",""1"",""1792""
","
","
","""event"",""trial"",""time""
""fullscreenenter"",""1"",""1792""
","
","","[{""page_index"":0,""viewing_time"":5015.700000047684}]","5016","","","","","","","","","","","","","","","","","","","","","","","",""
"pit-instructions","7","161729","0.0-2.0-3.0","battery-v0.2","","""event"",""trial"",""time""
""fullscreenenter"",""1"",""1792""
","
","
","""event"",""trial"",""time""
""fullscreenenter"",""1"",""1792""
","
","","[{""page_index"":0,""viewing_time"":7971.099999904633},{""page_index"":1,""viewing_time"":36730.799999952316},{""page_index"":2,""viewing_time"":6984.5},{""page_index"":3,""viewing_time"":5556.300000190735},{""page_index"":4,""viewing_time"":6500},{""page_index"":5,""viewing_time"":6130.399999856949},{""page_index"":6,""viewing_time"":16094.200000047684},{""page_index"":7,""viewing_time"":7357.700000047684},{""page_index"":8,""viewing_time"":9793.599999904633},{""page_index"":9,""viewing_time"":8036.700000047684},{""page_index"":10,""viewing_time"":8889.700000047684},{""page_index"":11,""viewing_time"":4903},{""page_index"":12,""viewing_time"":6255.599999904633},{""page_index"":13,""viewing_time"":5710.799999952316}]","136915.20000004768","","","","","","","","","","","","","","","","","","","","","","","",""
"pit-trial","8","166599","0.0-2.0-4.0-0.0","battery-v0.2","","""event"",""trial"",""time""
""fullscreenenter"",""1"",""1792""
","
","
","""event"",""trial"",""time""
""fullscreenenter"",""1"",""1792""
","
","","","-1","","","24","14216","3975","&#9784;","elianto","#FFFFF080"," ","-1","0","&#10060","[]","0","0","0","","","","","","","",""
"pit-trial","9","171465","0.0-2.0-4.1-0.1","battery-v0.2","","""event"",""trial"",""time""
""fullscreenenter"",""1"",""1792""
","
","
","""event"",""trial"",""time""
""fullscreenenter"",""1"",""1792""
","
","","","-1","","","24","14216","3975","&#9784;","elianto","#FFFFF080"," ","-1","0","&#10060","[]","0","0","0","","","","","","","",""
"pit-trial","10","174444","0.0-2.0-4.2-0.2","battery-v0.2","","""event"",""trial"",""time""
""fullscreenenter"",""1"",""1792""
","
","
","""event"",""trial"",""time""
""fullscreenenter"",""1"",""1792""
","
","","","120.40000009536743","","","24","14216","3975","&#9784;","elianto","#FFFFF080"," "," ","1","&#10004","[269.39999985694885,975.0999999046326]","2","0","0","","","","","","","",""
"pit-trial","11","177431","0.0-2.0-4.3-0.3","battery-v0.2","","""event"",""trial"",""time""
""fullscreenenter"",""1"",""1792""
","
","
","""event"",""trial"",""time""
""fullscreenenter"",""1"",""1792""
","
","","","119.30000019073486","","","24","14216","3975","&#9784;","elianto","#FFFFF080"," "," ","1","&#10004","[969.2999999523163]","1","0","0","","","","","","","",""
"pit-trial","12","180392","0.0-2.0-4.4-0.4","battery-v0.2","","""event"",""trial"",""time""
""fullscreenenter"",""1"",""1792""
","
","
","""event"",""trial"",""time""
""fullscreenenter"",""1"",""1792""
","
","","","90.29999995231628","","","24","14216","3975","&#9784;","elianto","#FFFFF080"," "," ","1","&#10004","[948.7000000476837]","1","0","0","","","","","","","",""
"pit-instructions","13","200881","0.0-2.0-5.0","battery-v0.2","","""event"",""trial"",""time""
""fullscreenenter"",""1"",""1792""
","
","
","""event"",""trial"",""time""
""fullscreenenter"",""1"",""1792""
","
","","[{""page_index"":0,""viewing_time"":5105.400000095367},{""page_index"":1,""viewing_time"":5193.099999904633},{""page_index"":2,""viewing_time"":4820.5},{""page_index"":3,""viewing_time"":5363.400000095367}]","20483.10000014305","","","","","","","","","","","","","","","","","","","","","","","",""
"pit-trial","14","205748","0.0-2.0-6.0-0.0","battery-v0.2","","""event"",""trial"",""time""
""fullscreenenter"",""1"",""1792""
","
","
","""event"",""trial"",""time""
""fullscreenenter"",""1"",""1792""
","
","","","-1","","","24","14216","3975","&#9854;","elianto","#FFFFF080","-1","-1","1","&#10004","[]","0","0","1","","","","","","","",""
"pit-trial","15","210631","0.0-2.0-6.1-0.1","battery-v0.2","","""event"",""trial"",""time""
""fullscreenenter"",""1"",""1792""
","
","
","""event"",""trial"",""time""
""fullscreenenter"",""1"",""1792""
","
","","","-1","","","24","14216","3975","&#9854;","elianto","#FFFFF080","-1","-1","1","&#10004","[]","0","0","1","","","","","","","",""
"pit-trial","16","215507","0.0-2.0-6.2-0.2","battery-v0.2","","""event"",""trial"",""time""
""fullscreenenter"",""1"",""1792""
","
","
","""event"",""trial"",""time""
""fullscreenenter"",""1"",""1792""
","
","","","-1","","","24","14216","3975","&#9854;","elianto","#FFFFF080","-1","-1","1","&#10004","[]","0","0","1","","","","","","","",""
"pit-trial","17","220389","0.0-2.0-6.3-0.3","battery-v0.2","","""event"",""trial"",""time""
""fullscreenenter"",""1"",""1792""
","
","
","""event"",""trial"",""time""
""fullscreenenter"",""1"",""1792""
","
","","","-1","","","24","14216","3975","&#9854;","elianto","#FFFFF080","-1","-1","1","&#10004","[]","0","0","1","","","","","","","",""
"pit-trial","18","225261","0.0-2.0-6.4-0.4","battery-v0.2","","""event"",""trial"",""time""
""fullscreenenter"",""1"",""1792""
","
","
","""event"",""trial"",""time""
""fullscreenenter"",""1"",""1792""
","
","","","-1","","","24","14216","3975","&#9854;","elianto","#FFFFF080","-1","-1","1","&#10004","[]","0","0","1","","","","","","","",""
"pit-instructions","19","369289","0.0-2.0-7.0","battery-v0.2","","""event"",""trial"",""time""
""fullscreenenter"",""1"",""1792""
","
","
","""event"",""trial"",""time""
""fullscreenenter"",""1"",""1792""
","
","","[{""page_index"":0,""viewing_time"":7253},{""page_index"":1,""viewing_time"":7782.100000143051},{""page_index"":2,""viewing_time"":6634.099999904633},{""page_index"":3,""viewing_time"":7000.400000095367},{""page_index"":4,""viewing_time"":5703.899999856949},{""page_index"":5,""viewing_time"":5509.300000190735},{""page_index"":6,""viewing_time"":6809.899999856949},{""page_index"":7,""viewing_time"":11861.200000047684},{""page_index"":8,""viewing_time"":22190.599999904633},{""page_index"":9,""viewing_time"":6927.900000095367},{""page_index"":10,""viewing_time"":6945.400000095367},{""page_index"":11,""viewing_time"":4778.699999809265},{""page_index"":12,""viewing_time"":6964},{""page_index"":13,""viewing_time"":7424.900000095367},{""page_index"":14,""viewing_time"":6051.599999904633},{""page_index"":15,""viewing_time"":6784.900000095367},{""page_index"":16,""viewing_time"":6838.400000095367},{""page_index"":17,""viewing_time"":10562.599999904633}]","144023.60000014305","","","","","","","","","","","","","","","","","","","","","","","",""
"pit-trial","20","374171","0.0-2.0-8.0-0.0","battery-v0.2","","""event"",""trial"",""time""
""fullscreenenter"",""1"",""1792""
","
","
","""event"",""trial"",""time""
""fullscreenenter"",""1"",""1792""
","
","","","-1","","","24","14216","3975","&#9776;","elianto","#3366ff99"," ","-1","0","0","[]","0","0","1","","","","","","","",""
"pit-trial","21","377926","0.0-2.0-8.0-1.0","battery-v0.2","","""event"",""trial"",""time""
""fullscreenenter"",""1"",""1792""
","
","
","""event"",""trial"",""time""
""fullscreenenter"",""1"",""1792""
","
","","","893.2000000476837","","","24","14216","3975","&#9776;","elianto","#3366ff99"," "," ","1","+10","[1749.7999999523163]","1","0","1","","","","","","","",""
"pit-trial","22","382253","0.0-2.0-8.0-2.0","battery-v0.2","","""event"",""trial"",""time""
""fullscreenenter"",""1"",""1792""
","
","
","""event"",""trial"",""time""
""fullscreenenter"",""1"",""1792""
","
","","","1459.4000000953674","","","24","14216","3975","&#9776;","elianto","#3366ff99"," "," ","1","+10","[2312.2000000476837]","1","0","1","","","","","","","",""
"pit-trial","23","386144","0.0-2.0-8.0-3.0","battery-v0.2","","""event"",""trial"",""time""
""fullscreenenter"",""1"",""1792""
","
","
","""event"",""trial"",""time""
""fullscreenenter"",""1"",""1792""
","
","","","1031.8000001907349","","","24","14216","3975","&#9776;","elianto","#3366ff99"," "," ","1","0","[1882.7000000476837]","1","0","1","","","","","","","",""
"pit-trial","24","389554","0.0-2.0-8.0-4.0","battery-v0.2","","""event"",""trial"",""time""
""fullscreenenter"",""1"",""1792""
","
","
","""event"",""trial"",""time""
""fullscreenenter"",""1"",""1792""
","
","","","553.0999999046326","","","24","14216","3975","&#9776;","elianto","#3366ff99"," "," ","1","+10","[1403.7000000476837]","1","0","1","","","","","","","",""
"pit-trial","25","392569","0.0-2.0-8.1-0.1","battery-v0.2","","""event"",""trial"",""time""
""fullscreenenter"",""1"",""1792""
","
","
","""event"",""trial"",""time""
""fullscreenenter"",""1"",""1792""
","
","","","157.5","","","24","14216","3975","&#9776;","elianto","#3366ff99"," "," ","1","+10","[1012.7999999523163]","1","0","1","","","","","","","",""
"pit-trial","26","395516","0.0-2.0-8.1-1.1","battery-v0.2","","""event"",""trial"",""time""
""fullscreenenter"",""1"",""1792""
","
","
","""event"",""trial"",""time""
""fullscreenenter"",""1"",""1792""
","
","","","80.20000004768372","","","24","14216","3975","&#9776;","elianto","#3366ff99"," "," ","1","+10","[932.2000000476837]","1","0","1","","","","","","","",""
"pit-trial","27","398480","0.0-2.0-8.1-2.1","battery-v0.2","","""event"",""trial"",""time""
""fullscreenenter"",""1"",""1792""
","
","
","""event"",""trial"",""time""
""fullscreenenter"",""1"",""1792""
","
","","","110.20000004768372","","","24","14216","3975","&#9776;","elianto","#3366ff99"," "," ","1","+10","[960.2999999523163]","1","0","1","","","","","","","",""
"pit-trial","28","401683","0.0-2.0-8.1-3.1","battery-v0.2","","""event"",""trial"",""time""
""fullscreenenter"",""1"",""1792""
","
","
","""event"",""trial"",""time""
""fullscreenenter"",""1"",""1792""
","
","","","347.59999990463257","","","24","14216","3975","&#9776;","elianto","#3366ff99"," "," ","1","0","[1199.2000000476837]","1","0","1","","","","","","","",""
"pit-trial","29","405563","0.0-2.0-8.1-4.1","battery-v0.2","","""event"",""trial"",""time""
""fullscreenenter"",""1"",""1792""
","
","
","""event"",""trial"",""time""
""fullscreenenter"",""1"",""1792""
","
","","","1026.7999999523163","","","24","14216","3975","&#9776;","elianto","#3366ff99"," "," ","1","+10","[1877.3999998569489]","1","0","1","","","","","","","",""
"pit-trial","30","408456","0.0-2.0-8.2-0.2","battery-v0.2","","""event"",""trial"",""time""
""fullscreenenter"",""1"",""1792""
","
","
","""event"",""trial"",""time""
""fullscreenenter"",""1"",""1792""
","
","","","35.5","","","24","14216","3975","&#9776;","elianto","#3366ff99"," "," ","1","+10","[887.7000000476837]","1","0","1","","","","","","","",""
"pit-trial","31","411994","0.0-2.0-8.2-1.2","battery-v0.2","","""event"",""trial"",""time""
""fullscreenenter"",""1"",""1792""
","
","
","""event"",""trial"",""time""
""fullscreenenter"",""1"",""1792""
","
","","","685.7000000476837","","","24","14216","3975","&#9776;","elianto","#3366ff99"," "," ","1","+10","[796.8999998569489,1536.0999999046326]","2","0","1","","","","","","","",""
"pit-trial","32","415695","0.0-2.0-8.2-2.2","battery-v0.2","","""event"",""trial"",""time""
""fullscreenenter"",""1"",""1792""
","
","
","""event"",""trial"",""time""
""fullscreenenter"",""1"",""1792""
","
","","","848.7999999523163","","","24","14216","3975","&#9776;","elianto","#3366ff99"," "," ","1","+10","[1699.0999999046326]","1","0","1","","","","","","","",""
"pit-trial","33","418944","0.0-2.0-8.2-3.2","battery-v0.2","","""event"",""trial"",""time""
""fullscreenenter"",""1"",""1792""
","
","
","""event"",""trial"",""time""
""fullscreenenter"",""1"",""1792""
","
","","","395.2000000476837","","","24","14216","3975","&#9776;","elianto","#3366ff99"," "," ","1","0","[106.10000014305115,781.7000000476837,1246]","3","0","1","","","","","","","",""
"pit-trial","34","422162","0.0-2.0-8.2-4.2","battery-v0.2","","""event"",""trial"",""time""
""fullscreenenter"",""1"",""1792""
","
","
","""event"",""trial"",""time""
""fullscreenenter"",""1"",""1792""
","
","","","364.2000000476837","","","24","14216","3975","&#9776;","elianto","#3366ff99"," "," ","1","+10","[1214.5999999046326]","1","0","1","","","","","","","",""
"call-function","35","422165","0.0-2.0-9.0","battery-v0.2","","""event"",""trial"",""time""
""fullscreenenter"",""1"",""1792""
","
","
","""event"",""trial"",""time""
""fullscreenenter"",""1"",""1792""
","
","","","","","","","","","","","","","","","","","","","","","","","","","","",""
"pit-instructions","36","466460","0.0-2.0-10.0","battery-v0.2","","""event"",""trial"",""time""
""fullscreenenter"",""1"",""1792""
","
","
","""event"",""trial"",""time""
""fullscreenenter"",""1"",""1792""
","
","","[{""page_index"":0,""viewing_time"":10185.299999952316},{""page_index"":1,""viewing_time"":7078.900000095367},{""page_index"":2,""viewing_time"":9626.599999904633},{""page_index"":3,""viewing_time"":9412.400000095367},{""page_index"":4,""viewing_time"":7989.799999952316}]","44293.59999990463","","","","","","","","","","","","","","","","","","","","","","","",""
"pit-trial","37","469574","0.0-2.0-11.0-0.0","battery-v0.2","","""event"",""trial"",""time""
""fullscreenenter"",""1"",""1792""
","
","
","""event"",""trial"",""time""
""fullscreenenter"",""1"",""1792""
","
","","","244.90000009536743","","","24","14216","3975","&#9761;","elianto","#3366ff99","-1"," ","0","0","[1098.5]","1","0","2","","","","","","","",""
"pit-trial","38","473145","0.0-2.0-11.0-1.0","battery-v0.2","","""event"",""trial"",""time""
""fullscreenenter"",""1"",""1792""
","
","
","""event"",""trial"",""time""
""fullscreenenter"",""1"",""1792""
","
","","","700.2000000476837","","","24","14216","3975","&#9761;","elianto","#3366ff99","-1"," ","0","0","[762.5,1555.5]","2","0","2","","","","","","","",""
"pit-trial","39","477329","0.0-2.0-11.0-2.0","battery-v0.2","","""event"",""trial"",""time""
""fullscreenenter"",""1"",""1792""
","
","
","""event"",""trial"",""time""
""fullscreenenter"",""1"",""1792""
","
","","","1325.5","","","24","14216","3975","&#9761;","elianto","#3366ff99","-1"," ","0","0","[780.5999999046326,2176.7999999523163]","2","0","2","","","","","","","",""
"pit-trial","40","480555","0.0-2.0-11.0-3.0","battery-v0.2","","""event"",""trial"",""time""
""fullscreenenter"",""1"",""1792""
","
","
","""event"",""trial"",""time""
""fullscreenenter"",""1"",""1792""
","
","","","368.7000000476837","","","24","14216","3975","&#9761;","elianto","#3366ff99","-1"," ","0","+10","[1220.8999998569489,3218.2999999523163]","2","0","2","","","","","","","",""
"pit-trial","41","483773","0.0-2.0-11.0-4.0","battery-v0.2","","""event"",""trial"",""time""
""fullscreenenter"",""1"",""1792""
","
","
","""event"",""trial"",""time""
""fullscreenenter"",""1"",""1792""
","
","","","341.2000000476837","","","24","14216","3975","&#9761;","elianto","#3366ff99","-1"," ","0","0","[1201.7000000476837,2553.7999999523163]","2","0","2","","","","","","","",""
"pit-trial","42","486670","0.0-2.0-11.1-0.1","battery-v0.2","","""event"",""trial"",""time""
""fullscreenenter"",""1"",""1792""
","
","
","""event"",""trial"",""time""
""fullscreenenter"",""1"",""1792""
","
","","","25.600000143051147","","","24","14216","3975","&#9761;","elianto","#3366ff99","-1"," ","0","0","[261.80000019073486,575.8000001907349,879,1239.7000000476837,2154.7000000476837,2587.9000000953674,2839.600000143051]","7","0","2","","","","","","","",""
"pit-trial","43","489620","0.0-2.0-11.1-1.1","battery-v0.2","","""event"",""trial"",""time""
""fullscreenenter"",""1"",""1792""
","
","
","""event"",""trial"",""time""
""fullscreenenter"",""1"",""1792""
","
","","","88.39999985694885","","","24","14216","3975","&#9761;","elianto","#3366ff99","-1"," ","0","0","[604.9000000953674,948.5,1571.8000001907349,2424]","4","0","2","","","","","","","",""
"pit-trial","44","492567","0.0-2.0-11.1-2.1","battery-v0.2","","""event"",""trial"",""time""
""fullscreenenter"",""1"",""1792""
","
","
","""event"",""trial"",""time""
""fullscreenenter"",""1"",""1792""
","
","","","88.70000004768372","","","24","14216","3975","&#9761;","elianto","#3366ff99","-1"," ","0","0","[670.4000000953674,943,1090.1000001430511]","3","0","2","","","","","","","",""
"pit-trial","45","495965","0.0-2.0-11.1-3.1","battery-v0.2","","""event"",""trial"",""time""
""fullscreenenter"",""1"",""1792""
","
","
","""event"",""trial"",""time""
""fullscreenenter"",""1"",""1792""
","
","","","543.5999999046326","","","24","14216","3975","&#9761;","elianto","#3366ff99","-1"," ","0","+10","[1396.3000001907349]","1","0","2","","","","","","","",""
"pit-trial","46","499456","0.0-2.0-11.1-4.1","battery-v0.2","","""event"",""trial"",""time""
""fullscreenenter"",""1"",""1792""
","
","
","""event"",""trial"",""time""
""fullscreenenter"",""1"",""1792""
","
","","","638.6000001430511","","","24","14216","3975","&#9761;","elianto","#3366ff99","-1"," ","0","0","[805.2999999523163,1489.0999999046326]","2","0","2","","","","","","","",""
"pit-trial","47","502614","0.0-2.0-11.2-0.2","battery-v0.2","","""event"",""trial"",""time""
""fullscreenenter"",""1"",""1792""
","
","
","""event"",""trial"",""time""
""fullscreenenter"",""1"",""1792""
","
","","","303.39999985694885","","","24","14216","3975","&#9761;","elianto","#3366ff99","-1"," ","0","0","[1154.7000000476837]","1","0","2","","","","","","","",""
"pit-trial","48","505514","0.0-2.0-11.2-1.2","battery-v0.2","","""event"",""trial"",""time""
""fullscreenenter"",""1"",""1792""
","
","
","""event"",""trial"",""time""
""fullscreenenter"",""1"",""1792""
","
","","","45","","","24","14216","3975","&#9761;","elianto","#3366ff99","-1"," ","0","0","[896,1628.2999999523163]","2","0","2","","","","","","","",""
"pit-trial","49","508738","0.0-2.0-11.2-2.2","battery-v0.2","","""event"",""trial"",""time""
""fullscreenenter"",""1"",""1792""
","
","
","""event"",""trial"",""time""
""fullscreenenter"",""1"",""1792""
","
","","","370.89999985694885","","","24","14216","3975","&#9761;","elianto","#3366ff99","-1"," ","0","0","[1222.2000000476837]","1","0","2","","","","","","","",""
"pit-trial","50","511927","0.0-2.0-11.2-3.2","battery-v0.2","","""event"",""trial"",""time""
""fullscreenenter"",""1"",""1792""
","
","
","""event"",""trial"",""time""
""fullscreenenter"",""1"",""1792""
","
","","","336.5","","","24","14216","3975","&#9761;","elianto","#3366ff99","-1"," ","0","+10","[649.5,1186.5999999046326]","2","0","2","","","","","","","",""
"pit-trial","51","515040","0.0-2.0-11.2-4.2","battery-v0.2","","""event"",""trial"",""time""
""fullscreenenter"",""1"",""1792""
","
","
","""event"",""trial"",""time""
""fullscreenenter"",""1"",""1792""
","
","","","258.5","","","24","14216","3975","&#9761;","elianto","#3366ff99","-1"," ","0","0","[1109.7000000476837]","1","0","2","","","","","","","",""
"pit-trial","52","518405","0.0-2.0-11.3-0.3","battery-v0.2","","""event"",""trial"",""time""
""fullscreenenter"",""1"",""1792""
","
","
","""event"",""trial"",""time""
""fullscreenenter"",""1"",""1792""
","
","","","511","","","24","14216","3975","&#9761;","elianto","#3366ff99","-1"," ","0","0","[761.7000000476837,1361.9000000953674]","2","0","2","","","","","","","",""
"pit-trial","53","521584","0.0-2.0-11.3-1.3","battery-v0.2","","""event"",""trial"",""time""
""fullscreenenter"",""1"",""1792""
","
","
","""event"",""trial"",""time""
""fullscreenenter"",""1"",""1792""
","
","","","324.7999999523163","","","24","14216","3975","&#9761;","elianto","#3366ff99","-1"," ","0","0","[1175.9000000953674]","1","0","2","","","","","","","",""
"pit-trial","54","524697","0.0-2.0-11.3-2.3","battery-v0.2","","""event"",""trial"",""time""
""fullscreenenter"",""1"",""1792""
","
","
","""event"",""trial"",""time""
""fullscreenenter"",""1"",""1792""
","
","","","258.40000009536743","","","24","14216","3975","&#9761;","elianto","#3366ff99","-1"," ","0","0","[1109.6000001430511]","1","0","2","","","","","","","",""
"pit-trial","55","527982","0.0-2.0-11.3-3.3","battery-v0.2","","""event"",""trial"",""time""
""fullscreenenter"",""1"",""1792""
","
","
","""event"",""trial"",""time""
""fullscreenenter"",""1"",""1792""
","
","","","430.7000000476837","","","24","14216","3975","&#9761;","elianto","#3366ff99","-1"," ","0","+10","[1281]","1","0","2","","","","","","","",""
"pit-trial","56","531265","0.0-2.0-11.3-4.3","battery-v0.2","","""event"",""trial"",""time""
""fullscreenenter"",""1"",""1792""
","
","
","""event"",""trial"",""time""
""fullscreenenter"",""1"",""1792""
","
","","","424.19999980926514","","","24","14216","3975","&#9761;","elianto","#3366ff99","-1"," ","0","0","[1279.2999999523163]","1","0","2","","","","","","","",""
"call-function","57","531269","0.0-2.0-12.0","battery-v0.2","","""event"",""trial"",""time""
""fullscreenenter"",""1"",""1792""
","
","
","""event"",""trial"",""time""
""fullscreenenter"",""1"",""1792""
","
","","","","","","","","","","","","","","","","","","","","","","","","","","",""
"pit-instructions","58","568918","0.0-2.0-13.0","battery-v0.2","","""event"",""trial"",""time""
""fullscreenenter"",""1"",""1792""
","
","
","""event"",""trial"",""time""
""fullscreenenter"",""1"",""1792""
","
","","[{""page_index"":0,""viewing_time"":6237.799999952316},{""page_index"":1,""viewing_time"":8222.300000190735},{""page_index"":2,""viewing_time"":4540.599999904633},{""page_index"":3,""viewing_time"":12033.799999952316},{""page_index"":4,""viewing_time"":6612.600000143051}]","37647.799999952316","","","","","","","","","","","","","","","","","","","","","","","",""
"pit-trial","59","573797","0.0-2.0-14.0-0.0","battery-v0.2","","""event"",""trial"",""time""
""fullscreenenter"",""1"",""1792""
","
","
","""event"",""trial"",""time""
""fullscreenenter"",""1"",""1792""
","
","","","-1","","","24","14216","3975","&#9826;","elianto","#f73b6a7A","-1","-1","1","0","[]","0","0","3","","","","","","","",""
"pit-trial","60","578677","0.0-2.0-14.0-1.0","battery-v0.2","","""event"",""trial"",""time""
""fullscreenenter"",""1"",""1792""
","
","
","""event"",""trial"",""time""
""fullscreenenter"",""1"",""1792""
","
","","","-1","","","24","14216","3975","&#9826;","elianto","#f73b6a7A","-1","-1","1","0","[]","0","0","3","","","","","","","",""
"pit-trial","61","581687","0.0-2.0-14.0-2.0","battery-v0.2","","""event"",""trial"",""time""
""fullscreenenter"",""1"",""1792""
","
","
","""event"",""trial"",""time""
""fullscreenenter"",""1"",""1792""
","
","","","150.39999985694885","","","24","14216","3975","&#9826;","elianto","#f73b6a7A","-1"," ","0","-10","[1006.3999998569489]","1","0","3","","","","","","","",""
"pit-trial","62","586545","0.0-2.0-14.0-3.0","battery-v0.2","","""event"",""trial"",""time""
""fullscreenenter"",""1"",""1792""
","
","
","""event"",""trial"",""time""
""fullscreenenter"",""1"",""1792""
","
","","","-1","","","24","14216","3975","&#9826;","elianto","#f73b6a7A","-1","-1","1","-10","[]","0","0","3","","","","","","","",""
"pit-trial","63","589774","0.0-2.0-14.0-4.0","battery-v0.2","","""event"",""trial"",""time""
""fullscreenenter"",""1"",""1792""
","
","
","""event"",""trial"",""time""
""fullscreenenter"",""1"",""1792""
","
","","","364.7000000476837","","","24","14216","3975","&#9826;","elianto","#f73b6a7A","-1"," ","0","-10","[1224.9000000953674]","1","0","3","","","","","","","",""
"pit-trial","64","592793","0.0-2.0-14.1-0.1","battery-v0.2","","""event"",""trial"",""time""
""fullscreenenter"",""1"",""1792""
","
","
","""event"",""trial"",""time""
""fullscreenenter"",""1"",""1792""
","
","","","147.59999990463257","","","24","14216","3975","&#9826;","elianto","#f73b6a7A","-1"," ","0","-10","[1005.6999998092651]","1","0","3","","","","","","","",""
"pit-trial","65","595888","0.0-2.0-14.1-1.1","battery-v0.2","","""event"",""trial"",""time""
""fullscreenenter"",""1"",""1792""
","
","
","""event"",""trial"",""time""
""fullscreenenter"",""1"",""1792""
","
","","","236.10000014305115","","","24","14216","3975","&#9826;","elianto","#f73b6a7A","-1"," ","0","-10","[1088.2999999523163]","1","0","3","","","","","","","",""
"pit-trial","66","598868","0.0-2.0-14.1-2.1","battery-v0.2","","""event"",""trial"",""time""
""fullscreenenter"",""1"",""1792""
","
","
","""event"",""trial"",""time""
""fullscreenenter"",""1"",""1792""
","
","","","115.09999990463257","","","24","14216","3975","&#9826;","elianto","#f73b6a7A","-1"," ","0","-10","[976.7000000476837]","1","0","3","","","","","","","",""
"pit-trial","67","601924","0.0-2.0-14.1-3.1","battery-v0.2","","""event"",""trial"",""time""
""fullscreenenter"",""1"",""1792""
","
","
","""event"",""trial"",""time""
""fullscreenenter"",""1"",""1792""
","
","","","201.79999995231628","","","24","14216","3975","&#9826;","elianto","#f73b6a7A","-1"," ","0","0","[469.2999999523163,1051.7999999523163]","2","0","3","","","","","","","",""
"pit-trial","68","604947","0.0-2.0-14.1-4.1","battery-v0.2","","""event"",""trial"",""time""
""fullscreenenter"",""1"",""1792""
","
","
","""event"",""trial"",""time""
""fullscreenenter"",""1"",""1792""
","
","","","170.20000004768372","","","24","14216","3975","&#9826;","elianto","#f73b6a7A","-1"," ","0","-10","[1020.4000000953674]","1","0","3","","","","","","","",""
"pit-trial","69","608966","0.0-2.0-14.2-0.2","battery-v0.2","","""event"",""trial"",""time""
""fullscreenenter"",""1"",""1792""
","
","
","""event"",""trial"",""time""
""fullscreenenter"",""1"",""1792""
","
","","","1153.3999998569489","","","24","14216","3975","&#9826;","elianto","#f73b6a7A","-1"," ","0","-10","[2005.0999999046326]","1","0","3","","","","","","","",""
"pit-trial","70","612104","0.0-2.0-14.2-1.2","battery-v0.2","","""event"",""trial"",""time""
""fullscreenenter"",""1"",""1792""
","
","
","""event"",""trial"",""time""
""fullscreenenter"",""1"",""1792""
","
","","","283.89999985694885","","","24","14216","3975","&#9826;","elianto","#f73b6a7A","-1"," ","0","-10","[1134.7999999523163]","1","0","3","","","","","","","",""
"pit-trial","71","616958","0.0-2.0-14.2-2.2","battery-v0.2","","""event"",""trial"",""time""
""fullscreenenter"",""1"",""1792""
","
","
","""event"",""trial"",""time""
""fullscreenenter"",""1"",""1792""
","
","","","-1","","","24","14216","3975","&#9826;","elianto","#f73b6a7A","-1","-1","1","0","[669.3999998569489]","1","0","3","","","","","","","",""
"pit-trial","72","620143","0.0-2.0-14.2-3.2","battery-v0.2","","""event"",""trial"",""time""
""fullscreenenter"",""1"",""1792""
","
","
","""event"",""trial"",""time""
""fullscreenenter"",""1"",""1792""
","
","","","331.7999999523163","","","24","14216","3975","&#9826;","elianto","#f73b6a7A","-1"," ","0","0","[367.2000000476837,1181.9000000953674]","2","0","3","","","","","","","",""
"pit-trial","73","623309","0.0-2.0-14.2-4.2","battery-v0.2","","""event"",""trial"",""time""
""fullscreenenter"",""1"",""1792""
","
","
","""event"",""trial"",""time""
""fullscreenenter"",""1"",""1792""
","
","","","311.39999985694885","","","24","14216","3975","&#9826;","elianto","#f73b6a7A","-1"," ","0","-10","[766.9000000953674,1163.5]","2","0","3","","","","","","","",""
"pit-trial","74","626555","0.0-2.0-14.3-0.3","battery-v0.2","","""event"",""trial"",""time""
""fullscreenenter"",""1"",""1792""
","
","
","""event"",""trial"",""time""
""fullscreenenter"",""1"",""1792""
","
","","","390.69999980926514","","","24","14216","3975","&#9826;","elianto","#f73b6a7A","-1"," ","0","-10","[1241.2000000476837]","1","0","3","","","","","","","",""
"pit-trial","75","629665","0.0-2.0-14.3-1.3","battery-v0.2","","""event"",""trial"",""time""
""fullscreenenter"",""1"",""1792""
","
","
","""event"",""trial"",""time""
""fullscreenenter"",""1"",""1792""
","
","","","255.89999985694885","","","24","14216","3975","&#9826;","elianto","#f73b6a7A","-1"," ","0","-10","[1106.3999998569489]","1","0","3","","","","","","","",""
"pit-trial","76","632737","0.0-2.0-14.3-2.3","battery-v0.2","","""event"",""trial"",""time""
""fullscreenenter"",""1"",""1792""
","
","
","""event"",""trial"",""time""
""fullscreenenter"",""1"",""1792""
","
","","","217.5","","","24","14216","3975","&#9826;","elianto","#f73b6a7A","-1"," ","0","-10","[1068.2000000476837]","1","0","3","","","","","","","",""
"pit-trial","77","635801","0.0-2.0-14.3-3.3","battery-v0.2","","""event"",""trial"",""time""
""fullscreenenter"",""1"",""1792""
","
","
","""event"",""trial"",""time""
""fullscreenenter"",""1"",""1792""
","
","","","208.79999995231628","","","24","14216","3975","&#9826;","elianto","#f73b6a7A","-1"," ","0","0","[1059.0999999046326]","1","0","3","","","","","","","",""
"pit-trial","78","639138","0.0-2.0-14.3-4.3","battery-v0.2","","""event"",""trial"",""time""
""fullscreenenter"",""1"",""1792""
","
","
","""event"",""trial"",""time""
""fullscreenenter"",""1"",""1792""
","
","","","480.2999999523163","","","24","14216","3975","&#9826;","elianto","#f73b6a7A","-1"," ","0","-10","[1333.3999998569489]","1","0","3","","","","","","","",""
"call-function","79","639142","0.0-2.0-15.0","battery-v0.2","","""event"",""trial"",""time""
""fullscreenenter"",""1"",""1792""
","
","
","""event"",""trial"",""time""
""fullscreenenter"",""1"",""1792""
","
","","","","","","","","","","","","","","","","","","","","","","","","","","",""
"pit-instructions","80","666686","0.0-2.0-16.0","battery-v0.2","","""event"",""trial"",""time""
""fullscreenenter"",""1"",""1792""
","
","
","""event"",""trial"",""time""
""fullscreenenter"",""1"",""1792""
","
","","[{""page_index"":0,""viewing_time"":7545.299999952316},{""page_index"":1,""viewing_time"":8988.5},{""page_index"":2,""viewing_time"":5425.700000047684},{""page_index"":3,""viewing_time"":5582.799999952316}]","27543","","","","","","","","","","","","","","","","","","","","","","","",""
"pit-trial","81","670114","0.0-2.0-17.0-0.0","battery-v0.2","","""event"",""trial"",""time""
""fullscreenenter"",""1"",""1792""
","
","
","""event"",""trial"",""time""
""fullscreenenter"",""1"",""1792""
","
","","","572.2000000476837","","","24","14216","3975","&#9789;","elianto","#f73b6a7A"," "," ","1","0","[1423.2000000476837]","1","0","4","","","","","","","",""
"pit-trial","82","673243","0.0-2.0-17.0-1.0","battery-v0.2","","""event"",""trial"",""time""
""fullscreenenter"",""1"",""1792""
","
","
","""event"",""trial"",""time""
""fullscreenenter"",""1"",""1792""
","
","","","272.2000000476837","","","24","14216","3975","&#9789;","elianto","#f73b6a7A"," "," ","1","0","[1126.1000001430511]","1","0","4","","","","","","","",""
"pit-trial","83","676425","0.0-2.0-17.0-2.0","battery-v0.2","","""event"",""trial"",""time""
""fullscreenenter"",""1"",""1792""
","
","
","""event"",""trial"",""time""
""fullscreenenter"",""1"",""1792""
","
","","","309.90000009536743","","","24","14216","3975","&#9789;","elianto","#f73b6a7A"," "," ","1","0","[1164]","1","0","4","","","","","","","",""
"pit-trial","84","679495","0.0-2.0-17.0-3.0","battery-v0.2","","""event"",""trial"",""time""
""fullscreenenter"",""1"",""1792""
","
","
","""event"",""trial"",""time""
""fullscreenenter"",""1"",""1792""
","
","","","200.29999995231628","","","24","14216","3975","&#9789;","elianto","#f73b6a7A"," "," ","1","-10","[1052.8999998569489]","1","0","4","","","","","","","",""
"pit-trial","85","682474","0.0-2.0-17.0-4.0","battery-v0.2","","""event"",""trial"",""time""
""fullscreenenter"",""1"",""1792""
","
","
","""event"",""trial"",""time""
""fullscreenenter"",""1"",""1792""
","
","","","111.5","","","24","14216","3975","&#9789;","elianto","#f73b6a7A"," "," ","1","0","[965]","1","0","4","","","","","","","",""
"pit-trial","86","685591","0.0-2.0-17.1-0.1","battery-v0.2","","""event"",""trial"",""time""
""fullscreenenter"",""1"",""1792""
","
","
","""event"",""trial"",""time""
""fullscreenenter"",""1"",""1792""
","
","","","255.09999990463257","","","24","14216","3975","&#9789;","elianto","#f73b6a7A"," "," ","1","0","[1111]","1","0","4","","","","","","","",""
"pit-trial","87","688839","0.0-2.0-17.1-1.1","battery-v0.2","","""event"",""trial"",""time""
""fullscreenenter"",""1"",""1792""
","
","
","""event"",""trial"",""time""
""fullscreenenter"",""1"",""1792""
","
","","","382","","","24","14216","3975","&#9789;","elianto","#f73b6a7A"," "," ","1","0","[1237.4000000953674]","1","0","4","","","","","","","",""
"pit-trial","88","692076","0.0-2.0-17.1-2.1","battery-v0.2","","""event"",""trial"",""time""
""fullscreenenter"",""1"",""1792""
","
","
","""event"",""trial"",""time""
""fullscreenenter"",""1"",""1792""
","
","","","377.2000000476837","","","24","14216","3975","&#9789;","elianto","#f73b6a7A"," "," ","1","0","[1227.5999999046326]","1","0","4","","","","","","","",""
"pit-trial","89","695035","0.0-2.0-17.1-3.1","battery-v0.2","","""event"",""trial"",""time""
""fullscreenenter"",""1"",""1792""
","
","
","""event"",""trial"",""time""
""fullscreenenter"",""1"",""1792""
","
","","","100.5","","","24","14216","3975","&#9789;","elianto","#f73b6a7A"," "," ","1","-10","[358,954.2999999523163]","2","0","4","","","","","","","",""
"pit-trial","90","698329","0.0-2.0-17.1-4.1","battery-v0.2","","""event"",""trial"",""time""
""fullscreenenter"",""1"",""1792""
","
","
","""event"",""trial"",""time""
""fullscreenenter"",""1"",""1792""
","
","","","440.89999985694885","","","24","14216","3975","&#9789;","elianto","#f73b6a7A"," "," ","1","0","[1291.5999999046326]","1","0","4","","","","","","","",""
"pit-trial","91","701896","0.0-2.0-17.2-0.2","battery-v0.2","","""event"",""trial"",""time""
""fullscreenenter"",""1"",""1792""
","
","
","""event"",""trial"",""time""
""fullscreenenter"",""1"",""1792""
","
","","","710.7999999523163","","","24","14216","3975","&#9789;","elianto","#f73b6a7A"," "," ","1","0","[1561.5999999046326]","1","0","4","","","","","","","",""
"pit-trial","92","704955","0.0-2.0-17.2-1.2","battery-v0.2","","""event"",""trial"",""time""
""fullscreenenter"",""1"",""1792""
","
","
","""event"",""trial"",""time""
""fullscreenenter"",""1"",""1792""
","
","","","204.79999995231628","","","24","14216","3975","&#9789;","elianto","#f73b6a7A"," "," ","1","0","[1055.2000000476837]","1","0","4","","","","","","","",""
"pit-trial","93","708026","0.0-2.0-17.2-2.2","battery-v0.2","","""event"",""trial"",""time""
""fullscreenenter"",""1"",""1792""
","
","
","""event"",""trial"",""time""
""fullscreenenter"",""1"",""1792""
","
","","","218.39999985694885","","","24","14216","3975","&#9789;","elianto","#f73b6a7A"," "," ","1","0","[1069.8999998569489]","1","0","4","","","","","","","",""
"pit-trial","94","711184","0.0-2.0-17.2-3.2","battery-v0.2","","""event"",""trial"",""time""
""fullscreenenter"",""1"",""1792""
","
","
","""event"",""trial"",""time""
""fullscreenenter"",""1"",""1792""
","
","","","305.2999999523163","","","24","14216","3975","&#9789;","elianto","#f73b6a7A"," "," ","1","-10","[381.59999990463257,1155.6999998092651]","2","0","4","","","","","","","",""
"pit-trial","95","714212","0.0-2.0-17.2-4.2","battery-v0.2","","""event"",""trial"",""time""
""fullscreenenter"",""1"",""1792""
","
","
","""event"",""trial"",""time""
""fullscreenenter"",""1"",""1792""
","
","","","173.5","","","24","14216","3975","&#9789;","elianto","#f73b6a7A"," "," ","1","0","[1024.9000000953674]","1","0","4","","","","","","","",""
"pit-trial","96","719068","0.0-2.0-17.3-0.3","battery-v0.2","","""event"",""trial"",""time""
""fullscreenenter"",""1"",""1792""
","
","
","""event"",""trial"",""time""
""fullscreenenter"",""1"",""1792""
","
","","","-1","","","24","14216","3975","&#9789;","elianto","#f73b6a7A"," ","-1","0","-10","[]","0","0","4","","","","","","","",""
"pit-trial","97","722134","0.0-2.0-17.3-1.3","battery-v0.2","","""event"",""trial"",""time""
""fullscreenenter"",""1"",""1792""
","
","
","""event"",""trial"",""time""
""fullscreenenter"",""1"",""1792""
","
","","","212.90000009536743","","","24","14216","3975","&#9789;","elianto","#f73b6a7A"," "," ","1","0","[1063.0999999046326]","1","0","4","","","","","","","",""
"pit-trial","98","725409","0.0-2.0-17.3-2.3","battery-v0.2","","""event"",""trial"",""time""
""fullscreenenter"",""1"",""1792""
","
","
","""event"",""trial"",""time""
""fullscreenenter"",""1"",""1792""
","
","","","420.09999990463257","","","24","14216","3975","&#9789;","elianto","#f73b6a7A"," "," ","1","0","[1271.1999998092651]","1","0","4","","","","","","","",""
"pit-trial","99","729135","0.0-2.0-17.3-3.3","battery-v0.2","","""event"",""trial"",""time""
""fullscreenenter"",""1"",""1792""
","
","
","""event"",""trial"",""time""
""fullscreenenter"",""1"",""1792""
","
","","","871.2999999523163","","","24","14216","3975","&#9789;","elianto","#f73b6a7A"," "," ","1","-10","[1722.5999999046326]","1","0","4","","","","","","","",""
"pit-trial","100","732254","0.0-2.0-17.3-4.3","battery-v0.2","","""event"",""trial"",""time""
""fullscreenenter"",""1"",""1792""
","
","
","""event"",""trial"",""time""
""fullscreenenter"",""1"",""1792""
","
","","","264.59999990463257","","","24","14216","3975","&#9789;","elianto","#f73b6a7A"," "," ","1","0","[1115.2999999523163]","1","0","4","","","","","","","",""
"call-function","101","732257","0.0-2.0-18.0","battery-v0.2","","""event"",""trial"",""time""
""fullscreenenter"",""1"",""1792""
","
","
","""event"",""trial"",""time""
""fullscreenenter"",""1"",""1792""
","
","","","","","","","","","","","","","","","","","","","","","","","","","","",""
"pit-instructions","102","804473","0.0-2.0-19.0","battery-v0.2","","""event"",""trial"",""time""
""fullscreenenter"",""1"",""1792""
","
","
","""event"",""trial"",""time""
""fullscreenenter"",""1"",""1792""
","
","","[{""page_index"":0,""viewing_time"":7393.200000047684},{""page_index"":1,""viewing_time"":7354.900000095367},{""page_index"":2,""viewing_time"":9889.099999904633},{""page_index"":3,""viewing_time"":6474.299999952316},{""page_index"":4,""viewing_time"":10171},{""page_index"":5,""viewing_time"":10441.5},{""page_index"":6,""viewing_time"":9310.799999952316},{""page_index"":7,""viewing_time"":6908.100000143051},{""page_index"":8,""viewing_time"":4271.899999856949}]","72215.70000004768","","","","","","","","","","","","","","","","","","","","","","","",""
"pit-comprehension","103","809679","0.0-2.0-20.0-0.0","battery-v0.2","","""event"",""trial"",""time""
""fullscreenenter"",""1"",""1792""
","
","
","""event"",""trial"",""time""
""fullscreenenter"",""1"",""1792""
","
","","","5197.200000047684","[""SPACE""]","0","24","14216","3975","","","","","","","","","","","","","","","","","","",""
"pit-instructions","104","812872","0.0-2.0-20.0-1.0","battery-v0.2","","""event"",""trial"",""time""
""fullscreenenter"",""1"",""1792""
","
","
","""event"",""trial"",""time""
""fullscreenenter"",""1"",""1792""
","
","","[{""page_index"":0,""viewing_time"":3131.2000000476837}]","3131.5","","","","","","","","","","","","","","","","","","","","","","","",""
"pit-comprehension","105","819092","0.0-2.0-21.0-0.0","battery-v0.2","","""event"",""trial"",""time""
""fullscreenenter"",""1"",""1792""
","
","
","""event"",""trial"",""time""
""fullscreenenter"",""1"",""1792""
","
","","","6217.699999809265","[""10""]","0","24","14216","3975","","","","","","","","","","","","","","","","","","",""
"pit-instructions","106","820740","0.0-2.0-21.0-1.0","battery-v0.2","","""event"",""trial"",""time""
""fullscreenenter"",""1"",""1792""
","
","
","""event"",""trial"",""time""
""fullscreenenter"",""1"",""1792""
","
","","[{""page_index"":0,""viewing_time"":1606.5}]","1606.7999999523163","","","","","","","","","","","","","","","","","","","","","","","",""
"pit-comprehension","107","827495","0.0-2.0-22.0-0.0","battery-v0.2","","""event"",""trial"",""time""
""fullscreenenter"",""1"",""1792""
","
","
","""event"",""trial"",""time""
""fullscreenenter"",""1"",""1792""
","
","","","6752.799999952316","[""-10""]","1","24","14216","3975","","","","","","","","","","","","","","","","","","",""
"pit-instructions","108","829191","0.0-2.0-22.0-1.0","battery-v0.2","","""event"",""trial"",""time""
""fullscreenenter"",""1"",""1792""
","
","
","""event"",""trial"",""time""
""fullscreenenter"",""1"",""1792""
","
","","[{""page_index"":0,""viewing_time"":1656.7000000476837}]","1656.9000000953674","","","","","","","","","","","","","","","","","","","","","","","",""
"pit-instructions","109","830383","0.0-2.0-22.0-2.0-0.0","battery-v0.2","","""event"",""trial"",""time""
""fullscreenenter"",""1"",""1792""
","
","
","""event"",""trial"",""time""
""fullscreenenter"",""1"",""1792""
","
","","[{""page_index"":0,""viewing_time"":1188.9000000953674}]","1189.4000000953674","","","","","","","","","","","","","","","","","","","","","","","",""
"pit-comprehension","110","836877","0.0-2.0-22.1-0.1","battery-v0.2","","""event"",""trial"",""time""
""fullscreenenter"",""1"",""1792""
","
","
","""event"",""trial"",""time""
""fullscreenenter"",""1"",""1792""
","
","","","6492","[""0""]","0","24","14216","3975","","","","","","","","","","","","","","","","","","",""
"pit-instructions","111","838566","0.0-2.0-22.1-1.1","battery-v0.2","","""event"",""trial"",""time""
""fullscreenenter"",""1"",""1792""
","
","
","""event"",""trial"",""time""
""fullscreenenter"",""1"",""1792""
","
","","[{""page_index"":0,""viewing_time"":1654.3999998569489}]","1654.5999999046326","","","","","","","","","","","","","","","","","","","","","","","",""
"pit-comprehension","112","847691","0.0-2.0-23.0-0.0","battery-v0.2","","""event"",""trial"",""time""
""fullscreenenter"",""1"",""1792""
","
","
","""event"",""trial"",""time""
""fullscreenenter"",""1"",""1792""
","
","","","9122.699999809265","[""True""]","0","24","14216","3975","","","","","","","","","","","","","","","","","","",""
"pit-instructions","113","850832","0.0-2.0-23.0-1.0","battery-v0.2","","""event"",""trial"",""time""
""fullscreenenter"",""1"",""1792""
","
","
","""event"",""trial"",""time""
""fullscreenenter"",""1"",""1792""
","
","","[{""page_index"":0,""viewing_time"":3109.600000143051}]","3109.9000000953674","","","","","","","","","","","","","","","","","","","","","","","",""
"pit-comprehension","114","858413","0.0-2.0-24.0-0.0","battery-v0.2","","""event"",""trial"",""time""
""fullscreenenter"",""1"",""1792""
","
","
","""event"",""trial"",""time""
""fullscreenenter"",""1"",""1792""
","
","","","7577.899999856949","[""True""]","0","24","14216","3975","","","","","","","","","","","","","","","","","","",""
"pit-instructions","115","860117","0.0-2.0-24.0-1.0","battery-v0.2","","""event"",""trial"",""time""
""fullscreenenter"",""1"",""1792""
","
","
","""event"",""trial"",""time""
""fullscreenenter"",""1"",""1792""
","
","","[{""page_index"":0,""viewing_time"":1667.4000000953674}]","1667.7000000476837","","","","","","","","","","","","","","","","","","","","","","","",""
"pit-comprehension","116","870380","0.0-2.0-25.0-0.0","battery-v0.2","","""event"",""trial"",""time""
""fullscreenenter"",""1"",""1792""
","
","
","""event"",""trial"",""time""
""fullscreenenter"",""1"",""1792""
","
","","","10260.299999952316","[""True""]","0","24","14216","3975","","","","","","","","","","","","","","","","","","",""
"pit-instructions","117","872051","0.0-2.0-25.0-1.0","battery-v0.2","","""event"",""trial"",""time""
""fullscreenenter"",""1"",""1792""
","
","
","""event"",""trial"",""time""
""fullscreenenter"",""1"",""1792""
","
","","[{""page_index"":0,""viewing_time"":1608.9000000953674}]","1609.5999999046326","","","","","","","","","","","","","","","","","","","","","","","",""
"pit-comprehension","118","877228","0.0-2.0-26.0-0.0","battery-v0.2","","""event"",""trial"",""time""
""fullscreenenter"",""1"",""1792""
","
","
","""event"",""trial"",""time""
""fullscreenenter"",""1"",""1792""
","
","","","5171.5","[""False""]","0","24","14216","3975","","","","","","","","","","","","","","","","","","",""
"pit-instructions","119","878795","0.0-2.0-26.0-1.0","battery-v0.2","","""event"",""trial"",""time""
""fullscreenenter"",""1"",""1792""
","
","
","""event"",""trial"",""time""
""fullscreenenter"",""1"",""1792""
","
","","[{""page_index"":0,""viewing_time"":1536}]","1536.5","","","","","","","","","","","","","","","","","","","","","","","",""
"pit-instructions","120","968238","0.0-3.0","battery-v0.2","","""event"",""trial"",""time""
""fullscreenenter"",""1"",""1792""
","
","
","""event"",""trial"",""time""
""fullscreenenter"",""1"",""1792""
","
","","[{""page_index"":0,""viewing_time"":4476},{""page_index"":1,""viewing_time"":74061.20000004768},{""page_index"":2,""viewing_time"":10901.099999904633}]","89439","","","","","","","","","","","","","","","","","","","","","","","",""
"pit-trial","121","972993","0.0-4.0","battery-v0.2","","""event"",""trial"",""time""
""fullscreenenter"",""1"",""1792""
","
","
","""event"",""trial"",""time""
""fullscreenenter"",""1"",""1792""
","
","","","1887.1000001430511","","","24","14216","3975","&#9728;","elianto","#f73b6a7A","-1"," ","0","0","[2738.2999999523163]","1","1","","","14216","1","0","4","lose","no-go","1"
"pit-trial","122","976467","0.0-5.0","battery-v0.2","","""event"",""trial"",""time""
""fullscreenenter"",""1"",""1792""
","
","
","""event"",""trial"",""time""
""fullscreenenter"",""1"",""1792""
","
","","","611.3000001907349","","","24","14216","3975","&#9733;","elianto","#3366ff99","-1"," ","0","0","[1462.9000000953674]","1","1","","","14216","2","2","2","win","no-go","0"
"pit-trial","123","979855","0.0-6.0","battery-v0.2","","""event"",""trial"",""time""
""fullscreenenter"",""1"",""1792""
","
","
","""event"",""trial"",""time""
""fullscreenenter"",""1"",""1792""
","
","","","527.7999999523163","","","24","14216","3975","&#9730;","elianto","#3366ff99"," "," ","1","0","[1382.5999999046326]","1","1","","","14216","3","1","1","win","go","1"
"pit-trial","124","983371","0.0-7.0","battery-v0.2","","""event"",""trial"",""time""
""fullscreenenter"",""1"",""1792""
","
","
","""event"",""trial"",""time""
""fullscreenenter"",""1"",""1792""
","
","","","652","","","24","14216","3975","&#9752;","elianto","#f73b6a7A"," "," ","1","0","[1505.6000001430511]","1","1","","","14216","4","3","3","lose","go","0"
"pit-trial","125","986523","0.0-8.0","battery-v0.2","","""event"",""trial"",""time""
""fullscreenenter"",""1"",""1792""
","
","
","""event"",""trial"",""time""
""fullscreenenter"",""1"",""1792""
","
","","","280.90000009536743","","","24","14216","3975","&#9730;","elianto","#3366ff99"," "," ","1","+10","[1135.9000000953674]","1","1","","","14216","5","1","1","win","go","0"
"pit-trial","126","989884","0.0-9.0","battery-v0.2","","""event"",""trial"",""time""
""fullscreenenter"",""1"",""1792""
","
","
","""event"",""trial"",""time""
""fullscreenenter"",""1"",""1792""
","
","","","503.7999999523163","","","24","14216","3975","&#9733;","elianto","#3366ff99","-1"," ","0","0","[1354.7999999523163]","1","1","","","14216","6","2","2","win","no-go","0"
"pit-trial","127","993124","0.0-10.0","battery-v0.2","","""event"",""trial"",""time""
""fullscreenenter"",""1"",""1792""
","
","
","""event"",""trial"",""time""
""fullscreenenter"",""1"",""1792""
","
","","","380.7000000476837","","","24","14216","3975","&#9728;","elianto","#f73b6a7A","-1"," ","0","-10","[1233.7000000476837]","1","1","","","14216","7","0","4","lose","no-go","0"
"pit-trial","128","996366","0.0-11.0","battery-v0.2","","""event"",""trial"",""time""
""fullscreenenter"",""1"",""1792""
","
","
","""event"",""trial"",""time""
""fullscreenenter"",""1"",""1792""
","
","","","389.09999990463257","","","24","14216","3975","&#9752;","elianto","#f73b6a7A"," "," ","1","0","[1239.0999999046326]","1","1","","","14216","8","3","3","lose","go","0"
"pit-trial","129","999564","0.0-12.0","battery-v0.2","","""event"",""trial"",""time""
""fullscreenenter"",""1"",""1792""
","
","
","""event"",""trial"",""time""
""fullscreenenter"",""1"",""1792""
","
","","","344.69999980926514","","","24","14216","3975","&#9728;","elianto","#f73b6a7A","-1"," ","0","-10","[1194.7999999523163]","1","1","","","14216","9","0","4","lose","no-go","0"
"pit-trial","130","1002638","0.0-13.0","battery-v0.2","","""event"",""trial"",""time""
""fullscreenenter"",""1"",""1792""
","
","
","""event"",""trial"",""time""
""fullscreenenter"",""1"",""1792""
","
","","","220.70000004768372","","","24","14216","3975","&#9730;","elianto","#3366ff99"," "," ","1","+10","[1071.1000001430511]","1","1","","","14216","10","1","1","win","go","0"
"pit-trial","131","1005832","0.0-14.0","battery-v0.2","","""event"",""trial"",""time""
""fullscreenenter"",""1"",""1792""
","
","
","""event"",""trial"",""time""
""fullscreenenter"",""1"",""1792""
","
","","","338.7000000476837","","","24","14216","3975","&#9752;","elianto","#f73b6a7A"," "," ","1","0","[1189.2999999523163]","1","1","","","14216","11","3","3","lose","go","0"
"pit-trial","132","1009051","0.0-15.0","battery-v0.2","","""event"",""trial"",""time""
""fullscreenenter"",""1"",""1792""
","
","
","""event"",""trial"",""time""
""fullscreenenter"",""1"",""1792""
","
","","","365.7999999523163","","","24","14216","3975","&#9733;","elianto","#3366ff99","-1"," ","0","0","[1216]","1","1","","","14216","12","2","2","win","no-go","0"
"pit-trial","133","1012466","0.0-16.0","battery-v0.2","","""event"",""trial"",""time""
""fullscreenenter"",""1"",""1792""
","
","
","""event"",""trial"",""time""
""fullscreenenter"",""1"",""1792""
","
","","","559.9000000953674","","","24","14216","3975","&#9728;","elianto","#f73b6a7A","-1"," ","0","-10","[1411.1000001430511]","1","1","","","14216","13","0","4","lose","no-go","0"
"pit-trial","134","1015674","0.0-17.0","battery-v0.2","","""event"",""trial"",""time""
""fullscreenenter"",""1"",""1792""
","
","
","""event"",""trial"",""time""
""fullscreenenter"",""1"",""1792""
","
","","","355","","","24","14216","3975","&#9730;","elianto","#3366ff99"," "," ","1","+10","[1206.0999999046326]","1","1","","","14216","14","1","1","win","go","0"
"pit-trial","135","1018998","0.0-18.0","battery-v0.2","","""event"",""trial"",""time""
""fullscreenenter"",""1"",""1792""
","
","
","""event"",""trial"",""time""
""fullscreenenter"",""1"",""1792""
","
","","","468.30000019073486","","","24","14216","3975","&#9752;","elianto","#f73b6a7A"," "," ","1","-10","[1318.4000000953674]","1","1","","","14216","15","3","3","lose","go","1"
"pit-trial","136","1022090","0.0-19.0","battery-v0.2","","""event"",""trial"",""time""
""fullscreenenter"",""1"",""1792""
","
","
","""event"",""trial"",""time""
""fullscreenenter"",""1"",""1792""
","
","","","239.70000004768372","","","24","14216","3975","&#9733;","elianto","#3366ff99","-1"," ","0","0","[1090.2999999523163]","1","1","","","14216","16","2","2","win","no-go","0"
"pit-trial","137","1025283","0.0-20.0","battery-v0.2","","""event"",""trial"",""time""
""fullscreenenter"",""1"",""1792""
","
","
","""event"",""trial"",""time""
""fullscreenenter"",""1"",""1792""
","
","","","338.09999990463257","","","24","14216","3975","&#9728;","elianto","#f73b6a7A","-1"," ","0","-10","[1188.5999999046326]","1","1","","","14216","17","0","4","lose","no-go","0"
"pit-trial","138","1028463","0.0-21.0","battery-v0.2","","""event"",""trial"",""time""
""fullscreenenter"",""1"",""1792""
","
","
","""event"",""trial"",""time""
""fullscreenenter"",""1"",""1792""
","
","","","326.59999990463257","","","24","14216","3975","&#9730;","elianto","#3366ff99"," "," ","1","+10","[1176.7999999523163]","1","1","","","14216","18","1","1","win","go","0"
"pit-trial","139","1031997","0.0-22.0","battery-v0.2","","""event"",""trial"",""time""
""fullscreenenter"",""1"",""1792""
","
","
","""event"",""trial"",""time""
""fullscreenenter"",""1"",""1792""
","
","","","681","","","24","14216","3975","&#9752;","elianto","#f73b6a7A"," "," ","1","0","[1531.2999999523163]","1","1","","","14216","19","3","3","lose","go","0"
"pit-trial","140","1035569","0.0-23.0","battery-v0.2","","""event"",""trial"",""time""
""fullscreenenter"",""1"",""1792""
","
","
","""event"",""trial"",""time""
""fullscreenenter"",""1"",""1792""
","
","","","719.7999999523163","","","24","14216","3975","&#9733;","elianto","#3366ff99","-1"," ","0","0","[1570]","1","1","","","14216","20","2","2","win","no-go","0"
"pit-instructions","141","1059239","0.0-24.0","battery-v0.2","","""event"",""trial"",""time""
""fullscreenenter"",""1"",""1792""
","
","
","""event"",""trial"",""time""
""fullscreenenter"",""1"",""1792""
","
","","[{""page_index"":0,""viewing_time"":9395.099999904633},{""page_index"":1,""viewing_time"":14271.799999952316}]","23667.5","","","","","","","","","","","","","","","","","","","","","","","",""
"pit-trial","142","1062616","0.0-25.0","battery-v0.2","","""event"",""trial"",""time""
""fullscreenenter"",""1"",""1792""
","
","
","""event"",""trial"",""time""
""fullscreenenter"",""1"",""1792""
","
","","","508.40000009536743","","","24","14216","3975","f","elianto","#3366ff99"," "," ","1","+10","[1359.5999999046326]","1","2","","","14216","21","1","1","win","go","0"
"pit-trial","143","1065828","0.0-26.0","battery-v0.2","","""event"",""trial"",""time""
""fullscreenenter"",""1"",""1792""
","
","
","""event"",""trial"",""time""
""fullscreenenter"",""1"",""1792""
","
","","","347.10000014305115","","","24","14216","3975","n","elianto","#f73b6a7A","-1"," ","0","-10","[1201.5]","1","2","","","14216","22","0","4","lose","no-go","0"
"pit-trial","144","1069144","0.0-27.0","battery-v0.2","","""event"",""trial"",""time""
""fullscreenenter"",""1"",""1792""
","
","
","""event"",""trial"",""time""
""fullscreenenter"",""1"",""1792""
","
","","","463.09999990463257","","","24","14216","3975","t","elianto","#f73b6a7A","-1"," ","0","0","[1313.2999999523163]","1","2","","","14216","23","2","4","lose","no-go","1"
"pit-trial","145","1072249","0.0-28.0","battery-v0.2","","""event"",""trial"",""time""
""fullscreenenter"",""1"",""1792""
","
","
","""event"",""trial"",""time""
""fullscreenenter"",""1"",""1792""
","
","","","247.5","","","24","14216","3975","b","elianto","#f73b6a7A"," "," ","1","0","[1100]","1","2","","","14216","24","3","3","lose","go","0"
"pit-trial","146","1075717","0.0-29.0","battery-v0.2","","""event"",""trial"",""time""
""fullscreenenter"",""1"",""1792""
","
","
","""event"",""trial"",""time""
""fullscreenenter"",""1"",""1792""
","
","","","605.2999999523163","","","24","14216","3975","t","elianto","#f73b6a7A","-1"," ","0","-10","[1460.7999999523163]","1","2","","","14216","25","2","4","lose","no-go","0"
"pit-trial","147","1078682","0.0-30.0","battery-v0.2","","""event"",""trial"",""time""
""fullscreenenter"",""1"",""1792""
","
","
","""event"",""trial"",""time""
""fullscreenenter"",""1"",""1792""
","
","","","91.79999995231628","","","24","14216","3975","b","elianto","#f73b6a7A"," "," ","1","-10","[949.0999999046326]","1","2","","","14216","26","3","3","lose","go","1"
"pit-trial","148","1081807","0.0-31.0","battery-v0.2","","""event"",""trial"",""time""
""fullscreenenter"",""1"",""1792""
","
","
","""event"",""trial"",""time""
""fullscreenenter"",""1"",""1792""
","
","","","254.89999985694885","","","24","14216","3975","n","elianto","#f73b6a7A","-1"," ","0","0","[1109.5]","1","2","","","14216","27","0","4","lose","no-go","1"
"pit-trial","149","1084834","0.0-32.0","battery-v0.2","","""event"",""trial"",""time""
""fullscreenenter"",""1"",""1792""
","
","
","""event"",""trial"",""time""
""fullscreenenter"",""1"",""1792""
","
","","","172.40000009536743","","","24","14216","3975","f","elianto","#3366ff99"," "," ","1","+10","[1022.9000000953674]","1","2","","","14216","28","1","1","win","go","0"
"pit-trial","150","1087932","0.0-33.0","battery-v0.2","","""event"",""trial"",""time""
""fullscreenenter"",""1"",""1792""
","
","
","""event"",""trial"",""time""
""fullscreenenter"",""1"",""1792""
","
","","","243.79999995231628","","","24","14216","3975","n","elianto","#f73b6a7A","-1"," ","0","-10","[1094.3999998569489]","1","2","","","14216","29","0","4","lose","no-go","0"
"pit-trial","151","1090849","0.0-34.0","battery-v0.2","","""event"",""trial"",""time""
""fullscreenenter"",""1"",""1792""
","
","
","""event"",""trial"",""time""
""fullscreenenter"",""1"",""1792""
","
","","","62.90000009536743","","","24","14216","3975","f","elianto","#3366ff99"," "," ","1","+10","[914.0999999046326]","1","2","","","14216","30","1","1","win","go","0"
"pit-trial","152","1093737","0.0-35.0","battery-v0.2","","""event"",""trial"",""time""
""fullscreenenter"",""1"",""1792""
","
","
","""event"",""trial"",""time""
""fullscreenenter"",""1"",""1792""
","
","","","34.60000014305115","","","24","14216","3975","t","elianto","#f73b6a7A","-1"," ","0","-10","[885.6000001430511]","1","2","","","14216","31","2","4","lose","no-go","0"
"pit-trial","153","1097023","0.0-36.0","battery-v0.2","","""event"",""trial"",""time""
""fullscreenenter"",""1"",""1792""
","
","
","""event"",""trial"",""time""
""fullscreenenter"",""1"",""1792""
","
","","","433.2000000476837","","","24","14216","3975","b","elianto","#f73b6a7A"," "," ","1","0","[1283.2000000476837]","1","2","","","14216","32","3","3","lose","go","0"
"pit-trial","154","1100154","0.0-37.0","battery-v0.2","","""event"",""trial"",""time""
""fullscreenenter"",""1"",""1792""
","
","
","""event"",""trial"",""time""
""fullscreenenter"",""1"",""1792""
","
","","","277.7000000476837","","","24","14216","3975","f","elianto","#3366ff99"," "," ","1","+10","[1128.3999998569489]","1","2","","","14216","33","1","1","win","go","0"
"pit-trial","155","1103476","0.0-38.0","battery-v0.2","","""event"",""trial"",""time""
""fullscreenenter"",""1"",""1792""
","
","
","""event"",""trial"",""time""
""fullscreenenter"",""1"",""1792""
","
","","","468.7000000476837","","","24","14216","3975","t","elianto","#f73b6a7A","-1"," ","0","-10","[1318.7000000476837]","1","2","","","14216","34","2","4","lose","no-go","0"
"pit-trial","156","1106631","0.0-39.0","battery-v0.2","","""event"",""trial"",""time""
""fullscreenenter"",""1"",""1792""
","
","
","""event"",""trial"",""time""
""fullscreenenter"",""1"",""1792""
","
","","","302.7999999523163","","","24","14216","3975","b","elianto","#f73b6a7A"," "," ","1","0","[1153.4000000953674]","1","2","","","14216","35","3","3","lose","go","0"
"pit-trial","157","1109569","0.0-40.0","battery-v0.2","","""event"",""trial"",""time""
""fullscreenenter"",""1"",""1792""
","
","
","""event"",""trial"",""time""
""fullscreenenter"",""1"",""1792""
","
","","","84","","","24","14216","3975","n","elianto","#f73b6a7A","-1"," ","0","-10","[934.7000000476837]","1","2","","","14216","36","0","4","lose","no-go","0"
"pit-trial","158","1112609","0.0-41.0","battery-v0.2","","""event"",""trial"",""time""
""fullscreenenter"",""1"",""1792""
","
","
","""event"",""trial"",""time""
""fullscreenenter"",""1"",""1792""
","
","","","184.60000014305115","","","24","14216","3975","n","elianto","#f73b6a7A","-1"," ","0","-10","[1035.5]","1","2","","","14216","37","0","4","lose","no-go","0"
"pit-trial","159","1115702","0.0-42.0","battery-v0.2","","""event"",""trial"",""time""
""fullscreenenter"",""1"",""1792""
","
","
","""event"",""trial"",""time""
""fullscreenenter"",""1"",""1792""
","
","","","237.40000009536743","","","24","14216","3975","f","elianto","#3366ff99"," "," ","1","+10","[1088.5]","1","2","","","14216","38","1","1","win","go","0"
"pit-trial","160","1118790","0.0-43.0","battery-v0.2","","""event"",""trial"",""time""
""fullscreenenter"",""1"",""1792""
","
","
","""event"",""trial"",""time""
""fullscreenenter"",""1"",""1792""
","
","","","235.10000014305115","","","24","14216","3975","b","elianto","#f73b6a7A"," "," ","1","0","[1085.7000000476837]","1","2","","","14216","39","3","3","lose","go","0"
"pit-trial","161","1121993","0.0-44.0","battery-v0.2","","""event"",""trial"",""time""
""fullscreenenter"",""1"",""1792""
","
","
","""event"",""trial"",""time""
""fullscreenenter"",""1"",""1792""
","
","","","349.5","","","24","14216","3975","t","elianto","#f73b6a7A","-1"," ","0","0","[1199.7000000476837]","1","2","","","14216","40","2","4","lose","no-go","1"
"pit-trial","162","1125286","0.0-45.0","battery-v0.2","","""event"",""trial"",""time""
""fullscreenenter"",""1"",""1792""
","
","
","""event"",""trial"",""time""
""fullscreenenter"",""1"",""1792""
","
","","","438.40000009536743","","","24","14216","3975","n","elianto","#f73b6a7A","-1"," ","0","-10","[1288.9000000953674]","1","2","","","14216","41","0","4","lose","no-go","0"
"pit-trial","163","1128255","0.0-46.0","battery-v0.2","","""event"",""trial"",""time""
""fullscreenenter"",""1"",""1792""
","
","
","""event"",""trial"",""time""
""fullscreenenter"",""1"",""1792""
","
","","","114.70000004768372","","","24","14216","3975","b","elianto","#f73b6a7A"," "," ","1","0","[965.5]","1","2","","","14216","42","3","3","lose","go","0"
"pit-trial","164","1131433","0.0-47.0","battery-v0.2","","""event"",""trial"",""time""
""fullscreenenter"",""1"",""1792""
","
","
","""event"",""trial"",""time""
""fullscreenenter"",""1"",""1792""
","
","","","324.7999999523163","","","24","14216","3975","t","elianto","#f73b6a7A","-1"," ","0","-10","[1174.7999999523163]","1","2","","","14216","43","2","4","lose","no-go","0"
"pit-trial","165","1134635","0.0-48.0","battery-v0.2","","""event"",""trial"",""time""
""fullscreenenter"",""1"",""1792""
","
","
","""event"",""trial"",""time""
""fullscreenenter"",""1"",""1792""
","
","","","346.2999999523163","","","24","14216","3975","f","elianto","#3366ff99"," "," ","1","0","[1198]","1","2","","","14216","44","1","1","win","go","1"
"pit-trial","166","1137736","0.0-49.0","battery-v0.2","","""event"",""trial"",""time""
""fullscreenenter"",""1"",""1792""
","
","
","""event"",""trial"",""time""
""fullscreenenter"",""1"",""1792""
","
","","","248.5","","","24","14216","3975","n","elianto","#f73b6a7A","-1"," ","0","0","[1098.7999999523163]","1","2","","","14216","45","0","4","lose","no-go","1"
"pit-trial","167","1140801","0.0-50.0","battery-v0.2","","""event"",""trial"",""time""
""fullscreenenter"",""1"",""1792""
","
","
","""event"",""trial"",""time""
""fullscreenenter"",""1"",""1792""
","
","","","210.59999990463257","","","24","14216","3975","b","elianto","#f73b6a7A"," "," ","1","0","[1061.5999999046326]","1","2","","","14216","46","3","3","lose","go","0"
"pit-trial","168","1143815","0.0-51.0","battery-v0.2","","""event"",""trial"",""time""
""fullscreenenter"",""1"",""1792""
","
","
","""event"",""trial"",""time""
""fullscreenenter"",""1"",""1792""
","
","","","159.79999995231628","","","24","14216","3975","c","elianto","#3366ff99","-1"," ","0","0","[1010.2999999523163]","1","2","","","14216","47","4","2","win","no-go","0"
"pit-trial","169","1147318","0.0-52.0","battery-v0.2","","""event"",""trial"",""time""
""fullscreenenter"",""1"",""1792""
","
","
","""event"",""trial"",""time""
""fullscreenenter"",""1"",""1792""
","
","","","649","","","24","14216","3975","t","elianto","#f73b6a7A","-1"," ","0","-10","[1499.4000000953674]","1","2","","","14216","48","2","4","lose","no-go","0"
"pit-trial","170","1150455","0.0-53.0","battery-v0.2","","""event"",""trial"",""time""
""fullscreenenter"",""1"",""1792""
","
","
","""event"",""trial"",""time""
""fullscreenenter"",""1"",""1792""
","
","","","272.39999985694885","","","24","14216","3975","f","elianto","#3366ff99"," "," ","1","+10","[1131.3999998569489]","1","2","","","14216","49","1","1","win","go","0"
"pit-trial","171","1153774","0.0-54.0","battery-v0.2","","""event"",""trial"",""time""
""fullscreenenter"",""1"",""1792""
","
","
","""event"",""trial"",""time""
""fullscreenenter"",""1"",""1792""
","
","","","465.09999990463257","","","24","14216","3975","c","elianto","#3366ff99","-1"," ","0","0","[1316.2999999523163]","1","2","","","14216","50","4","2","win","no-go","0"
"pit-trial","172","1157045","0.0-55.0","battery-v0.2","","""event"",""trial"",""time""
""fullscreenenter"",""1"",""1792""
","
","
","""event"",""trial"",""time""
""fullscreenenter"",""1"",""1792""
","
","","","415.5","","","24","14216","3975","b","elianto","#f73b6a7A"," "," ","1","0","[1266.9000000953674]","1","2","","","14216","51","3","3","lose","go","0"
"pit-trial","173","1160171","0.0-56.0","battery-v0.2","","""event"",""trial"",""time""
""fullscreenenter"",""1"",""1792""
","
","
","""event"",""trial"",""time""
""fullscreenenter"",""1"",""1792""
","
","","","269","","","24","14216","3975","n","elianto","#f73b6a7A","-1"," ","0","0","[1121.4000000953674]","1","2","","","14216","52","0","4","lose","no-go","1"
"pit-trial","174","1163483","0.0-57.0","battery-v0.2","","""event"",""trial"",""time""
""fullscreenenter"",""1"",""1792""
","
","
","""event"",""trial"",""time""
""fullscreenenter"",""1"",""1792""
","
","","","458.40000009536743","","","24","14216","3975","c","elianto","#3366ff99","-1"," ","0","0","[1309.5999999046326]","1","2","","","14216","53","4","2","win","no-go","0"
"pit-trial","175","1166623","0.0-58.0","battery-v0.2","","""event"",""trial"",""time""
""fullscreenenter"",""1"",""1792""
","
","
","""event"",""trial"",""time""
""fullscreenenter"",""1"",""1792""
","
","","","287.39999985694885","","","24","14216","3975","f","elianto","#3366ff99"," "," ","1","+10","[1137.4000000953674]","1","2","","","14216","54","1","1","win","go","0"
"pit-trial","176","1169695","0.0-59.0","battery-v0.2","","""event"",""trial"",""time""
""fullscreenenter"",""1"",""1792""
","
","
","""event"",""trial"",""time""
""fullscreenenter"",""1"",""1792""
","
","","","217.39999985694885","","","24","14216","3975","t","elianto","#f73b6a7A","-1"," ","0","-10","[1068]","1","2","","","14216","55","2","4","lose","no-go","0"
"pit-trial","177","1172837","0.0-60.0","battery-v0.2","","""event"",""trial"",""time""
""fullscreenenter"",""1"",""1792""
","
","
","""event"",""trial"",""time""
""fullscreenenter"",""1"",""1792""
","
","","","285.89999985694885","","","24","14216","3975","n","elianto","#f73b6a7A","-1"," ","0","0","[1138.6999998092651]","1","2","","","14216","56","0","4","lose","no-go","1"
"pit-trial","178","1177691","0.0-61.0","battery-v0.2","","""event"",""trial"",""time""
""fullscreenenter"",""1"",""1792""
","
","
","""event"",""trial"",""time""
""fullscreenenter"",""1"",""1792""
","
","","","-1","","","24","14216","3975","b","elianto","#f73b6a7A"," ","-1","0","-10","[]","0","2","","","14216","57","3","3","lose","go","0"
"pit-trial","179","1181689","0.0-62.0","battery-v0.2","","""event"",""trial"",""time""
""fullscreenenter"",""1"",""1792""
","
","
","""event"",""trial"",""time""
""fullscreenenter"",""1"",""1792""
","
","","","1142.6000001430511","","","24","14216","3975","n","elianto","#f73b6a7A","-1"," ","0","-10","[1994.3000001907349]","1","2","","","14216","58","0","4","lose","no-go","0"
"pit-trial","180","1184684","0.0-63.0","battery-v0.2","","""event"",""trial"",""time""
""fullscreenenter"",""1"",""1792""
","
","
","""event"",""trial"",""time""
""fullscreenenter"",""1"",""1792""
","
","","","133.09999990463257","","","24","14216","3975","f","elianto","#3366ff99"," "," ","1","0","[983.5]","1","2","","","14216","59","1","1","win","go","1"
"pit-trial","181","1187736","0.0-64.0","battery-v0.2","","""event"",""trial"",""time""
""fullscreenenter"",""1"",""1792""
","
","
","""event"",""trial"",""time""
""fullscreenenter"",""1"",""1792""
","
","","","198.09999990463257","","","24","14216","3975","c","elianto","#3366ff99","-1"," ","0","+10","[1048.2999999523163]","1","2","","","14216","60","4","2","win","no-go","1"
"pit-trial","182","1191002","0.0-65.0","battery-v0.2","","""event"",""trial"",""time""
""fullscreenenter"",""1"",""1792""
","
","
","""event"",""trial"",""time""
""fullscreenenter"",""1"",""1792""
","
","","","410.10000014305115","","","24","14216","3975","c","elianto","#3366ff99","-1"," ","0","0","[1261.5]","1","2","","","14216","61","4","2","win","no-go","0"
"pit-trial","183","1194050","0.0-66.0","battery-v0.2","","""event"",""trial"",""time""
""fullscreenenter"",""1"",""1792""
","
","
","""event"",""trial"",""time""
""fullscreenenter"",""1"",""1792""
","
","","","194.09999990463257","","","24","14216","3975","f","elianto","#3366ff99"," "," ","1","+10","[1045.3999998569489]","1","2","","","14216","62","1","1","win","go","0"
"pit-trial","184","1197442","0.0-67.0","battery-v0.2","","""event"",""trial"",""time""
""fullscreenenter"",""1"",""1792""
","
","
","""event"",""trial"",""time""
""fullscreenenter"",""1"",""1792""
","
","","","536.5999999046326","","","24","14216","3975","t","elianto","#f73b6a7A","-1"," ","0","-10","[1387.7999999523163]","1","2","","","14216","63","2","4","lose","no-go","0"
"pit-trial","185","1200511","0.0-68.0","battery-v0.2","","""event"",""trial"",""time""
""fullscreenenter"",""1"",""1792""
","
","
","""event"",""trial"",""time""
""fullscreenenter"",""1"",""1792""
","
","","","215.20000004768372","","","24","14216","3975","b","elianto","#f73b6a7A"," "," ","1","0","[1065.6999998092651]","1","2","","","14216","64","3","3","lose","go","0"
"pit-trial","186","1204305","0.0-69.0","battery-v0.2","","""event"",""trial"",""time""
""fullscreenenter"",""1"",""1792""
","
","
","""event"",""trial"",""time""
""fullscreenenter"",""1"",""1792""
","
","","","940.5999999046326","","","24","14216","3975","b","elianto","#f73b6a7A"," "," ","1","-10","[1791.2999999523163]","1","2","","","14216","65","3","3","lose","go","1"
"pit-trial","187","1209159","0.0-70.0","battery-v0.2","","""event"",""trial"",""time""
""fullscreenenter"",""1"",""1792""
","
","
","""event"",""trial"",""time""
""fullscreenenter"",""1"",""1792""
","
","","","-1","","","24","14216","3975","t","elianto","#f73b6a7A","-1","-1","1","-10","[3308]","1","2","","","14216","66","2","4","lose","no-go","1"
"pit-trial","188","1214014","0.0-71.0","battery-v0.2","","""event"",""trial"",""time""
""fullscreenenter"",""1"",""1792""
","
","
","""event"",""trial"",""time""
""fullscreenenter"",""1"",""1792""
","
","","","-1","","","24","14216","3975","f","elianto","#3366ff99"," ","-1","0","0","[3050.899999856949]","1","2","","","14216","67","1","1","win","go","0"
"pit-trial","189","1217056","0.0-72.0","battery-v0.2","","""event"",""trial"",""time""
""fullscreenenter"",""1"",""1792""
","
","
","""event"",""trial"",""time""
""fullscreenenter"",""1"",""1792""
","
","","","187.40000009536743","","","24","14216","3975","c","elianto","#3366ff99","-1"," ","0","0","[1038.7999999523163]","1","2","","","14216","68","4","2","win","no-go","0"
"pit-trial","190","1220178","0.0-73.0","battery-v0.2","","""event"",""trial"",""time""
""fullscreenenter"",""1"",""1792""
","
","
","""event"",""trial"",""time""
""fullscreenenter"",""1"",""1792""
","
","","","267.59999990463257","","","24","14216","3975","c","elianto","#3366ff99","-1"," ","0","0","[1117.9000000953674]","1","2","","","14216","69","4","2","win","no-go","0"
"pit-trial","191","1223561","0.0-74.0","battery-v0.2","","""event"",""trial"",""time""
""fullscreenenter"",""1"",""1792""
","
","
","""event"",""trial"",""time""
""fullscreenenter"",""1"",""1792""
","
","","","528","","","24","14216","3975","z","elianto","#3366ff99"," "," ","1","+10","[1379.2999999523163]","1","2","","","14216","70","5","1","win","go","0"
"pit-trial","192","1226664","0.0-75.0","battery-v0.2","","""event"",""trial"",""time""
""fullscreenenter"",""1"",""1792""
","
","
","""event"",""trial"",""time""
""fullscreenenter"",""1"",""1792""
","
","","","249.09999990463257","","","24","14216","3975","b","elianto","#f73b6a7A"," "," ","1","0","[1099.7999999523163]","1","2","","","14216","71","3","3","lose","go","0"
"pit-trial","193","1229859","0.0-76.0","battery-v0.2","","""event"",""trial"",""time""
""fullscreenenter"",""1"",""1792""
","
","
","""event"",""trial"",""time""
""fullscreenenter"",""1"",""1792""
","
","","","340.10000014305115","","","24","14216","3975","f","elianto","#3366ff99"," "," ","1","0","[1192.2000000476837]","1","2","","","14216","72","1","1","win","go","1"
"pit-trial","194","1232961","0.0-77.0","battery-v0.2","","""event"",""trial"",""time""
""fullscreenenter"",""1"",""1792""
","
","
","""event"",""trial"",""time""
""fullscreenenter"",""1"",""1792""
","
","","","248","","","24","14216","3975","b","elianto","#f73b6a7A"," "," ","1","-10","[1098.6000001430511]","1","2","","","14216","73","3","3","lose","go","1"
"pit-trial","195","1237814","0.0-78.0","battery-v0.2","","""event"",""trial"",""time""
""fullscreenenter"",""1"",""1792""
","
","
","""event"",""trial"",""time""
""fullscreenenter"",""1"",""1792""
","
","","","-1","","","24","14216","3975","c","elianto","#3366ff99","-1","-1","1","+10","[3477.800000190735]","1","2","","","14216","74","4","2","win","no-go","0"
"pit-trial","196","1241176","0.0-79.0","battery-v0.2","","""event"",""trial"",""time""
""fullscreenenter"",""1"",""1792""
","
","
","""event"",""trial"",""time""
""fullscreenenter"",""1"",""1792""
","
","","","504.60000014305115","","","24","14216","3975","z","elianto","#3366ff99"," "," ","1","+10","[839.7999999523163,1358.2000000476837]","2","2","","","14216","75","5","1","win","go","0"
"pit-trial","197","1244226","0.0-80.0","battery-v0.2","","""event"",""trial"",""time""
""fullscreenenter"",""1"",""1792""
","
","
","""event"",""trial"",""time""
""fullscreenenter"",""1"",""1792""
","
","","","195.20000004768372","","","24","14216","3975","f","elianto","#3366ff99"," "," ","1","+10","[1046]","1","2","","","14216","76","1","1","win","go","0"
"pit-trial","198","1247353","0.0-81.0","battery-v0.2","","""event"",""trial"",""time""
""fullscreenenter"",""1"",""1792""
","
","
","""event"",""trial"",""time""
""fullscreenenter"",""1"",""1792""
","
","","","272.7000000476837","","","24","14216","3975","h","elianto","#f73b6a7A","-1"," ","0","-10","[1122.9000000953674]","1","2","","","14216","77","6","4","lose","no-go","0"
"pit-trial","199","1251255","0.0-82.0","battery-v0.2","","""event"",""trial"",""time""
""fullscreenenter"",""1"",""1792""
","
","
","""event"",""trial"",""time""
""fullscreenenter"",""1"",""1792""
","
","","","1048.9000000953674","","","24","14216","3975","c","elianto","#3366ff99","-1"," ","0","0","[791.8999998569489,1899.7000000476837]","2","2","","","14216","78","4","2","win","no-go","0"
"pit-trial","200","1254344","0.0-83.0","battery-v0.2","","""event"",""trial"",""time""
""fullscreenenter"",""1"",""1792""
","
","
","""event"",""trial"",""time""
""fullscreenenter"",""1"",""1792""
","
","","","235.20000004768372","","","24","14216","3975","z","elianto","#3366ff99"," "," ","1","+10","[1085.5]","1","2","","","14216","79","5","1","win","go","0"
"pit-trial","201","1257474","0.0-84.0","battery-v0.2","","""event"",""trial"",""time""
""fullscreenenter"",""1"",""1792""
","
","
","""event"",""trial"",""time""
""fullscreenenter"",""1"",""1792""
","
","","","274.90000009536743","","","24","14216","3975","b","elianto","#f73b6a7A"," "," ","1","0","[1125.9000000953674]","1","2","","","14216","80","3","3","lose","go","0"
"pit-trial","202","1260473","0.0-85.0","battery-v0.2","","""event"",""trial"",""time""
""fullscreenenter"",""1"",""1792""
","
","
","""event"",""trial"",""time""
""fullscreenenter"",""1"",""1792""
","
","","","145.09999990463257","","","24","14216","3975","h","elianto","#f73b6a7A","-1"," ","0","-10","[995.2999999523163]","1","2","","","14216","81","6","4","lose","no-go","0"
"pit-trial","203","1263572","0.0-86.0","battery-v0.2","","""event"",""trial"",""time""
""fullscreenenter"",""1"",""1792""
","
","
","""event"",""trial"",""time""
""fullscreenenter"",""1"",""1792""
","
","","","238.20000004768372","","","24","14216","3975","z","elianto","#3366ff99"," "," ","1","+10","[1096.5999999046326]","1","2","","","14216","82","5","1","win","go","0"
"pit-trial","204","1266832","0.0-87.0","battery-v0.2","","""event"",""trial"",""time""
""fullscreenenter"",""1"",""1792""
","
","
","""event"",""trial"",""time""
""fullscreenenter"",""1"",""1792""
","
","","","406.39999985694885","","","24","14216","3975","y","elianto","#f73b6a7A"," "," ","1","-10","[1256.7000000476837]","1","2","","","14216","83","7","3","lose","go","1"
"pit-trial","205","1269843","0.0-88.0","battery-v0.2","","""event"",""trial"",""time""
""fullscreenenter"",""1"",""1792""
","
","
","""event"",""trial"",""time""
""fullscreenenter"",""1"",""1792""
","
","","","156.29999995231628","","","24","14216","3975","c","elianto","#3366ff99","-1"," ","0","0","[1007.5]","1","2","","","14216","84","4","2","win","no-go","0"
"pit-trial","206","1272873","0.0-89.0","battery-v0.2","","""event"",""trial"",""time""
""fullscreenenter"",""1"",""1792""
","
","
","""event"",""trial"",""time""
""fullscreenenter"",""1"",""1792""
","
","","","175.40000009536743","","","24","14216","3975","z","elianto","#3366ff99"," "," ","1","+10","[1026.6000001430511]","1","2","","","14216","85","5","1","win","go","0"
"pit-trial","207","1276066","0.0-90.0","battery-v0.2","","""event"",""trial"",""time""
""fullscreenenter"",""1"",""1792""
","
","
","""event"",""trial"",""time""
""fullscreenenter"",""1"",""1792""
","
","","","339.10000014305115","","","24","14216","3975","c","elianto","#3366ff99","-1"," ","0","0","[1189.8999998569489]","1","2","","","14216","86","4","2","win","no-go","0"
"pit-trial","208","1279794","0.0-91.0","battery-v0.2","","""event"",""trial"",""time""
""fullscreenenter"",""1"",""1792""
","
","
","""event"",""trial"",""time""
""fullscreenenter"",""1"",""1792""
","
","","","872.5999999046326","","","24","14216","3975","y","elianto","#f73b6a7A"," "," ","1","0","[1725.4000000953674]","1","2","","","14216","87","7","3","lose","go","0"
"pit-trial","209","1283036","0.0-92.0","battery-v0.2","","""event"",""trial"",""time""
""fullscreenenter"",""1"",""1792""
","
","
","""event"",""trial"",""time""
""fullscreenenter"",""1"",""1792""
","
","","","388.09999990463257","","","24","14216","3975","h","elianto","#f73b6a7A","-1"," ","0","-10","[1238.7999999523163]","1","2","","","14216","88","6","4","lose","no-go","0"
"pit-trial","210","1286068","0.0-93.0","battery-v0.2","","""event"",""trial"",""time""
""fullscreenenter"",""1"",""1792""
","
","
","""event"",""trial"",""time""
""fullscreenenter"",""1"",""1792""
","
","","","180.09999990463257","","","24","14216","3975","h","elianto","#f73b6a7A","-1"," ","0","-10","[1030.2999999523163]","1","2","","","14216","89","6","4","lose","no-go","0"
"pit-trial","211","1289133","0.0-94.0","battery-v0.2","","""event"",""trial"",""time""
""fullscreenenter"",""1"",""1792""
","
","
","""event"",""trial"",""time""
""fullscreenenter"",""1"",""1792""
","
","","","210.39999985694885","","","24","14216","3975","z","elianto","#3366ff99"," "," ","1","+10","[1060.8999998569489]","1","2","","","14216","90","5","1","win","go","0"
"pit-trial","212","1292096","0.0-95.0","battery-v0.2","","""event"",""trial"",""time""
""fullscreenenter"",""1"",""1792""
","
","
","""event"",""trial"",""time""
""fullscreenenter"",""1"",""1792""
","
","","","109.5","","","24","14216","3975","y","elianto","#f73b6a7A"," "," ","1","0","[959.9000000953674]","1","2","","","14216","91","7","3","lose","go","0"
"pit-trial","213","1295033","0.0-96.0","battery-v0.2","","""event"",""trial"",""time""
""fullscreenenter"",""1"",""1792""
","
","
","""event"",""trial"",""time""
""fullscreenenter"",""1"",""1792""
","
","","","83.60000014305115","","","24","14216","3975","c","elianto","#3366ff99","-1"," ","0","0","[934.7000000476837]","1","2","","","14216","92","4","2","win","no-go","0"
"pit-trial","214","1298755","0.0-97.0","battery-v0.2","","""event"",""trial"",""time""
""fullscreenenter"",""1"",""1792""
","
","
","""event"",""trial"",""time""
""fullscreenenter"",""1"",""1792""
","
","","","867.9000000953674","","","24","14216","3975","y","elianto","#f73b6a7A"," "," ","1","0","[1719.2999999523163]","1","2","","","14216","93","7","3","lose","go","0"
"pit-trial","215","1302271","0.0-98.0","battery-v0.2","","""event"",""trial"",""time""
""fullscreenenter"",""1"",""1792""
","
","
","""event"",""trial"",""time""
""fullscreenenter"",""1"",""1792""
","
","","","662","","","24","14216","3975","h","elianto","#f73b6a7A","-1"," ","0","0","[1512.1999998092651]","1","2","","","14216","94","6","4","lose","no-go","1"
"pit-trial","216","1305743","0.0-99.0","battery-v0.2","","""event"",""trial"",""time""
""fullscreenenter"",""1"",""1792""
","
","
","""event"",""trial"",""time""
""fullscreenenter"",""1"",""1792""
","
","","","617","","","24","14216","3975","r","elianto","#3366ff99","-1"," ","0","0","[1468]","1","2","","","14216","95","8","2","win","no-go","0"
"pit-trial","217","1308847","0.0-100.0","battery-v0.2","","""event"",""trial"",""time""
""fullscreenenter"",""1"",""1792""
","
","
","""event"",""trial"",""time""
""fullscreenenter"",""1"",""1792""
","
","","","251.40000009536743","","","24","14216","3975","z","elianto","#3366ff99"," "," ","1","+10","[1101.9000000953674]","1","2","","","14216","96","5","1","win","go","0"
"pit-trial","218","1311897","0.0-101.0","battery-v0.2","","""event"",""trial"",""time""
""fullscreenenter"",""1"",""1792""
","
","
","""event"",""trial"",""time""
""fullscreenenter"",""1"",""1792""
","
","","","195.09999990463257","","","24","14216","3975","y","elianto","#f73b6a7A"," "," ","1","0","[1045.5]","1","2","","","14216","97","7","3","lose","go","0"
"pit-trial","219","1314939","0.0-102.0","battery-v0.2","","""event"",""trial"",""time""
""fullscreenenter"",""1"",""1792""
","
","
","""event"",""trial"",""time""
""fullscreenenter"",""1"",""1792""
","
","","","187.70000004768372","","","24","14216","3975","z","elianto","#3366ff99"," "," ","1","0","[1038.2000000476837]","1","2","","","14216","98","5","1","win","go","1"
"pit-trial","220","1317922","0.0-103.0","battery-v0.2","","""event"",""trial"",""time""
""fullscreenenter"",""1"",""1792""
","
","
","""event"",""trial"",""time""
""fullscreenenter"",""1"",""1792""
","
","","","129.19999980926514","","","24","14216","3975","h","elianto","#f73b6a7A","-1"," ","0","-10","[979.8999998569489]","1","2","","","14216","99","6","4","lose","no-go","0"
"pit-trial","221","1320870","0.0-104.0","battery-v0.2","","""event"",""trial"",""time""
""fullscreenenter"",""1"",""1792""
","
","
","""event"",""trial"",""time""
""fullscreenenter"",""1"",""1792""
","
","","","94.60000014305115","","","24","14216","3975","r","elianto","#3366ff99","-1"," ","0","0","[945.4000000953674]","1","2","","","14216","100","8","2","win","no-go","0"
"pit-trial","222","1323961","0.0-105.0","battery-v0.2","","""event"",""trial"",""time""
""fullscreenenter"",""1"",""1792""
","
","
","""event"",""trial"",""time""
""fullscreenenter"",""1"",""1792""
","
","","","235.90000009536743","","","24","14216","3975","h","elianto","#f73b6a7A","-1"," ","0","-10","[1086.7000000476837]","1","2","","","14216","101","6","4","lose","no-go","0"
"pit-trial","223","1327039","0.0-106.0","battery-v0.2","","""event"",""trial"",""time""
""fullscreenenter"",""1"",""1792""
","
","
","""event"",""trial"",""time""
""fullscreenenter"",""1"",""1792""
","
","","","224.09999990463257","","","24","14216","3975","r","elianto","#3366ff99","-1"," ","0","0","[1075.4000000953674]","1","2","","","14216","102","8","2","win","no-go","0"
"pit-trial","224","1330014","0.0-107.0","battery-v0.2","","""event"",""trial"",""time""
""fullscreenenter"",""1"",""1792""
","
","
","""event"",""trial"",""time""
""fullscreenenter"",""1"",""1792""
","
","","","120.5","","","24","14216","3975","m","elianto","#3366ff99","-1"," ","0","+10","[971.5]","1","2","","","14216","103","9","2","win","no-go","1"
"pit-trial","225","1333006","0.0-108.0","battery-v0.2","","""event"",""trial"",""time""
""fullscreenenter"",""1"",""1792""
","
","
","""event"",""trial"",""time""
""fullscreenenter"",""1"",""1792""
","
","","","139.20000004768372","","","24","14216","3975","z","elianto","#3366ff99"," "," ","1","0","[989.5999999046326]","1","2","","","14216","104","5","1","win","go","1"
"pit-trial","226","1336463","0.0-109.0","battery-v0.2","","""event"",""trial"",""time""
""fullscreenenter"",""1"",""1792""
","
","
","""event"",""trial"",""time""
""fullscreenenter"",""1"",""1792""
","
","","","604","","","24","14216","3975","r","elianto","#3366ff99","-1"," ","0","0","[1455.0999999046326]","1","2","","","14216","105","8","2","win","no-go","0"
"pit-trial","227","1340306","0.0-110.0","battery-v0.2","","""event"",""trial"",""time""
""fullscreenenter"",""1"",""1792""
","
","
","""event"",""trial"",""time""
""fullscreenenter"",""1"",""1792""
","
","","","989.5999999046326","","","24","14216","3975","h","elianto","#f73b6a7A","-1"," ","0","-10","[129.09999990463257,1840.0999999046326]","2","2","","","14216","106","6","4","lose","no-go","0"
"pit-trial","228","1344124","0.0-111.0","battery-v0.2","","""event"",""trial"",""time""
""fullscreenenter"",""1"",""1792""
","
","
","""event"",""trial"",""time""
""fullscreenenter"",""1"",""1792""
","
","","","964.2999999523163","","","24","14216","3975","z","elianto","#3366ff99"," "," ","1","+10","[1815]","1","2","","","14216","107","5","1","win","go","0"
"pit-trial","229","1347382","0.0-112.0","battery-v0.2","","""event"",""trial"",""time""
""fullscreenenter"",""1"",""1792""
","
","
","""event"",""trial"",""time""
""fullscreenenter"",""1"",""1792""
","
","","","404.2000000476837","","","24","14216","3975","m","elianto","#3366ff99","-1"," ","0","+10","[1254.9000000953674]","1","2","","","14216","108","9","2","win","no-go","1"
"pit-trial","230","1350860","0.0-113.0","battery-v0.2","","""event"",""trial"",""time""
""fullscreenenter"",""1"",""1792""
","
","
","""event"",""trial"",""time""
""fullscreenenter"",""1"",""1792""
","
","","","624.9000000953674","","","24","14216","3975","m","elianto","#3366ff99","-1"," ","0","0","[1475.1000001430511]","1","2","","","14216","109","9","2","win","no-go","0"
"pit-trial","231","1354861","0.0-114.0","battery-v0.2","","""event"",""trial"",""time""
""fullscreenenter"",""1"",""1792""
","
","
","""event"",""trial"",""time""
""fullscreenenter"",""1"",""1792""
","
","","","1147","","","24","14216","3975","r","elianto","#3366ff99","-1"," ","0","+10","[1997.2999999523163]","1","2","","","14216","110","8","2","win","no-go","1"
"pit-trial","232","1359136","0.0-115.0","battery-v0.2","","""event"",""trial"",""time""
""fullscreenenter"",""1"",""1792""
","
","
","""event"",""trial"",""time""
""fullscreenenter"",""1"",""1792""
","
","","","1420.0999999046326","","","24","14216","3975","h","elianto","#f73b6a7A","-1"," ","0","0","[2270.7999999523163]","1","2","","","14216","111","6","4","lose","no-go","1"
"pit-trial","233","1362076","0.0-116.0","battery-v0.2","","""event"",""trial"",""time""
""fullscreenenter"",""1"",""1792""
","
","
","""event"",""trial"",""time""
""fullscreenenter"",""1"",""1792""
","
","","","85.90000009536743","","","24","14216","3975","z","elianto","#3366ff99"," "," ","1","0","[936.2999999523163,1906.2999999523163]","2","2","","","14216","112","5","1","win","go","1"
"pit-trial","234","1365261","0.0-117.0","battery-v0.2","","""event"",""trial"",""time""
""fullscreenenter"",""1"",""1792""
","
","
","""event"",""trial"",""time""
""fullscreenenter"",""1"",""1792""
","
","","","331.89999985694885","","","24","14216","3975","r","elianto","#3366ff99","-1"," ","0","0","[1182.5999999046326]","1","2","","","14216","113","8","2","win","no-go","0"
"pit-trial","235","1368923","0.0-118.0","battery-v0.2","","""event"",""trial"",""time""
""fullscreenenter"",""1"",""1792""
","
","
","""event"",""trial"",""time""
""fullscreenenter"",""1"",""1792""
","
","","","807.2000000476837","","","24","14216","3975","m","elianto","#3366ff99","-1"," ","0","0","[1658.0999999046326]","1","2","","","14216","114","9","2","win","no-go","0"
"pit-trial","236","1372141","0.0-119.0","battery-v0.2","","""event"",""trial"",""time""
""fullscreenenter"",""1"",""1792""
","
","
","""event"",""trial"",""time""
""fullscreenenter"",""1"",""1792""
","
","","","365.2000000476837","","","24","14216","3975","y","elianto","#f73b6a7A"," "," ","1","0","[1215.6999998092651]","1","2","","","14216","115","7","3","lose","go","0"
"pit-trial","237","1375843","0.0-120.0","battery-v0.2","","""event"",""trial"",""time""
""fullscreenenter"",""1"",""1792""
","
","
","""event"",""trial"",""time""
""fullscreenenter"",""1"",""1792""
","
","","","847.6000001430511","","","24","14216","3975","z","elianto","#3366ff99"," "," ","1","0","[1697.7999999523163]","1","2","","","14216","116","5","1","win","go","1"
"pit-trial","238","1378865","0.0-121.0","battery-v0.2","","""event"",""trial"",""time""
""fullscreenenter"",""1"",""1792""
","
","
","""event"",""trial"",""time""
""fullscreenenter"",""1"",""1792""
","
","","","170.90000009536743","","","24","14216","3975","z","elianto","#3366ff99"," "," ","1","+10","[1021]","1","2","","","14216","117","5","1","win","go","0"
"pit-trial","239","1382053","0.0-122.0","battery-v0.2","","""event"",""trial"",""time""
""fullscreenenter"",""1"",""1792""
","
","
","""event"",""trial"",""time""
""fullscreenenter"",""1"",""1792""
","
","","","330.7999999523163","","","24","14216","3975","h","elianto","#f73b6a7A","-1"," ","0","-10","[1183.6000001430511]","1","2","","","14216","118","6","4","lose","no-go","0"
"pit-trial","240","1385263","0.0-123.0","battery-v0.2","","""event"",""trial"",""time""
""fullscreenenter"",""1"",""1792""
","
","
","""event"",""trial"",""time""
""fullscreenenter"",""1"",""1792""
","
","","","356.7000000476837","","","24","14216","3975","r","elianto","#3366ff99","-1"," ","0","+10","[1207.7000000476837]","1","2","","","14216","119","8","2","win","no-go","1"
"pit-trial","241","1388430","0.0-124.0","battery-v0.2","","""event"",""trial"",""time""
""fullscreenenter"",""1"",""1792""
","
","
","""event"",""trial"",""time""
""fullscreenenter"",""1"",""1792""
","
","","","313.69999980926514","","","24","14216","3975","m","elianto","#3366ff99","-1"," ","0","+10","[1164.0999999046326]","1","2","","","14216","120","9","2","win","no-go","1"
"pit-trial","242","1391603","0.0-125.0","battery-v0.2","","""event"",""trial"",""time""
""fullscreenenter"",""1"",""1792""
","
","
","""event"",""trial"",""time""
""fullscreenenter"",""1"",""1792""
","
","","","319.10000014305115","","","24","14216","3975","z","elianto","#3366ff99"," "," ","1","+10","[1169.1999998092651]","1","2","","","14216","121","5","1","win","go","0"
"pit-trial","243","1395461","0.0-126.0","battery-v0.2","","""event"",""trial"",""time""
""fullscreenenter"",""1"",""1792""
","
","
","""event"",""trial"",""time""
""fullscreenenter"",""1"",""1792""
","
","","","1003.0999999046326","","","24","14216","3975","r","elianto","#3366ff99","-1"," ","0","0","[1853.7999999523163]","1","2","","","14216","122","8","2","win","no-go","0"
"pit-trial","244","1398758","0.0-127.0","battery-v0.2","","""event"",""trial"",""time""
""fullscreenenter"",""1"",""1792""
","
","
","""event"",""trial"",""time""
""fullscreenenter"",""1"",""1792""
","
","","","444.10000014305115","","","24","14216","3975","m","elianto","#3366ff99","-1"," ","0","0","[1294.6000001430511]","1","2","","","14216","123","9","2","win","no-go","0"
"pit-trial","245","1401789","0.0-128.0","battery-v0.2","","""event"",""trial"",""time""
""fullscreenenter"",""1"",""1792""
","
","
","""event"",""trial"",""time""
""fullscreenenter"",""1"",""1792""
","
","","","178.10000014305115","","","24","14216","3975","y","elianto","#f73b6a7A"," "," ","1","0","[1029]","1","2","","","14216","124","7","3","lose","go","0"
"pit-trial","246","1405252","0.0-129.0","battery-v0.2","","""event"",""trial"",""time""
""fullscreenenter"",""1"",""1792""
","
","
","""event"",""trial"",""time""
""fullscreenenter"",""1"",""1792""
","
","","","609","","","24","14216","3975","r","elianto","#3366ff99","-1"," ","0","0","[1459.9000000953674]","1","2","","","14216","125","8","2","win","no-go","0"
"pit-trial","247","1408947","0.0-130.0","battery-v0.2","","""event"",""trial"",""time""
""fullscreenenter"",""1"",""1792""
","
","
","""event"",""trial"",""time""
""fullscreenenter"",""1"",""1792""
","
","","","840.7000000476837","","","24","14216","3975","m","elianto","#3366ff99","-1"," ","0","+10","[1690.8000001907349]","1","2","","","14216","126","9","2","win","no-go","1"
"pit-trial","248","1412854","0.0-131.0","battery-v0.2","","""event"",""trial"",""time""
""fullscreenenter"",""1"",""1792""
","
","
","""event"",""trial"",""time""
""fullscreenenter"",""1"",""1792""
","
","","","1052.7999999523163","","","24","14216","3975","h","elianto","#f73b6a7A","-1"," ","0","0","[1904.1000001430511]","1","2","","","14216","127","6","4","lose","no-go","1"
"pit-trial","249","1416895","0.0-132.0","battery-v0.2","","""event"",""trial"",""time""
""fullscreenenter"",""1"",""1792""
","
","
","""event"",""trial"",""time""
""fullscreenenter"",""1"",""1792""
","
","","","1188.9000000953674","","","24","14216","3975","y","elianto","#f73b6a7A"," "," ","1","-10","[2039.6000001430511]","1","2","","","14216","128","7","3","lose","go","1"
"pit-trial","250","1421750","0.0-133.0","battery-v0.2","","""event"",""trial"",""time""
""fullscreenenter"",""1"",""1792""
","
","
","""event"",""trial"",""time""
""fullscreenenter"",""1"",""1792""
","
","","","-1","","","24","14216","3975","y","elianto","#f73b6a7A"," ","-1","0","-10","[804.2999999523163,3674.2000000476837]","2","2","","","14216","129","7","3","lose","go","0"
"pit-trial","251","1425982","0.0-134.0","battery-v0.2","","""event"",""trial"",""time""
""fullscreenenter"",""1"",""1792""
","
","
","""event"",""trial"",""time""
""fullscreenenter"",""1"",""1792""
","
","","","1377.3000001907349","","","24","14216","3975","h","elianto","#f73b6a7A","-1"," ","0","-10","[2227.5]","1","2","","","14216","130","6","4","lose","no-go","0"
"pit-trial","252","1430459","0.0-135.0","battery-v0.2","","""event"",""trial"",""time""
""fullscreenenter"",""1"",""1792""
","
","
","""event"",""trial"",""time""
""fullscreenenter"",""1"",""1792""
","
","","","1622.7999999523163","","","24","14216","3975","m","elianto","#3366ff99","-1"," ","0","0","[2474]","1","2","","","14216","131","9","2","win","no-go","0"
"pit-trial","253","1433453","0.0-136.0","battery-v0.2","","""event"",""trial"",""time""
""fullscreenenter"",""1"",""1792""
","
","
","""event"",""trial"",""time""
""fullscreenenter"",""1"",""1792""
","
","","","138.89999985694885","","","24","14216","3975","r","elianto","#3366ff99","-1"," ","0","0","[990.2999999523163]","1","2","","","14216","132","8","2","win","no-go","0"
"pit-trial","254","1436668","0.0-137.0","battery-v0.2","","""event"",""trial"",""time""
""fullscreenenter"",""1"",""1792""
","
","
","""event"",""trial"",""time""
""fullscreenenter"",""1"",""1792""
","
","","","360.2999999523163","","","24","14216","3975","r","elianto","#3366ff99","-1"," ","0","0","[1211,2173]","2","2","","","14216","133","8","2","win","no-go","0"
"pit-trial","255","1441523","0.0-138.0","battery-v0.2","","""event"",""trial"",""time""
""fullscreenenter"",""1"",""1792""
","
","
","""event"",""trial"",""time""
""fullscreenenter"",""1"",""1792""
","
","","","-1","","","24","14216","3975","h","elianto","#f73b6a7A","-1","-1","1","0","[707.7000000476837,3136.7999999523163,4726.600000143051]","3","2","","","14216","134","6","4","lose","no-go","0"
"pit-trial","256","1446269","0.0-139.0","battery-v0.2","","""event"",""trial"",""time""
""fullscreenenter"",""1"",""1792""
","
","
","""event"",""trial"",""time""
""fullscreenenter"",""1"",""1792""
","
","","","1890.2000000476837","","","24","14216","3975","y","elianto","#f73b6a7A"," "," ","1","0","[2741.9000000953674]","1","2","","","14216","135","7","3","lose","go","0"
"pit-trial","257","1451123","0.0-140.0","battery-v0.2","","""event"",""trial"",""time""
""fullscreenenter"",""1"",""1792""
","
","
","""event"",""trial"",""time""
""fullscreenenter"",""1"",""1792""
","
","","","-1","","","24","14216","3975","m","elianto","#3366ff99","-1","-1","1","0","[3882]","1","2","","","14216","136","9","2","win","no-go","1"
"pit-trial","258","1455381","0.0-141.0","battery-v0.2","","""event"",""trial"",""time""
""fullscreenenter"",""1"",""1792""
","
","
","""event"",""trial"",""time""
""fullscreenenter"",""1"",""1792""
","
