"trial_type","trial_index","time_elapsed","internal_node_id","task_version","subject_id","interactions","blur_events","focus_events","fullscreenenter_events","fullscreenexit_events","success","view_history","rt","responses","num_errors","age","subject","participantId","rune","rune_set","hex","correct","choice","accuracy","outcome","keys","total_keys","block","practice","value","sub","trial","stimulus","robot","valence","action","sham"
"pavlovia","0","16","0.0-0.0","battery-v0.2","","""event"",""trial"",""time""
""fullscreenenter"",""1"",""2442""
","
","
","""event"",""trial"",""time""
""fullscreenenter"",""1"",""2442""
","
","","","","","","","","","","","","","","","","","","","","","","","","","","",""
"fullscreen","1","3426","0.0-1.0","battery-v0.2","","""event"",""trial"",""time""
""fullscreenenter"",""1"",""2442""
","
","
","""event"",""trial"",""time""
""fullscreenenter"",""1"",""2442""
","
","true","","","","","","","","","","","","","","","","","","","","","","","","","",""
"pit-instructions","2","8580","0.0-2.0-0.0","battery-v0.2","","""event"",""trial"",""time""
""fullscreenenter"",""1"",""2442""
","
","
","""event"",""trial"",""time""
""fullscreenenter"",""1"",""2442""
","
","","[{""page_index"":0,""viewing_time"":5149.600000008941}]","5150","","","","","","","","","","","","","","","","","","","","","","","",""
"pit-comprehension","3","11970","0.0-2.0-1.0-0.0","battery-v0.2","","""event"",""trial"",""time""
""fullscreenenter"",""1"",""2442""
","
","
","""event"",""trial"",""time""
""fullscreenenter"",""1"",""2442""
","
","","","3387.9000000059605","[""shark""]","0","20","17289","4729","","","","","","","","","","","","","","","","","","",""
"pit-instructions","4","12992","0.0-2.0-1.0-1.0","battery-v0.2","","""event"",""trial"",""time""
""fullscreenenter"",""1"",""2442""
","
","
","""event"",""trial"",""time""
""fullscreenenter"",""1"",""2442""
","
","","[{""page_index"":0,""viewing_time"":1012.7999999970198}]","1013.0999999940395","","","","","","","","","","","","","","","","","","","","","","","",""
"pit-comprehension","5","21329","0.0-2.0-2.0-0.0","battery-v0.2","","""event"",""trial"",""time""
""fullscreenenter"",""1"",""2442""
","
","
","""event"",""trial"",""time""
""fullscreenenter"",""1"",""2442""
","
","","","8335","[""turtle""]","1","20","17289","4729","","","","","","","","","","","","","","","","","","",""
"pit-instructions","6","22640","0.0-2.0-2.0-1.0","battery-v0.2","","""event"",""trial"",""time""
""fullscreenenter"",""1"",""2442""
","
","
","""event"",""trial"",""time""
""fullscreenenter"",""1"",""2442""
","
","","[{""page_index"":0,""viewing_time"":1308.6000000089407}]","1309","","","","","","","","","","","","","","","","","","","","","","","",""
"pit-instructions","7","24835","0.0-2.0-2.0-2.0-0.0","battery-v0.2","","""event"",""trial"",""time""
""fullscreenenter"",""1"",""2442""
","
","
","""event"",""trial"",""time""
""fullscreenenter"",""1"",""2442""
","
","","[{""page_index"":0,""viewing_time"":2193.6000000089407}]","2193.800000011921","","","","","","","","","","","","","","","","","","","","","","","",""
"pit-comprehension","8","28245","0.0-2.0-2.1-0.1","battery-v0.2","","""event"",""trial"",""time""
""fullscreenenter"",""1"",""2442""
","
","
","""event"",""trial"",""time""
""fullscreenenter"",""1"",""2442""
","
","","","3407.6000000089407","[""tiger""]","0","20","17289","4729","","","","","","","","","","","","","","","","","","",""
"pit-instructions","9","29261","0.0-2.0-2.1-1.1","battery-v0.2","","""event"",""trial"",""time""
""fullscreenenter"",""1"",""2442""
","
","
","""event"",""trial"",""time""
""fullscreenenter"",""1"",""2442""
","
","","[{""page_index"":0,""viewing_time"":1011.7999999970198}]","1012.0999999940395","","","","","","","","","","","","","","","","","","","","","","","",""
"pit-instructions","10","116928","0.0-2.0-3.0","battery-v0.2","","""event"",""trial"",""time""
""fullscreenenter"",""1"",""2442""
","
","
","""event"",""trial"",""time""
""fullscreenenter"",""1"",""2442""
","
","","[{""page_index"":0,""viewing_time"":7369.29999999702},{""page_index"":1,""viewing_time"":5796},{""page_index"":2,""viewing_time"":6403.600000008941},{""page_index"":3,""viewing_time"":5031.899999991059},{""page_index"":4,""viewing_time"":5440.5},{""page_index"":5,""viewing_time"":5141.4000000059605},{""page_index"":6,""viewing_time"":6518.5999999940395},{""page_index"":7,""viewing_time"":6524.300000011921},{""page_index"":8,""viewing_time"":6387.5999999940395},{""page_index"":9,""viewing_time"":6207.9000000059605},{""page_index"":10,""viewing_time"":8509.5},{""page_index"":11,""viewing_time"":6670.79999999702},{""page_index"":12,""viewing_time"":6882.79999999702},{""page_index"":13,""viewing_time"":4781.20000000298}]","87665.60000000894","","","","","","","","","","","","","","","","","","","","","","","",""
"pit-trial","11","120194","0.0-2.0-4.0-0.0","battery-v0.2","","""event"",""trial"",""time""
""fullscreenenter"",""1"",""2442""
","
","
","""event"",""trial"",""time""
""fullscreenenter"",""1"",""2442""
","
","","","391.90000000596046","","","20","17289","4729","&#9784;","elianto","#FFFFF080"," "," ","1","&#10004","[1253.4000000059605]","1","0","0","","","","","","","",""
"pit-trial","12","123408","0.0-2.0-4.1-0.1","battery-v0.2","","""event"",""trial"",""time""
""fullscreenenter"",""1"",""2442""
","
","
","""event"",""trial"",""time""
""fullscreenenter"",""1"",""2442""
","
","","","350","","","20","17289","4729","&#9784;","elianto","#FFFFF080"," "," ","1","&#10004","[1209.7999999970198]","1","0","0","","","","","","","",""
"pit-trial","13","126682","0.0-2.0-4.2-0.2","battery-v0.2","","""event"",""trial"",""time""
""fullscreenenter"",""1"",""2442""
","
","
","""event"",""trial"",""time""
""fullscreenenter"",""1"",""2442""
","
","","","408.40000000596046","","","20","17289","4729","&#9784;","elianto","#FFFFF080"," "," ","1","&#10004","[1258.5]","1","0","0","","","","","","","",""
"pit-trial","14","129879","0.0-2.0-4.3-0.3","battery-v0.2","","""event"",""trial"",""time""
""fullscreenenter"",""1"",""2442""
","
","
","""event"",""trial"",""time""
""fullscreenenter"",""1"",""2442""
","
","","","330.19999998807907","","","20","17289","4729","&#9784;","elianto","#FFFFF080"," "," ","1","&#10004","[1181.699999988079]","1","0","0","","","","","","","",""
"pit-trial","15","133132","0.0-2.0-4.4-0.4","battery-v0.2","","""event"",""trial"",""time""
""fullscreenenter"",""1"",""2442""
","
","
","""event"",""trial"",""time""
""fullscreenenter"",""1"",""2442""
","
","","","382.79999999701977","","","20","17289","4729","&#9784;","elianto","#FFFFF080"," "," ","1","&#10004","[1241.8999999910593]","1","0","0","","","","","","","",""
"pit-instructions","16","154460","0.0-2.0-5.0","battery-v0.2","","""event"",""trial"",""time""
""fullscreenenter"",""1"",""2442""
","
","
","""event"",""trial"",""time""
""fullscreenenter"",""1"",""2442""
","
","","[{""page_index"":0,""viewing_time"":5796.5},{""page_index"":1,""viewing_time"":5138.9000000059605},{""page_index"":2,""viewing_time"":4696.29999999702},{""page_index"":3,""viewing_time"":5692.100000008941}]","21324.10000000894","","","","","","","","","","","","","","","","","","","","","","","",""
"pit-trial","17","159324","0.0-2.0-6.0-0.0","battery-v0.2","","""event"",""trial"",""time""
""fullscreenenter"",""1"",""2442""
","
","
","""event"",""trial"",""time""
""fullscreenenter"",""1"",""2442""
","
","","","-1","","","20","17289","4729","&#9854;","elianto","#FFFFF080","-1","-1","1","&#10004","[]","0","0","1","","","","","","","",""
"pit-trial","18","164206","0.0-2.0-6.1-0.1","battery-v0.2","","""event"",""trial"",""time""
""fullscreenenter"",""1"",""2442""
","
","
","""event"",""trial"",""time""
""fullscreenenter"",""1"",""2442""
","
","","","-1","","","20","17289","4729","&#9854;","elianto","#FFFFF080","-1","-1","1","&#10004","[]","0","0","1","","","","","","","",""
"pit-trial","19","169079","0.0-2.0-6.2-0.2","battery-v0.2","","""event"",""trial"",""time""
""fullscreenenter"",""1"",""2442""
","
","
","""event"",""trial"",""time""
""fullscreenenter"",""1"",""2442""
","
","","","-1","","","20","17289","4729","&#9854;","elianto","#FFFFF080","-1","-1","1","&#10004","[]","0","0","1","","","","","","","",""
"pit-trial","20","173939","0.0-2.0-6.3-0.3","battery-v0.2","","""event"",""trial"",""time""
""fullscreenenter"",""1"",""2442""
","
","
","""event"",""trial"",""time""
""fullscreenenter"",""1"",""2442""
","
","","","-1","","","20","17289","4729","&#9854;","elianto","#FFFFF080","-1","-1","1","&#10004","[]","0","0","1","","","","","","","",""
"pit-trial","21","178805","0.0-2.0-6.4-0.4","battery-v0.2","","""event"",""trial"",""time""
""fullscreenenter"",""1"",""2442""
","
","
","""event"",""trial"",""time""
""fullscreenenter"",""1"",""2442""
","
","","","-1","","","20","17289","4729","&#9854;","elianto","#FFFFF080","-1","-1","1","&#10004","[]","0","0","1","","","","","","","",""
"pit-instructions","22","290764","0.0-2.0-7.0","battery-v0.2","","""event"",""trial"",""time""
""fullscreenenter"",""1"",""2442""
","
","
","""event"",""trial"",""time""
""fullscreenenter"",""1"",""2442""
","
","","[{""page_index"":0,""viewing_time"":5439.20000000298},{""page_index"":1,""viewing_time"":6624},{""page_index"":2,""viewing_time"":5628.199999988079},{""page_index"":3,""viewing_time"":6109.70000000298},{""page_index"":4,""viewing_time"":5434.5},{""page_index"":5,""viewing_time"":5451.600000008941},{""page_index"":6,""viewing_time"":4127.79999999702},{""page_index"":7,""viewing_time"":7259.79999999702},{""page_index"":8,""viewing_time"":6888.0999999940395},{""page_index"":9,""viewing_time"":6581.100000008941},{""page_index"":10,""viewing_time"":6371.29999999702},{""page_index"":11,""viewing_time"":4127.5},{""page_index"":12,""viewing_time"":6268.29999999702},{""page_index"":13,""viewing_time"":6791.9000000059605},{""page_index"":14,""viewing_time"":7361},{""page_index"":15,""viewing_time"":7747.5999999940395},{""page_index"":16,""viewing_time"":6195.70000000298},{""page_index"":17,""viewing_time"":7548.5999999940395}]","111956.20000000298","","","","","","","","","","","","","","","","","","","","","","","",""
"pit-trial","23","294627","0.0-2.0-8.0-0.0","battery-v0.2","","""event"",""trial"",""time""
""fullscreenenter"",""1"",""2442""
","
","
","""event"",""trial"",""time""
""fullscreenenter"",""1"",""2442""
","
","","","1000.7000000029802","","","20","17289","4729","&#9776;","elianto","#3366ff99"," "," ","1","+10","[1851.5]","1","0","1","","","","","","","",""
"pit-trial","24","298126","0.0-2.0-8.0-1.0","battery-v0.2","","""event"",""trial"",""time""
""fullscreenenter"",""1"",""2442""
","
","
","""event"",""trial"",""time""
""fullscreenenter"",""1"",""2442""
","
","","","643.7999999970198","","","20","17289","4729","&#9776;","elianto","#3366ff99"," "," ","1","+10","[1495.6000000089407]","1","0","1","","","","","","","",""
"pit-trial","25","301424","0.0-2.0-8.0-2.0","battery-v0.2","","""event"",""trial"",""time""
""fullscreenenter"",""1"",""2442""
","
","
","""event"",""trial"",""time""
""fullscreenenter"",""1"",""2442""
","
","","","429.5","","","20","17289","4729","&#9776;","elianto","#3366ff99"," "," ","1","+10","[1281.9000000059605]","1","0","1","","","","","","","",""
"pit-trial","26","304740","0.0-2.0-8.0-3.0","battery-v0.2","","""event"",""trial"",""time""
""fullscreenenter"",""1"",""2442""
","
","
","""event"",""trial"",""time""
""fullscreenenter"",""1"",""2442""
","
","","","456.09999999403954","","","20","17289","4729","&#9776;","elianto","#3366ff99"," "," ","1","0","[1310.7000000029802]","1","0","1","","","","","","","",""
"pit-trial","27","307949","0.0-2.0-8.0-4.0","battery-v0.2","","""event"",""trial"",""time""
""fullscreenenter"",""1"",""2442""
","
","
","""event"",""trial"",""time""
""fullscreenenter"",""1"",""2442""
","
","","","341.70000000298023","","","20","17289","4729","&#9776;","elianto","#3366ff99"," "," ","1","+10","[1193.7999999970198]","1","0","1","","","","","","","",""
"pit-trial","28","311517","0.0-2.0-8.1-0.1","battery-v0.2","","""event"",""trial"",""time""
""fullscreenenter"",""1"",""2442""
","
","
","""event"",""trial"",""time""
""fullscreenenter"",""1"",""2442""
","
","","","695.0999999940395","","","20","17289","4729","&#9776;","elianto","#3366ff99"," "," ","1","+10","[1555.7000000029802]","1","0","1","","","","","","","",""
"pit-trial","29","314936","0.0-2.0-8.1-1.1","battery-v0.2","","""event"",""trial"",""time""
""fullscreenenter"",""1"",""2442""
","
","
","""event"",""trial"",""time""
""fullscreenenter"",""1"",""2442""
","
","","","559.7999999970198","","","20","17289","4729","&#9776;","elianto","#3366ff99"," "," ","1","+10","[1412.5999999940395]","1","0","1","","","","","","","",""
"pit-trial","30","318382","0.0-2.0-8.1-2.1","battery-v0.2","","""event"",""trial"",""time""
""fullscreenenter"",""1"",""2442""
","
","
","""event"",""trial"",""time""
""fullscreenenter"",""1"",""2442""
","
","","","585.7999999970198","","","20","17289","4729","&#9776;","elianto","#3366ff99"," "," ","1","+10","[1436.7999999970198]","1","0","1","","","","","","","",""
"pit-trial","31","321781","0.0-2.0-8.1-3.1","battery-v0.2","","""event"",""trial"",""time""
""fullscreenenter"",""1"",""2442""
","
","
","""event"",""trial"",""time""
""fullscreenenter"",""1"",""2442""
","
","","","544.7000000029802","","","20","17289","4729","&#9776;","elianto","#3366ff99"," "," ","1","0","[1396.3999999910593]","1","0","1","","","","","","","",""
"pit-trial","32","325115","0.0-2.0-8.1-4.1","battery-v0.2","","""event"",""trial"",""time""
""fullscreenenter"",""1"",""2442""
","
","
","""event"",""trial"",""time""
""fullscreenenter"",""1"",""2442""
","
","","","482","","","20","17289","4729","&#9776;","elianto","#3366ff99"," "," ","1","+10","[1332.0999999940395]","1","0","1","","","","","","","",""
"pit-trial","33","329122","0.0-2.0-8.2-0.2","battery-v0.2","","""event"",""trial"",""time""
""fullscreenenter"",""1"",""2442""
","
","
","""event"",""trial"",""time""
""fullscreenenter"",""1"",""2442""
","
","","","1153.2999999970198","","","20","17289","4729","&#9776;","elianto","#3366ff99"," "," ","1","+10","[2003.5]","1","0","1","","","","","","","",""
"pit-trial","34","332898","0.0-2.0-8.2-1.2","battery-v0.2","","""event"",""trial"",""time""
""fullscreenenter"",""1"",""2442""
","
","
","""event"",""trial"",""time""
""fullscreenenter"",""1"",""2442""
","
","","","922.1000000089407","","","20","17289","4729","&#9776;","elianto","#3366ff99"," "," ","1","+10","[1773]","1","0","1","","","","","","","",""
"pit-trial","35","336255","0.0-2.0-8.2-2.2","battery-v0.2","","""event"",""trial"",""time""
""fullscreenenter"",""1"",""2442""
","
","
","""event"",""trial"",""time""
""fullscreenenter"",""1"",""2442""
","
","","","501.79999999701977","","","20","17289","4729","&#9776;","elianto","#3366ff99"," "," ","1","+10","[1353.5999999940395]","1","0","1","","","","","","","",""
"pit-trial","36","339563","0.0-2.0-8.2-3.2","battery-v0.2","","""event"",""trial"",""time""
""fullscreenenter"",""1"",""2442""
","
","
","""event"",""trial"",""time""
""fullscreenenter"",""1"",""2442""
","
","","","455.40000000596046","","","20","17289","4729","&#9776;","elianto","#3366ff99"," "," ","1","0","[1306.199999988079]","1","0","1","","","","","","","",""
"pit-trial","37","342806","0.0-2.0-8.2-4.2","battery-v0.2","","""event"",""trial"",""time""
""fullscreenenter"",""1"",""2442""
","
","
","""event"",""trial"",""time""
""fullscreenenter"",""1"",""2442""
","
","","","390.70000000298023","","","20","17289","4729","&#9776;","elianto","#3366ff99"," "," ","1","+10","[1241]","1","0","1","","","","","","","",""
"call-function","38","342808","0.0-2.0-9.0","battery-v0.2","","""event"",""trial"",""time""
""fullscreenenter"",""1"",""2442""
","
","
","""event"",""trial"",""time""
""fullscreenenter"",""1"",""2442""
","
","","","","","","","","","","","","","","","","","","","","","","","","","","",""
"pit-instructions","39","383635","0.0-2.0-10.0","battery-v0.2","","""event"",""trial"",""time""
""fullscreenenter"",""1"",""2442""
","
","
","""event"",""trial"",""time""
""fullscreenenter"",""1"",""2442""
","
","","[{""page_index"":0,""viewing_time"":6074.20000000298},{""page_index"":1,""viewing_time"":8431.40000000596},{""page_index"":2,""viewing_time"":9599.89999999106},{""page_index"":3,""viewing_time"":8572.70000000298},{""page_index"":4,""viewing_time"":8147.70000000298}]","40826.20000000298","","","","","","","","","","","","","","","","","","","","","","","",""
"pit-trial","40","388495","0.0-2.0-11.0-0.0","battery-v0.2","","""event"",""trial"",""time""
""fullscreenenter"",""1"",""2442""
","
","
","""event"",""trial"",""time""
""fullscreenenter"",""1"",""2442""
","
","","","-1","","","20","17289","4729","&#9761;","elianto","#3366ff99","-1","-1","1","+10","[]","0","0","2","","","","","","","",""
"pit-trial","41","393373","0.0-2.0-11.0-1.0","battery-v0.2","","""event"",""trial"",""time""
""fullscreenenter"",""1"",""2442""
","
","
","""event"",""trial"",""time""
""fullscreenenter"",""1"",""2442""
","
","","","-1","","","20","17289","4729","&#9761;","elianto","#3366ff99","-1","-1","1","+10","[]","0","0","2","","","","","","","",""
"pit-trial","42","398242","0.0-2.0-11.0-2.0","battery-v0.2","","""event"",""trial"",""time""
""fullscreenenter"",""1"",""2442""
","
","
","""event"",""trial"",""time""
""fullscreenenter"",""1"",""2442""
","
","","","-1","","","20","17289","4729","&#9761;","elianto","#3366ff99","-1","-1","1","+10","[]","0","0","2","","","","","","","",""
"pit-trial","43","403110","0.0-2.0-11.0-3.0","battery-v0.2","","""event"",""trial"",""time""
""fullscreenenter"",""1"",""2442""
","
","
","""event"",""trial"",""time""
""fullscreenenter"",""1"",""2442""
","
","","","-1","","","20","17289","4729","&#9761;","elianto","#3366ff99","-1","-1","1","0","[]","0","0","2","","","","","","","",""
"pit-trial","44","407984","0.0-2.0-11.0-4.0","battery-v0.2","","""event"",""trial"",""time""
""fullscreenenter"",""1"",""2442""
","
","
","""event"",""trial"",""time""
""fullscreenenter"",""1"",""2442""
","
","","","-1","","","20","17289","4729","&#9761;","elianto","#3366ff99","-1","-1","1","+10","[]","0","0","2","","","","","","","",""
"pit-trial","45","412849","0.0-2.0-11.1-0.1","battery-v0.2","","""event"",""trial"",""time""
""fullscreenenter"",""1"",""2442""
","
","
","""event"",""trial"",""time""
""fullscreenenter"",""1"",""2442""
","
","","","-1","","","20","17289","4729","&#9761;","elianto","#3366ff99","-1","-1","1","+10","[]","0","0","2","","","","","","","",""
"pit-trial","46","417712","0.0-2.0-11.1-1.1","battery-v0.2","","""event"",""trial"",""time""
""fullscreenenter"",""1"",""2442""
","
","
","""event"",""trial"",""time""
""fullscreenenter"",""1"",""2442""
","
","","","-1","","","20","17289","4729","&#9761;","elianto","#3366ff99","-1","-1","1","+10","[]","0","0","2","","","","","","","",""
"pit-trial","47","422565","0.0-2.0-11.1-2.1","battery-v0.2","","""event"",""trial"",""time""
""fullscreenenter"",""1"",""2442""
","
","
","""event"",""trial"",""time""
""fullscreenenter"",""1"",""2442""
","
","","","-1","","","20","17289","4729","&#9761;","elianto","#3366ff99","-1","-1","1","+10","[]","0","0","2","","","","","","","",""
"pit-trial","48","427419","0.0-2.0-11.1-3.1","battery-v0.2","","""event"",""trial"",""time""
""fullscreenenter"",""1"",""2442""
","
","
","""event"",""trial"",""time""
""fullscreenenter"",""1"",""2442""
","
","","","-1","","","20","17289","4729","&#9761;","elianto","#3366ff99","-1","-1","1","0","[]","0","0","2","","","","","","","",""
"pit-trial","49","432271","0.0-2.0-11.1-4.1","battery-v0.2","","""event"",""trial"",""time""
""fullscreenenter"",""1"",""2442""
","
","
","""event"",""trial"",""time""
""fullscreenenter"",""1"",""2442""
","
","","","-1","","","20","17289","4729","&#9761;","elianto","#3366ff99","-1","-1","1","+10","[]","0","0","2","","","","","","","",""
"pit-trial","50","437132","0.0-2.0-11.2-0.2","battery-v0.2","","""event"",""trial"",""time""
""fullscreenenter"",""1"",""2442""
","
","
","""event"",""trial"",""time""
""fullscreenenter"",""1"",""2442""
","
","","","-1","","","20","17289","4729","&#9761;","elianto","#3366ff99","-1","-1","1","+10","[]","0","0","2","","","","","","","",""
"pit-trial","51","441986","0.0-2.0-11.2-1.2","battery-v0.2","","""event"",""trial"",""time""
""fullscreenenter"",""1"",""2442""
","
","
","""event"",""trial"",""time""
""fullscreenenter"",""1"",""2442""
","
","","","-1","","","20","17289","4729","&#9761;","elianto","#3366ff99","-1","-1","1","+10","[]","0","0","2","","","","","","","",""
"pit-trial","52","446840","0.0-2.0-11.2-2.2","battery-v0.2","","""event"",""trial"",""time""
""fullscreenenter"",""1"",""2442""
","
","
","""event"",""trial"",""time""
""fullscreenenter"",""1"",""2442""
","
","","","-1","","","20","17289","4729","&#9761;","elianto","#3366ff99","-1","-1","1","+10","[]","0","0","2","","","","","","","",""
"pit-trial","53","451692","0.0-2.0-11.2-3.2","battery-v0.2","","""event"",""trial"",""time""
""fullscreenenter"",""1"",""2442""
","
","
","""event"",""trial"",""time""
""fullscreenenter"",""1"",""2442""
","
","","","-1","","","20","17289","4729","&#9761;","elianto","#3366ff99","-1","-1","1","0","[]","0","0","2","","","","","","","",""
"pit-trial","54","456546","0.0-2.0-11.2-4.2","battery-v0.2","","""event"",""trial"",""time""
""fullscreenenter"",""1"",""2442""
","
","
","""event"",""trial"",""time""
""fullscreenenter"",""1"",""2442""
","
","","","-1","","","20","17289","4729","&#9761;","elianto","#3366ff99","-1","-1","1","+10","[]","0","0","2","","","","","","","",""
"pit-trial","55","461401","0.0-2.0-11.3-0.3","battery-v0.2","","""event"",""trial"",""time""
""fullscreenenter"",""1"",""2442""
","
","
","""event"",""trial"",""time""
""fullscreenenter"",""1"",""2442""
","
","","","-1","","","20","17289","4729","&#9761;","elianto","#3366ff99","-1","-1","1","+10","[]","0","0","2","","","","","","","",""
"pit-trial","56","466254","0.0-2.0-11.3-1.3","battery-v0.2","","""event"",""trial"",""time""
""fullscreenenter"",""1"",""2442""
","
","
","""event"",""trial"",""time""
""fullscreenenter"",""1"",""2442""
","
","","","-1","","","20","17289","4729","&#9761;","elianto","#3366ff99","-1","-1","1","+10","[]","0","0","2","","","","","","","",""
"pit-trial","57","471107","0.0-2.0-11.3-2.3","battery-v0.2","","""event"",""trial"",""time""
""fullscreenenter"",""1"",""2442""
","
","
","""event"",""trial"",""time""
""fullscreenenter"",""1"",""2442""
","
","","","-1","","","20","17289","4729","&#9761;","elianto","#3366ff99","-1","-1","1","+10","[]","0","0","2","","","","","","","",""
"pit-trial","58","475961","0.0-2.0-11.3-3.3","battery-v0.2","","""event"",""trial"",""time""
""fullscreenenter"",""1"",""2442""
","
","
","""event"",""trial"",""time""
""fullscreenenter"",""1"",""2442""
","
","","","-1","","","20","17289","4729","&#9761;","elianto","#3366ff99","-1","-1","1","0","[]","0","0","2","","","","","","","",""
"pit-trial","59","480813","0.0-2.0-11.3-4.3","battery-v0.2","","""event"",""trial"",""time""
""fullscreenenter"",""1"",""2442""
","
","
","""event"",""trial"",""time""
""fullscreenenter"",""1"",""2442""
","
","","","-1","","","20","17289","4729","&#9761;","elianto","#3366ff99","-1","-1","1","+10","[]","0","0","2","","","","","","","",""
"call-function","60","480815","0.0-2.0-12.0","battery-v0.2","","""event"",""trial"",""time""
""fullscreenenter"",""1"",""2442""
","
","
","""event"",""trial"",""time""
""fullscreenenter"",""1"",""2442""
","
","","","","","","","","","","","","","","","","","","","","","","","","","","",""
"pit-instructions","61","512527","0.0-2.0-13.0","battery-v0.2","","""event"",""trial"",""time""
""fullscreenenter"",""1"",""2442""
","
","
","""event"",""trial"",""time""
""fullscreenenter"",""1"",""2442""
","
","","[{""page_index"":0,""viewing_time"":4691.5},{""page_index"":1,""viewing_time"":6619.29999999702},{""page_index"":2,""viewing_time"":4305.100000008941},{""page_index"":3,""viewing_time"":10171.09999999404},{""page_index"":4,""viewing_time"":5924.20000000298}]","31711.5","","","","","","","","","","","","","","","","","","","","","","","",""
"pit-trial","62","516044","0.0-2.0-14.0-0.0","battery-v0.2","","""event"",""trial"",""time""
""fullscreenenter"",""1"",""2442""
","
","
","""event"",""trial"",""time""
""fullscreenenter"",""1"",""2442""
","
","","","652.3000000119209","","","20","17289","4729","&#9826;","elianto","#f73b6a7A","-1"," ","0","-10","[1507.2000000029802]","1","0","3","","","","","","","",""
"pit-trial","63","520913","0.0-2.0-14.0-1.0","battery-v0.2","","""event"",""trial"",""time""
""fullscreenenter"",""1"",""2442""
","
","
","""event"",""trial"",""time""
""fullscreenenter"",""1"",""2442""
","
","","","-1","","","20","17289","4729","&#9826;","elianto","#f73b6a7A","-1","-1","1","0","[]","0","0","3","","","","","","","",""
"pit-trial","64","525786","0.0-2.0-14.0-2.0","battery-v0.2","","""event"",""trial"",""time""
""fullscreenenter"",""1"",""2442""
","
","
","""event"",""trial"",""time""
""fullscreenenter"",""1"",""2442""
","
","","","-1","","","20","17289","4729","&#9826;","elianto","#f73b6a7A","-1","-1","1","0","[]","0","0","3","","","","","","","",""
"pit-trial","65","530652","0.0-2.0-14.0-3.0","battery-v0.2","","""event"",""trial"",""time""
""fullscreenenter"",""1"",""2442""
","
","
","""event"",""trial"",""time""
""fullscreenenter"",""1"",""2442""
","
","","","-1","","","20","17289","4729","&#9826;","elianto","#f73b6a7A","-1","-1","1","-10","[]","0","0","3","","","","","","","",""
"pit-trial","66","535509","0.0-2.0-14.0-4.0","battery-v0.2","","""event"",""trial"",""time""
""fullscreenenter"",""1"",""2442""
","
","
","""event"",""trial"",""time""
""fullscreenenter"",""1"",""2442""
","
","","","-1","","","20","17289","4729","&#9826;","elianto","#f73b6a7A","-1","-1","1","0","[]","0","0","3","","","","","","","",""
"pit-trial","67","540373","0.0-2.0-14.1-0.1","battery-v0.2","","""event"",""trial"",""time""
""fullscreenenter"",""1"",""2442""
","
","
","""event"",""trial"",""time""
""fullscreenenter"",""1"",""2442""
","
","","","-1","","","20","17289","4729","&#9826;","elianto","#f73b6a7A","-1","-1","1","0","[]","0","0","3","","","","","","","",""
"pit-trial","68","545226","0.0-2.0-14.1-1.1","battery-v0.2","","""event"",""trial"",""time""
""fullscreenenter"",""1"",""2442""
","
","
","""event"",""trial"",""time""
""fullscreenenter"",""1"",""2442""
","
","","","-1","","","20","17289","4729","&#9826;","elianto","#f73b6a7A","-1","-1","1","0","[]","0","0","3","","","","","","","",""
"pit-trial","69","550080","0.0-2.0-14.1-2.1","battery-v0.2","","""event"",""trial"",""time""
""fullscreenenter"",""1"",""2442""
","
","
","""event"",""trial"",""time""
""fullscreenenter"",""1"",""2442""
","
","","","-1","","","20","17289","4729","&#9826;","elianto","#f73b6a7A","-1","-1","1","0","[]","0","0","3","","","","","","","",""
"pit-trial","70","554933","0.0-2.0-14.1-3.1","battery-v0.2","","""event"",""trial"",""time""
""fullscreenenter"",""1"",""2442""
","
","
","""event"",""trial"",""time""
""fullscreenenter"",""1"",""2442""
","
","","","-1","","","20","17289","4729","&#9826;","elianto","#f73b6a7A","-1","-1","1","-10","[]","0","0","3","","","","","","","",""
"pit-trial","71","559787","0.0-2.0-14.1-4.1","battery-v0.2","","""event"",""trial"",""time""
""fullscreenenter"",""1"",""2442""
","
","
","""event"",""trial"",""time""
""fullscreenenter"",""1"",""2442""
","
","","","-1","","","20","17289","4729","&#9826;","elianto","#f73b6a7A","-1","-1","1","0","[]","0","0","3","","","","","","","",""
"pit-trial","72","564641","0.0-2.0-14.2-0.2","battery-v0.2","","""event"",""trial"",""time""
""fullscreenenter"",""1"",""2442""
","
","
","""event"",""trial"",""time""
""fullscreenenter"",""1"",""2442""
","
","","","-1","","","20","17289","4729","&#9826;","elianto","#f73b6a7A","-1","-1","1","0","[]","0","0","3","","","","","","","",""
"pit-trial","73","569495","0.0-2.0-14.2-1.2","battery-v0.2","","""event"",""trial"",""time""
""fullscreenenter"",""1"",""2442""
","
","
","""event"",""trial"",""time""
""fullscreenenter"",""1"",""2442""
","
","","","-1","","","20","17289","4729","&#9826;","elianto","#f73b6a7A","-1","-1","1","0","[]","0","0","3","","","","","","","",""
"pit-trial","74","574348","0.0-2.0-14.2-2.2","battery-v0.2","","""event"",""trial"",""time""
""fullscreenenter"",""1"",""2442""
","
","
","""event"",""trial"",""time""
""fullscreenenter"",""1"",""2442""
","
","","","-1","","","20","17289","4729","&#9826;","elianto","#f73b6a7A","-1","-1","1","0","[]","0","0","3","","","","","","","",""
"pit-trial","75","579201","0.0-2.0-14.2-3.2","battery-v0.2","","""event"",""trial"",""time""
""fullscreenenter"",""1"",""2442""
","
","
","""event"",""trial"",""time""
""fullscreenenter"",""1"",""2442""
","
","","","-1","","","20","17289","4729","&#9826;","elianto","#f73b6a7A","-1","-1","1","-10","[]","0","0","3","","","","","","","",""
"pit-trial","76","584054","0.0-2.0-14.2-4.2","battery-v0.2","","""event"",""trial"",""time""
""fullscreenenter"",""1"",""2442""
","
","
","""event"",""trial"",""time""
""fullscreenenter"",""1"",""2442""
","
","","","-1","","","20","17289","4729","&#9826;","elianto","#f73b6a7A","-1","-1","1","0","[]","0","0","3","","","","","","","",""
"pit-trial","77","588909","0.0-2.0-14.3-0.3","battery-v0.2","","""event"",""trial"",""time""
""fullscreenenter"",""1"",""2442""
","
","
","""event"",""trial"",""time""
""fullscreenenter"",""1"",""2442""
","
","","","-1","","","20","17289","4729","&#9826;","elianto","#f73b6a7A","-1","-1","1","0","[]","0","0","3","","","","","","","",""
"pit-trial","78","593762","0.0-2.0-14.3-1.3","battery-v0.2","","""event"",""trial"",""time""
""fullscreenenter"",""1"",""2442""
","
","
","""event"",""trial"",""time""
""fullscreenenter"",""1"",""2442""
","
","","","-1","","","20","17289","4729","&#9826;","elianto","#f73b6a7A","-1","-1","1","0","[]","0","0","3","","","","","","","",""
"pit-trial","79","598617","0.0-2.0-14.3-2.3","battery-v0.2","","""event"",""trial"",""time""
""fullscreenenter"",""1"",""2442""
","
","
","""event"",""trial"",""time""
""fullscreenenter"",""1"",""2442""
","
","","","-1","","","20","17289","4729","&#9826;","elianto","#f73b6a7A","-1","-1","1","0","[]","0","0","3","","","","","","","",""
"pit-trial","80","603470","0.0-2.0-14.3-3.3","battery-v0.2","","""event"",""trial"",""time""
""fullscreenenter"",""1"",""2442""
","
","
","""event"",""trial"",""time""
""fullscreenenter"",""1"",""2442""
","
","","","-1","","","20","17289","4729","&#9826;","elianto","#f73b6a7A","-1","-1","1","-10","[]","0","0","3","","","","","","","",""
"pit-trial","81","608324","0.0-2.0-14.3-4.3","battery-v0.2","","""event"",""trial"",""time""
""fullscreenenter"",""1"",""2442""
","
","
","""event"",""trial"",""time""
""fullscreenenter"",""1"",""2442""
","
","","","-1","","","20","17289","4729","&#9826;","elianto","#f73b6a7A","-1","-1","1","0","[]","0","0","3","","","","","","","",""
"call-function","82","608325","0.0-2.0-15.0","battery-v0.2","","""event"",""trial"",""time""
""fullscreenenter"",""1"",""2442""
","
","
","""event"",""trial"",""time""
""fullscreenenter"",""1"",""2442""
","
","","","","","","","","","","","","","","","","","","","","","","","","","","",""
"pit-instructions","83","635147","0.0-2.0-16.0","battery-v0.2","","""event"",""trial"",""time""
""fullscreenenter"",""1"",""2442""
","
","
","""event"",""trial"",""time""
""fullscreenenter"",""1"",""2442""
","
","","[{""page_index"":0,""viewing_time"":6490.4000000059605},{""page_index"":1,""viewing_time"":8339.40000000596},{""page_index"":2,""viewing_time"":5528.0999999940395},{""page_index"":3,""viewing_time"":6463.29999999702}]","26821.5","","","","","","","","","","","","","","","","","","","","","","","",""
"pit-trial","84","638901","0.0-2.0-17.0-0.0","battery-v0.2","","""event"",""trial"",""time""
""fullscreenenter"",""1"",""2442""
","
","
","""event"",""trial"",""time""
""fullscreenenter"",""1"",""2442""
","
","","","892","","","20","17289","4729","&#9789;","elianto","#f73b6a7A"," "," ","1","0","[1746.7999999970198]","1","0","4","","","","","","","",""
"pit-trial","85","642645","0.0-2.0-17.0-1.0","battery-v0.2","","""event"",""trial"",""time""
""fullscreenenter"",""1"",""2442""
","
","
","""event"",""trial"",""time""
""fullscreenenter"",""1"",""2442""
","
","","","879.9000000059605","","","20","17289","4729","&#9789;","elianto","#f73b6a7A"," "," ","1","0","[1737.5]","1","0","4","","","","","","","",""
"pit-trial","86","646119","0.0-2.0-17.0-2.0","battery-v0.2","","""event"",""trial"",""time""
""fullscreenenter"",""1"",""2442""
","
","
","""event"",""trial"",""time""
""fullscreenenter"",""1"",""2442""
","
","","","615.5","","","20","17289","4729","&#9789;","elianto","#f73b6a7A"," "," ","1","0","[1467.9000000059605]","1","0","4","","","","","","","",""
"pit-trial","87","649538","0.0-2.0-17.0-3.0","battery-v0.2","","""event"",""trial"",""time""
""fullscreenenter"",""1"",""2442""
","
","
","""event"",""trial"",""time""
""fullscreenenter"",""1"",""2442""
","
","","","560.3000000119209","","","20","17289","4729","&#9789;","elianto","#f73b6a7A"," "," ","1","-10","[1415.800000011921]","1","0","4","","","","","","","",""
"pit-trial","88","652844","0.0-2.0-17.0-4.0","battery-v0.2","","""event"",""trial"",""time""
""fullscreenenter"",""1"",""2442""
","
","
","""event"",""trial"",""time""
""fullscreenenter"",""1"",""2442""
","
","","","437.30000001192093","","","20","17289","4729","&#9789;","elianto","#f73b6a7A"," "," ","1","0","[1290.2999999970198]","1","0","4","","","","","","","",""
"pit-trial","89","656117","0.0-2.0-17.1-0.1","battery-v0.2","","""event"",""trial"",""time""
""fullscreenenter"",""1"",""2442""
","
","
","""event"",""trial"",""time""
""fullscreenenter"",""1"",""2442""
","
","","","394.70000000298023","","","20","17289","4729","&#9789;","elianto","#f73b6a7A"," "," ","1","0","[1256.300000011921]","1","0","4","","","","","","","",""
"pit-trial","90","659371","0.0-2.0-17.1-1.1","battery-v0.2","","""event"",""trial"",""time""
""fullscreenenter"",""1"",""2442""
","
","
","""event"",""trial"",""time""
""fullscreenenter"",""1"",""2442""
","
","","","383.5","","","20","17289","4729","&#9789;","elianto","#f73b6a7A"," "," ","1","0","[1237.8999999910593]","1","0","4","","","","","","","",""
"pit-trial","91","662695","0.0-2.0-17.1-2.1","battery-v0.2","","""event"",""trial"",""time""
""fullscreenenter"",""1"",""2442""
","
","
","""event"",""trial"",""time""
""fullscreenenter"",""1"",""2442""
","
","","","468.79999999701977","","","20","17289","4729","&#9789;","elianto","#f73b6a7A"," "," ","1","0","[1321.5]","1","0","4","","","","","","","",""
"pit-trial","92","666212","0.0-2.0-17.1-3.1","battery-v0.2","","""event"",""trial"",""time""
""fullscreenenter"",""1"",""2442""
","
","
","""event"",""trial"",""time""
""fullscreenenter"",""1"",""2442""
","
","","","658.6999999880791","","","20","17289","4729","&#9789;","elianto","#f73b6a7A"," "," ","1","-10","[1514.5999999940395]","1","0","4","","","","","","","",""
"pit-trial","93","670210","0.0-2.0-17.1-4.1","battery-v0.2","","""event"",""trial"",""time""
""fullscreenenter"",""1"",""2442""
","
","
","""event"",""trial"",""time""
""fullscreenenter"",""1"",""2442""
","
","","","1144.2999999970198","","","20","17289","4729","&#9789;","elianto","#f73b6a7A"," "," ","1","0","[1995]","1","0","4","","","","","","","",""
"pit-trial","94","675064","0.0-2.0-17.2-0.2","battery-v0.2","","""event"",""trial"",""time""
""fullscreenenter"",""1"",""2442""
","
","
","""event"",""trial"",""time""
""fullscreenenter"",""1"",""2442""
","
","","","-1","","","20","17289","4729","&#9789;","elianto","#f73b6a7A"," ","-1","0","-10","[3106.7999999970198]","1","0","4","","","","","","","",""
"pit-trial","95","678679","0.0-2.0-17.2-1.2","battery-v0.2","","""event"",""trial"",""time""
""fullscreenenter"",""1"",""2442""
","
","
","""event"",""trial"",""time""
""fullscreenenter"",""1"",""2442""
","
","","","762.9000000059605","","","20","17289","4729","&#9789;","elianto","#f73b6a7A"," "," ","1","0","[1613.7000000029802]","1","0","4","","","","","","","",""
"pit-trial","96","681893","0.0-2.0-17.2-2.2","battery-v0.2","","""event"",""trial"",""time""
""fullscreenenter"",""1"",""2442""
","
","
","""event"",""trial"",""time""
""fullscreenenter"",""1"",""2442""
","
","","","360.79999999701977","","","20","17289","4729","&#9789;","elianto","#f73b6a7A"," "," ","1","0","[1211.4000000059605]","1","0","4","","","","","","","",""
"pit-trial","97","685306","0.0-2.0-17.2-3.2","battery-v0.2","","""event"",""trial"",""time""
""fullscreenenter"",""1"",""2442""
","
","
","""event"",""trial"",""time""
""fullscreenenter"",""1"",""2442""
","
","","","560.2000000029802","","","20","17289","4729","&#9789;","elianto","#f73b6a7A"," "," ","1","-10","[1411.699999988079]","1","0","4","","","","","","","",""
"pit-trial","98","688791","0.0-2.0-17.2-4.2","battery-v0.2","","""event"",""trial"",""time""
""fullscreenenter"",""1"",""2442""
","
","
","""event"",""trial"",""time""
""fullscreenenter"",""1"",""2442""
","
","","","631.5999999940395","","","20","17289","4729","&#9789;","elianto","#f73b6a7A"," "," ","1","0","[1482.699999988079]","1","0","4","","","","","","","",""
"pit-trial","99","692039","0.0-2.0-17.3-0.3","battery-v0.2","","""event"",""trial"",""time""
""fullscreenenter"",""1"",""2442""
","
","
","""event"",""trial"",""time""
""fullscreenenter"",""1"",""2442""
","
","","","393.3999999910593","","","20","17289","4729","&#9789;","elianto","#f73b6a7A"," "," ","1","0","[1244.2999999970198]","1","0","4","","","","","","","",""
"pit-trial","100","695423","0.0-2.0-17.3-1.3","battery-v0.2","","""event"",""trial"",""time""
""fullscreenenter"",""1"",""2442""
","
","
","""event"",""trial"",""time""
""fullscreenenter"",""1"",""2442""
","
","","","531.5","","","20","17289","4729","&#9789;","elianto","#f73b6a7A"," "," ","1","0","[1382.2999999970198]","1","0","4","","","","","","","",""
"pit-trial","101","698560","0.0-2.0-17.3-2.3","battery-v0.2","","""event"",""trial"",""time""
""fullscreenenter"",""1"",""2442""
","
","
","""event"",""trial"",""time""
""fullscreenenter"",""1"",""2442""
","
","","","283.29999999701977","","","20","17289","4729","&#9789;","elianto","#f73b6a7A"," "," ","1","0","[1134.2000000029802]","1","0","4","","","","","","","",""
"pit-trial","102","701560","0.0-2.0-17.3-3.3","battery-v0.2","","""event"",""trial"",""time""
""fullscreenenter"",""1"",""2442""
","
","
","""event"",""trial"",""time""
""fullscreenenter"",""1"",""2442""
","
","","","145.6000000089407","","","20","17289","4729","&#9789;","elianto","#f73b6a7A"," "," ","1","-10","[995.8000000119209]","1","0","4","","","","","","","",""
"pit-trial","103","705411","0.0-2.0-17.3-4.3","battery-v0.2","","""event"",""trial"",""time""
""fullscreenenter"",""1"",""2442""
","
","
","""event"",""trial"",""time""
""fullscreenenter"",""1"",""2442""
","
","","","997.2999999970198","","","20","17289","4729","&#9789;","elianto","#f73b6a7A"," "," ","1","0","[1847.7999999970198]","1","0","4","","","","","","","",""
"call-function","104","705413","0.0-2.0-18.0","battery-v0.2","","""event"",""trial"",""time""
""fullscreenenter"",""1"",""2442""
","
","
","""event"",""trial"",""time""
""fullscreenenter"",""1"",""2442""
","
","","","","","","","","","","","","","","","","","","","","","","","","","","",""
"pit-instructions","105","765575","0.0-2.0-19.0","battery-v0.2","","""event"",""trial"",""time""
""fullscreenenter"",""1"",""2442""
","
","
","""event"",""trial"",""time""
""fullscreenenter"",""1"",""2442""
","
","","[{""page_index"":0,""viewing_time"":6470},{""page_index"":1,""viewing_time"":4399.5},{""page_index"":2,""viewing_time"":9816.10000000894},{""page_index"":3,""viewing_time"":4572.20000000298},{""page_index"":4,""viewing_time"":8891.89999999106},{""page_index"":5,""viewing_time"":8858.90000000596},{""page_index"":6,""viewing_time"":7788.399999991059},{""page_index"":7,""viewing_time"":4224.5},{""page_index"":8,""viewing_time"":5140.100000008941}]","60161.80000001192","","","","","","","","","","","","","","","","","","","","","","","",""
"pit-comprehension","106","770055","0.0-2.0-20.0-0.0","battery-v0.2","","""event"",""trial"",""time""
""fullscreenenter"",""1"",""2442""
","
","
","""event"",""trial"",""time""
""fullscreenenter"",""1"",""2442""
","
","","","4478.29999999702","[""SPACE""]","0","20","17289","4729","","","","","","","","","","","","","","","","","","",""
"pit-instructions","107","772490","0.0-2.0-20.0-1.0","battery-v0.2","","""event"",""trial"",""time""
""fullscreenenter"",""1"",""2442""
","
","
","""event"",""trial"",""time""
""fullscreenenter"",""1"",""2442""
","
","","[{""page_index"":0,""viewing_time"":2410.199999988079}]","2410.3999999910593","","","","","","","","","","","","","","","","","","","","","","","",""
"pit-comprehension","108","776938","0.0-2.0-21.0-0.0","battery-v0.2","","""event"",""trial"",""time""
""fullscreenenter"",""1"",""2442""
","
","
","""event"",""trial"",""time""
""fullscreenenter"",""1"",""2442""
","
","","","4445.5999999940395","[""10""]","0","20","17289","4729","","","","","","","","","","","","","","","","","","",""
"pit-instructions","109","780078","0.0-2.0-21.0-1.0","battery-v0.2","","""event"",""trial"",""time""
""fullscreenenter"",""1"",""2442""
","
","
","""event"",""trial"",""time""
""fullscreenenter"",""1"",""2442""
","
","","[{""page_index"":0,""viewing_time"":3120.2999999970198}]","3120.3999999910593","","","","","","","","","","","","","","","","","","","","","","","",""
"pit-comprehension","110","786615","0.0-2.0-22.0-0.0","battery-v0.2","","""event"",""trial"",""time""
""fullscreenenter"",""1"",""2442""
","
","
","""event"",""trial"",""time""
""fullscreenenter"",""1"",""2442""
","
","","","6534.9000000059605","[""0""]","0","20","17289","4729","","","","","","","","","","","","","","","","","","",""
"pit-instructions","111","788324","0.0-2.0-22.0-1.0","battery-v0.2","","""event"",""trial"",""time""
""fullscreenenter"",""1"",""2442""
","
","
","""event"",""trial"",""time""
""fullscreenenter"",""1"",""2442""
","
","","[{""page_index"":0,""viewing_time"":1689.0999999940395}]","1689.2999999970198","","","","","","","","","","","","","","","","","","","","","","","",""
"pit-comprehension","112","798375","0.0-2.0-23.0-0.0","battery-v0.2","","""event"",""trial"",""time""
""fullscreenenter"",""1"",""2442""
","
","
","""event"",""trial"",""time""
""fullscreenenter"",""1"",""2442""
","
","","","10050.09999999404","[""True""]","0","20","17289","4729","","","","","","","","","","","","","","","","","","",""
"pit-instructions","113","799942","0.0-2.0-23.0-1.0","battery-v0.2","","""event"",""trial"",""time""
""fullscreenenter"",""1"",""2442""
","
","
","""event"",""trial"",""time""
""fullscreenenter"",""1"",""2442""
","
","","[{""page_index"":0,""viewing_time"":1547.7999999970198}]","1548","","","","","","","","","","","","","","","","","","","","","","","",""
"pit-comprehension","114","807478","0.0-2.0-24.0-0.0","battery-v0.2","","""event"",""trial"",""time""
""fullscreenenter"",""1"",""2442""
","
","
","""event"",""trial"",""time""
""fullscreenenter"",""1"",""2442""
","
","","","7534.20000000298","[""True""]","0","20","17289","4729","","","","","","","","","","","","","","","","","","",""
"pit-instructions","115","809262","0.0-2.0-24.0-1.0","battery-v0.2","","""event"",""trial"",""time""
""fullscreenenter"",""1"",""2442""
","
","
","""event"",""trial"",""time""
""fullscreenenter"",""1"",""2442""
","
","","[{""page_index"":0,""viewing_time"":1764.7999999970198}]","1765.1000000089407","","","","","","","","","","","","","","","","","","","","","","","",""
"pit-comprehension","116","815819","0.0-2.0-25.0-0.0","battery-v0.2","","""event"",""trial"",""time""
""fullscreenenter"",""1"",""2442""
","
","
","""event"",""trial"",""time""
""fullscreenenter"",""1"",""2442""
","
","","","6554.4000000059605","[""True""]","0","20","17289","4729","","","","","","","","","","","","","","","","","","",""
"pit-instructions","117","818510","0.0-2.0-25.0-1.0","battery-v0.2","","""event"",""trial"",""time""
""fullscreenenter"",""1"",""2442""
","
","
","""event"",""trial"",""time""
""fullscreenenter"",""1"",""2442""
","
","","[{""page_index"":0,""viewing_time"":2664.7000000029802}]","2664.8999999910593","","","","","","","","","","","","","","","","","","","","","","","",""
"pit-comprehension","118","826943","0.0-2.0-26.0-0.0","battery-v0.2","","""event"",""trial"",""time""
""fullscreenenter"",""1"",""2442""
","
","
","""event"",""trial"",""time""
""fullscreenenter"",""1"",""2442""
","
","","","8431","[""False""]","0","20","17289","4729","","","","","","","","","","","","","","","","","","",""
"pit-instructions","119","830378","0.0-2.0-26.0-1.0","battery-v0.2","","""event"",""trial"",""time""
""fullscreenenter"",""1"",""2442""
","
","
","""event"",""trial"",""time""
""fullscreenenter"",""1"",""2442""
","
","","[{""page_index"":0,""viewing_time"":3412.2999999970198}]","3412.5","","","","","","","","","","","","","","","","","","","","","","","",""
"pit-instructions","120","845327","0.0-3.0","battery-v0.2","","""event"",""trial"",""time""
""fullscreenenter"",""1"",""2442""
","
","
","""event"",""trial"",""time""
""fullscreenenter"",""1"",""2442""
","
","","[{""page_index"":0,""viewing_time"":3511.2999999970198},{""page_index"":1,""viewing_time"":5279.600000008941},{""page_index"":2,""viewing_time"":6156.20000000298}]","14947.40000000596","","","","","","","","","","","","","","","","","","","","","","","",""
"pit-trial","121","848893","0.0-4.0","battery-v0.2","","""event"",""trial"",""time""
""fullscreenenter"",""1"",""2442""
","
","
","""event"",""trial"",""time""
""fullscreenenter"",""1"",""2442""
","
","","","699.5999999940395","","","20","17289","4729","&#9752;","elianto","#f73b6a7A"," "," ","1","0","[1553]","1","1","","","17289","1","3","3","lose","go","0"
"pit-trial","122","852448","0.0-5.0","battery-v0.2","","""event"",""trial"",""time""
""fullscreenenter"",""1"",""2442""
","
","
","""event"",""trial"",""time""
""fullscreenenter"",""1"",""2442""
","
","","","697","","","20","17289","4729","&#9733;","elianto","#3366ff99","-1"," ","0","0","[1548.0999999940395]","1","1","","","17289","2","2","2","win","no-go","0"
"pit-trial","123","857316","0.0-6.0","battery-v0.2","","""event"",""trial"",""time""
""fullscreenenter"",""1"",""2442""
","
","
","""event"",""trial"",""time""
""fullscreenenter"",""1"",""2442""
","
","","","-1","","","20","17289","4729","&#9728;","elianto","#f73b6a7A","-1","-1","1","0","[]","0","1","","","17289","3","0","4","lose","no-go","0"
"pit-trial","124","860686","0.0-7.0","battery-v0.2","","""event"",""trial"",""time""
""fullscreenenter"",""1"",""2442""
","
","
","""event"",""trial"",""time""
""fullscreenenter"",""1"",""2442""
","
","","","495.90000000596046","","","20","17289","4729","&#9730;","elianto","#3366ff99"," "," ","1","+10","[1356.9000000059605]","1","1","","","17289","4","1","1","win","go","0"
"pit-trial","125","865562","0.0-8.0","battery-v0.2","","""event"",""trial"",""time""
""fullscreenenter"",""1"",""2442""
","
","
","""event"",""trial"",""time""
""fullscreenenter"",""1"",""2442""
","
","","","-1","","","20","17289","4729","&#9752;","elianto","#f73b6a7A"," ","-1","0","-10","[]","0","1","","","17289","5","3","3","lose","go","0"
"pit-trial","126","870427","0.0-9.0","battery-v0.2","","""event"",""trial"",""time""
""fullscreenenter"",""1"",""2442""
","
","
","""event"",""trial"",""time""
""fullscreenenter"",""1"",""2442""
","
","","","-1","","","20","17289","4729","&#9728;","elianto","#f73b6a7A","-1","-1","1","-10","[]","0","1","","","17289","6","0","4","lose","no-go","1"
"pit-trial","127","875299","0.0-10.0","battery-v0.2","","""event"",""trial"",""time""
""fullscreenenter"",""1"",""2442""
","
","
","""event"",""trial"",""time""
""fullscreenenter"",""1"",""2442""
","
","","","-1","","","20","17289","4729","&#9733;","elianto","#3366ff99","-1","-1","1","+10","[]","0","1","","","17289","7","2","2","win","no-go","0"
"pit-trial","128","878854","0.0-11.0","battery-v0.2","","""event"",""trial"",""time""
""fullscreenenter"",""1"",""2442""
","
","
","""event"",""trial"",""time""
""fullscreenenter"",""1"",""2442""
","
","","","691.7999999970198","","","20","17289","4729","&#9730;","elianto","#3366ff99"," "," ","1","0","[1552]","1","1","","","17289","8","1","1","win","go","1"
"pit-trial","129","883708","0.0-12.0","battery-v0.2","","""event"",""trial"",""time""
""fullscreenenter"",""1"",""2442""
","
","
","""event"",""trial"",""time""
""fullscreenenter"",""1"",""2442""
","
","","","-1","","","20","17289","4729","&#9733;","elianto","#3366ff99","-1","-1","1","+10","[]","0","1","","","17289","9","2","2","win","no-go","0"
"pit-trial","130","887512","0.0-13.0","battery-v0.2","","""event"",""trial"",""time""
""fullscreenenter"",""1"",""2442""
","
","
","""event"",""trial"",""time""
""fullscreenenter"",""1"",""2442""
","
","","","950.7999999970198","","","20","17289","4729","&#9728;","elianto","#f73b6a7A","-1"," ","0","-10","[1801.7000000029802]","1","1","","","17289","10","0","4","lose","no-go","0"
"pit-trial","131","890836","0.0-14.0","battery-v0.2","","""event"",""trial"",""time""
""fullscreenenter"",""1"",""2442""
","
","
","""event"",""trial"",""time""
""fullscreenenter"",""1"",""2442""
","
","","","470","","","20","17289","4729","&#9752;","elianto","#f73b6a7A"," "," ","1","0","[1322]","1","1","","","17289","11","3","3","lose","go","0"
"pit-trial","132","894422","0.0-15.0","battery-v0.2","","""event"",""trial"",""time""
""fullscreenenter"",""1"",""2442""
","
","
","""event"",""trial"",""time""
""fullscreenenter"",""1"",""2442""
","
","","","733.5","","","20","17289","4729","&#9730;","elianto","#3366ff99"," "," ","1","+10","[1584]","1","1","","","17289","12","1","1","win","go","0"
"pit-trial","133","899275","0.0-16.0","battery-v0.2","","""event"",""trial"",""time""
""fullscreenenter"",""1"",""2442""
","
","
","""event"",""trial"",""time""
""fullscreenenter"",""1"",""2442""
","
","","","-1","","","20","17289","4729","&#9733;","elianto","#3366ff99","-1","-1","1","+10","[]","0","1","","","17289","13","2","2","win","no-go","0"
"pit-trial","134","902885","0.0-17.0","battery-v0.2","","""event"",""trial"",""time""
""fullscreenenter"",""1"",""2442""
","
","
","""event"",""trial"",""time""
""fullscreenenter"",""1"",""2442""
","
","","","754.9000000059605","","","20","17289","4729","&#9730;","elianto","#3366ff99"," "," ","1","0","[1607]","1","1","","","17289","14","1","1","win","go","1"
"pit-trial","135","907196","0.0-18.0","battery-v0.2","","""event"",""trial"",""time""
""fullscreenenter"",""1"",""2442""
","
","
","""event"",""trial"",""time""
""fullscreenenter"",""1"",""2442""
","
","","","1456.6000000089407","","","20","17289","4729","&#9752;","elianto","#f73b6a7A"," "," ","1","0","[2307.7999999970198]","1","1","","","17289","15","3","3","lose","go","0"
"pit-trial","136","912049","0.0-19.0","battery-v0.2","","""event"",""trial"",""time""
""fullscreenenter"",""1"",""2442""
","
","
","""event"",""trial"",""time""
""fullscreenenter"",""1"",""2442""
","
","","","-1","","","20","17289","4729","&#9728;","elianto","#f73b6a7A","-1","-1","1","0","[]","0","1","","","17289","16","0","4","lose","no-go","0"
"pit-trial","137","916003","0.0-20.0","battery-v0.2","","""event"",""trial"",""time""
""fullscreenenter"",""1"",""2442""
","
","
","""event"",""trial"",""time""
""fullscreenenter"",""1"",""2442""
","
","","","1101","","","20","17289","4729","&#9752;","elianto","#f73b6a7A"," "," ","1","0","[1952.2999999970198]","1","1","","","17289","17","3","3","lose","go","0"
"pit-trial","138","919626","0.0-21.0","battery-v0.2","","""event"",""trial"",""time""
""fullscreenenter"",""1"",""2442""
","
","
","""event"",""trial"",""time""
""fullscreenenter"",""1"",""2442""
","
","","","769.1000000089407","","","20","17289","4729","&#9730;","elianto","#3366ff99"," "," ","1","+10","[1620.4000000059605]","1","1","","","17289","18","1","1","win","go","0"
"pit-trial","139","924479","0.0-22.0","battery-v0.2","","""event"",""trial"",""time""
""fullscreenenter"",""1"",""2442""
","
","
","""event"",""trial"",""time""
""fullscreenenter"",""1"",""2442""
","
","","","-1","","","20","17289","4729","&#9733;","elianto","#3366ff99","-1","-1","1","0","[]","0","1","","","17289","19","2","2","win","no-go","1"
"pit-trial","140","929336","0.0-23.0","battery-v0.2","","""event"",""trial"",""time""
""fullscreenenter"",""1"",""2442""
","
","
","""event"",""trial"",""time""
""fullscreenenter"",""1"",""2442""
","
","","","-1","","","20","17289","4729","&#9728;","elianto","#f73b6a7A","-1","-1","1","0","[]","0","1","","","17289","20","0","4","lose","no-go","0"
"pit-instructions","141","941883","0.0-24.0","battery-v0.2","","""event"",""trial"",""time""
""fullscreenenter"",""1"",""2442""
","
","
","""event"",""trial"",""time""
""fullscreenenter"",""1"",""2442""
","
","","[{""page_index"":0,""viewing_time"":6333.0999999940395},{""page_index"":1,""viewing_time"":6212.5}]","12545.79999999702","","","","","","","","","","","","","","","","","","","","","","","",""
"pit-trial","142","945587","0.0-25.0","battery-v0.2","","""event"",""trial"",""time""
""fullscreenenter"",""1"",""2442""
","
","
","""event"",""trial"",""time""
""fullscreenenter"",""1"",""2442""
","
","","","836.5999999940395","","","20","17289","4729","f","elianto","#3366ff99","-1"," ","0","0","[1688]","1","2","","","17289","21","1","2","win","no-go","0"
"pit-trial","143","949446","0.0-26.0","battery-v0.2","","""event"",""trial"",""time""
""fullscreenenter"",""1"",""2442""
","
","
","""event"",""trial"",""time""
""fullscreenenter"",""1"",""2442""
","
","","","1001.7999999970198","","","20","17289","4729","t","elianto","#f73b6a7A"," "," ","1","0","[1853.5]","1","2","","","17289","22","2","3","lose","go","0"
"pit-trial","144","954315","0.0-27.0","battery-v0.2","","""event"",""trial"",""time""
""fullscreenenter"",""1"",""2442""
","
","
","""event"",""trial"",""time""
""fullscreenenter"",""1"",""2442""
","
","","","-1","","","20","17289","4729","n","elianto","#f73b6a7A"," ","-1","0","-10","[]","0","2","","","17289","23","0","3","lose","go","0"
"pit-trial","145","959190","0.0-28.0","battery-v0.2","","""event"",""trial"",""time""
""fullscreenenter"",""1"",""2442""
","
","
","""event"",""trial"",""time""
""fullscreenenter"",""1"",""2442""
","
","","","-1","","","20","17289","4729","b","elianto","#f73b6a7A","-1","-1","1","0","[]","0","2","","","17289","24","3","4","lose","no-go","0"
"pit-trial","146","963595","0.0-29.0","battery-v0.2","","""event"",""trial"",""time""
""fullscreenenter"",""1"",""2442""
","
","
","""event"",""trial"",""time""
""fullscreenenter"",""1"",""2442""
","
","","","1542.9000000059605","","","20","17289","4729","t","elianto","#f73b6a7A"," "," ","1","0","[2393.2000000029802]","1","2","","","17289","25","2","3","lose","go","0"
"pit-trial","147","968044","0.0-30.0","battery-v0.2","","""event"",""trial"",""time""
""fullscreenenter"",""1"",""2442""
","
","
","""event"",""trial"",""time""
""fullscreenenter"",""1"",""2442""
","
","","","1583","","","20","17289","4729","b","elianto","#f73b6a7A","-1"," ","0","0","[2437.2000000029802]","1","2","","","17289","26","3","4","lose","no-go","1"
"pit-trial","148","972301","0.0-31.0","battery-v0.2","","""event"",""trial"",""time""
""fullscreenenter"",""1"",""2442""
","
","
","""event"",""trial"",""time""
""fullscreenenter"",""1"",""2442""
","
","","","1397.3999999910593","","","20","17289","4729","n","elianto","#f73b6a7A"," "," ","1","0","[2248.2000000029802]","1","2","","","17289","27","0","3","lose","go","0"
"pit-trial","149","975907","0.0-32.0","battery-v0.2","","""event"",""trial"",""time""
""fullscreenenter"",""1"",""2442""
","
","
","""event"",""trial"",""time""
""fullscreenenter"",""1"",""2442""
","
","","","751","","","20","17289","4729","f","elianto","#3366ff99","-1"," ","0","+10","[1602.4000000059605]","1","2","","","17289","28","1","2","win","no-go","1"
"pit-trial","150","979547","0.0-33.0","battery-v0.2","","""event"",""trial"",""time""
""fullscreenenter"",""1"",""2442""
","
","
","""event"",""trial"",""time""
""fullscreenenter"",""1"",""2442""
","
","","","787.7999999970198","","","20","17289","4729","t","elianto","#f73b6a7A"," "," ","1","0","[1638.6000000089407]","1","2","","","17289","29","2","3","lose","go","0"
"pit-trial","151","984399","0.0-34.0","battery-v0.2","","""event"",""trial"",""time""
""fullscreenenter"",""1"",""2442""
","
","
","""event"",""trial"",""time""
""fullscreenenter"",""1"",""2442""
","
","","","-1","","","20","17289","4729","n","elianto","#f73b6a7A"," ","-1","0","0","[]","0","2","","","17289","30","0","3","lose","go","1"
"pit-trial","152","988060","0.0-35.0","battery-v0.2","","""event"",""trial"",""time""
""fullscreenenter"",""1"",""2442""
","
","
","""event"",""trial"",""time""
""fullscreenenter"",""1"",""2442""
","
","","","806.8999999910593","","","20","17289","4729","b","elianto","#f73b6a7A","-1"," ","0","-10","[1658.6000000089407]","1","2","","","17289","31","3","4","lose","no-go","0"
"pit-trial","153","991660","0.0-36.0","battery-v0.2","","""event"",""trial"",""time""
""fullscreenenter"",""1"",""2442""
","
","
","""event"",""trial"",""time""
""fullscreenenter"",""1"",""2442""
","
","","","745.6000000089407","","","20","17289","4729","f","elianto","#3366ff99","-1"," ","0","0","[1596.2000000029802]","1","2","","","17289","32","1","2","win","no-go","0"
"pit-trial","154","995179","0.0-37.0","battery-v0.2","","""event"",""trial"",""time""
""fullscreenenter"",""1"",""2442""
","
","
","""event"",""trial"",""time""
""fullscreenenter"",""1"",""2442""
","
","","","667.6000000089407","","","20","17289","4729","f","elianto","#3366ff99","-1"," ","0","0","[1517.7000000029802]","1","2","","","17289","33","1","2","win","no-go","0"
"pit-trial","155","1000032","0.0-38.0","battery-v0.2","","""event"",""trial"",""time""
""fullscreenenter"",""1"",""2442""
","
","
","""event"",""trial"",""time""
""fullscreenenter"",""1"",""2442""
","
","","","-1","","","20","17289","4729","b","elianto","#f73b6a7A","-1","-1","1","0","[]","0","2","","","17289","34","3","4","lose","no-go","0"
"pit-trial","156","1004886","0.0-39.0","battery-v0.2","","""event"",""trial"",""time""
""fullscreenenter"",""1"",""2442""
""blur"",""157"",""1008992""
","""event"",""trial"",""time""
""blur"",""157"",""1008992""
","
","""event"",""trial"",""time""
""fullscreenenter"",""1"",""2442""
","
","","","-1","","","20","17289","4729","n","elianto","#f73b6a7A"," ","-1","0","-10","[]","0","2","","","17289","35","0","3","lose","go","0"
"pit-trial","157","1097406","0.0-40.0","battery-v0.2","","""event"",""trial"",""time""
""fullscreenenter"",""1"",""2442""
""blur"",""157"",""1008992""
""focus"",""158"",""1099615""
","""event"",""trial"",""time""
""blur"",""157"",""1008992""
","""event"",""trial"",""time""
""focus"",""158"",""1099615""
","""event"",""trial"",""time""
""fullscreenenter"",""1"",""2442""
","
","","","-1","","","20","17289","4729","t","elianto","#f73b6a7A"," ","-1","0","-10","[]","0","2","","","17289","36","2","3","lose","go","0"
"pit-trial","158","1102258","0.0-41.0","battery-v0.2","","""event"",""trial"",""time""
""fullscreenenter"",""1"",""2442""
""blur"",""157"",""1008992""
""focus"",""158"",""1099615""
","""event"",""trial"",""time""
""blur"",""157"",""1008992""
","""event"",""trial"",""time""
""focus"",""158"",""1099615""
","""event"",""trial"",""time""
""fullscreenenter"",""1"",""2442""
","
","","","-1","","","20","17289","4729","n","elianto","#f73b6a7A"," ","-1","0","-10","[]","0","2","","","17289","37","0","3","lose","go","0"
"pit-trial","159","1105716","0.0-42.0","battery-v0.2","","""event"",""trial"",""time""
""fullscreenenter"",""1"",""2442""
""blur"",""157"",""1008992""
""focus"",""158"",""1099615""
","""event"",""trial"",""time""
""blur"",""157"",""1008992""
","""event"",""trial"",""time""
""focus"",""158"",""1099615""
","""event"",""trial"",""time""
""fullscreenenter"",""1"",""2442""
","
","","","605.2999999970198","","","20","17289","4729","b","elianto","#f73b6a7A","-1"," ","0","-10","[1455.5]","1","2","","","17289","38","3","4","lose","no-go","0"
"pit-trial","160","1109806","0.0-43.0","battery-v0.2","","""event"",""trial"",""time""
""fullscreenenter"",""1"",""2442""
""blur"",""157"",""1008992""
""focus"",""158"",""1099615""
","""event"",""trial"",""time""
""blur"",""157"",""1008992""
","""event"",""trial"",""time""
""focus"",""158"",""1099615""
","""event"",""trial"",""time""
""fullscreenenter"",""1"",""2442""
","
","","","1237.1000000089407","","","20","17289","4729","f","elianto","#3366ff99","-1"," ","0","0","[2087.6000000089407]","1","2","","","17289","39","1","2","win","no-go","0"
"pit-trial","161","1113547","0.0-44.0","battery-v0.2","","""event"",""trial"",""time""
""fullscreenenter"",""1"",""2442""
""blur"",""157"",""1008992""
""focus"",""158"",""1099615""
","""event"",""trial"",""time""
""blur"",""157"",""1008992""
","""event"",""trial"",""time""
""focus"",""158"",""1099615""
","""event"",""trial"",""time""
""fullscreenenter"",""1"",""2442""
","
","","","887.5","","","20","17289","4729","t","elianto","#f73b6a7A"," "," ","1","-10","[1739.0999999940395]","1","2","","","17289","40","2","3","lose","go","1"
"pit-trial","162","1117134","0.0-45.0","battery-v0.2","","""event"",""trial"",""time""
""fullscreenenter"",""1"",""2442""
""blur"",""157"",""1008992""
""focus"",""158"",""1099615""
","""event"",""trial"",""time""
""blur"",""157"",""1008992""
","""event"",""trial"",""time""
""focus"",""158"",""1099615""
","""event"",""trial"",""time""
""fullscreenenter"",""1"",""2442""
","
","","","732.0999999940395","","","20","17289","4729","t","elianto","#f73b6a7A"," "," ","1","0","[1583.5999999940395]","1","2","","","17289","41","2","3","lose","go","0"
"pit-trial","163","1120768","0.0-46.0","battery-v0.2","","""event"",""trial"",""time""
""fullscreenenter"",""1"",""2442""
""blur"",""157"",""1008992""
""focus"",""158"",""1099615""
","""event"",""trial"",""time""
""blur"",""157"",""1008992""
","""event"",""trial"",""time""
""focus"",""158"",""1099615""
","""event"",""trial"",""time""
""fullscreenenter"",""1"",""2442""
","
","","","782.2999999970198","","","20","17289","4729","f","elianto","#3366ff99","-1"," ","0","0","[1632.5]","1","2","","","17289","42","1","2","win","no-go","0"
"pit-trial","164","1125622","0.0-47.0","battery-v0.2","","""event"",""trial"",""time""
""fullscreenenter"",""1"",""2442""
""blur"",""157"",""1008992""
""focus"",""158"",""1099615""
","""event"",""trial"",""time""
""blur"",""157"",""1008992""
","""event"",""trial"",""time""
""focus"",""158"",""1099615""
","""event"",""trial"",""time""
""fullscreenenter"",""1"",""2442""
","
","","","-1","","","20","17289","4729","n","elianto","#f73b6a7A"," ","-1","0","-10","[]","0","2","","","17289","43","0","3","lose","go","0"
"pit-trial","165","1130475","0.0-48.0","battery-v0.2","","""event"",""trial"",""time""
""fullscreenenter"",""1"",""2442""
""blur"",""157"",""1008992""
""focus"",""158"",""1099615""
","""event"",""trial"",""time""
""blur"",""157"",""1008992""
","""event"",""trial"",""time""
""focus"",""158"",""1099615""
","""event"",""trial"",""time""
""fullscreenenter"",""1"",""2442""
","
","","","-1","","","20","17289","4729","b","elianto","#f73b6a7A","-1","-1","1","-10","[]","0","2","","","17289","44","3","4","lose","no-go","1"
"pit-trial","166","1135329","0.0-49.0","battery-v0.2","","""event"",""trial"",""time""
""fullscreenenter"",""1"",""2442""
""blur"",""157"",""1008992""
""focus"",""158"",""1099615""
","""event"",""trial"",""time""
""blur"",""157"",""1008992""
","""event"",""trial"",""time""
""focus"",""158"",""1099615""
","""event"",""trial"",""time""
""fullscreenenter"",""1"",""2442""
","
","","","-1","","","20","17289","4729","n","elianto","#f73b6a7A"," ","-1","0","-10","[]","0","2","","","17289","45","0","3","lose","go","0"
"pit-trial","167","1138934","0.0-50.0","battery-v0.2","","""event"",""trial"",""time""
""fullscreenenter"",""1"",""2442""
""blur"",""157"",""1008992""
""focus"",""158"",""1099615""
","""event"",""trial"",""time""
""blur"",""157"",""1008992""
","""event"",""trial"",""time""
""focus"",""158"",""1099615""
","""event"",""trial"",""time""
""fullscreenenter"",""1"",""2442""
","
","","","751","","","20","17289","4729","f","elianto","#3366ff99","-1"," ","0","0","[1603]","1","2","","","17289","46","1","2","win","no-go","0"
"pit-trial","168","1143787","0.0-51.0","battery-v0.2","","""event"",""trial"",""time""
""fullscreenenter"",""1"",""2442""
""blur"",""157"",""1008992""
""focus"",""158"",""1099615""
","""event"",""trial"",""time""
""blur"",""157"",""1008992""
","""event"",""trial"",""time""
""focus"",""158"",""1099615""
","""event"",""trial"",""time""
""fullscreenenter"",""1"",""2442""
","
","","","-1","","","20","17289","4729","b","elianto","#f73b6a7A","-1","-1","1","0","[]","0","2","","","17289","47","3","4","lose","no-go","0"
"pit-trial","169","1148641","0.0-52.0","battery-v0.2","","""event"",""trial"",""time""
""fullscreenenter"",""1"",""2442""
""blur"",""157"",""1008992""
""focus"",""158"",""1099615""
","""event"",""trial"",""time""
""blur"",""157"",""1008992""
","""event"",""trial"",""time""
""focus"",""158"",""1099615""
","""event"",""trial"",""time""
""fullscreenenter"",""1"",""2442""
","
","","","-1","","","20","17289","4729","t","elianto","#f73b6a7A"," ","-1","0","-10","[4143.70000000298]","1","2","","","17289","48","2","3","lose","go","0"
"pit-trial","170","1151736","0.0-53.0","battery-v0.2","","""event"",""trial"",""time""
""fullscreenenter"",""1"",""2442""
""blur"",""157"",""1008992""
""focus"",""158"",""1099615""
""blur"",""171"",""1212598""
""focus"",""171"",""1213880""
","""event"",""trial"",""time""
""blur"",""157"",""1008992""
""blur"",""171"",""1212598""
","""event"",""trial"",""time""
""focus"",""158"",""1099615""
""focus"",""171"",""1213880""
","""event"",""trial"",""time""
""fullscreenenter"",""1"",""2442""
","
","","","241.70000000298023","","","20","17289","4729","f","elianto","#3366ff99","-1"," ","0","0","[1092.5]","1","2","","","17289","49","1","2","win","no-go","0"
"pit-trial","171","1214603","0.0-54.0","battery-v0.2","","""event"",""trial"",""time""
""fullscreenenter"",""1"",""2442""
""blur"",""157"",""1008992""
""focus"",""158"",""1099615""
""blur"",""171"",""1212598""
""focus"",""171"",""1213880""
","""event"",""trial"",""time""
""blur"",""157"",""1008992""
""blur"",""171"",""1212598""
","""event"",""trial"",""time""
""focus"",""158"",""1099615""
""focus"",""171"",""1213880""
","""event"",""trial"",""time""
""fullscreenenter"",""1"",""2442""
","
","","","-1","","","20","17289","4729","t","elianto","#f73b6a7A"," ","-1","0","-10","[]","0","2","","","17289","50","2","3","lose","go","0"
"pit-trial","172","1218691","0.0-55.0","battery-v0.2","","""event"",""trial"",""time""
""fullscreenenter"",""1"",""2442""
""blur"",""157"",""1008992""
""focus"",""158"",""1099615""
""blur"",""171"",""1212598""
""focus"",""171"",""1213880""
","""event"",""trial"",""time""
""blur"",""157"",""1008992""
""blur"",""171"",""1212598""
","""event"",""trial"",""time""
""focus"",""158"",""1099615""
""focus"",""171"",""1213880""
","""event"",""trial"",""time""
""fullscreenenter"",""1"",""2442""
","
","","","1236","","","20","17289","4729","n","elianto","#f73b6a7A"," "," ","1","-10","[2086]","1","2","","","17289","51","0","3","lose","go","1"
"pit-trial","173","1223545","0.0-56.0","battery-v0.2","","""event"",""trial"",""time""
""fullscreenenter"",""1"",""2442""
""blur"",""157"",""1008992""
""focus"",""158"",""1099615""
""blur"",""171"",""1212598""
""focus"",""171"",""1213880""
","""event"",""trial"",""time""
""blur"",""157"",""1008992""
""blur"",""171"",""1212598""
","""event"",""trial"",""time""
""focus"",""158"",""1099615""
""focus"",""171"",""1213880""
","""event"",""trial"",""time""
""fullscreenenter"",""1"",""2442""
","
","","","-1","","","20","17289","4729","b","elianto","#f73b6a7A","-1","-1","1","0","[]","0","2","","","17289","52","3","4","lose","no-go","0"
"pit-trial","174","1228399","0.0-57.0","battery-v0.2","","""event"",""trial"",""time""
""fullscreenenter"",""1"",""2442""
""blur"",""157"",""1008992""
""focus"",""158"",""1099615""
""blur"",""171"",""1212598""
""focus"",""171"",""1213880""
","""event"",""trial"",""time""
""blur"",""157"",""1008992""
""blur"",""171"",""1212598""
","""event"",""trial"",""time""
""focus"",""158"",""1099615""
""focus"",""171"",""1213880""
","""event"",""trial"",""time""
""fullscreenenter"",""1"",""2442""
","
","","","-1","","","20","17289","4729","n","elianto","#f73b6a7A"," ","-1","0","-10","[]","0","2","","","17289","53","0","3","lose","go","0"
"pit-trial","175","1232045","0.0-58.0","battery-v0.2","","""event"",""trial"",""time""
""fullscreenenter"",""1"",""2442""
""blur"",""157"",""1008992""
""focus"",""158"",""1099615""
""blur"",""171"",""1212598""
""focus"",""171"",""1213880""
","""event"",""trial"",""time""
""blur"",""157"",""1008992""
""blur"",""171"",""1212598""
","""event"",""trial"",""time""
""focus"",""158"",""1099615""
""focus"",""171"",""1213880""
","""event"",""trial"",""time""
""fullscreenenter"",""1"",""2442""
","
","","","793.6000000089407","","","20","17289","4729","f","elianto","#3366ff99","-1"," ","0","+10","[1644.1000000089407]","1","2","","","17289","54","1","2","win","no-go","1"
"pit-trial","176","1236899","0.0-59.0","battery-v0.2","","""event"",""trial"",""time""
""fullscreenenter"",""1"",""2442""
""blur"",""157"",""1008992""
""focus"",""158"",""1099615""
""blur"",""171"",""1212598""
""focus"",""171"",""1213880""
","""event"",""trial"",""time""
""blur"",""157"",""1008992""
""blur"",""171"",""1212598""
","""event"",""trial"",""time""
""focus"",""158"",""1099615""
""focus"",""171"",""1213880""
","""event"",""trial"",""time""
""fullscreenenter"",""1"",""2442""
","
","","","-1","","","20","17289","4729","b","elianto","#f73b6a7A","-1","-1","1","0","[]","0","2","","","17289","55","3","4","lose","no-go","0"
"pit-trial","177","1240693","0.0-60.0","battery-v0.2","","""event"",""trial"",""time""
""fullscreenenter"",""1"",""2442""
""blur"",""157"",""1008992""
""focus"",""158"",""1099615""
""blur"",""171"",""1212598""
""focus"",""171"",""1213880""
","""event"",""trial"",""time""
""blur"",""157"",""1008992""
""blur"",""171"",""1212598""
","""event"",""trial"",""time""
""focus"",""158"",""1099615""
""focus"",""171"",""1213880""
","""event"",""trial"",""time""
""fullscreenenter"",""1"",""2442""
","
","","","940.2000000029802","","","20","17289","4729","t","elianto","#f73b6a7A"," "," ","1","0","[1790.4000000059605]","1","2","","","17289","56","2","3","lose","go","0"
"pit-trial","178","1244491","0.0-61.0","battery-v0.2","","""event"",""trial"",""time""
""fullscreenenter"",""1"",""2442""
""blur"",""157"",""1008992""
""focus"",""158"",""1099615""
""blur"",""171"",""1212598""
""focus"",""171"",""1213880""
","""event"",""trial"",""time""
""blur"",""157"",""1008992""
""blur"",""171"",""1212598""
","""event"",""trial"",""time""
""focus"",""158"",""1099615""
""focus"",""171"",""1213880""
","""event"",""trial"",""time""
""fullscreenenter"",""1"",""2442""
","
","","","944.2999999970198","","","20","17289","4729","t","elianto","#f73b6a7A"," "," ","1","-10","[1795.7000000029802]","1","2","","","17289","57","2","3","lose","go","1"
"pit-trial","179","1248013","0.0-62.0","battery-v0.2","","""event"",""trial"",""time""
""fullscreenenter"",""1"",""2442""
""blur"",""157"",""1008992""
""focus"",""158"",""1099615""
""blur"",""171"",""1212598""
""focus"",""171"",""1213880""
","""event"",""trial"",""time""
""blur"",""157"",""1008992""
""blur"",""171"",""1212598""
","""event"",""trial"",""time""
""focus"",""158"",""1099615""
""focus"",""171"",""1213880""
","""event"",""trial"",""time""
""fullscreenenter"",""1"",""2442""
","
","","","669.5","","","20","17289","4729","n","elianto","#f73b6a7A"," "," ","1","0","[1520.0999999940395]","1","2","","","17289","58","0","3","lose","go","0"
"pit-trial","180","1252865","0.0-63.0","battery-v0.2","","""event"",""trial"",""time""
""fullscreenenter"",""1"",""2442""
""blur"",""157"",""1008992""
""focus"",""158"",""1099615""
""blur"",""171"",""1212598""
""focus"",""171"",""1213880""
","""event"",""trial"",""time""
""blur"",""157"",""1008992""
""blur"",""171"",""1212598""
","""event"",""trial"",""time""
""focus"",""158"",""1099615""
""focus"",""171"",""1213880""
","""event"",""trial"",""time""
""fullscreenenter"",""1"",""2442""
","
","","","-1","","","20","17289","4729","b","elianto","#f73b6a7A","-1","-1","1","0","[]","0","2","","","17289","59","3","4","lose","no-go","0"
"pit-trial","181","1256461","0.0-64.0","battery-v0.2","","""event"",""trial"",""time""
""fullscreenenter"",""1"",""2442""
""blur"",""157"",""1008992""
""focus"",""158"",""1099615""
""blur"",""171"",""1212598""
""focus"",""171"",""1213880""
","""event"",""trial"",""time""
""blur"",""157"",""1008992""
""blur"",""171"",""1212598""
","""event"",""trial"",""time""
""focus"",""158"",""1099615""
""focus"",""171"",""1213880""
","""event"",""trial"",""time""
""fullscreenenter"",""1"",""2442""
","
","","","742.8999999910593","","","20","17289","4729","c","elianto","#3366ff99"," "," ","1","+10","[1593.699999988079]","1","2","","","17289","60","4","1","win","go","0"
"pit-trial","182","1260040","0.0-65.0","battery-v0.2","","""event"",""trial"",""time""
""fullscreenenter"",""1"",""2442""
""blur"",""157"",""1008992""
""focus"",""158"",""1099615""
""blur"",""171"",""1212598""
""focus"",""171"",""1213880""
","""event"",""trial"",""time""
""blur"",""157"",""1008992""
""blur"",""171"",""1212598""
","""event"",""trial"",""time""
""focus"",""158"",""1099615""
""focus"",""171"",""1213880""
","""event"",""trial"",""time""
""fullscreenenter"",""1"",""2442""
","
","","","724.3999999910593","","","20","17289","4729","f","elianto","#3366ff99","-1"," ","0","0","[1575.0999999940395]","1","2","","","17289","61","1","2","win","no-go","0"
"pit-trial","183","1263515","0.0-66.0","battery-v0.2","","""event"",""trial"",""time""
""fullscreenenter"",""1"",""2442""
""blur"",""157"",""1008992""
""focus"",""158"",""1099615""
""blur"",""171"",""1212598""
""focus"",""171"",""1213880""
","""event"",""trial"",""time""
""blur"",""157"",""1008992""
""blur"",""171"",""1212598""
","""event"",""trial"",""time""
""focus"",""158"",""1099615""
""focus"",""171"",""1213880""
","""event"",""trial"",""time""
""fullscreenenter"",""1"",""2442""
","
","","","622.9000000059605","","","20","17289","4729","c","elianto","#3366ff99"," "," ","1","+10","[1473.2000000029802]","1","2","","","17289","62","4","1","win","go","0"
"pit-trial","184","1268368","0.0-67.0","battery-v0.2","","""event"",""trial"",""time""
""fullscreenenter"",""1"",""2442""
""blur"",""157"",""1008992""
""focus"",""158"",""1099615""
""blur"",""171"",""1212598""
""focus"",""171"",""1213880""
","""event"",""trial"",""time""
""blur"",""157"",""1008992""
""blur"",""171"",""1212598""
","""event"",""trial"",""time""
""focus"",""158"",""1099615""
""focus"",""171"",""1213880""
","""event"",""trial"",""time""
""fullscreenenter"",""1"",""2442""
","
","","","-1","","","20","17289","4729","t","elianto","#f73b6a7A"," ","-1","0","-10","[]","0","2","","","17289","63","2","3","lose","go","0"
"pit-trial","185","1273222","0.0-68.0","battery-v0.2","","""event"",""trial"",""time""
""fullscreenenter"",""1"",""2442""
""blur"",""157"",""1008992""
""focus"",""158"",""1099615""
""blur"",""171"",""1212598""
""focus"",""171"",""1213880""
","""event"",""trial"",""time""
""blur"",""157"",""1008992""
""blur"",""171"",""1212598""
","""event"",""trial"",""time""
""focus"",""158"",""1099615""
""focus"",""171"",""1213880""
","""event"",""trial"",""time""
""fullscreenenter"",""1"",""2442""
","
","","","-1","","","20","17289","4729","b","elianto","#f73b6a7A","-1","-1","1","0","[]","0","2","","","17289","64","3","4","lose","no-go","0"
"pit-trial","186","1276667","0.0-69.0","battery-v0.2","","""event"",""trial"",""time""
""fullscreenenter"",""1"",""2442""
""blur"",""157"",""1008992""
""focus"",""158"",""1099615""
""blur"",""171"",""1212598""
""focus"",""171"",""1213880""
","""event"",""trial"",""time""
""blur"",""157"",""1008992""
""blur"",""171"",""1212598""
","""event"",""trial"",""time""
""focus"",""158"",""1099615""
""focus"",""171"",""1213880""
","""event"",""trial"",""time""
""fullscreenenter"",""1"",""2442""
","
","","","592.2999999970198","","","20","17289","4729","c","elianto","#3366ff99"," "," ","1","+10","[1442.7000000029802]","1","2","","","17289","65","4","1","win","go","0"
"pit-trial","187","1280872","0.0-70.0","battery-v0.2","","""event"",""trial"",""time""
""fullscreenenter"",""1"",""2442""
""blur"",""157"",""1008992""
""focus"",""158"",""1099615""
""blur"",""171"",""1212598""
""focus"",""171"",""1213880""
","""event"",""trial"",""time""
""blur"",""157"",""1008992""
""blur"",""171"",""1212598""
","""event"",""trial"",""time""
""focus"",""158"",""1099615""
""focus"",""171"",""1213880""
","""event"",""trial"",""time""
""fullscreenenter"",""1"",""2442""
","
","","","1352","","","20","17289","4729","f","elianto","#3366ff99","-1"," ","0","0","[2202.8999999910593]","1","2","","","17289","66","1","2","win","no-go","0"
"pit-trial","188","1284530","0.0-71.0","battery-v0.2","","""event"",""trial"",""time""
""fullscreenenter"",""1"",""2442""
""blur"",""157"",""1008992""
""focus"",""158"",""1099615""
""blur"",""171"",""1212598""
""focus"",""171"",""1213880""
","""event"",""trial"",""time""
""blur"",""157"",""1008992""
""blur"",""171"",""1212598""
","""event"",""trial"",""time""
""focus"",""158"",""1099615""
""focus"",""171"",""1213880""
","""event"",""trial"",""time""
""fullscreenenter"",""1"",""2442""
","
","","","804.8999999910593","","","20","17289","4729","z","elianto","#3366ff99","-1"," ","0","0","[1655.8999999910593]","1","2","","","17289","67","5","2","win","no-go","0"
"pit-trial","189","1289383","0.0-72.0","battery-v0.2","","""event"",""trial"",""time""
""fullscreenenter"",""1"",""2442""
""blur"",""157"",""1008992""
""focus"",""158"",""1099615""
""blur"",""171"",""1212598""
""focus"",""171"",""1213880""
","""event"",""trial"",""time""
""blur"",""157"",""1008992""
""blur"",""171"",""1212598""
","""event"",""trial"",""time""
""focus"",""158"",""1099615""
""focus"",""171"",""1213880""
","""event"",""trial"",""time""
""fullscreenenter"",""1"",""2442""
","
","","","-1","","","20","17289","4729","b","elianto","#f73b6a7A","-1","-1","1","0","[]","0","2","","","17289","68","3","4","lose","no-go","0"
"pit-trial","190","1294236","0.0-73.0","battery-v0.2","","""event"",""trial"",""time""
""fullscreenenter"",""1"",""2442""
""blur"",""157"",""1008992""
""focus"",""158"",""1099615""
""blur"",""171"",""1212598""
""focus"",""171"",""1213880""
","""event"",""trial"",""time""
""blur"",""157"",""1008992""
""blur"",""171"",""1212598""
","""event"",""trial"",""time""
""focus"",""158"",""1099615""
""focus"",""171"",""1213880""
","""event"",""trial"",""time""
""fullscreenenter"",""1"",""2442""
","
","","","-1","","","20","17289","4729","f","elianto","#3366ff99","-1","-1","1","+10","[]","0","2","","","17289","69","1","2","win","no-go","0"
"pit-trial","191","1298026","0.0-74.0","battery-v0.2","","""event"",""trial"",""time""
""fullscreenenter"",""1"",""2442""
""blur"",""157"",""1008992""
""focus"",""158"",""1099615""
""blur"",""171"",""1212598""
""focus"",""171"",""1213880""
","""event"",""trial"",""time""
""blur"",""157"",""1008992""
""blur"",""171"",""1212598""
","""event"",""trial"",""time""
""focus"",""158"",""1099615""
""focus"",""171"",""1213880""
","""event"",""trial"",""time""
""fullscreenenter"",""1"",""2442""
","
","","","936.5","","","20","17289","4729","c","elianto","#3366ff99"," "," ","1","+10","[1786.7999999970198]","1","2","","","17289","70","4","1","win","go","0"
"pit-trial","192","1302134","0.0-75.0","battery-v0.2","","""event"",""trial"",""time""
""fullscreenenter"",""1"",""2442""
""blur"",""157"",""1008992""
""focus"",""158"",""1099615""
""blur"",""171"",""1212598""
""focus"",""171"",""1213880""
","""event"",""trial"",""time""
""blur"",""157"",""1008992""
""blur"",""171"",""1212598""
","""event"",""trial"",""time""
""focus"",""158"",""1099615""
""focus"",""171"",""1213880""
","""event"",""trial"",""time""
""fullscreenenter"",""1"",""2442""
","
","","","1254.7000000029802","","","20","17289","4729","t","elianto","#f73b6a7A"," "," ","1","-10","[2106.4000000059605]","1","2","","","17289","71","2","3","lose","go","1"
"pit-trial","193","1305702","0.0-76.0","battery-v0.2","","""event"",""trial"",""time""
""fullscreenenter"",""1"",""2442""
""blur"",""157"",""1008992""
""focus"",""158"",""1099615""
""blur"",""171"",""1212598""
""focus"",""171"",""1213880""
","""event"",""trial"",""time""
""blur"",""157"",""1008992""
""blur"",""171"",""1212598""
","""event"",""trial"",""time""
""focus"",""158"",""1099615""
""focus"",""171"",""1213880""
","""event"",""trial"",""time""
""fullscreenenter"",""1"",""2442""
","
","","","714.3999999910593","","","20","17289","4729","z","elianto","#3366ff99","-1"," ","0","0","[1565]","1","2","","","17289","72","5","2","win","no-go","0"
"pit-trial","194","1309270","0.0-77.0","battery-v0.2","","""event"",""trial"",""time""
""fullscreenenter"",""1"",""2442""
""blur"",""157"",""1008992""
""focus"",""158"",""1099615""
""blur"",""171"",""1212598""
""focus"",""171"",""1213880""
","""event"",""trial"",""time""
""blur"",""157"",""1008992""
""blur"",""171"",""1212598""
","""event"",""trial"",""time""
""focus"",""158"",""1099615""
""focus"",""171"",""1213880""
","""event"",""trial"",""time""
""fullscreenenter"",""1"",""2442""
","
","","","715.5","","","20","17289","4729","f","elianto","#3366ff99","-1"," ","0","+10","[1566.7000000029802]","1","2","","","17289","73","1","2","win","no-go","1"
"pit-trial","195","1314124","0.0-78.0","battery-v0.2","","""event"",""trial"",""time""
""fullscreenenter"",""1"",""2442""
""blur"",""157"",""1008992""
""focus"",""158"",""1099615""
""blur"",""171"",""1212598""
""focus"",""171"",""1213880""
","""event"",""trial"",""time""
""blur"",""157"",""1008992""
""blur"",""171"",""1212598""
","""event"",""trial"",""time""
""focus"",""158"",""1099615""
""focus"",""171"",""1213880""
","""event"",""trial"",""time""
""fullscreenenter"",""1"",""2442""
","
","","","-1","","","20","17289","4729","b","elianto","#f73b6a7A","-1","-1","1","0","[]","0","2","","","17289","74","3","4","lose","no-go","0"
"pit-trial","196","1317629","0.0-79.0","battery-v0.2","","""event"",""trial"",""time""
""fullscreenenter"",""1"",""2442""
""blur"",""157"",""1008992""
""focus"",""158"",""1099615""
""blur"",""171"",""1212598""
""focus"",""171"",""1213880""
","""event"",""trial"",""time""
""blur"",""157"",""1008992""
""blur"",""171"",""1212598""
","""event"",""trial"",""time""
""focus"",""158"",""1099615""
""focus"",""171"",""1213880""
","""event"",""trial"",""time""
""fullscreenenter"",""1"",""2442""
","
","","","652.3999999910593","","","20","17289","4729","c","elianto","#3366ff99"," "," ","1","0","[1502.5999999940395]","1","2","","","17289","75","4","1","win","go","1"
"pit-trial","197","1321159","0.0-80.0","battery-v0.2","","""event"",""trial"",""time""
""fullscreenenter"",""1"",""2442""
""blur"",""157"",""1008992""
""focus"",""158"",""1099615""
""blur"",""171"",""1212598""
""focus"",""171"",""1213880""
","""event"",""trial"",""time""
""blur"",""157"",""1008992""
""blur"",""171"",""1212598""
","""event"",""trial"",""time""
""focus"",""158"",""1099615""
""focus"",""171"",""1213880""
","""event"",""trial"",""time""
""fullscreenenter"",""1"",""2442""
","
","","","677.2999999970198","","","20","17289","4729","z","elianto","#3366ff99","-1"," ","0","0","[1527.7000000029802]","1","2","","","17289","76","5","2","win","no-go","0"
"pit-trial","198","1326013","0.0-81.0","battery-v0.2","","""event"",""trial"",""time""
""fullscreenenter"",""1"",""2442""
""blur"",""157"",""1008992""
""focus"",""158"",""1099615""
""blur"",""171"",""1212598""
""focus"",""171"",""1213880""
","""event"",""trial"",""time""
""blur"",""157"",""1008992""
""blur"",""171"",""1212598""
","""event"",""trial"",""time""
""focus"",""158"",""1099615""
""focus"",""171"",""1213880""
","""event"",""trial"",""time""
""fullscreenenter"",""1"",""2442""
","
","","","-1","","","20","17289","4729","b","elianto","#f73b6a7A","-1","-1","1","0","[]","0","2","","","17289","77","3","4","lose","no-go","0"
"pit-trial","199","1329592","0.0-82.0","battery-v0.2","","""event"",""trial"",""time""
""fullscreenenter"",""1"",""2442""
""blur"",""157"",""1008992""
""focus"",""158"",""1099615""
""blur"",""171"",""1212598""
""focus"",""171"",""1213880""
","""event"",""trial"",""time""
""blur"",""157"",""1008992""
""blur"",""171"",""1212598""
","""event"",""trial"",""time""
""focus"",""158"",""1099615""
""focus"",""171"",""1213880""
","""event"",""trial"",""time""
""fullscreenenter"",""1"",""2442""
","
","","","725.5","","","20","17289","4729","c","elianto","#3366ff99"," "," ","1","+10","[1576.5]","1","2","","","17289","78","4","1","win","go","0"
"pit-trial","200","1333132","0.0-83.0","battery-v0.2","","""event"",""trial"",""time""
""fullscreenenter"",""1"",""2442""
""blur"",""157"",""1008992""
""focus"",""158"",""1099615""
""blur"",""171"",""1212598""
""focus"",""171"",""1213880""
","""event"",""trial"",""time""
""blur"",""157"",""1008992""
""blur"",""171"",""1212598""
","""event"",""trial"",""time""
""focus"",""158"",""1099615""
""focus"",""171"",""1213880""
","""event"",""trial"",""time""
""fullscreenenter"",""1"",""2442""
","
","","","687.2000000029802","","","20","17289","4729","c","elianto","#3366ff99"," "," ","1","+10","[1537.7000000029802]","1","2","","","17289","79","4","1","win","go","0"
"pit-trial","201","1336792","0.0-84.0","battery-v0.2","","""event"",""trial"",""time""
""fullscreenenter"",""1"",""2442""
""blur"",""157"",""1008992""
""focus"",""158"",""1099615""
""blur"",""171"",""1212598""
""focus"",""171"",""1213880""
","""event"",""trial"",""time""
""blur"",""157"",""1008992""
""blur"",""171"",""1212598""
","""event"",""trial"",""time""
""focus"",""158"",""1099615""
""focus"",""171"",""1213880""
","""event"",""trial"",""time""
""fullscreenenter"",""1"",""2442""
","
","","","807.7000000029802","","","20","17289","4729","z","elianto","#3366ff99","-1"," ","0","0","[1658.4000000059605]","1","2","","","17289","80","5","2","win","no-go","0"
"pit-trial","202","1341645","0.0-85.0","battery-v0.2","","""event"",""trial"",""time""
""fullscreenenter"",""1"",""2442""
""blur"",""157"",""1008992""
""focus"",""158"",""1099615""
""blur"",""171"",""1212598""
""focus"",""171"",""1213880""
","""event"",""trial"",""time""
""blur"",""157"",""1008992""
""blur"",""171"",""1212598""
","""event"",""trial"",""time""
""focus"",""158"",""1099615""
""focus"",""171"",""1213880""
","""event"",""trial"",""time""
""fullscreenenter"",""1"",""2442""
","
","","","-1","","","20","17289","4729","b","elianto","#f73b6a7A","-1","-1","1","-10","[]","0","2","","","17289","81","3","4","lose","no-go","1"
"pit-trial","203","1345084","0.0-86.0","battery-v0.2","","""event"",""trial"",""time""
""fullscreenenter"",""1"",""2442""
""blur"",""157"",""1008992""
""focus"",""158"",""1099615""
""blur"",""171"",""1212598""
""focus"",""171"",""1213880""
","""event"",""trial"",""time""
""blur"",""157"",""1008992""
""blur"",""171"",""1212598""
","""event"",""trial"",""time""
""focus"",""158"",""1099615""
""focus"",""171"",""1213880""
","""event"",""trial"",""time""
""fullscreenenter"",""1"",""2442""
","
","","","587.3999999910593","","","20","17289","4729","c","elianto","#3366ff99"," "," ","1","+10","[1437.5]","1","2","","","17289","82","4","1","win","go","0"
"pit-trial","204","1348746","0.0-87.0","battery-v0.2","","""event"",""trial"",""time""
""fullscreenenter"",""1"",""2442""
""blur"",""157"",""1008992""
""focus"",""158"",""1099615""
""blur"",""171"",""1212598""
""focus"",""171"",""1213880""
","""event"",""trial"",""time""
""blur"",""157"",""1008992""
""blur"",""171"",""1212598""
","""event"",""trial"",""time""
""focus"",""158"",""1099615""
""focus"",""171"",""1213880""
","""event"",""trial"",""time""
""fullscreenenter"",""1"",""2442""
","
","","","808.7999999970198","","","20","17289","4729","y","elianto","#f73b6a7A","-1"," ","0","-10","[1659.5]","1","2","","","17289","83","7","4","lose","no-go","0"
"pit-trial","205","1353600","0.0-88.0","battery-v0.2","","""event"",""trial"",""time""
""fullscreenenter"",""1"",""2442""
""blur"",""157"",""1008992""
""focus"",""158"",""1099615""
""blur"",""171"",""1212598""
""focus"",""171"",""1213880""
","""event"",""trial"",""time""
""blur"",""157"",""1008992""
""blur"",""171"",""1212598""
","""event"",""trial"",""time""
""focus"",""158"",""1099615""
""focus"",""171"",""1213880""
","""event"",""trial"",""time""
""fullscreenenter"",""1"",""2442""
","
","","","-1","","","20","17289","4729","z","elianto","#3366ff99","-1","-1","1","+10","[]","0","2","","","17289","84","5","2","win","no-go","0"
"pit-trial","206","1357319","0.0-89.0","battery-v0.2","","""event"",""trial"",""time""
""fullscreenenter"",""1"",""2442""
""blur"",""157"",""1008992""
""focus"",""158"",""1099615""
""blur"",""171"",""1212598""
""focus"",""171"",""1213880""
","""event"",""trial"",""time""
""blur"",""157"",""1008992""
""blur"",""171"",""1212598""
","""event"",""trial"",""time""
""focus"",""158"",""1099615""
""focus"",""171"",""1213880""
","""event"",""trial"",""time""
""fullscreenenter"",""1"",""2442""
","
","","","866.3999999910593","","","20","17289","4729","h","elianto","#f73b6a7A"," "," ","1","0","[1717.2999999970198]","1","2","","","17289","85","6","3","lose","go","0"
"pit-trial","207","1361223","0.0-90.0","battery-v0.2","","""event"",""trial"",""time""
""fullscreenenter"",""1"",""2442""
""blur"",""157"",""1008992""
""focus"",""158"",""1099615""
""blur"",""171"",""1212598""
""focus"",""171"",""1213880""
","""event"",""trial"",""time""
""blur"",""157"",""1008992""
""blur"",""171"",""1212598""
","""event"",""trial"",""time""
""focus"",""158"",""1099615""
""focus"",""171"",""1213880""
","""event"",""trial"",""time""
""fullscreenenter"",""1"",""2442""
","
","","","1050","","","20","17289","4729","c","elianto","#3366ff99"," "," ","1","+10","[1901.1000000089407]","1","2","","","17289","86","4","1","win","go","0"
"pit-trial","208","1366088","0.0-91.0","battery-v0.2","","""event"",""trial"",""time""
""fullscreenenter"",""1"",""2442""
""blur"",""157"",""1008992""
""focus"",""158"",""1099615""
""blur"",""171"",""1212598""
""focus"",""171"",""1213880""
","""event"",""trial"",""time""
""blur"",""157"",""1008992""
""blur"",""171"",""1212598""
","""event"",""trial"",""time""
""focus"",""158"",""1099615""
""focus"",""171"",""1213880""
","""event"",""trial"",""time""
""fullscreenenter"",""1"",""2442""
","
","","","-1","","","20","17289","4729","y","elianto","#f73b6a7A","-1","-1","1","0","[]","0","2","","","17289","87","7","4","lose","no-go","0"
"pit-trial","209","1370942","0.0-92.0","battery-v0.2","","""event"",""trial"",""time""
""fullscreenenter"",""1"",""2442""
""blur"",""157"",""1008992""
""focus"",""158"",""1099615""
""blur"",""171"",""1212598""
""focus"",""171"",""1213880""
","""event"",""trial"",""time""
""blur"",""157"",""1008992""
""blur"",""171"",""1212598""
","""event"",""trial"",""time""
""focus"",""158"",""1099615""
""focus"",""171"",""1213880""
","""event"",""trial"",""time""
""fullscreenenter"",""1"",""2442""
","
","","","-1","","","20","17289","4729","z","elianto","#3366ff99","-1","-1","1","+10","[]","0","2","","","17289","88","5","2","win","no-go","0"
"pit-trial","210","1375795","0.0-93.0","battery-v0.2","","""event"",""trial"",""time""
""fullscreenenter"",""1"",""2442""
""blur"",""157"",""1008992""
""focus"",""158"",""1099615""
""blur"",""171"",""1212598""
""focus"",""171"",""1213880""
","""event"",""trial"",""time""
""blur"",""157"",""1008992""
""blur"",""171"",""1212598""
","""event"",""trial"",""time""
""focus"",""158"",""1099615""
""focus"",""171"",""1213880""
","""event"",""trial"",""time""
""fullscreenenter"",""1"",""2442""
","
","","","-1","","","20","17289","4729","z","elianto","#3366ff99","-1","-1","1","+10","[]","0","2","","","17289","89","5","2","win","no-go","0"
"pit-trial","211","1380649","0.0-94.0","battery-v0.2","","""event"",""trial"",""time""
""fullscreenenter"",""1"",""2442""
""blur"",""157"",""1008992""
""focus"",""158"",""1099615""
""blur"",""171"",""1212598""
""focus"",""171"",""1213880""
","""event"",""trial"",""time""
""blur"",""157"",""1008992""
""blur"",""171"",""1212598""
","""event"",""trial"",""time""
""focus"",""158"",""1099615""
""focus"",""171"",""1213880""
","""event"",""trial"",""time""
""fullscreenenter"",""1"",""2442""
","
","","","-1","","","20","17289","4729","y","elianto","#f73b6a7A","-1","-1","1","0","[]","0","2","","","17289","90","7","4","lose","no-go","0"
"pit-trial","212","1384173","0.0-95.0","battery-v0.2","","""event"",""trial"",""time""
""fullscreenenter"",""1"",""2442""
""blur"",""157"",""1008992""
""focus"",""158"",""1099615""
""blur"",""171"",""1212598""
""focus"",""171"",""1213880""
","""event"",""trial"",""time""
""blur"",""157"",""1008992""
""blur"",""171"",""1212598""
","""event"",""trial"",""time""
""focus"",""158"",""1099615""
""focus"",""171"",""1213880""
","""event"",""trial"",""time""
""fullscreenenter"",""1"",""2442""
","
","","","671.0999999940395","","","20","17289","4729","c","elianto","#3366ff99"," "," ","1","0","[1522.2999999970198]","1","2","","","17289","91","4","1","win","go","1"
"pit-trial","213","1387460","0.0-96.0","battery-v0.2","","""event"",""trial"",""time""
""fullscreenenter"",""1"",""2442""
""blur"",""157"",""1008992""
""focus"",""158"",""1099615""
""blur"",""171"",""1212598""
""focus"",""171"",""1213880""
","""event"",""trial"",""time""
""blur"",""157"",""1008992""
""blur"",""171"",""1212598""
","""event"",""trial"",""time""
""focus"",""158"",""1099615""
""focus"",""171"",""1213880""
","""event"",""trial"",""time""
""fullscreenenter"",""1"",""2442""
","
","","","433.19999998807907","","","20","17289","4729","h","elianto","#f73b6a7A"," "," ","1","0","[1283.8999999910593]","1","2","","","17289","92","6","3","lose","go","0"
"pit-trial","214","1391628","0.0-97.0","battery-v0.2","","""event"",""trial"",""time""
""fullscreenenter"",""1"",""2442""
""blur"",""157"",""1008992""
""focus"",""158"",""1099615""
""blur"",""171"",""1212598""
""focus"",""171"",""1213880""
","""event"",""trial"",""time""
""blur"",""157"",""1008992""
""blur"",""171"",""1212598""
","""event"",""trial"",""time""
""focus"",""158"",""1099615""
""focus"",""171"",""1213880""
","""event"",""trial"",""time""
""fullscreenenter"",""1"",""2442""
","
","","","1316.0999999940395","","","20","17289","4729","r","elianto","#3366ff99"," "," ","1","+10","[2166.5]","1","2","","","17289","93","8","1","win","go","0"
"pit-trial","215","1395368","0.0-98.0","battery-v0.2","","""event"",""trial"",""time""
""fullscreenenter"",""1"",""2442""
""blur"",""157"",""1008992""
""focus"",""158"",""1099615""
""blur"",""171"",""1212598""
""focus"",""171"",""1213880""
","""event"",""trial"",""time""
""blur"",""157"",""1008992""
""blur"",""171"",""1212598""
","""event"",""trial"",""time""
""focus"",""158"",""1099615""
""focus"",""171"",""1213880""
","""event"",""trial"",""time""
""fullscreenenter"",""1"",""2442""
","
","","","888","","","20","17289","4729","z","elianto","#3366ff99","-1"," ","0","+10","[1738.3999999910593]","1","2","","","17289","94","5","2","win","no-go","1"
"pit-trial","216","1399863","0.0-99.0","battery-v0.2","","""event"",""trial"",""time""
""fullscreenenter"",""1"",""2442""
""blur"",""157"",""1008992""
""focus"",""158"",""1099615""
""blur"",""171"",""1212598""
""focus"",""171"",""1213880""
","""event"",""trial"",""time""
""blur"",""157"",""1008992""
""blur"",""171"",""1212598""
","""event"",""trial"",""time""
""focus"",""158"",""1099615""
""focus"",""171"",""1213880""
","""event"",""trial"",""time""
""fullscreenenter"",""1"",""2442""
","
","","","1641.699999988079","","","20","17289","4729","y","elianto","#f73b6a7A","-1"," ","0","-10","[2492.2999999970198]","1","2","","","17289","95","7","4","lose","no-go","0"
"pit-trial","217","1403631","0.0-100.0","battery-v0.2","","""event"",""trial"",""time""
""fullscreenenter"",""1"",""2442""
""blur"",""157"",""1008992""
""focus"",""158"",""1099615""
""blur"",""171"",""1212598""
""focus"",""171"",""1213880""
","""event"",""trial"",""time""
""blur"",""157"",""1008992""
""blur"",""171"",""1212598""
","""event"",""trial"",""time""
""focus"",""158"",""1099615""
""focus"",""171"",""1213880""
","""event"",""trial"",""time""
""fullscreenenter"",""1"",""2442""
","
","","","916.2000000029802","","","20","17289","4729","h","elianto","#f73b6a7A"," "," ","1","0","[1766.5]","1","2","","","17289","96","6","3","lose","go","0"
"pit-trial","218","1407146","0.0-101.0","battery-v0.2","","""event"",""trial"",""time""
""fullscreenenter"",""1"",""2442""
""blur"",""157"",""1008992""
""focus"",""158"",""1099615""
""blur"",""171"",""1212598""
""focus"",""171"",""1213880""
","""event"",""trial"",""time""
""blur"",""157"",""1008992""
""blur"",""171"",""1212598""
","""event"",""trial"",""time""
""focus"",""158"",""1099615""
""focus"",""171"",""1213880""
","""event"",""trial"",""time""
""fullscreenenter"",""1"",""2442""
","
","","","661.2000000029802","","","20","17289","4729","h","elianto","#f73b6a7A"," "," ","1","0","[1512]","1","2","","","17289","97","6","3","lose","go","0"
"pit-trial","219","1412000","0.0-102.0","battery-v0.2","","""event"",""trial"",""time""
""fullscreenenter"",""1"",""2442""
""blur"",""157"",""1008992""
""focus"",""158"",""1099615""
""blur"",""171"",""1212598""
""focus"",""171"",""1213880""
","""event"",""trial"",""time""
""blur"",""157"",""1008992""
""blur"",""171"",""1212598""
","""event"",""trial"",""time""
""focus"",""158"",""1099615""
""focus"",""171"",""1213880""
","""event"",""trial"",""time""
""fullscreenenter"",""1"",""2442""
","
","","","-1","","","20","17289","4729","y","elianto","#f73b6a7A","-1","-1","1","0","[]","0","2","","","17289","98","7","4","lose","no-go","0"
