"trial_type","trial_index","time_elapsed","internal_node_id","task_version","subject_id","interactions","blur_events","focus_events","fullscreenenter_events","fullscreenexit_events","success","view_history","rt","responses","num_errors","age","subject","participantId","rune","rune_set","hex","correct","choice","accuracy","outcome","keys","total_keys","block","practice","value","sub","trial","stimulus","robot","valence","action","sham"
"pavlovia","0","8","0.0-0.0","battery-v0.2","","""event"",""trial"",""time""
""fullscreenenter"",""1"",""5658""
","
","
","""event"",""trial"",""time""
""fullscreenenter"",""1"",""5658""
","
","","","","","","","","","","","","","","","","","","","","","","","","","","",""
"fullscreen","1","6652","0.0-1.0","battery-v0.2","","""event"",""trial"",""time""
""fullscreenenter"",""1"",""5658""
","
","
","""event"",""trial"",""time""
""fullscreenenter"",""1"",""5658""
","
","true","","","","","","","","","","","","","","","","","","","","","","","","","",""
"pit-instructions","2","11651","0.0-2.0-0.0","battery-v0.2","","""event"",""trial"",""time""
""fullscreenenter"",""1"",""5658""
","
","
","""event"",""trial"",""time""
""fullscreenenter"",""1"",""5658""
","
","","[{""page_index"":0,""viewing_time"":4991.899999976158}]","4993.399999976158","","","","","","","","","","","","","","","","","","","","","","","",""
"pit-comprehension","3","14663","0.0-2.0-1.0-0.0","battery-v0.2","","""event"",""trial"",""time""
""fullscreenenter"",""1"",""5658""
","
","
","""event"",""trial"",""time""
""fullscreenenter"",""1"",""5658""
","
","","","3005.800000011921","[""shark""]","0","19","5127","3225","","","","","","","","","","","","","","","","","","",""
"pit-instructions","4","17905","0.0-2.0-1.0-1.0","battery-v0.2","","""event"",""trial"",""time""
""fullscreenenter"",""1"",""5658""
","
","
","""event"",""trial"",""time""
""fullscreenenter"",""1"",""5658""
","
","","[{""page_index"":0,""viewing_time"":3222.9000000059605}]","3223.5","","","","","","","","","","","","","","","","","","","","","","","",""
"pit-comprehension","5","20391","0.0-2.0-2.0-0.0","battery-v0.2","","""event"",""trial"",""time""
""fullscreenenter"",""1"",""5658""
","
","
","""event"",""trial"",""time""
""fullscreenenter"",""1"",""5658""
","
","","","2481.5999999940395","[""tiger""]","0","19","5127","3225","","","","","","","","","","","","","","","","","","",""
"pit-instructions","6","22024","0.0-2.0-2.0-1.0","battery-v0.2","","""event"",""trial"",""time""
""fullscreenenter"",""1"",""5658""
","
","
","""event"",""trial"",""time""
""fullscreenenter"",""1"",""5658""
","
","","[{""page_index"":0,""viewing_time"":1626.8999999761581}]","1627.7999999821186","","","","","","","","","","","","","","","","","","","","","","","",""
"pit-instructions","7","150983","0.0-2.0-3.0","battery-v0.2","","""event"",""trial"",""time""
""fullscreenenter"",""1"",""5658""
","
","
","""event"",""trial"",""time""
""fullscreenenter"",""1"",""5658""
","
","","[{""page_index"":0,""viewing_time"":7829.4000000059605},{""page_index"":1,""viewing_time"":6554.0999999940395},{""page_index"":2,""viewing_time"":6863.5999999940395},{""page_index"":3,""viewing_time"":5992.800000011921},{""page_index"":4,""viewing_time"":7737.699999988079},{""page_index"":5,""viewing_time"":5897.9000000059605},{""page_index"":6,""viewing_time"":11639.59999999404},{""page_index"":7,""viewing_time"":7748.5},{""page_index"":8,""viewing_time"":7176.9000000059605},{""page_index"":9,""viewing_time"":16889.5},{""page_index"":10,""viewing_time"":21217.69999998808},{""page_index"":11,""viewing_time"":9652.200000017881},{""page_index"":12,""viewing_time"":6408.799999982119},{""page_index"":13,""viewing_time"":7346.9000000059605}]","128957","","","","","","","","","","","","","","","","","","","","","","","",""
"pit-trial","8","155846","0.0-2.0-4.0-0.0","battery-v0.2","","""event"",""trial"",""time""
""fullscreenenter"",""1"",""5658""
","
","
","""event"",""trial"",""time""
""fullscreenenter"",""1"",""5658""
","
","","","-1","","","19","5127","3225","&#9784;","elianto","#FFFFF080"," ","-1","0","&#10060","[]","0","0","0","","","","","","","",""
"pit-trial","9","159305","0.0-2.0-4.1-0.1","battery-v0.2","","""event"",""trial"",""time""
""fullscreenenter"",""1"",""5658""
","
","
","""event"",""trial"",""time""
""fullscreenenter"",""1"",""5658""
","
","","","597.0999999940395","","","19","5127","3225","&#9784;","elianto","#FFFFF080"," "," ","1","&#10004","[1448.9000000059605]","1","0","0","","","","","","","",""
"pit-trial","10","163072","0.0-2.0-4.2-0.2","battery-v0.2","","""event"",""trial"",""time""
""fullscreenenter"",""1"",""5658""
","
","
","""event"",""trial"",""time""
""fullscreenenter"",""1"",""5658""
","
","","","907.7999999821186","","","19","5127","3225","&#9784;","elianto","#FFFFF080"," "," ","1","&#10004","[1760]","1","0","0","","","","","","","",""
"pit-trial","11","166582","0.0-2.0-4.3-0.3","battery-v0.2","","""event"",""trial"",""time""
""fullscreenenter"",""1"",""5658""
","
","
","""event"",""trial"",""time""
""fullscreenenter"",""1"",""5658""
","
","","","648.1999999880791","","","19","5127","3225","&#9784;","elianto","#FFFFF080"," "," ","1","&#10004","[1500.4000000059605]","1","0","0","","","","","","","",""
"pit-trial","12","170046","0.0-2.0-4.4-0.4","battery-v0.2","","""event"",""trial"",""time""
""fullscreenenter"",""1"",""5658""
","
","
","""event"",""trial"",""time""
""fullscreenenter"",""1"",""5658""
","
","","","606.5999999940395","","","19","5127","3225","&#9784;","elianto","#FFFFF080"," "," ","1","&#10004","[1457.4000000059605]","1","0","0","","","","","","","",""
"pit-instructions","13","200064","0.0-2.0-5.0","battery-v0.2","","""event"",""trial"",""time""
""fullscreenenter"",""1"",""5658""
","
","
","""event"",""trial"",""time""
""fullscreenenter"",""1"",""5658""
","
","","[{""page_index"":0,""viewing_time"":8006.200000017881},{""page_index"":1,""viewing_time"":7225.299999982119},{""page_index"":2,""viewing_time"":7867.4000000059605},{""page_index"":3,""viewing_time"":6913.5}]","30013.30000001192","","","","","","","","","","","","","","","","","","","","","","","",""
"pit-trial","14","204926","0.0-2.0-6.0-0.0","battery-v0.2","","""event"",""trial"",""time""
""fullscreenenter"",""1"",""5658""
","
","
","""event"",""trial"",""time""
""fullscreenenter"",""1"",""5658""
","
","","","-1","","","19","5127","3225","&#9854;","elianto","#FFFFF080","-1","-1","1","&#10004","[]","0","0","1","","","","","","","",""
"pit-trial","15","209789","0.0-2.0-6.1-0.1","battery-v0.2","","""event"",""trial"",""time""
""fullscreenenter"",""1"",""5658""
","
","
","""event"",""trial"",""time""
""fullscreenenter"",""1"",""5658""
","
","","","-1","","","19","5127","3225","&#9854;","elianto","#FFFFF080","-1","-1","1","&#10004","[]","0","0","1","","","","","","","",""
"pit-trial","16","214649","0.0-2.0-6.2-0.2","battery-v0.2","","""event"",""trial"",""time""
""fullscreenenter"",""1"",""5658""
","
","
","""event"",""trial"",""time""
""fullscreenenter"",""1"",""5658""
","
","","","-1","","","19","5127","3225","&#9854;","elianto","#FFFFF080","-1","-1","1","&#10004","[]","0","0","1","","","","","","","",""
"pit-trial","17","219508","0.0-2.0-6.3-0.3","battery-v0.2","","""event"",""trial"",""time""
""fullscreenenter"",""1"",""5658""
","
","
","""event"",""trial"",""time""
""fullscreenenter"",""1"",""5658""
","
","","","-1","","","19","5127","3225","&#9854;","elianto","#FFFFF080","-1","-1","1","&#10004","[]","0","0","1","","","","","","","",""
"pit-trial","18","224367","0.0-2.0-6.4-0.4","battery-v0.2","","""event"",""trial"",""time""
""fullscreenenter"",""1"",""5658""
","
","
","""event"",""trial"",""time""
""fullscreenenter"",""1"",""5658""
","
","","","-1","","","19","5127","3225","&#9854;","elianto","#FFFFF080","-1","-1","1","&#10004","[]","0","0","1","","","","","","","",""
"pit-instructions","19","411595","0.0-2.0-7.0","battery-v0.2","","""event"",""trial"",""time""
""fullscreenenter"",""1"",""5658""
","
","
","""event"",""trial"",""time""
""fullscreenenter"",""1"",""5658""
","
","","[{""page_index"":0,""viewing_time"":8152.799999982119},{""page_index"":1,""viewing_time"":9762.90000000596},{""page_index"":2,""viewing_time"":7446.700000017881},{""page_index"":3,""viewing_time"":11626},{""page_index"":4,""viewing_time"":12781.699999988079},{""page_index"":5,""viewing_time"":8596.199999988079},{""page_index"":6,""viewing_time"":8709.90000000596},{""page_index"":7,""viewing_time"":12604.200000017881},{""page_index"":8,""viewing_time"":13581.09999999404},{""page_index"":9,""viewing_time"":7824.5},{""page_index"":10,""viewing_time"":11301.5},{""page_index"":11,""viewing_time"":8597.5},{""page_index"":12,""viewing_time"":17540.29999998212},{""page_index"":13,""viewing_time"":8882.700000017881},{""page_index"":14,""viewing_time"":8002.4000000059605},{""page_index"":15,""viewing_time"":6929.799999982119},{""page_index"":16,""viewing_time"":13333.700000017881},{""page_index"":17,""viewing_time"":11552.899999976158}]","187227.5","","","","","","","","","","","","","","","","","","","","","","","",""
"pit-trial","20","416045","0.0-2.0-8.0-0.0","battery-v0.2","","""event"",""trial"",""time""
""fullscreenenter"",""1"",""5658""
","
","
","""event"",""trial"",""time""
""fullscreenenter"",""1"",""5658""
","
","","","1590.300000011921","","","19","5127","3225","&#9776;","elianto","#3366ff99"," "," ","1","+10","[2440.7000000178814]","1","0","1","","","","","","","",""
"pit-trial","21","419917","0.0-2.0-8.0-1.0","battery-v0.2","","""event"",""trial"",""time""
""fullscreenenter"",""1"",""5658""
","
","
","""event"",""trial"",""time""
""fullscreenenter"",""1"",""5658""
","
","","","1017.5999999940395","","","19","5127","3225","&#9776;","elianto","#3366ff99"," "," ","1","+10","[1868]","1","0","1","","","","","","","",""
"pit-trial","22","423415","0.0-2.0-8.0-2.0","battery-v0.2","","""event"",""trial"",""time""
""fullscreenenter"",""1"",""5658""
","
","
","""event"",""trial"",""time""
""fullscreenenter"",""1"",""5658""
","
","","","638.0999999940395","","","19","5127","3225","&#9776;","elianto","#3366ff99"," "," ","1","+10","[1491.3999999761581]","1","0","1","","","","","","","",""
"pit-trial","23","427015","0.0-2.0-8.0-3.0","battery-v0.2","","""event"",""trial"",""time""
""fullscreenenter"",""1"",""5658""
","
","
","""event"",""trial"",""time""
""fullscreenenter"",""1"",""5658""
","
","","","741.9000000059605","","","19","5127","3225","&#9776;","elianto","#3366ff99"," "," ","1","0","[1592.5]","1","0","1","","","","","","","",""
"pit-trial","24","430439","0.0-2.0-8.0-4.0","battery-v0.2","","""event"",""trial"",""time""
""fullscreenenter"",""1"",""5658""
","
","
","""event"",""trial"",""time""
""fullscreenenter"",""1"",""5658""
","
","","","567.7999999821186","","","19","5127","3225","&#9776;","elianto","#3366ff99"," "," ","1","+10","[1418.199999988079]","1","0","1","","","","","","","",""
"pit-trial","25","433862","0.0-2.0-8.1-0.1","battery-v0.2","","""event"",""trial"",""time""
""fullscreenenter"",""1"",""5658""
","
","
","""event"",""trial"",""time""
""fullscreenenter"",""1"",""5658""
","
","","","564.8000000119209","","","19","5127","3225","&#9776;","elianto","#3366ff99"," "," ","1","+10","[1415.300000011921]","1","0","1","","","","","","","",""
"pit-trial","26","437129","0.0-2.0-8.1-1.1","battery-v0.2","","""event"",""trial"",""time""
""fullscreenenter"",""1"",""5658""
","
","
","""event"",""trial"",""time""
""fullscreenenter"",""1"",""5658""
","
","","","409.5","","","19","5127","3225","&#9776;","elianto","#3366ff99"," "," ","1","+10","[1259.8999999761581]","1","0","1","","","","","","","",""
"pit-trial","27","440358","0.0-2.0-8.1-2.1","battery-v0.2","","""event"",""trial"",""time""
""fullscreenenter"",""1"",""5658""
","
","
","""event"",""trial"",""time""
""fullscreenenter"",""1"",""5658""
","
","","","368.2999999821186","","","19","5127","3225","&#9776;","elianto","#3366ff99"," "," ","1","+10","[1219.5]","1","0","1","","","","","","","",""
"pit-trial","28","443766","0.0-2.0-8.1-3.1","battery-v0.2","","""event"",""trial"",""time""
""fullscreenenter"",""1"",""5658""
","
","
","""event"",""trial"",""time""
""fullscreenenter"",""1"",""5658""
","
","","","549.5999999940395","","","19","5127","3225","&#9776;","elianto","#3366ff99"," "," ","1","0","[1400.1000000238419]","1","0","1","","","","","","","",""
"pit-trial","29","447299","0.0-2.0-8.1-4.1","battery-v0.2","","""event"",""trial"",""time""
""fullscreenenter"",""1"",""5658""
","
","
","""event"",""trial"",""time""
""fullscreenenter"",""1"",""5658""
","
","","","674.6999999880791","","","19","5127","3225","&#9776;","elianto","#3366ff99"," "," ","1","+10","[1527]","1","0","1","","","","","","","",""
"pit-trial","30","450964","0.0-2.0-8.2-0.2","battery-v0.2","","""event"",""trial"",""time""
""fullscreenenter"",""1"",""5658""
","
","
","""event"",""trial"",""time""
""fullscreenenter"",""1"",""5658""
","
","","","804.3000000119209","","","19","5127","3225","&#9776;","elianto","#3366ff99"," "," ","1","+10","[1656.4000000059605]","1","0","1","","","","","","","",""
"pit-trial","31","454665","0.0-2.0-8.2-1.2","battery-v0.2","","""event"",""trial"",""time""
""fullscreenenter"",""1"",""5658""
","
","
","""event"",""trial"",""time""
""fullscreenenter"",""1"",""5658""
","
","","","840.0999999940395","","","19","5127","3225","&#9776;","elianto","#3366ff99"," "," ","1","+10","[1691.699999988079]","1","0","1","","","","","","","",""
"pit-trial","32","457892","0.0-2.0-8.2-2.2","battery-v0.2","","""event"",""trial"",""time""
""fullscreenenter"",""1"",""5658""
","
","
","""event"",""trial"",""time""
""fullscreenenter"",""1"",""5658""
","
","","","366.7000000178814","","","19","5127","3225","&#9776;","elianto","#3366ff99"," "," ","1","+10","[179.2000000178814,1218.5]","2","0","1","","","","","","","",""
"pit-trial","33","461876","0.0-2.0-8.2-3.2","battery-v0.2","","""event"",""trial"",""time""
""fullscreenenter"",""1"",""5658""
","
","
","""event"",""trial"",""time""
""fullscreenenter"",""1"",""5658""
","
","","","1122.699999988079","","","19","5127","3225","&#9776;","elianto","#3366ff99"," "," ","1","0","[1973.4000000059605,2952.5999999940395]","2","0","1","","","","","","","",""
"pit-trial","34","465230","0.0-2.0-8.2-4.2","battery-v0.2","","""event"",""trial"",""time""
""fullscreenenter"",""1"",""5658""
","
","
","""event"",""trial"",""time""
""fullscreenenter"",""1"",""5658""
","
","","","495.09999999403954","","","19","5127","3225","&#9776;","elianto","#3366ff99"," "," ","1","+10","[1345.699999988079]","1","0","1","","","","","","","",""
"call-function","35","465234","0.0-2.0-9.0","battery-v0.2","","""event"",""trial"",""time""
""fullscreenenter"",""1"",""5658""
","
","
","""event"",""trial"",""time""
""fullscreenenter"",""1"",""5658""
","
","","","","","","","","","","","","","","","","","","","","","","","","","","",""
"pit-instructions","36","510928","0.0-2.0-10.0","battery-v0.2","","""event"",""trial"",""time""
""fullscreenenter"",""1"",""5658""
","
","
","""event"",""trial"",""time""
""fullscreenenter"",""1"",""5658""
","
","","[{""page_index"":0,""viewing_time"":6603.0999999940395},{""page_index"":1,""viewing_time"":8108.4000000059605},{""page_index"":2,""viewing_time"":10402.40000000596},{""page_index"":3,""viewing_time"":12206.299999982119},{""page_index"":4,""viewing_time"":8372.800000011921}]","45693.90000000596","","","","","","","","","","","","","","","","","","","","","","","",""
"pit-trial","37","515784","0.0-2.0-11.0-0.0","battery-v0.2","","""event"",""trial"",""time""
""fullscreenenter"",""1"",""5658""
","
","
","""event"",""trial"",""time""
""fullscreenenter"",""1"",""5658""
","
","","","-1","","","19","5127","3225","&#9761;","elianto","#3366ff99","-1","-1","1","+10","[]","0","0","2","","","","","","","",""
"pit-trial","38","518942","0.0-2.0-11.0-1.0","battery-v0.2","","""event"",""trial"",""time""
""fullscreenenter"",""1"",""5658""
","
","
","""event"",""trial"",""time""
""fullscreenenter"",""1"",""5658""
","
","","","298.2000000178814","","","19","5127","3225","&#9761;","elianto","#3366ff99","-1"," ","0","0","[1150.7999999821186]","1","0","2","","","","","","","",""
"pit-trial","39","522235","0.0-2.0-11.0-2.0","battery-v0.2","","""event"",""trial"",""time""
""fullscreenenter"",""1"",""5658""
","
","
","""event"",""trial"",""time""
""fullscreenenter"",""1"",""5658""
","
","","","436.40000000596046","","","19","5127","3225","&#9761;","elianto","#3366ff99","-1"," ","0","0","[206.7000000178814,1286.5]","2","0","2","","","","","","","",""
"pit-trial","40","525216","0.0-2.0-11.0-3.0","battery-v0.2","","""event"",""trial"",""time""
""fullscreenenter"",""1"",""5658""
","
","
","""event"",""trial"",""time""
""fullscreenenter"",""1"",""5658""
","
","","","124.2000000178814","","","19","5127","3225","&#9761;","elianto","#3366ff99","-1"," ","0","+10","[976.3000000119209]","1","0","2","","","","","","","",""
"pit-trial","41","530078","0.0-2.0-11.0-4.0","battery-v0.2","","""event"",""trial"",""time""
""fullscreenenter"",""1"",""5658""
","
","
","""event"",""trial"",""time""
""fullscreenenter"",""1"",""5658""
","
","","","-1","","","19","5127","3225","&#9761;","elianto","#3366ff99","-1","-1","1","+10","[]","0","0","2","","","","","","","",""
"pit-trial","42","534934","0.0-2.0-11.1-0.1","battery-v0.2","","""event"",""trial"",""time""
""fullscreenenter"",""1"",""5658""
","
","
","""event"",""trial"",""time""
""fullscreenenter"",""1"",""5658""
","
","","","-1","","","19","5127","3225","&#9761;","elianto","#3366ff99","-1","-1","1","+10","[]","0","0","2","","","","","","","",""
"pit-trial","43","539791","0.0-2.0-11.1-1.1","battery-v0.2","","""event"",""trial"",""time""
""fullscreenenter"",""1"",""5658""
","
","
","""event"",""trial"",""time""
""fullscreenenter"",""1"",""5658""
","
","","","-1","","","19","5127","3225","&#9761;","elianto","#3366ff99","-1","-1","1","+10","[]","0","0","2","","","","","","","",""
"pit-trial","44","544653","0.0-2.0-11.1-2.1","battery-v0.2","","""event"",""trial"",""time""
""fullscreenenter"",""1"",""5658""
","
","
","""event"",""trial"",""time""
""fullscreenenter"",""1"",""5658""
","
","","","-1","","","19","5127","3225","&#9761;","elianto","#3366ff99","-1","-1","1","+10","[]","0","0","2","","","","","","","",""
"pit-trial","45","549517","0.0-2.0-11.1-3.1","battery-v0.2","","""event"",""trial"",""time""
""fullscreenenter"",""1"",""5658""
","
","
","""event"",""trial"",""time""
""fullscreenenter"",""1"",""5658""
","
","","","-1","","","19","5127","3225","&#9761;","elianto","#3366ff99","-1","-1","1","0","[]","0","0","2","","","","","","","",""
"pit-trial","46","554376","0.0-2.0-11.1-4.1","battery-v0.2","","""event"",""trial"",""time""
""fullscreenenter"",""1"",""5658""
","
","
","""event"",""trial"",""time""
""fullscreenenter"",""1"",""5658""
","
","","","-1","","","19","5127","3225","&#9761;","elianto","#3366ff99","-1","-1","1","+10","[]","0","0","2","","","","","","","",""
"pit-trial","47","559239","0.0-2.0-11.2-0.2","battery-v0.2","","""event"",""trial"",""time""
""fullscreenenter"",""1"",""5658""
","
","
","""event"",""trial"",""time""
""fullscreenenter"",""1"",""5658""
","
","","","-1","","","19","5127","3225","&#9761;","elianto","#3366ff99","-1","-1","1","+10","[]","0","0","2","","","","","","","",""
"pit-trial","48","564104","0.0-2.0-11.2-1.2","battery-v0.2","","""event"",""trial"",""time""
""fullscreenenter"",""1"",""5658""
","
","
","""event"",""trial"",""time""
""fullscreenenter"",""1"",""5658""
","
","","","-1","","","19","5127","3225","&#9761;","elianto","#3366ff99","-1","-1","1","+10","[]","0","0","2","","","","","","","",""
"pit-trial","49","568967","0.0-2.0-11.2-2.2","battery-v0.2","","""event"",""trial"",""time""
""fullscreenenter"",""1"",""5658""
","
","
","""event"",""trial"",""time""
""fullscreenenter"",""1"",""5658""
","
","","","-1","","","19","5127","3225","&#9761;","elianto","#3366ff99","-1","-1","1","+10","[]","0","0","2","","","","","","","",""
"pit-trial","50","573829","0.0-2.0-11.2-3.2","battery-v0.2","","""event"",""trial"",""time""
""fullscreenenter"",""1"",""5658""
","
","
","""event"",""trial"",""time""
""fullscreenenter"",""1"",""5658""
","
","","","-1","","","19","5127","3225","&#9761;","elianto","#3366ff99","-1","-1","1","0","[]","0","0","2","","","","","","","",""
"pit-trial","51","578688","0.0-2.0-11.2-4.2","battery-v0.2","","""event"",""trial"",""time""
""fullscreenenter"",""1"",""5658""
","
","
","""event"",""trial"",""time""
""fullscreenenter"",""1"",""5658""
","
","","","-1","","","19","5127","3225","&#9761;","elianto","#3366ff99","-1","-1","1","+10","[]","0","0","2","","","","","","","",""
"pit-trial","52","583554","0.0-2.0-11.3-0.3","battery-v0.2","","""event"",""trial"",""time""
""fullscreenenter"",""1"",""5658""
","
","
","""event"",""trial"",""time""
""fullscreenenter"",""1"",""5658""
","
","","","-1","","","19","5127","3225","&#9761;","elianto","#3366ff99","-1","-1","1","+10","[]","0","0","2","","","","","","","",""
"pit-trial","53","588418","0.0-2.0-11.3-1.3","battery-v0.2","","""event"",""trial"",""time""
""fullscreenenter"",""1"",""5658""
","
","
","""event"",""trial"",""time""
""fullscreenenter"",""1"",""5658""
","
","","","-1","","","19","5127","3225","&#9761;","elianto","#3366ff99","-1","-1","1","+10","[]","0","0","2","","","","","","","",""
"pit-trial","54","593283","0.0-2.0-11.3-2.3","battery-v0.2","","""event"",""trial"",""time""
""fullscreenenter"",""1"",""5658""
","
","
","""event"",""trial"",""time""
""fullscreenenter"",""1"",""5658""
","
","","","-1","","","19","5127","3225","&#9761;","elianto","#3366ff99","-1","-1","1","+10","[]","0","0","2","","","","","","","",""
"pit-trial","55","598146","0.0-2.0-11.3-3.3","battery-v0.2","","""event"",""trial"",""time""
""fullscreenenter"",""1"",""5658""
","
","
","""event"",""trial"",""time""
""fullscreenenter"",""1"",""5658""
","
","","","-1","","","19","5127","3225","&#9761;","elianto","#3366ff99","-1","-1","1","0","[]","0","0","2","","","","","","","",""
"pit-trial","56","603005","0.0-2.0-11.3-4.3","battery-v0.2","","""event"",""trial"",""time""
""fullscreenenter"",""1"",""5658""
","
","
","""event"",""trial"",""time""
""fullscreenenter"",""1"",""5658""
","
","","","-1","","","19","5127","3225","&#9761;","elianto","#3366ff99","-1","-1","1","+10","[]","0","0","2","","","","","","","",""
"call-function","57","603008","0.0-2.0-12.0","battery-v0.2","","""event"",""trial"",""time""
""fullscreenenter"",""1"",""5658""
","
","
","""event"",""trial"",""time""
""fullscreenenter"",""1"",""5658""
","
","","","","","","","","","","","","","","","","","","","","","","","","","","",""
"pit-instructions","58","665425","0.0-2.0-13.0","battery-v0.2","","""event"",""trial"",""time""
""fullscreenenter"",""1"",""5658""
","
","
","""event"",""trial"",""time""
""fullscreenenter"",""1"",""5658""
","
","","[{""page_index"":0,""viewing_time"":9075.90000000596},{""page_index"":1,""viewing_time"":20671},{""page_index"":2,""viewing_time"":7820.799999982119},{""page_index"":3,""viewing_time"":14530},{""page_index"":4,""viewing_time"":10318.200000017881}]","62417.29999998212","","","","","","","","","","","","","","","","","","","","","","","",""
"pit-trial","59","669044","0.0-2.0-14.0-0.0","battery-v0.2","","""event"",""trial"",""time""
""fullscreenenter"",""1"",""5658""
","
","
","""event"",""trial"",""time""
""fullscreenenter"",""1"",""5658""
","
","","","758.6999999880791","","","19","5127","3225","&#9826;","elianto","#f73b6a7A","-1"," ","0","-10","[1609.2999999821186]","1","0","3","","","","","","","",""
"pit-trial","60","673902","0.0-2.0-14.0-1.0","battery-v0.2","","""event"",""trial"",""time""
""fullscreenenter"",""1"",""5658""
","
","
","""event"",""trial"",""time""
""fullscreenenter"",""1"",""5658""
","
","","","-1","","","19","5127","3225","&#9826;","elianto","#f73b6a7A","-1","-1","1","0","[]","0","0","3","","","","","","","",""
"pit-trial","61","678757","0.0-2.0-14.0-2.0","battery-v0.2","","""event"",""trial"",""time""
""fullscreenenter"",""1"",""5658""
","
","
","""event"",""trial"",""time""
""fullscreenenter"",""1"",""5658""
","
","","","-1","","","19","5127","3225","&#9826;","elianto","#f73b6a7A","-1","-1","1","0","[]","0","0","3","","","","","","","",""
"pit-trial","62","683615","0.0-2.0-14.0-3.0","battery-v0.2","","""event"",""trial"",""time""
""fullscreenenter"",""1"",""5658""
","
","
","""event"",""trial"",""time""
""fullscreenenter"",""1"",""5658""
","
","","","-1","","","19","5127","3225","&#9826;","elianto","#f73b6a7A","-1","-1","1","-10","[]","0","0","3","","","","","","","",""
"pit-trial","63","688472","0.0-2.0-14.0-4.0","battery-v0.2","","""event"",""trial"",""time""
""fullscreenenter"",""1"",""5658""
","
","
","""event"",""trial"",""time""
""fullscreenenter"",""1"",""5658""
","
","","","-1","","","19","5127","3225","&#9826;","elianto","#f73b6a7A","-1","-1","1","0","[]","0","0","3","","","","","","","",""
"pit-trial","64","693335","0.0-2.0-14.1-0.1","battery-v0.2","","""event"",""trial"",""time""
""fullscreenenter"",""1"",""5658""
","
","
","""event"",""trial"",""time""
""fullscreenenter"",""1"",""5658""
","
","","","-1","","","19","5127","3225","&#9826;","elianto","#f73b6a7A","-1","-1","1","0","[]","0","0","3","","","","","","","",""
"pit-trial","65","697415","0.0-2.0-14.1-1.1","battery-v0.2","","""event"",""trial"",""time""
""fullscreenenter"",""1"",""5658""
","
","
","""event"",""trial"",""time""
""fullscreenenter"",""1"",""5658""
","
","","","1220","","","19","5127","3225","&#9826;","elianto","#f73b6a7A","-1"," ","0","-10","[2072]","1","0","3","","","","","","","",""
"pit-trial","66","702279","0.0-2.0-14.1-2.1","battery-v0.2","","""event"",""trial"",""time""
""fullscreenenter"",""1"",""5658""
","
","
","""event"",""trial"",""time""
""fullscreenenter"",""1"",""5658""
","
","","","-1","","","19","5127","3225","&#9826;","elianto","#f73b6a7A","-1","-1","1","0","[]","0","0","3","","","","","","","",""
"pit-trial","67","707143","0.0-2.0-14.1-3.1","battery-v0.2","","""event"",""trial"",""time""
""fullscreenenter"",""1"",""5658""
","
","
","""event"",""trial"",""time""
""fullscreenenter"",""1"",""5658""
","
","","","-1","","","19","5127","3225","&#9826;","elianto","#f73b6a7A","-1","-1","1","-10","[]","0","0","3","","","","","","","",""
"pit-trial","68","712001","0.0-2.0-14.1-4.1","battery-v0.2","","""event"",""trial"",""time""
""fullscreenenter"",""1"",""5658""
","
","
","""event"",""trial"",""time""
""fullscreenenter"",""1"",""5658""
","
","","","-1","","","19","5127","3225","&#9826;","elianto","#f73b6a7A","-1","-1","1","0","[]","0","0","3","","","","","","","",""
"pit-trial","69","716865","0.0-2.0-14.2-0.2","battery-v0.2","","""event"",""trial"",""time""
""fullscreenenter"",""1"",""5658""
","
","
","""event"",""trial"",""time""
""fullscreenenter"",""1"",""5658""
","
","","","-1","","","19","5127","3225","&#9826;","elianto","#f73b6a7A","-1","-1","1","0","[]","0","0","3","","","","","","","",""
"pit-trial","70","721729","0.0-2.0-14.2-1.2","battery-v0.2","","""event"",""trial"",""time""
""fullscreenenter"",""1"",""5658""
","
","
","""event"",""trial"",""time""
""fullscreenenter"",""1"",""5658""
","
","","","-1","","","19","5127","3225","&#9826;","elianto","#f73b6a7A","-1","-1","1","0","[]","0","0","3","","","","","","","",""
"pit-trial","71","726592","0.0-2.0-14.2-2.2","battery-v0.2","","""event"",""trial"",""time""
""fullscreenenter"",""1"",""5658""
","
","
","""event"",""trial"",""time""
""fullscreenenter"",""1"",""5658""
","
","","","-1","","","19","5127","3225","&#9826;","elianto","#f73b6a7A","-1","-1","1","0","[]","0","0","3","","","","","","","",""
"pit-trial","72","731452","0.0-2.0-14.2-3.2","battery-v0.2","","""event"",""trial"",""time""
""fullscreenenter"",""1"",""5658""
","
","
","""event"",""trial"",""time""
""fullscreenenter"",""1"",""5658""
","
","","","-1","","","19","5127","3225","&#9826;","elianto","#f73b6a7A","-1","-1","1","-10","[]","0","0","3","","","","","","","",""
"pit-trial","73","736316","0.0-2.0-14.2-4.2","battery-v0.2","","""event"",""trial"",""time""
""fullscreenenter"",""1"",""5658""
","
","
","""event"",""trial"",""time""
""fullscreenenter"",""1"",""5658""
","
","","","-1","","","19","5127","3225","&#9826;","elianto","#f73b6a7A","-1","-1","1","0","[]","0","0","3","","","","","","","",""
"pit-trial","74","741180","0.0-2.0-14.3-0.3","battery-v0.2","","""event"",""trial"",""time""
""fullscreenenter"",""1"",""5658""
","
","
","""event"",""trial"",""time""
""fullscreenenter"",""1"",""5658""
","
","","","-1","","","19","5127","3225","&#9826;","elianto","#f73b6a7A","-1","-1","1","0","[]","0","0","3","","","","","","","",""
"pit-trial","75","746044","0.0-2.0-14.3-1.3","battery-v0.2","","""event"",""trial"",""time""
""fullscreenenter"",""1"",""5658""
","
","
","""event"",""trial"",""time""
""fullscreenenter"",""1"",""5658""
","
","","","-1","","","19","5127","3225","&#9826;","elianto","#f73b6a7A","-1","-1","1","0","[]","0","0","3","","","","","","","",""
"pit-trial","76","750908","0.0-2.0-14.3-2.3","battery-v0.2","","""event"",""trial"",""time""
""fullscreenenter"",""1"",""5658""
","
","
","""event"",""trial"",""time""
""fullscreenenter"",""1"",""5658""
","
","","","-1","","","19","5127","3225","&#9826;","elianto","#f73b6a7A","-1","-1","1","0","[]","0","0","3","","","","","","","",""
"pit-trial","77","755771","0.0-2.0-14.3-3.3","battery-v0.2","","""event"",""trial"",""time""
""fullscreenenter"",""1"",""5658""
","
","
","""event"",""trial"",""time""
""fullscreenenter"",""1"",""5658""
","
","","","-1","","","19","5127","3225","&#9826;","elianto","#f73b6a7A","-1","-1","1","-10","[]","0","0","3","","","","","","","",""
"pit-trial","78","760652","0.0-2.0-14.3-4.3","battery-v0.2","","""event"",""trial"",""time""
""fullscreenenter"",""1"",""5658""
","
","
","""event"",""trial"",""time""
""fullscreenenter"",""1"",""5658""
","
","","","-1","","","19","5127","3225","&#9826;","elianto","#f73b6a7A","-1","-1","1","0","[]","0","0","3","","","","","","","",""
"call-function","79","760655","0.0-2.0-15.0","battery-v0.2","","""event"",""trial"",""time""
""fullscreenenter"",""1"",""5658""
","
","
","""event"",""trial"",""time""
""fullscreenenter"",""1"",""5658""
","
","","","","","","","","","","","","","","","","","","","","","","","","","","",""
"pit-instructions","80","799987","0.0-2.0-16.0","battery-v0.2","","""event"",""trial"",""time""
""fullscreenenter"",""1"",""5658""
","
","
","""event"",""trial"",""time""
""fullscreenenter"",""1"",""5658""
","
","","[{""page_index"":0,""viewing_time"":11006.59999999404},{""page_index"":1,""viewing_time"":15459.90000000596},{""page_index"":2,""viewing_time"":6501.700000017881},{""page_index"":3,""viewing_time"":6362.699999988079}]","39332.30000001192","","","","","","","","","","","","","","","","","","","","","","","",""
"pit-trial","81","804391","0.0-2.0-17.0-0.0","battery-v0.2","","""event"",""trial"",""time""
""fullscreenenter"",""1"",""5658""
","
","
","""event"",""trial"",""time""
""fullscreenenter"",""1"",""5658""
","
","","","1548.300000011921","","","19","5127","3225","&#9789;","elianto","#f73b6a7A"," "," ","1","0","[2398.399999976158]","1","0","4","","","","","","","",""
"pit-trial","82","807395","0.0-2.0-17.0-1.0","battery-v0.2","","""event"",""trial"",""time""
""fullscreenenter"",""1"",""5658""
","
","
","""event"",""trial"",""time""
""fullscreenenter"",""1"",""5658""
","
","","","143.19999998807907","","","19","5127","3225","&#9789;","elianto","#f73b6a7A"," "," ","1","0","[993.8000000119209]","1","0","4","","","","","","","",""
"pit-trial","83","810411","0.0-2.0-17.0-2.0","battery-v0.2","","""event"",""trial"",""time""
""fullscreenenter"",""1"",""5658""
","
","
","""event"",""trial"",""time""
""fullscreenenter"",""1"",""5658""
","
","","","158","","","19","5127","3225","&#9789;","elianto","#f73b6a7A"," "," ","1","0","[1009.5999999940395]","1","0","4","","","","","","","",""
"pit-trial","84","815266","0.0-2.0-17.0-3.0","battery-v0.2","","""event"",""trial"",""time""
""fullscreenenter"",""1"",""5658""
","
","
","""event"",""trial"",""time""
""fullscreenenter"",""1"",""5658""
","
","","","-1","","","19","5127","3225","&#9789;","elianto","#f73b6a7A"," ","-1","0","0","[]","0","0","4","","","","","","","",""
"pit-trial","85","820126","0.0-2.0-17.0-4.0","battery-v0.2","","""event"",""trial"",""time""
""fullscreenenter"",""1"",""5658""
","
","
","""event"",""trial"",""time""
""fullscreenenter"",""1"",""5658""
","
","","","-1","","","19","5127","3225","&#9789;","elianto","#f73b6a7A"," ","-1","0","-10","[]","0","0","4","","","","","","","",""
"pit-trial","86","824983","0.0-2.0-17.1-0.1","battery-v0.2","","""event"",""trial"",""time""
""fullscreenenter"",""1"",""5658""
","
","
","""event"",""trial"",""time""
""fullscreenenter"",""1"",""5658""
","
","","","-1","","","19","5127","3225","&#9789;","elianto","#f73b6a7A"," ","-1","0","-10","[3287.2000000178814]","1","0","4","","","","","","","",""
"pit-trial","87","828086","0.0-2.0-17.1-1.1","battery-v0.2","","""event"",""trial"",""time""
""fullscreenenter"",""1"",""5658""
","
","
","""event"",""trial"",""time""
""fullscreenenter"",""1"",""5658""
","
","","","243.19999998807907","","","19","5127","3225","&#9789;","elianto","#f73b6a7A"," "," ","1","0","[1095.5999999940395]","1","0","4","","","","","","","",""
"pit-trial","88","831412","0.0-2.0-17.1-2.1","battery-v0.2","","""event"",""trial"",""time""
""fullscreenenter"",""1"",""5658""
","
","
","""event"",""trial"",""time""
""fullscreenenter"",""1"",""5658""
","
","","","467.69999998807907","","","19","5127","3225","&#9789;","elianto","#f73b6a7A"," "," ","1","0","[1317.9000000059605,2854.800000011921]","2","0","4","","","","","","","",""
"pit-trial","89","834452","0.0-2.0-17.1-3.1","battery-v0.2","","""event"",""trial"",""time""
""fullscreenenter"",""1"",""5658""
","
","
","""event"",""trial"",""time""
""fullscreenenter"",""1"",""5658""
","
","","","183.30000001192093","","","19","5127","3225","&#9789;","elianto","#f73b6a7A"," "," ","1","-10","[1033.800000011921]","1","0","4","","","","","","","",""
"pit-trial","90","838618","0.0-2.0-17.1-4.1","battery-v0.2","","""event"",""trial"",""time""
""fullscreenenter"",""1"",""5658""
","
","
","""event"",""trial"",""time""
""fullscreenenter"",""1"",""5658""
","
","","","1308.2000000178814","","","19","5127","3225","&#9789;","elianto","#f73b6a7A"," "," ","1","0","[2158.800000011921]","1","0","4","","","","","","","",""
"pit-trial","91","841753","0.0-2.0-17.2-0.2","battery-v0.2","","""event"",""trial"",""time""
""fullscreenenter"",""1"",""5658""
","
","
","""event"",""trial"",""time""
""fullscreenenter"",""1"",""5658""
","
","","","275.40000000596046","","","19","5127","3225","&#9789;","elianto","#f73b6a7A"," "," ","1","0","[1126.2000000178814]","1","0","4","","","","","","","",""
"pit-trial","92","844966","0.0-2.0-17.2-1.2","battery-v0.2","","""event"",""trial"",""time""
""fullscreenenter"",""1"",""5658""
","
","
","""event"",""trial"",""time""
""fullscreenenter"",""1"",""5658""
","
","","","353.69999998807907","","","19","5127","3225","&#9789;","elianto","#f73b6a7A"," "," ","1","0","[1203.699999988079]","1","0","4","","","","","","","",""
"pit-trial","93","848180","0.0-2.0-17.2-2.2","battery-v0.2","","""event"",""trial"",""time""
""fullscreenenter"",""1"",""5658""
","
","
","""event"",""trial"",""time""
""fullscreenenter"",""1"",""5658""
","
","","","355.40000000596046","","","19","5127","3225","&#9789;","elianto","#f73b6a7A"," "," ","1","0","[1205.7000000178814]","1","0","4","","","","","","","",""
"pit-trial","94","851179","0.0-2.0-17.2-3.2","battery-v0.2","","""event"",""trial"",""time""
""fullscreenenter"",""1"",""5658""
","
","
","""event"",""trial"",""time""
""fullscreenenter"",""1"",""5658""
","
","","","140.90000000596046","","","19","5127","3225","&#9789;","elianto","#f73b6a7A"," "," ","1","-10","[992.7999999821186]","1","0","4","","","","","","","",""
"pit-trial","95","854148","0.0-2.0-17.2-4.2","battery-v0.2","","""event"",""trial"",""time""
""fullscreenenter"",""1"",""5658""
","
","
","""event"",""trial"",""time""
""fullscreenenter"",""1"",""5658""
","
","","","109.5","","","19","5127","3225","&#9789;","elianto","#f73b6a7A"," "," ","1","0","[961.5999999940395]","1","0","4","","","","","","","",""
"pit-trial","96","857257","0.0-2.0-17.3-0.3","battery-v0.2","","""event"",""trial"",""time""
""fullscreenenter"",""1"",""5658""
","
","
","""event"",""trial"",""time""
""fullscreenenter"",""1"",""5658""
","
","","","245.59999999403954","","","19","5127","3225","&#9789;","elianto","#f73b6a7A"," "," ","1","0","[1098.5]","1","0","4","","","","","","","",""
"pit-trial","97","861295","0.0-2.0-17.3-1.3","battery-v0.2","","""event"",""trial"",""time""
""fullscreenenter"",""1"",""5658""
","
","
","""event"",""trial"",""time""
""fullscreenenter"",""1"",""5658""
","
","","","1181.5","","","19","5127","3225","&#9789;","elianto","#f73b6a7A"," "," ","1","0","[235.59999999403954,2032.199999988079]","2","0","4","","","","","","","",""
"pit-trial","98","864765","0.0-2.0-17.3-2.3","battery-v0.2","","""event"",""trial"",""time""
""fullscreenenter"",""1"",""5658""
","
","
","""event"",""trial"",""time""
""fullscreenenter"",""1"",""5658""
","
","","","609.5","","","19","5127","3225","&#9789;","elianto","#f73b6a7A"," "," ","1","0","[480,1460.7000000178814]","2","0","4","","","","","","","",""
"pit-trial","99","867798","0.0-2.0-17.3-3.3","battery-v0.2","","""event"",""trial"",""time""
""fullscreenenter"",""1"",""5658""
","
","
","""event"",""trial"",""time""
""fullscreenenter"",""1"",""5658""
","
","","","176.40000000596046","","","19","5127","3225","&#9789;","elianto","#f73b6a7A"," "," ","1","-10","[1026.9000000059605]","1","0","4","","","","","","","",""
"pit-trial","100","870815","0.0-2.0-17.3-4.3","battery-v0.2","","""event"",""trial"",""time""
""fullscreenenter"",""1"",""5658""
","
","
","""event"",""trial"",""time""
""fullscreenenter"",""1"",""5658""
","
","","","154.09999999403954","","","19","5127","3225","&#9789;","elianto","#f73b6a7A"," "," ","1","0","[1006]","1","0","4","","","","","","","",""
"call-function","101","870818","0.0-2.0-18.0","battery-v0.2","","""event"",""trial"",""time""
""fullscreenenter"",""1"",""5658""
","
","
","""event"",""trial"",""time""
""fullscreenenter"",""1"",""5658""
","
","","","","","","","","","","","","","","","","","","","","","","","","","","",""
"pit-instructions","102","957471","0.0-2.0-19.0","battery-v0.2","","""event"",""trial"",""time""
""fullscreenenter"",""1"",""5658""
","
","
","""event"",""trial"",""time""
""fullscreenenter"",""1"",""5658""
","
","","[{""page_index"":0,""viewing_time"":7327.0999999940395},{""page_index"":1,""viewing_time"":9521.90000000596},{""page_index"":2,""viewing_time"":16487.90000000596},{""page_index"":3,""viewing_time"":9813},{""page_index"":4,""viewing_time"":10383.40000000596},{""page_index"":5,""viewing_time"":9791.09999999404},{""page_index"":6,""viewing_time"":6524.699999988079},{""page_index"":7,""viewing_time"":9009},{""page_index"":8,""viewing_time"":7794}]","86653.80000001192","","","","","","","","","","","","","","","","","","","","","","","",""
"pit-comprehension","103","962452","0.0-2.0-20.0-0.0","battery-v0.2","","""event"",""trial"",""time""
""fullscreenenter"",""1"",""5658""
","
","
","""event"",""trial"",""time""
""fullscreenenter"",""1"",""5658""
","
","","","4975.5","[""SPACE""]","0","19","5127","3225","","","","","","","","","","","","","","","","","","",""
"pit-instructions","104","968483","0.0-2.0-20.0-1.0","battery-v0.2","","""event"",""trial"",""time""
""fullscreenenter"",""1"",""5658""
","
","
","""event"",""trial"",""time""
""fullscreenenter"",""1"",""5658""
","
","","[{""page_index"":0,""viewing_time"":6007.199999988079}]","6007.899999976158","","","","","","","","","","","","","","","","","","","","","","","",""
"pit-comprehension","105","973300","0.0-2.0-21.0-0.0","battery-v0.2","","""event"",""trial"",""time""
""fullscreenenter"",""1"",""5658""
","
","
","""event"",""trial"",""time""
""fullscreenenter"",""1"",""5658""
","
","","","4812.0999999940395","[""10""]","0","19","5127","3225","","","","","","","","","","","","","","","","","","",""
"pit-instructions","106","977657","0.0-2.0-21.0-1.0","battery-v0.2","","""event"",""trial"",""time""
""fullscreenenter"",""1"",""5658""
","
","
","""event"",""trial"",""time""
""fullscreenenter"",""1"",""5658""
","
","","[{""page_index"":0,""viewing_time"":4329.5}]","4330.5","","","","","","","","","","","","","","","","","","","","","","","",""
"pit-comprehension","107","988546","0.0-2.0-22.0-0.0","battery-v0.2","","""event"",""trial"",""time""
""fullscreenenter"",""1"",""5658""
","
","
","""event"",""trial"",""time""
""fullscreenenter"",""1"",""5658""
","
","","","10882.09999999404","[""0""]","0","19","5127","3225","","","","","","","","","","","","","","","","","","",""
"pit-instructions","108","990996","0.0-2.0-22.0-1.0","battery-v0.2","","""event"",""trial"",""time""
""fullscreenenter"",""1"",""5658""
","
","
","""event"",""trial"",""time""
""fullscreenenter"",""1"",""5658""
","
","","[{""page_index"":0,""viewing_time"":2423.5999999940395}]","2424.2999999821186","","","","","","","","","","","","","","","","","","","","","","","",""
"pit-comprehension","109","1002031","0.0-2.0-23.0-0.0","battery-v0.2","","""event"",""trial"",""time""
""fullscreenenter"",""1"",""5658""
","
","
","""event"",""trial"",""time""
""fullscreenenter"",""1"",""5658""
","
","","","11029.90000000596","[""True""]","0","19","5127","3225","","","","","","","","","","","","","","","","","","",""
"pit-instructions","110","1006333","0.0-2.0-23.0-1.0","battery-v0.2","","""event"",""trial"",""time""
""fullscreenenter"",""1"",""5658""
","
","
","""event"",""trial"",""time""
""fullscreenenter"",""1"",""5658""
","
","","[{""page_index"":0,""viewing_time"":4272.9000000059605}]","4273.600000023842","","","","","","","","","","","","","","","","","","","","","","","",""
"pit-comprehension","111","1014433","0.0-2.0-24.0-0.0","battery-v0.2","","""event"",""trial"",""time""
""fullscreenenter"",""1"",""5658""
","
","
","""event"",""trial"",""time""
""fullscreenenter"",""1"",""5658""
","
","","","8094.800000011921","[""True""]","0","19","5127","3225","","","","","","","","","","","","","","","","","","",""
"pit-instructions","112","1016218","0.0-2.0-24.0-1.0","battery-v0.2","","""event"",""trial"",""time""
""fullscreenenter"",""1"",""5658""
","
","
","""event"",""trial"",""time""
""fullscreenenter"",""1"",""5658""
","
","","[{""page_index"":0,""viewing_time"":1755.699999988079}]","1756.5999999940395","","","","","","","","","","","","","","","","","","","","","","","",""
"pit-comprehension","113","1025208","0.0-2.0-25.0-0.0","battery-v0.2","","""event"",""trial"",""time""
""fullscreenenter"",""1"",""5658""
","
","
","""event"",""trial"",""time""
""fullscreenenter"",""1"",""5658""
","
","","","8985.199999988079","[""True""]","0","19","5127","3225","","","","","","","","","","","","","","","","","","",""
"pit-instructions","114","1026802","0.0-2.0-25.0-1.0","battery-v0.2","","""event"",""trial"",""time""
""fullscreenenter"",""1"",""5658""
","
","
","""event"",""trial"",""time""
""fullscreenenter"",""1"",""5658""
","
","","[{""page_index"":0,""viewing_time"":1564.1000000238419}]","1564.800000011921","","","","","","","","","","","","","","","","","","","","","","","",""
"pit-comprehension","115","1033636","0.0-2.0-26.0-0.0","battery-v0.2","","""event"",""trial"",""time""
""fullscreenenter"",""1"",""5658""
","
","
","""event"",""trial"",""time""
""fullscreenenter"",""1"",""5658""
","
","","","6828.5999999940395","[""False""]","0","19","5127","3225","","","","","","","","","","","","","","","","","","",""
"pit-instructions","116","1035791","0.0-2.0-26.0-1.0","battery-v0.2","","""event"",""trial"",""time""
""fullscreenenter"",""1"",""5658""
","
","
","""event"",""trial"",""time""
""fullscreenenter"",""1"",""5658""
","
","","[{""page_index"":0,""viewing_time"":2124.7000000178814}]","2125.5","","","","","","","","","","","","","","","","","","","","","","","",""
"pit-instructions","117","1066508","0.0-3.0","battery-v0.2","","""event"",""trial"",""time""
""fullscreenenter"",""1"",""5658""
","
","
","""event"",""trial"",""time""
""fullscreenenter"",""1"",""5658""
","
","","[{""page_index"":0,""viewing_time"":5604},{""page_index"":1,""viewing_time"":7819},{""page_index"":2,""viewing_time"":17289.59999999404}]","30713.40000000596","","","","","","","","","","","","","","","","","","","","","","","",""
"pit-trial","118","1070735","0.0-4.0","battery-v0.2","","""event"",""trial"",""time""
""fullscreenenter"",""1"",""5658""
","
","
","""event"",""trial"",""time""
""fullscreenenter"",""1"",""5658""
","
","","","1364.2000000178814","","","19","5127","3225","&#9752;","elianto","#f73b6a7A"," "," ","1","0","[2215.199999988079]","1","1","","","5127","1","3","3","lose","go","0"
"pit-trial","119","1075596","0.0-5.0","battery-v0.2","","""event"",""trial"",""time""
""fullscreenenter"",""1"",""5658""
","
","
","""event"",""trial"",""time""
""fullscreenenter"",""1"",""5658""
","
","","","-1","","","19","5127","3225","&#9728;","elianto","#f73b6a7A","-1","-1","1","-10","[]","0","1","","","5127","2","0","4","lose","no-go","1"
"pit-trial","120","1079139","0.0-6.0","battery-v0.2","","""event"",""trial"",""time""
""fullscreenenter"",""1"",""5658""
","
","
","""event"",""trial"",""time""
""fullscreenenter"",""1"",""5658""
","
","","","686","","","19","5127","3225","&#9730;","elianto","#3366ff99"," "," ","1","0","[1536.2000000178814]","1","1","","","5127","3","1","1","win","go","1"
"pit-trial","121","1082264","0.0-7.0","battery-v0.2","","""event"",""trial"",""time""
""fullscreenenter"",""1"",""5658""
","
","
","""event"",""trial"",""time""
""fullscreenenter"",""1"",""5658""
","
","","","266.30000001192093","","","19","5127","3225","&#9733;","elianto","#3366ff99","-1"," ","0","0","[1116.300000011921]","1","1","","","5127","4","2","2","win","no-go","0"
"pit-trial","122","1085531","0.0-8.0","battery-v0.2","","""event"",""trial"",""time""
""fullscreenenter"",""1"",""5658""
","
","
","""event"",""trial"",""time""
""fullscreenenter"",""1"",""5658""
","
","","","405.90000000596046","","","19","5127","3225","&#9730;","elianto","#3366ff99"," "," ","1","0","[1258.5]","1","1","","","5127","5","1","1","win","go","1"
"pit-trial","123","1090394","0.0-9.0","battery-v0.2","","""event"",""trial"",""time""
""fullscreenenter"",""1"",""5658""
","
","
","""event"",""trial"",""time""
""fullscreenenter"",""1"",""5658""
","
","","","-1","","","19","5127","3225","&#9752;","elianto","#f73b6a7A"," ","-1","0","-10","[]","0","1","","","5127","6","3","3","lose","go","0"
"pit-trial","124","1093943","0.0-10.0","battery-v0.2","","""event"",""trial"",""time""
""fullscreenenter"",""1"",""5658""
","
","
","""event"",""trial"",""time""
""fullscreenenter"",""1"",""5658""
","
","","","692.5","","","19","5127","3225","&#9733;","elianto","#3366ff99","-1"," ","0","0","[1544]","1","1","","","5127","7","2","2","win","no-go","0"
"pit-trial","125","1098805","0.0-11.0","battery-v0.2","","""event"",""trial"",""time""
""fullscreenenter"",""1"",""5658""
","
","
","""event"",""trial"",""time""
""fullscreenenter"",""1"",""5658""
","
","","","-1","","","19","5127","3225","&#9728;","elianto","#f73b6a7A","-1","-1","1","0","[]","0","1","","","5127","8","0","4","lose","no-go","0"
"pit-trial","126","1102655","0.0-12.0","battery-v0.2","","""event"",""trial"",""time""
""fullscreenenter"",""1"",""5658""
","
","
","""event"",""trial"",""time""
""fullscreenenter"",""1"",""5658""
","
","","","993.4000000059605","","","19","5127","3225","&#9730;","elianto","#3366ff99"," "," ","1","+10","[1843.5]","1","1","","","5127","9","1","1","win","go","0"
"pit-trial","127","1107519","0.0-13.0","battery-v0.2","","""event"",""trial"",""time""
""fullscreenenter"",""1"",""5658""
","
","
","""event"",""trial"",""time""
""fullscreenenter"",""1"",""5658""
","
","","","-1","","","19","5127","3225","&#9752;","elianto","#f73b6a7A"," ","-1","0","-10","[]","0","1","","","5127","10","3","3","lose","go","0"
"pit-trial","128","1112383","0.0-14.0","battery-v0.2","","""event"",""trial"",""time""
""fullscreenenter"",""1"",""5658""
","
","
","""event"",""trial"",""time""
""fullscreenenter"",""1"",""5658""
","
","","","-1","","","19","5127","3225","&#9733;","elianto","#3366ff99","-1","-1","1","+10","[]","0","1","","","5127","11","2","2","win","no-go","0"
"pit-trial","129","1116830","0.0-15.0","battery-v0.2","","""event"",""trial"",""time""
""fullscreenenter"",""1"",""5658""
","
","
","""event"",""trial"",""time""
""fullscreenenter"",""1"",""5658""
","
","","","1589.5","","","19","5127","3225","&#9728;","elianto","#f73b6a7A","-1"," ","0","-10","[2441.7999999821186]","1","1","","","5127","12","0","4","lose","no-go","0"
"pit-trial","130","1121689","0.0-16.0","battery-v0.2","","""event"",""trial"",""time""
""fullscreenenter"",""1"",""5658""
","
","
","""event"",""trial"",""time""
""fullscreenenter"",""1"",""5658""
","
","","","-1","","","19","5127","3225","&#9728;","elianto","#f73b6a7A","-1","-1","1","0","[]","0","1","","","5127","13","0","4","lose","no-go","0"
"pit-trial","131","1125454","0.0-17.0","battery-v0.2","","""event"",""trial"",""time""
""fullscreenenter"",""1"",""5658""
","
","
","""event"",""trial"",""time""
""fullscreenenter"",""1"",""5658""
","
","","","906.7000000178814","","","19","5127","3225","&#9730;","elianto","#3366ff99"," "," ","1","0","[1757.2000000178814]","1","1","","","5127","14","1","1","win","go","1"
"pit-trial","132","1130317","0.0-18.0","battery-v0.2","","""event"",""trial"",""time""
""fullscreenenter"",""1"",""5658""
","
","
","""event"",""trial"",""time""
""fullscreenenter"",""1"",""5658""
","
","","","-1","","","19","5127","3225","&#9733;","elianto","#3366ff99","-1","-1","1","0","[]","0","1","","","5127","15","2","2","win","no-go","1"
"pit-trial","133","1135177","0.0-19.0","battery-v0.2","","""event"",""trial"",""time""
""fullscreenenter"",""1"",""5658""
","
","
","""event"",""trial"",""time""
""fullscreenenter"",""1"",""5658""
","
","","","-1","","","19","5127","3225","&#9752;","elianto","#f73b6a7A"," ","-1","0","-10","[]","0","1","","","5127","16","3","3","lose","go","0"
"pit-trial","134","1139182","0.0-20.0","battery-v0.2","","""event"",""trial"",""time""
""fullscreenenter"",""1"",""5658""
","
","
","""event"",""trial"",""time""
""fullscreenenter"",""1"",""5658""
","
","","","1145","","","19","5127","3225","&#9730;","elianto","#3366ff99"," "," ","1","+10","[1996.2000000178814]","1","1","","","5127","17","1","1","win","go","0"
"pit-trial","135","1144043","0.0-21.0","battery-v0.2","","""event"",""trial"",""time""
""fullscreenenter"",""1"",""5658""
","
","
","""event"",""trial"",""time""
""fullscreenenter"",""1"",""5658""
","
","","","-1","","","19","5127","3225","&#9728;","elianto","#f73b6a7A","-1","-1","1","0","[]","0","1","","","5127","18","0","4","lose","no-go","0"
"pit-trial","136","1148901","0.0-22.0","battery-v0.2","","""event"",""trial"",""time""
""fullscreenenter"",""1"",""5658""
","
","
","""event"",""trial"",""time""
""fullscreenenter"",""1"",""5658""
","
","","","-1","","","19","5127","3225","&#9733;","elianto","#3366ff99","-1","-1","1","0","[]","0","1","","","5127","19","2","2","win","no-go","1"
"pit-trial","137","1153134","0.0-23.0","battery-v0.2","","""event"",""trial"",""time""
""fullscreenenter"",""1"",""5658""
","
","
","""event"",""trial"",""time""
""fullscreenenter"",""1"",""5658""
","
","","","1376.800000011921","","","19","5127","3225","&#9752;","elianto","#f73b6a7A"," "," ","1","0","[2228.2000000178814]","1","1","","","5127","20","3","3","lose","go","0"
"pit-instructions","138","1175792","0.0-24.0","battery-v0.2","","""event"",""trial"",""time""
""fullscreenenter"",""1"",""5658""
","
","
","""event"",""trial"",""time""
""fullscreenenter"",""1"",""5658""
","
","","[{""page_index"":0,""viewing_time"":15048.199999988079},{""page_index"":1,""viewing_time"":7606.100000023842}]","22655.40000000596","","","","","","","","","","","","","","","","","","","","","","","",""
"pit-trial","139","1180650","0.0-25.0","battery-v0.2","","""event"",""trial"",""time""
""fullscreenenter"",""1"",""5658""
","
","
","""event"",""trial"",""time""
""fullscreenenter"",""1"",""5658""
","
","","","-1","","","19","5127","3225","h","elianto","#f73b6a7A","-1","-1","1","-10","[]","0","2","","","5127","21","3","4","lose","no-go","1"
"pit-trial","140","1184409","0.0-26.0","battery-v0.2","","""event"",""trial"",""time""
""fullscreenenter"",""1"",""5658""
","
","
","""event"",""trial"",""time""
""fullscreenenter"",""1"",""5658""
","
","","","901.7999999821186","","","19","5127","3225","r","elianto","#3366ff99","-1"," ","0","0","[1753.699999988079]","1","2","","","5127","22","1","2","win","no-go","0"
"pit-trial","141","1189267","0.0-27.0","battery-v0.2","","""event"",""trial"",""time""
""fullscreenenter"",""1"",""5658""
","
","
","""event"",""trial"",""time""
""fullscreenenter"",""1"",""5658""
","
","","","-1","","","19","5127","3225","m","elianto","#f73b6a7A"," ","-1","0","-10","[]","0","2","","","5127","23","0","3","lose","go","0"
"pit-trial","142","1193005","0.0-28.0","battery-v0.2","","""event"",""trial"",""time""
""fullscreenenter"",""1"",""5658""
","
","
","""event"",""trial"",""time""
""fullscreenenter"",""1"",""5658""
","
","","","881.4000000059605","","","19","5127","3225","y","elianto","#f73b6a7A"," "," ","1","0","[1733.199999988079]","1","2","","","5127","24","2","3","lose","go","0"
"pit-trial","143","1196531","0.0-29.0","battery-v0.2","","""event"",""trial"",""time""
""fullscreenenter"",""1"",""5658""
","
","
","""event"",""trial"",""time""
""fullscreenenter"",""1"",""5658""
","
","","","669.5999999940395","","","19","5127","3225","m","elianto","#f73b6a7A"," "," ","1","0","[1519.9000000059605]","1","2","","","5127","25","0","3","lose","go","0"
"pit-trial","144","1200234","0.0-30.0","battery-v0.2","","""event"",""trial"",""time""
""fullscreenenter"",""1"",""5658""
","
","
","""event"",""trial"",""time""
""fullscreenenter"",""1"",""5658""
","
","","","844.1999999880791","","","19","5127","3225","r","elianto","#3366ff99","-1"," ","0","0","[1694.800000011921]","1","2","","","5127","26","1","2","win","no-go","0"
"pit-trial","145","1204091","0.0-31.0","battery-v0.2","","""event"",""trial"",""time""
""fullscreenenter"",""1"",""5658""
","
","
","""event"",""trial"",""time""
""fullscreenenter"",""1"",""5658""
","
","","","995.5","","","19","5127","3225","y","elianto","#f73b6a7A"," "," ","1","-10","[1847.699999988079]","1","2","","","5127","27","2","3","lose","go","1"
"pit-trial","146","1208318","0.0-32.0","battery-v0.2","","""event"",""trial"",""time""
""fullscreenenter"",""1"",""5658""
","
","
","""event"",""trial"",""time""
""fullscreenenter"",""1"",""5658""
","
","","","1366.5999999940395","","","19","5127","3225","h","elianto","#f73b6a7A","-1"," ","0","-10","[2217.199999988079]","1","2","","","5127","28","3","4","lose","no-go","0"
"pit-trial","147","1213182","0.0-33.0","battery-v0.2","","""event"",""trial"",""time""
""fullscreenenter"",""1"",""5658""
","
","
","""event"",""trial"",""time""
""fullscreenenter"",""1"",""5658""
","
","","","-1","","","19","5127","3225","m","elianto","#f73b6a7A"," ","-1","0","0","[145.5]","1","2","","","5127","29","0","3","lose","go","1"
"pit-trial","148","1217293","0.0-34.0","battery-v0.2","","""event"",""trial"",""time""
""fullscreenenter"",""1"",""5658""
","
","
","""event"",""trial"",""time""
""fullscreenenter"",""1"",""5658""
","
","","","1252.800000011921","","","19","5127","3225","y","elianto","#f73b6a7A"," "," ","1","0","[2105.4000000059605]","1","2","","","5127","30","2","3","lose","go","0"
"pit-trial","149","1221442","0.0-35.0","battery-v0.2","","""event"",""trial"",""time""
""fullscreenenter"",""1"",""5658""
","
","
","""event"",""trial"",""time""
""fullscreenenter"",""1"",""5658""
","
","","","1294.699999988079","","","19","5127","3225","r","elianto","#3366ff99","-1"," ","0","0","[2145.7999999821186]","1","2","","","5127","31","1","2","win","no-go","0"
"pit-trial","150","1226306","0.0-36.0","battery-v0.2","","""event"",""trial"",""time""
""fullscreenenter"",""1"",""5658""
","
","
","""event"",""trial"",""time""
""fullscreenenter"",""1"",""5658""
","
","","","-1","","","19","5127","3225","h","elianto","#f73b6a7A","-1","-1","1","0","[]","0","2","","","5127","32","3","4","lose","no-go","0"
"pit-trial","151","1231170","0.0-37.0","battery-v0.2","","""event"",""trial"",""time""
""fullscreenenter"",""1"",""5658""
","
","
","""event"",""trial"",""time""
""fullscreenenter"",""1"",""5658""
","
","","","-1","","","19","5127","3225","y","elianto","#f73b6a7A"," ","-1","0","-10","[]","0","2","","","5127","33","2","3","lose","go","0"
"pit-trial","152","1234690","0.0-38.0","battery-v0.2","","""event"",""trial"",""time""
""fullscreenenter"",""1"",""5658""
","
","
","""event"",""trial"",""time""
""fullscreenenter"",""1"",""5658""
","
","","","664","","","19","5127","3225","r","elianto","#3366ff99","-1"," ","0","0","[1514.300000011921]","1","2","","","5127","34","1","2","win","no-go","0"
"pit-trial","153","1239554","0.0-39.0","battery-v0.2","","""event"",""trial"",""time""
""fullscreenenter"",""1"",""5658""
","
","
","""event"",""trial"",""time""
""fullscreenenter"",""1"",""5658""
","
","","","-1","","","19","5127","3225","h","elianto","#f73b6a7A","-1","-1","1","0","[]","0","2","","","5127","35","3","4","lose","no-go","0"
"pit-trial","154","1244418","0.0-40.0","battery-v0.2","","""event"",""trial"",""time""
""fullscreenenter"",""1"",""5658""
","
","
","""event"",""trial"",""time""
""fullscreenenter"",""1"",""5658""
","
","","","-1","","","19","5127","3225","m","elianto","#f73b6a7A"," ","-1","0","-10","[]","0","2","","","5127","36","0","3","lose","go","0"
"pit-trial","155","1249282","0.0-41.0","battery-v0.2","","""event"",""trial"",""time""
""fullscreenenter"",""1"",""5658""
","
","
","""event"",""trial"",""time""
""fullscreenenter"",""1"",""5658""
","
","","","-1","","","19","5127","3225","r","elianto","#3366ff99","-1","-1","1","+10","[]","0","2","","","5127","37","1","2","win","no-go","0"
"pit-trial","156","1253159","0.0-42.0","battery-v0.2","","""event"",""trial"",""time""
""fullscreenenter"",""1"",""5658""
","
","
","""event"",""trial"",""time""
""fullscreenenter"",""1"",""5658""
","
","","","1014.9000000059605","","","19","5127","3225","m","elianto","#f73b6a7A"," "," ","1","0","[1867.7000000178814]","1","2","","","5127","38","0","3","lose","go","0"
"pit-trial","157","1257292","0.0-43.0","battery-v0.2","","""event"",""trial"",""time""
""fullscreenenter"",""1"",""5658""
","
","
","""event"",""trial"",""time""
""fullscreenenter"",""1"",""5658""
","
","","","1272.7999999821186","","","19","5127","3225","h","elianto","#f73b6a7A","-1"," ","0","-10","[2123.7999999821186]","1","2","","","5127","39","3","4","lose","no-go","0"
"pit-trial","158","1262151","0.0-44.0","battery-v0.2","","""event"",""trial"",""time""
""fullscreenenter"",""1"",""5658""
","
","
","""event"",""trial"",""time""
""fullscreenenter"",""1"",""5658""
","
","","","-1","","","19","5127","3225","y","elianto","#f73b6a7A"," ","-1","0","-10","[]","0","2","","","5127","40","2","3","lose","go","0"
"pit-trial","159","1267015","0.0-45.0","battery-v0.2","","""event"",""trial"",""time""
""fullscreenenter"",""1"",""5658""
","
","
","""event"",""trial"",""time""
""fullscreenenter"",""1"",""5658""
","
","","","-1","","","19","5127","3225","m","elianto","#f73b6a7A"," ","-1","0","-10","[]","0","2","","","5127","41","0","3","lose","go","0"
"pit-trial","160","1271023","0.0-46.0","battery-v0.2","","""event"",""trial"",""time""
""fullscreenenter"",""1"",""5658""
","
","
","""event"",""trial"",""time""
""fullscreenenter"",""1"",""5658""
","
","","","1146.1000000238419","","","19","5127","3225","h","elianto","#f73b6a7A","-1"," ","0","0","[1998.7999999821186]","1","2","","","5127","42","3","4","lose","no-go","1"
"pit-trial","161","1275362","0.0-47.0","battery-v0.2","","""event"",""trial"",""time""
""fullscreenenter"",""1"",""5658""
","
","
","""event"",""trial"",""time""
""fullscreenenter"",""1"",""5658""
","
","","","1483.8999999761581","","","19","5127","3225","y","elianto","#f73b6a7A"," "," ","1","0","[2334.4000000059605]","1","2","","","5127","43","2","3","lose","go","0"
"pit-trial","162","1278812","0.0-48.0","battery-v0.2","","""event"",""trial"",""time""
""fullscreenenter"",""1"",""5658""
","
","
","""event"",""trial"",""time""
""fullscreenenter"",""1"",""5658""
","
","","","592","","","19","5127","3225","r","elianto","#3366ff99","-1"," ","0","0","[1443.7999999821186,1812.5999999940395]","2","2","","","5127","44","1","2","win","no-go","0"
"pit-trial","163","1282412","0.0-49.0","battery-v0.2","","""event"",""trial"",""time""
""fullscreenenter"",""1"",""5658""
","
","
","""event"",""trial"",""time""
""fullscreenenter"",""1"",""5658""
","
","","","738.6999999880791","","","19","5127","3225","y","elianto","#f73b6a7A"," "," ","1","0","[1589.5]","1","2","","","5127","45","2","3","lose","go","0"
"pit-trial","164","1287276","0.0-50.0","battery-v0.2","","""event"",""trial"",""time""
""fullscreenenter"",""1"",""5658""
","
","
","""event"",""trial"",""time""
""fullscreenenter"",""1"",""5658""
","
","","","-1","","","19","5127","3225","r","elianto","#3366ff99","-1","-1","1","+10","[]","0","2","","","5127","46","1","2","win","no-go","0"
"pit-trial","165","1290678","0.0-51.0","battery-v0.2","","""event"",""trial"",""time""
""fullscreenenter"",""1"",""5658""
","
","
","""event"",""trial"",""time""
""fullscreenenter"",""1"",""5658""
","
","","","543.3000000119209","","","19","5127","3225","m","elianto","#f73b6a7A"," "," ","1","0","[1395]","1","2","","","5127","47","0","3","lose","go","0"
"pit-trial","166","1294259","0.0-52.0","battery-v0.2","","""event"",""trial"",""time""
""fullscreenenter"",""1"",""5658""
","
","
","""event"",""trial"",""time""
""fullscreenenter"",""1"",""5658""
","
","","","721.7999999821186","","","19","5127","3225","h","elianto","#f73b6a7A","-1"," ","0","-10","[1572.5]","1","2","","","5127","48","3","4","lose","no-go","0"
"pit-trial","167","1297778","0.0-53.0","battery-v0.2","","""event"",""trial"",""time""
""fullscreenenter"",""1"",""5658""
","
","
","""event"",""trial"",""time""
""fullscreenenter"",""1"",""5658""
","
","","","660.7000000178814","","","19","5127","3225","h","elianto","#f73b6a7A","-1"," ","0","-10","[1512.300000011921]","1","2","","","5127","49","3","4","lose","no-go","0"
"pit-trial","168","1302641","0.0-54.0","battery-v0.2","","""event"",""trial"",""time""
""fullscreenenter"",""1"",""5658""
","
","
","""event"",""trial"",""time""
""fullscreenenter"",""1"",""5658""
","
","","","-1","","","19","5127","3225","r","elianto","#3366ff99","-1","-1","1","+10","[]","0","2","","","5127","50","1","2","win","no-go","0"
"pit-trial","169","1306735","0.0-55.0","battery-v0.2","","""event"",""trial"",""time""
""fullscreenenter"",""1"",""5658""
","
","
","""event"",""trial"",""time""
""fullscreenenter"",""1"",""5658""
","
","","","1232.7999999821186","","","19","5127","3225","y","elianto","#f73b6a7A"," "," ","1","-10","[2083.5999999940395]","1","2","","","5127","51","2","3","lose","go","1"
"pit-trial","170","1310742","0.0-56.0","battery-v0.2","","""event"",""trial"",""time""
""fullscreenenter"",""1"",""5658""
","
","
","""event"",""trial"",""time""
""fullscreenenter"",""1"",""5658""
","
","","","1148.800000011921","","","19","5127","3225","m","elianto","#f73b6a7A"," "," ","1","0","[1998.9000000059605]","1","2","","","5127","52","0","3","lose","go","0"
"pit-trial","171","1315605","0.0-57.0","battery-v0.2","","""event"",""trial"",""time""
""fullscreenenter"",""1"",""5658""
","
","
","""event"",""trial"",""time""
""fullscreenenter"",""1"",""5658""
","
","","","-1","","","19","5127","3225","y","elianto","#f73b6a7A"," ","-1","0","-10","[3363.800000011921]","1","2","","","5127","53","2","3","lose","go","0"
"pit-trial","172","1319205","0.0-58.0","battery-v0.2","","""event"",""trial"",""time""
""fullscreenenter"",""1"",""5658""
","
","
","""event"",""trial"",""time""
""fullscreenenter"",""1"",""5658""
","
","","","741.1999999880791","","","19","5127","3225","h","elianto","#f73b6a7A","-1"," ","0","0","[1591.5999999940395]","1","2","","","5127","54","3","4","lose","no-go","1"
"pit-trial","173","1324063","0.0-59.0","battery-v0.2","","""event"",""trial"",""time""
""fullscreenenter"",""1"",""5658""
","
","
","""event"",""trial"",""time""
""fullscreenenter"",""1"",""5658""
","
","","","-1","","","19","5127","3225","r","elianto","#3366ff99","-1","-1","1","+10","[585.8999999761581]","1","2","","","5127","55","1","2","win","no-go","0"
"pit-trial","174","1327859","0.0-60.0","battery-v0.2","","""event"",""trial"",""time""
""fullscreenenter"",""1"",""5658""
","
","
","""event"",""trial"",""time""
""fullscreenenter"",""1"",""5658""
","
","","","938.3999999761581","","","19","5127","3225","m","elianto","#f73b6a7A"," "," ","1","-10","[1788.4000000059605]","1","2","","","5127","56","0","3","lose","go","1"
"pit-trial","175","1331493","0.0-61.0","battery-v0.2","","""event"",""trial"",""time""
""fullscreenenter"",""1"",""5658""
","
","
","""event"",""trial"",""time""
""fullscreenenter"",""1"",""5658""
","
","","","776.4000000059605","","","19","5127","3225","y","elianto","#f73b6a7A"," "," ","1","0","[1626.5]","1","2","","","5127","57","2","3","lose","go","0"
"pit-trial","176","1335824","0.0-62.0","battery-v0.2","","""event"",""trial"",""time""
""fullscreenenter"",""1"",""5658""
","
","
","""event"",""trial"",""time""
""fullscreenenter"",""1"",""5658""
","
","","","1469.5999999940395","","","19","5127","3225","m","elianto","#f73b6a7A"," "," ","1","0","[646.9000000059605,2321.4000000059605]","2","2","","","5127","58","0","3","lose","go","0"
"pit-trial","177","1340688","0.0-63.0","battery-v0.2","","""event"",""trial"",""time""
""fullscreenenter"",""1"",""5658""
","
","
","""event"",""trial"",""time""
""fullscreenenter"",""1"",""5658""
","
","","","-1","","","19","5127","3225","z","elianto","#3366ff99"," ","-1","0","0","[]","0","2","","","5127","59","4","1","win","go","0"
"pit-trial","178","1344512","0.0-64.0","battery-v0.2","","""event"",""trial"",""time""
""fullscreenenter"",""1"",""5658""
","
","
","""event"",""trial"",""time""
""fullscreenenter"",""1"",""5658""
","
","","","964.2999999821186","","","19","5127","3225","h","elianto","#f73b6a7A","-1"," ","0","-10","[1814.5999999940395]","1","2","","","5127","60","3","4","lose","no-go","0"
"pit-trial","179","1348289","0.0-65.0","battery-v0.2","","""event"",""trial"",""time""
""fullscreenenter"",""1"",""5658""
","
","
","""event"",""trial"",""time""
""fullscreenenter"",""1"",""5658""
","
","","","918.9000000059605","","","19","5127","3225","y","elianto","#f73b6a7A"," "," ","1","0","[1771.4000000059605]","1","2","","","5127","61","2","3","lose","go","0"
"pit-trial","180","1351890","0.0-66.0","battery-v0.2","","""event"",""trial"",""time""
""fullscreenenter"",""1"",""5658""
","
","
","""event"",""trial"",""time""
""fullscreenenter"",""1"",""5658""
","
","","","740.5","","","19","5127","3225","h","elianto","#f73b6a7A","-1"," ","0","-10","[1590.9000000059605]","1","2","","","5127","62","3","4","lose","no-go","0"
"pit-trial","181","1356752","0.0-67.0","battery-v0.2","","""event"",""trial"",""time""
""fullscreenenter"",""1"",""5658""
","
","
","""event"",""trial"",""time""
""fullscreenenter"",""1"",""5658""
","
","","","-1","","","19","5127","3225","r","elianto","#3366ff99","-1","-1","1","+10","[]","0","2","","","5127","63","1","2","win","no-go","0"
"pit-trial","182","1359788","0.0-68.0","battery-v0.2","","""event"",""trial"",""time""
""fullscreenenter"",""1"",""5658""
","
","
","""event"",""trial"",""time""
""fullscreenenter"",""1"",""5658""
","
","","","177.30000001192093","","","19","5127","3225","z","elianto","#3366ff99"," "," ","1","+10","[1027.300000011921]","1","2","","","5127","64","4","1","win","go","0"
"pit-trial","183","1363301","0.0-69.0","battery-v0.2","","""event"",""trial"",""time""
""fullscreenenter"",""1"",""5658""
","
","
","""event"",""trial"",""time""
""fullscreenenter"",""1"",""5658""
","
","","","655.5","","","19","5127","3225","c","elianto","#3366ff99","-1"," ","0","0","[1505.9000000059605]","1","2","","","5127","65","5","2","win","no-go","0"
"pit-trial","184","1368165","0.0-70.0","battery-v0.2","","""event"",""trial"",""time""
""fullscreenenter"",""1"",""5658""
","
","
","""event"",""trial"",""time""
""fullscreenenter"",""1"",""5658""
","
","","","-1","","","19","5127","3225","r","elianto","#3366ff99","-1","-1","1","+10","[]","0","2","","","5127","66","1","2","win","no-go","0"
"pit-trial","185","1372172","0.0-71.0","battery-v0.2","","""event"",""trial"",""time""
""fullscreenenter"",""1"",""5658""
","
","
","""event"",""trial"",""time""
""fullscreenenter"",""1"",""5658""
","
","","","1143.699999988079","","","19","5127","3225","z","elianto","#3366ff99"," "," ","1","+10","[1996.699999988079]","1","2","","","5127","67","4","1","win","go","0"
"pit-trial","186","1375853","0.0-72.0","battery-v0.2","","""event"",""trial"",""time""
""fullscreenenter"",""1"",""5658""
","
","
","""event"",""trial"",""time""
""fullscreenenter"",""1"",""5658""
","
","","","821.6000000238419","","","19","5127","3225","h","elianto","#f73b6a7A","-1"," ","0","-10","[1672.0999999940395]","1","2","","","5127","68","3","4","lose","no-go","0"
"pit-trial","187","1379717","0.0-73.0","battery-v0.2","","""event"",""trial"",""time""
""fullscreenenter"",""1"",""5658""
","
","
","""event"",""trial"",""time""
""fullscreenenter"",""1"",""5658""
","
","","","1006.1999999880791","","","19","5127","3225","z","elianto","#3366ff99"," "," ","1","+10","[1856.300000011921]","1","2","","","5127","69","4","1","win","go","0"
"pit-trial","188","1383807","0.0-74.0","battery-v0.2","","""event"",""trial"",""time""
""fullscreenenter"",""1"",""5658""
","
","
","""event"",""trial"",""time""
""fullscreenenter"",""1"",""5658""
","
","","","1231.2000000178814","","","19","5127","3225","c","elianto","#3366ff99","-1"," ","0","0","[2081.5]","1","2","","","5127","70","5","2","win","no-go","0"
"pit-trial","189","1388670","0.0-75.0","battery-v0.2","","""event"",""trial"",""time""
""fullscreenenter"",""1"",""5658""
","
","
","""event"",""trial"",""time""
""fullscreenenter"",""1"",""5658""
","
","","","-1","","","19","5127","3225","r","elianto","#3366ff99","-1","-1","1","+10","[]","0","2","","","5127","71","1","2","win","no-go","0"
"pit-trial","190","1392720","0.0-76.0","battery-v0.2","","""event"",""trial"",""time""
""fullscreenenter"",""1"",""5658""
","
","
","""event"",""trial"",""time""
""fullscreenenter"",""1"",""5658""
","
","","","1194.5","","","19","5127","3225","y","elianto","#f73b6a7A"," "," ","1","0","[2044.800000011921]","1","2","","","5127","72","2","3","lose","go","0"
"pit-trial","191","1396323","0.0-77.0","battery-v0.2","","""event"",""trial"",""time""
""fullscreenenter"",""1"",""5658""
","
","
","""event"",""trial"",""time""
""fullscreenenter"",""1"",""5658""
","
","","","747.2000000178814","","","19","5127","3225","h","elianto","#f73b6a7A","-1"," ","0","0","[1597.300000011921]","1","2","","","5127","73","3","4","lose","no-go","1"
"pit-trial","192","1401182","0.0-78.0","battery-v0.2","","""event"",""trial"",""time""
""fullscreenenter"",""1"",""5658""
","
","
","""event"",""trial"",""time""
""fullscreenenter"",""1"",""5658""
","
","","","-1","","","19","5127","3225","r","elianto","#3366ff99","-1","-1","1","0","[]","0","2","","","5127","74","1","2","win","no-go","1"
"pit-trial","193","1404771","0.0-79.0","battery-v0.2","","""event"",""trial"",""time""
""fullscreenenter"",""1"",""5658""
","
","
","""event"",""trial"",""time""
""fullscreenenter"",""1"",""5658""
","
","","","729.2000000178814","","","19","5127","3225","c","elianto","#3366ff99","-1"," ","0","0","[1581.2000000178814]","1","2","","","5127","75","5","2","win","no-go","0"
"pit-trial","194","1408142","0.0-80.0","battery-v0.2","","""event"",""trial"",""time""
""fullscreenenter"",""1"",""5658""
","
","
","""event"",""trial"",""time""
""fullscreenenter"",""1"",""5658""
","
","","","515.2000000178814","","","19","5127","3225","z","elianto","#3366ff99"," "," ","1","+10","[1365.4000000059605]","1","2","","","5127","76","4","1","win","go","0"
"pit-trial","195","1411785","0.0-81.0","battery-v0.2","","""event"",""trial"",""time""
""fullscreenenter"",""1"",""5658""
","
","
","""event"",""trial"",""time""
""fullscreenenter"",""1"",""5658""
","
","","","782.0999999940395","","","19","5127","3225","z","elianto","#3366ff99"," "," ","1","+10","[1633.7000000178814]","1","2","","","5127","77","4","1","win","go","0"
"pit-trial","196","1415683","0.0-82.0","battery-v0.2","","""event"",""trial"",""time""
""fullscreenenter"",""1"",""5658""
","
","
","""event"",""trial"",""time""
""fullscreenenter"",""1"",""5658""
","
","","","1039.9000000059605","","","19","5127","3225","c","elianto","#3366ff99","-1"," ","0","0","[1891.199999988079]","1","2","","","5127","78","5","2","win","no-go","0"
"pit-trial","197","1420547","0.0-83.0","battery-v0.2","","""event"",""trial"",""time""
""fullscreenenter"",""1"",""5658""
","
","
","""event"",""trial"",""time""
""fullscreenenter"",""1"",""5658""
","
","","","-1","","","19","5127","3225","h","elianto","#f73b6a7A","-1","-1","1","0","[]","0","2","","","5127","79","3","4","lose","no-go","0"
"pit-trial","198","1424165","0.0-84.0","battery-v0.2","","""event"",""trial"",""time""
""fullscreenenter"",""1"",""5658""
","
","
","""event"",""trial"",""time""
""fullscreenenter"",""1"",""5658""
","
","","","760","","","19","5127","3225","z","elianto","#3366ff99"," "," ","1","+10","[1612.2999999821186]","1","2","","","5127","80","4","1","win","go","0"
"pit-trial","199","1427731","0.0-85.0","battery-v0.2","","""event"",""trial"",""time""
""fullscreenenter"",""1"",""5658""
","
","
","""event"",""trial"",""time""
""fullscreenenter"",""1"",""5658""
","
","","","707.3999999761581","","","19","5127","3225","c","elianto","#3366ff99","-1"," ","0","0","[1560,1895.7000000178814]","2","2","","","5127","81","5","2","win","no-go","0"
"pit-trial","200","1431315","0.0-86.0","battery-v0.2","","""event"",""trial"",""time""
""fullscreenenter"",""1"",""5658""
","
","
","""event"",""trial"",""time""
""fullscreenenter"",""1"",""5658""
","
","","","725.3999999761581","","","19","5127","3225","h","elianto","#f73b6a7A","-1"," ","0","-10","[1575.9000000059605]","1","2","","","5127","82","3","4","lose","no-go","0"
"pit-trial","201","1434896","0.0-87.0","battery-v0.2","","""event"",""trial"",""time""
""fullscreenenter"",""1"",""5658""
","
","
","""event"",""trial"",""time""
""fullscreenenter"",""1"",""5658""
","
","","","720.4000000059605","","","19","5127","3225","z","elianto","#3366ff99"," "," ","1","+10","[1572.5]","1","2","","","5127","83","4","1","win","go","0"
"pit-trial","202","1439758","0.0-88.0","battery-v0.2","","""event"",""trial"",""time""
""fullscreenenter"",""1"",""5658""
","
","
","""event"",""trial"",""time""
""fullscreenenter"",""1"",""5658""
","
","","","-1","","","19","5127","3225","t","elianto","#f73b6a7A","-1","-1","1","0","[]","0","2","","","5127","84","7","4","lose","no-go","0"
"pit-trial","203","1443230","0.0-89.0","battery-v0.2","","""event"",""trial"",""time""
""fullscreenenter"",""1"",""5658""
","
","
","""event"",""trial"",""time""
""fullscreenenter"",""1"",""5658""
","
","","","610.9000000059605","","","19","5127","3225","z","elianto","#3366ff99"," "," ","1","0","[1461.5]","1","2","","","5127","85","4","1","win","go","1"
"pit-trial","204","1448095","0.0-90.0","battery-v0.2","","""event"",""trial"",""time""
""fullscreenenter"",""1"",""5658""
","
","
","""event"",""trial"",""time""
""fullscreenenter"",""1"",""5658""
","
","","","-1","","","19","5127","3225","c","elianto","#3366ff99","-1","-1","1","+10","[]","0","2","","","5127","86","5","2","win","no-go","0"
"pit-trial","205","1452154","0.0-91.0","battery-v0.2","","""event"",""trial"",""time""
""fullscreenenter"",""1"",""5658""
","
","
","""event"",""trial"",""time""
""fullscreenenter"",""1"",""5658""
","
","","","1200.699999988079","","","19","5127","3225","b","elianto","#f73b6a7A"," "," ","1","0","[2051.5]","1","2","","","5127","87","6","3","lose","go","0"
"pit-trial","206","1455816","0.0-92.0","battery-v0.2","","""event"",""trial"",""time""
""fullscreenenter"",""1"",""5658""
","
","
","""event"",""trial"",""time""
""fullscreenenter"",""1"",""5658""
","
","","","801.2000000178814","","","19","5127","3225","t","elianto","#f73b6a7A","-1"," ","0","-10","[1651.5]","1","2","","","5127","88","7","4","lose","no-go","0"
"pit-trial","207","1460419","0.0-93.0","battery-v0.2","","""event"",""trial"",""time""
""fullscreenenter"",""1"",""5658""
","
","
","""event"",""trial"",""time""
""fullscreenenter"",""1"",""5658""
","
","","","1740.5","","","19","5127","3225","b","elianto","#f73b6a7A"," "," ","1","0","[2592.699999988079]","1","2","","","5127","89","6","3","lose","go","0"
"pit-trial","208","1464002","0.0-94.0","battery-v0.2","","""event"",""trial"",""time""
""fullscreenenter"",""1"",""5658""
","
","
","""event"",""trial"",""time""
""fullscreenenter"",""1"",""5658""
","
","","","722.0999999940395","","","19","5127","3225","z","elianto","#3366ff99"," "," ","1","+10","[1572.300000011921]","1","2","","","5127","90","4","1","win","go","0"
"pit-trial","209","1468867","0.0-95.0","battery-v0.2","","""event"",""trial"",""time""
""fullscreenenter"",""1"",""5658""
","
","
","""event"",""trial"",""time""
""fullscreenenter"",""1"",""5658""
","
","","","-1","","","19","5127","3225","t","elianto","#f73b6a7A","-1","-1","1","0","[]","0","2","","","5127","91","7","4","lose","no-go","0"
"pit-trial","210","1473032","0.0-96.0","battery-v0.2","","""event"",""trial"",""time""
""fullscreenenter"",""1"",""5658""
","
","
","""event"",""trial"",""time""
""fullscreenenter"",""1"",""5658""
","
","","","1305.5","","","19","5127","3225","c","elianto","#3366ff99","-1"," ","0","0","[2157.699999988079,2634.9000000059605]","2","2","","","5127","92","5","2","win","no-go","0"
"pit-trial","211","1477896","0.0-97.0","battery-v0.2","","""event"",""trial"",""time""
""fullscreenenter"",""1"",""5658""
","
","
","""event"",""trial"",""time""
""fullscreenenter"",""1"",""5658""
","
","","","-1","","","19","5127","3225","t","elianto","#f73b6a7A","-1","-1","1","-10","[]","0","2","","","5127","93","7","4","lose","no-go","1"
"pit-trial","212","1481330","0.0-98.0","battery-v0.2","","""event"",""trial"",""time""
""fullscreenenter"",""1"",""5658""
","
","
","""event"",""trial"",""time""
""fullscreenenter"",""1"",""5658""
","
","","","572.6999999880791","","","19","5127","3225","f","elianto","#3366ff99"," "," ","1","+10","[1425.5]","1","2","","","5127","94","8","1","win","go","0"
"pit-trial","213","1485204","0.0-99.0","battery-v0.2","","""event"",""trial"",""time""
""fullscreenenter"",""1"",""5658""
","
","
","""event"",""trial"",""time""
""fullscreenenter"",""1"",""5658""
","
","","","1013","","","19","5127","3225","b","elianto","#f73b6a7A"," "," ","1","0","[1866]","1","2","","","5127","95","6","3","lose","go","0"
"pit-trial","214","1488764","0.0-100.0","battery-v0.2","","""event"",""trial"",""time""
""fullscreenenter"",""1"",""5658""
","
","
","""event"",""trial"",""time""
""fullscreenenter"",""1"",""5658""
","
","","","701.3000000119209","","","19","5127","3225","c","elianto","#3366ff99","-1"," ","0","0","[1551.9000000059605]","1","2","","","5127","96","5","2","win","no-go","0"
"pit-trial","215","1492441","0.0-101.0","battery-v0.2","","""event"",""trial"",""time""
""fullscreenenter"",""1"",""5658""
","
","
","""event"",""trial"",""time""
""fullscreenenter"",""1"",""5658""
","
","","","814.9000000059605","","","19","5127","3225","f","elianto","#3366ff99"," "," ","1","+10","[1667.4000000059605]","1","2","","","5127","97","8","1","win","go","0"
"pit-trial","216","1496396","0.0-102.0","battery-v0.2","","""event"",""trial"",""time""
""fullscreenenter"",""1"",""5658""
","
","
","""event"",""trial"",""time""
""fullscreenenter"",""1"",""5658""
","
","","","1099.5999999940395","","","19","5127","3225","b","elianto","#f73b6a7A"," "," ","1","-10","[1950.4000000059605]","1","2","","","5127","98","6","3","lose","go","1"
"pit-trial","217","1501259","0.0-103.0","battery-v0.2","","""event"",""trial"",""time""
""fullscreenenter"",""1"",""5658""
","
","
","""event"",""trial"",""time""
""fullscreenenter"",""1"",""5658""
","
","","","-1","","","19","5127","3225","c","elianto","#3366ff99","-1","-1","1","+10","[]","0","2","","","5127","99","5","2","win","no-go","0"
"pit-trial","218","1505201","0.0-104.0","battery-v0.2","","""event"",""trial"",""time""
""fullscreenenter"",""1"",""5658""
","
","
","""event"",""trial"",""time""
""fullscreenenter"",""1"",""5658""
","
","","","1086.2000000178814","","","19","5127","3225","t","elianto","#f73b6a7A","-1"," ","0","-10","[1937.300000011921]","1","2","","","5127","100","7","4","lose","no-go","0"
"pit-trial","219","1508879","0.0-105.0","battery-v0.2","","""event"",""trial"",""time""
""fullscreenenter"",""1"",""5658""
","
","
","""event"",""trial"",""time""
""fullscreenenter"",""1"",""5658""
","
","","","818.7000000178814","","","19","5127","3225","n","elianto","#3366ff99"," "," ","1","+10","[1669.5]","1","2","","","5127","101","9","1","win","go","0"
"pit-trial","220","1513740","0.0-106.0","battery-v0.2","","""event"",""trial"",""time""
""fullscreenenter"",""1"",""5658""
","
","
","""event"",""trial"",""time""
""fullscreenenter"",""1"",""5658""
","
","","","-1","","","19","5127","3225","t","elianto","#f73b6a7A","-1","-1","1","0","[]","0","2","","","5127","102","7","4","lose","no-go","0"
"pit-trial","221","1518604","0.0-107.0","battery-v0.2","","""event"",""trial"",""time""
""fullscreenenter"",""1"",""5658""
","
","
","""event"",""trial"",""time""
""fullscreenenter"",""1"",""5658""
","
","","","-1","","","19","5127","3225","c","elianto","#3366ff99","-1","-1","1","+10","[]","0","2","","","5127","103","5","2","win","no-go","0"
"pit-trial","222","1522213","0.0-108.0","battery-v0.2","","""event"",""trial"",""time""
""fullscreenenter"",""1"",""5658""
","
","
","""event"",""trial"",""time""
""fullscreenenter"",""1"",""5658""
","
","","","750.4000000059605","","","19","5127","3225","f","elianto","#3366ff99"," "," ","1","0","[1600.3999999761581]","1","2","","","5127","104","8","1","win","go","1"
"pit-trial","223","1526065","0.0-109.0","battery-v0.2","","""event"",""trial"",""time""
""fullscreenenter"",""1"",""5658""
","
","
","""event"",""trial"",""time""
""fullscreenenter"",""1"",""5658""
","
","","","989.9000000059605","","","19","5127","3225","z","elianto","#3366ff99"," "," ","1","+10","[1842]","1","2","","","5127","105","4","1","win","go","0"
"pit-trial","224","1529825","0.0-110.0","battery-v0.2","","""event"",""trial"",""time""
""fullscreenenter"",""1"",""5658""
","
","
","""event"",""trial"",""time""
""fullscreenenter"",""1"",""5658""
","
","","","898.3000000119209","","","19","5127","3225","f","elianto","#3366ff99"," "," ","1","+10","[1750.300000011921]","1","2","","","5127","106","8","1","win","go","0"
"pit-trial","225","1534683","0.0-111.0","battery-v0.2","","""event"",""trial"",""time""
""fullscreenenter"",""1"",""5658""
","
","
","""event"",""trial"",""time""
""fullscreenenter"",""1"",""5658""
","
","","","-1","","","19","5127","3225","b","elianto","#f73b6a7A"," ","-1","0","0","[]","0","2","","","5127","107","6","3","lose","go","1"
"pit-trial","226","1538608","0.0-112.0","battery-v0.2","","""event"",""trial"",""time""
""fullscreenenter"",""1"",""5658""
","
","
","""event"",""trial"",""time""
""fullscreenenter"",""1"",""5658""
","
","","","1064.5","","","19","5127","3225","n","elianto","#3366ff99"," "," ","1","+10","[1915.5]","1","2","","","5127","108","9","1","win","go","0"
"pit-trial","227","1541968","0.0-113.0","battery-v0.2","","""event"",""trial"",""time""
""fullscreenenter"",""1"",""5658""
","
","
","""event"",""trial"",""time""
""fullscreenenter"",""1"",""5658""
","
","","","501.59999999403954","","","19","5127","3225","f","elianto","#3366ff99"," "," ","1","0","[1353.5]","1","2","","","5127","109","8","1","win","go","1"
"pit-trial","228","1546022","0.0-114.0","battery-v0.2","","""event"",""trial"",""time""
""fullscreenenter"",""1"",""5658""
","
","
","""event"",""trial"",""time""
""fullscreenenter"",""1"",""5658""
","
","","","1196.5","","","19","5127","3225","b","elianto","#f73b6a7A"," "," ","1","0","[2047.199999988079]","1","2","","","5127","110","6","3","lose","go","0"
"pit-trial","229","1549753","0.0-115.0","battery-v0.2","","""event"",""trial"",""time""
""fullscreenenter"",""1"",""5658""
","
","
","""event"",""trial"",""time""
""fullscreenenter"",""1"",""5658""
","
","","","871.3999999761581","","","19","5127","3225","n","elianto","#3366ff99"," "," ","1","+10","[1722.199999988079]","1","2","","","5127","111","9","1","win","go","0"
"pit-trial","230","1553553","0.0-116.0","battery-v0.2","","""event"",""trial"",""time""
""fullscreenenter"",""1"",""5658""
","
","
","""event"",""trial"",""time""
""fullscreenenter"",""1"",""5658""
","
","","","940.0999999940395","","","19","5127","3225","c","elianto","#3366ff99","-1"," ","0","0","[1790.0999999940395]","1","2","","","5127","112","5","2","win","no-go","0"
"pit-trial","231","1558417","0.0-117.0","battery-v0.2","","""event"",""trial"",""time""
""fullscreenenter"",""1"",""5658""
","
","
","""event"",""trial"",""time""
""fullscreenenter"",""1"",""5658""
","
","","","-1","","","19","5127","3225","c","elianto","#3366ff99","-1","-1","1","+10","[]","0","2","","","5127","113","5","2","win","no-go","0"
"pit-trial","232","1562235","0.0-118.0","battery-v0.2","","""event"",""trial"",""time""
""fullscreenenter"",""1"",""5658""
","
","
","""event"",""trial"",""time""
""fullscreenenter"",""1"",""5658""
","
","","","957.5","","","19","5127","3225","n","elianto","#3366ff99"," "," ","1","+10","[1808.5999999940395]","1","2","","","5127","114","9","1","win","go","0"
"pit-trial","233","1566013","0.0-119.0","battery-v0.2","","""event"",""trial"",""time""
""fullscreenenter"",""1"",""5658""
","
","
","""event"",""trial"",""time""
""fullscreenenter"",""1"",""5658""
","
","","","920.6999999880791","","","19","5127","3225","f","elianto","#3366ff99"," "," ","1","+10","[1771]","1","2","","","5127","115","8","1","win","go","0"
"pit-trial","234","1570875","0.0-120.0","battery-v0.2","","""event"",""trial"",""time""
""fullscreenenter"",""1"",""5658""
","
","
","""event"",""trial"",""time""
""fullscreenenter"",""1"",""5658""
","
","","","-1","","","19","5127","3225","b","elianto","#f73b6a7A"," ","-1","0","-10","[]","0","2","","","5127","116","6","3","lose","go","0"
"pit-trial","235","1575739","0.0-121.0","battery-v0.2","","""event"",""trial"",""time""
""fullscreenenter"",""1"",""5658""
","
","
","""event"",""trial"",""time""
""fullscreenenter"",""1"",""5658""
","
","","","-1","","","19","5127","3225","c","elianto","#3366ff99","-1","-1","1","+10","[]","0","2","","","5127","117","5","2","win","no-go","0"
"pit-trial","236","1579062","0.0-122.0","battery-v0.2","","""event"",""trial"",""time""
""fullscreenenter"",""1"",""5658""
","
","
","""event"",""trial"",""time""
""fullscreenenter"",""1"",""5658""
","
","","","466.40000000596046","","","19","5127","3225","f","elianto","#3366ff99"," "," ","1","+10","[1317.0999999940395]","1","2","","","5127","118","8","1","win","go","0"
"pit-trial","237","1583855","0.0-123.0","battery-v0.2","","""event"",""trial"",""time""
""fullscreenenter"",""1"",""5658""
","
","
","""event"",""trial"",""time""
""fullscreenenter"",""1"",""5658""
","
","","","1933.199999988079","","","19","5127","3225","b","elianto","#f73b6a7A"," "," ","1","-10","[2784.399999976158]","1","2","","","5127","119","6","3","lose","go","1"
"pit-trial","238","1587786","0.0-124.0","battery-v0.2","","""event"",""trial"",""time""
""fullscreenenter"",""1"",""5658""
","
","
","""event"",""trial"",""time""
""fullscreenenter"",""1"",""5658""
","
","","","1071.7000000178814","","","19","5127","3225","n","elianto","#3366ff99"," "," ","1","+10","[1922.300000011921]","1","2","","","5127","120","9","1","win","go","0"
"pit-trial","239","1591487","0.0-125.0","battery-v0.2","","""event"",""trial"",""time""
""fullscreenenter"",""1"",""5658""
","
","
","""event"",""trial"",""time""
""fullscreenenter"",""1"",""5658""
","
","","","843.5","","","19","5127","3225","f","elianto","#3366ff99"," "," ","1","0","[1693.7000000178814]","1","2","","","5127","121","8","1","win","go","1"
"pit-trial","240","1595551","0.0-126.0","battery-v0.2","","""event"",""trial"",""time""
""fullscreenenter"",""1"",""5658""
","
","
","""event"",""trial"",""time""
""fullscreenenter"",""1"",""5658""
","
","","","1203.800000011921","","","19","5127","3225","b","elianto","#f73b6a7A"," "," ","1","0","[2054.4000000059605]","1","2","","","5127","122","6","3","lose","go","0"
"pit-trial","241","1600415","0.0-127.0","battery-v0.2","","""event"",""trial"",""time""
""fullscreenenter"",""1"",""5658""
","
","
","""event"",""trial"",""time""
""fullscreenenter"",""1"",""5658""
","
","","","-1","","","19","5127","3225","t","elianto","#f73b6a7A","-1","-1","1","0","[]","0","2","","","5127","123","7","4","lose","no-go","0"
"pit-trial","242","1603999","0.0-128.0","battery-v0.2","","""event"",""trial"",""time""
""fullscreenenter"",""1"",""5658""
","
","
","""event"",""trial"",""time""
""fullscreenenter"",""1"",""5658""
","
","","","724.8000000119209","","","19","5127","3225","n","elianto","#3366ff99"," "," ","1","+10","[1576]","1","2","","","5127","124","9","1","win","go","0"
"pit-trial","243","1607620","0.0-129.0","battery-v0.2","","""event"",""trial"",""time""
""fullscreenenter"",""1"",""5658""
","
","
","""event"",""trial"",""time""
""fullscreenenter"",""1"",""5658""
","
","","","761.9000000059605","","","19","5127","3225","n","elianto","#3366ff99"," "," ","1","+10","[1613.199999988079]","1","2","","","5127","125","9","1","win","go","0"
"pit-trial","244","1611321","0.0-130.0","battery-v0.2","","""event"",""trial"",""time""
""fullscreenenter"",""1"",""5658""
","
","
","""event"",""trial"",""time""
""fullscreenenter"",""1"",""5658""
","
","","","840.8999999761581","","","19","5127","3225","f","elianto","#3366ff99"," "," ","1","+10","[1691.0999999940395]","1","2","","","5127","126","8","1","win","go","0"
"pit-trial","245","1615571","0.0-131.0","battery-v0.2","","""event"",""trial"",""time""
""fullscreenenter"",""1"",""5658""
","
","
","""event"",""trial"",""time""
""fullscreenenter"",""1"",""5658""
","
","","","1388.699999988079","","","19","5127","3225","b","elianto","#f73b6a7A"," "," ","1","0","[2239.5999999940395]","1","2","","","5127","127","6","3","lose","go","0"
"pit-trial","246","1619508","0.0-132.0","battery-v0.2","","""event"",""trial"",""time""
""fullscreenenter"",""1"",""5658""
","
","
","""event"",""trial"",""time""
""fullscreenenter"",""1"",""5658""
","
","","","1079.3999999761581","","","19","5127","3225","t","elianto","#f73b6a7A","-1"," ","0","-10","[1930.0999999940395]","1","2","","","5127","128","7","4","lose","no-go","0"
"pit-trial","247","1623716","0.0-133.0","battery-v0.2","","""event"",""trial"",""time""
""fullscreenenter"",""1"",""5658""
","
","
","""event"",""trial"",""time""
""fullscreenenter"",""1"",""5658""
","
","","","1348.800000011921","","","19","5127","3225","b","elianto","#f73b6a7A"," "," ","1","0","[2200.2000000178814]","1","2","","","5127","129","6","3","lose","go","0"
"pit-trial","248","1627440","0.0-134.0","battery-v0.2","","""event"",""trial"",""time""
""fullscreenenter"",""1"",""5658""
","
","
","""event"",""trial"",""time""
""fullscreenenter"",""1"",""5658""
","
","","","865.5","","","19","5127","3225","f","elianto","#3366ff99"," "," ","1","+10","[1717]","1","2","","","5127","130","8","1","win","go","0"
"pit-trial","249","1631147","0.0-135.0","battery-v0.2","","""event"",""trial"",""time""
""fullscreenenter"",""1"",""5658""
","
","
","""event"",""trial"",""time""
""fullscreenenter"",""1"",""5658""
","
","","","847.0999999940395","","","19","5127","3225","t","elianto","#f73b6a7A","-1"," ","0","-10","[1697.5]","1","2","","","5127","131","7","4","lose","no-go","0"
"pit-trial","250","1634580","0.0-136.0","battery-v0.2","","""event"",""trial"",""time""
""fullscreenenter"",""1"",""5658""
","
","
","""event"",""trial"",""time""
""fullscreenenter"",""1"",""5658""
","
","","","570.5","","","19","5127","3225","n","elianto","#3366ff99"," "," ","1","+10","[1422.800000011921]","1","2","","","5127","132","9","1","win","go","0"
"pit-trial","251","1638164","0.0-137.0","battery-v0.2","","""event"",""trial"",""time""
""fullscreenenter"",""1"",""5658""
","
","
","""event"",""trial"",""time""
""fullscreenenter"",""1"",""5658""
","
","","","722.9000000059605","","","19","5127","3225","f","elianto","#3366ff99"," "," ","1","+10","[1575.8999999761581]","1","2","","","5127","133","8","1","win","go","0"
"pit-trial","252","1642071","0.0-138.0","battery-v0.2","","""event"",""trial"",""time""
""fullscreenenter"",""1"",""5658""
","
","
","""event"",""trial"",""time""
""fullscreenenter"",""1"",""5658""
","
","","","1045","","","19","5127","3225","t","elianto","#f73b6a7A","-1"," ","0","0","[1897.7000000178814]","1","2","","","5127","134","7","4","lose","no-go","1"
"pit-trial","253","1645322","0.0-139.0","battery-v0.2","","""event"",""trial"",""time""
""fullscreenenter"",""1"",""5658""
","
","
","""event"",""trial"",""time""
""fullscreenenter"",""1"",""5658""
","
","","","392.40000000596046","","","19","5127","3225","n","elianto","#3366ff99"," "," ","1","+10","[1243.1000000238419]","1","2","","","5127","135","9","1","win","go","0"
"pit-trial","254","1649076","0.0-140.0","battery-v0.2","","""event"",""trial"",""time""
""fullscreenenter"",""1"",""5658""
","
","
","""event"",""trial"",""time""
""fullscreenenter"",""1"",""5658""
","
","","","894.6000000238419","","","19","5127","3225","b","elianto","#f73b6a7A"," "," ","1","0","[1745.5999999940395]","1","2","","","5127","136","6","3","lose","go","0"
"pit-trial","255","1652398","0.0-141.0","battery-v0.2","","""event"",""trial"",""time""
""fullscreenenter"",""1"",""5658""
","
","
","""event"",""trial"",""time""
""fullscreenenter"",""1"",""5658""
","
","","","463.30000001192093","","","19","5127","3225","n","elianto","#3366ff99"," "," ","1","+10","[1314.5999999940395]","1","2","","","5127","137","9","1","win","go","0"
"pit-trial","256","1655854","0.0-142.0","battery-v0.2","","""event"",""trial"",""time""
""fullscreenenter"",""1"",""5658""
","
","
","""event"",""trial"",""time""
""fullscreenenter"",""1"",""5658""
","
","","","596.5","","","19","5127","3225","f","elianto","#3366ff99"," "," ","1","0","[1449.199999988079]","1","2","","","5127","138","8","1","win","go","1"
"pit-trial","257","1659608","0.0-143.0","battery-v0.2","","""event"",""trial"",""time""
""fullscreenenter"",""1"",""5658""
","
","
","""event"",""trial"",""time""
""fullscreenenter"",""1"",""5658""
","
","","","895.5999999940395","","","19","5127","3225","t","elianto","#f73b6a7A","-1"," ","0","-10","[1746.2999999821186]","1","2","","","5127","139","7","4","lose","no-go","0"
"pit-trial","258","1663688","0.0-144.0","battery-v0.2","","""event"",""trial"",""time""
""fullscreenenter"",""1"",""5658""
","
","
","""event"",""trial"",""time""
""fullscreenenter"",""1"",""5658""
","
","","","1220.199999988079","","","19","5127","3225","b","elianto","#f73b6a7A"," "," ","1","0","[2070.800000011921]","1","2","","","5127","140","6","3","lose","go","0"
"pit-instructions","259","1752862","0.0-145.0","battery-v0.2","","""event"",""trial"",""time""
""fullscreenenter"",""1"",""5658""
","
","
","""event"",""trial"",""time""
""fullscreenenter"",""1"",""5658""
","
","","[{""page_index"":0,""viewing_time"":70299.69999998808},{""page_index"":1,""viewing_time"":18889.20000001788}]","89189.80000001192","","","","","","","","","","","","","","","","","","","","","","","",""
"pit-trial","260","1757287","0.0-146.0","battery-v0.2","","""event"",""trial"",""time""
""fullscreenenter"",""1"",""5658""
","
","
","""event"",""trial"",""time""
""fullscreenenter"",""1"",""5658""
","
","","","1563.699999988079","","","19","5127","3225","e","elianto","#f73b6a7A","-1"," ","0","-10","[2414.0999999940395]","1","3","","","5127","141","2","4","lose","no-go","0"
"pit-trial","261","1761468","0.0-147.0","battery-v0.2","","""event"",""trial"",""time""
""fullscreenenter"",""1"",""5658""
","
","
","""event"",""trial"",""time""
""fullscreenenter"",""1"",""5658""
","
","","","1321.9000000059605","","","19","5127","3225","w","elianto","#f73b6a7A"," "," ","1","0","[2172.5999999940395]","1","3","","","5127","142","3","3","lose","go","0"
"pit-trial","262","1764972","0.0-148.0","battery-v0.2","","""event"",""trial"",""time""
""fullscreenenter"",""1"",""5658""
","
","
","""event"",""trial"",""time""
""fullscreenenter"",""1"",""5658""
","
","","","649","","","19","5127","3225","j","elianto","#f73b6a7A","-1"," ","0","-10","[1499.300000011921]","1","3","","","5127","143","0","4","lose","no-go","0"
"pit-trial","263","1768553","0.0-149.0","battery-v0.2","","""event"",""trial"",""time""
""fullscreenenter"",""1"",""5658""
","
","
","""event"",""trial"",""time""
""fullscreenenter"",""1"",""5658""
","
","","","722.9000000059605","","","19","5127","3225","d","elianto","#3366ff99"," "," ","1","0","[1573.5999999940395]","1","3","","","5127","144","1","1","win","go","1"
"pit-trial","264","1772328","0.0-150.0","battery-v0.2","","""event"",""trial"",""time""
""fullscreenenter"",""1"",""5658""
","
","
","""event"",""trial"",""time""
""fullscreenenter"",""1"",""5658""
","
","","","918.4000000059605","","","19","5127","3225","e","elianto","#f73b6a7A","-1"," ","0","-10","[1768.5999999940395]","1","3","","","5127","145","2","4","lose","no-go","0"
"pit-trial","265","1775861","0.0-151.0","battery-v0.2","","""event"",""trial"",""time""
""fullscreenenter"",""1"",""5658""
","
","
","""event"",""trial"",""time""
""fullscreenenter"",""1"",""5658""
","
","","","675","","","19","5127","3225","j","elianto","#f73b6a7A","-1"," ","0","-10","[1525.5999999940395]","1","3","","","5127","146","0","4","lose","no-go","0"
