"trial_type","trial_index","time_elapsed","internal_node_id","task_version","subject_id","interactions","blur_events","focus_events","fullscreenenter_events","fullscreenexit_events","success","view_history","rt","responses","num_errors","age","subject","participantId","rune","rune_set","hex","correct","choice","accuracy","outcome","keys","total_keys","block","practice","value","sub","trial","stimulus","robot","valence","action","sham"
"pavlovia","0","8","0.0-0.0","battery-v0.2","","""event"",""trial"",""time""
""fullscreenenter"",""1"",""2760""
","
","
","""event"",""trial"",""time""
""fullscreenenter"",""1"",""2760""
","
","","","","","","","","","","","","","","","","","","","","","","","","","","",""
"fullscreen","1","3724","0.0-1.0","battery-v0.2","","""event"",""trial"",""time""
""fullscreenenter"",""1"",""2760""
","
","
","""event"",""trial"",""time""
""fullscreenenter"",""1"",""2760""
","
","true","","","","","","","","","","","","","","","","","","","","","","","","","",""
"pit-instructions","2","7536","0.0-2.0-0.0","battery-v0.2","","""event"",""trial"",""time""
""fullscreenenter"",""1"",""2760""
","
","
","""event"",""trial"",""time""
""fullscreenenter"",""1"",""2760""
","
","","[{""page_index"":0,""viewing_time"":3807.399999976158}]","3807.699999988079","","","","","","","","","","","","","","","","","","","","","","","",""
"pit-comprehension","3","12140","0.0-2.0-1.0-0.0","battery-v0.2","","""event"",""trial"",""time""
""fullscreenenter"",""1"",""2760""
","
","
","""event"",""trial"",""time""
""fullscreenenter"",""1"",""2760""
","
","","","4600.200000017881","[""shark""]","0","22","7688","3889","","","","","","","","","","","","","","","","","","",""
"pit-instructions","4","13617","0.0-2.0-1.0-1.0","battery-v0.2","","""event"",""trial"",""time""
""fullscreenenter"",""1"",""2760""
","
","
","""event"",""trial"",""time""
""fullscreenenter"",""1"",""2760""
","
","","[{""page_index"":0,""viewing_time"":1465.3999999761581}]","1465.7999999821186","","","","","","","","","","","","","","","","","","","","","","","",""
"pit-comprehension","5","17186","0.0-2.0-2.0-0.0","battery-v0.2","","""event"",""trial"",""time""
""fullscreenenter"",""1"",""2760""
","
","
","""event"",""trial"",""time""
""fullscreenenter"",""1"",""2760""
","
","","","3566.199999988079","[""tiger""]","0","22","7688","3889","","","","","","","","","","","","","","","","","","",""
"pit-instructions","6","18605","0.0-2.0-2.0-1.0","battery-v0.2","","""event"",""trial"",""time""
""fullscreenenter"",""1"",""2760""
","
","
","""event"",""trial"",""time""
""fullscreenenter"",""1"",""2760""
","
","","[{""page_index"":0,""viewing_time"":1414.7999999821186}]","1415.0999999940395","","","","","","","","","","","","","","","","","","","","","","","",""
"pit-instructions","7","135018","0.0-2.0-3.0","battery-v0.2","","""event"",""trial"",""time""
""fullscreenenter"",""1"",""2760""
","
","
","""event"",""trial"",""time""
""fullscreenenter"",""1"",""2760""
","
","","[{""page_index"":0,""viewing_time"":11472.799999982119},{""page_index"":1,""viewing_time"":8067.4000000059605},{""page_index"":2,""viewing_time"":9221.300000011921},{""page_index"":3,""viewing_time"":9226.199999988079},{""page_index"":4,""viewing_time"":6513.9000000059605},{""page_index"":5,""viewing_time"":6026.699999988079},{""page_index"":6,""viewing_time"":8478.100000023842},{""page_index"":7,""viewing_time"":6863.399999976158},{""page_index"":8,""viewing_time"":8369.90000000596},{""page_index"":9,""viewing_time"":12497.800000011921},{""page_index"":10,""viewing_time"":7168},{""page_index"":11,""viewing_time"":8726.90000000596},{""page_index"":12,""viewing_time"":7359.0999999940395},{""page_index"":13,""viewing_time"":6421.0999999940395}]","116413.09999999404","","","","","","","","","","","","","","","","","","","","","","","",""
"pit-trial","8","138382","0.0-2.0-4.0-0.0","battery-v0.2","","""event"",""trial"",""time""
""fullscreenenter"",""1"",""2760""
","
","
","""event"",""trial"",""time""
""fullscreenenter"",""1"",""2760""
","
","","","496.40000000596046","","","22","7688","3889","&#9784;","elianto","#FFFFF080"," "," ","1","&#10004","[1346.9000000059605]","1","0","0","","","","","","","",""
"pit-trial","9","141682","0.0-2.0-4.1-0.1","battery-v0.2","","""event"",""trial"",""time""
""fullscreenenter"",""1"",""2760""
","
","
","""event"",""trial"",""time""
""fullscreenenter"",""1"",""2760""
","
","","","439.10000002384186","","","22","7688","3889","&#9784;","elianto","#FFFFF080"," "," ","1","&#10004","[1291.8999999761581]","1","0","0","","","","","","","",""
"pit-trial","10","144986","0.0-2.0-4.2-0.2","battery-v0.2","","""event"",""trial"",""time""
""fullscreenenter"",""1"",""2760""
","
","
","""event"",""trial"",""time""
""fullscreenenter"",""1"",""2760""
","
","","","438.5","","","22","7688","3889","&#9784;","elianto","#FFFFF080"," "," ","1","&#10004","[1290.7999999821186]","1","0","0","","","","","","","",""
"pit-trial","11","148354","0.0-2.0-4.3-0.3","battery-v0.2","","""event"",""trial"",""time""
""fullscreenenter"",""1"",""2760""
","
","
","""event"",""trial"",""time""
""fullscreenenter"",""1"",""2760""
","
","","","507","","","22","7688","3889","&#9784;","elianto","#FFFFF080"," "," ","1","&#10004","[1359.300000011921]","1","0","0","","","","","","","",""
"pit-trial","12","151760","0.0-2.0-4.4-0.4","battery-v0.2","","""event"",""trial"",""time""
""fullscreenenter"",""1"",""2760""
","
","
","""event"",""trial"",""time""
""fullscreenenter"",""1"",""2760""
","
","","","542.5999999940395","","","22","7688","3889","&#9784;","elianto","#FFFFF080"," "," ","1","&#10004","[1393.199999988079]","1","0","0","","","","","","","",""
"pit-instructions","13","174988","0.0-2.0-5.0","battery-v0.2","","""event"",""trial"",""time""
""fullscreenenter"",""1"",""2760""
","
","
","""event"",""trial"",""time""
""fullscreenenter"",""1"",""2760""
","
","","[{""page_index"":0,""viewing_time"":7281.4000000059605},{""page_index"":1,""viewing_time"":5673.799999982119},{""page_index"":2,""viewing_time"":5257.700000017881},{""page_index"":3,""viewing_time"":5010.199999988079}]","23223.69999998808","","","","","","","","","","","","","","","","","","","","","","","",""
"pit-trial","14","179860","0.0-2.0-6.0-0.0","battery-v0.2","","""event"",""trial"",""time""
""fullscreenenter"",""1"",""2760""
","
","
","""event"",""trial"",""time""
""fullscreenenter"",""1"",""2760""
","
","","","-1","","","22","7688","3889","&#9854;","elianto","#FFFFF080","-1","-1","1","&#10004","[]","0","0","1","","","","","","","",""
"pit-trial","15","184726","0.0-2.0-6.1-0.1","battery-v0.2","","""event"",""trial"",""time""
""fullscreenenter"",""1"",""2760""
","
","
","""event"",""trial"",""time""
""fullscreenenter"",""1"",""2760""
","
","","","-1","","","22","7688","3889","&#9854;","elianto","#FFFFF080","-1","-1","1","&#10004","[]","0","0","1","","","","","","","",""
"pit-trial","16","189592","0.0-2.0-6.2-0.2","battery-v0.2","","""event"",""trial"",""time""
""fullscreenenter"",""1"",""2760""
","
","
","""event"",""trial"",""time""
""fullscreenenter"",""1"",""2760""
","
","","","-1","","","22","7688","3889","&#9854;","elianto","#FFFFF080","-1","-1","1","&#10004","[]","0","0","1","","","","","","","",""
"pit-trial","17","194470","0.0-2.0-6.3-0.3","battery-v0.2","","""event"",""trial"",""time""
""fullscreenenter"",""1"",""2760""
","
","
","""event"",""trial"",""time""
""fullscreenenter"",""1"",""2760""
","
","","","-1","","","22","7688","3889","&#9854;","elianto","#FFFFF080","-1","-1","1","&#10004","[]","0","0","1","","","","","","","",""
"pit-trial","18","199341","0.0-2.0-6.4-0.4","battery-v0.2","","""event"",""trial"",""time""
""fullscreenenter"",""1"",""2760""
","
","
","""event"",""trial"",""time""
""fullscreenenter"",""1"",""2760""
","
","","","-1","","","22","7688","3889","&#9854;","elianto","#FFFFF080","-1","-1","1","&#10004","[]","0","0","1","","","","","","","",""
"pit-instructions","19","386322","0.0-2.0-7.0","battery-v0.2","","""event"",""trial"",""time""
""fullscreenenter"",""1"",""2760""
","
","
","""event"",""trial"",""time""
""fullscreenenter"",""1"",""2760""
","
","","[{""page_index"":0,""viewing_time"":6843.899999976158},{""page_index"":1,""viewing_time"":8201.90000000596},{""page_index"":2,""viewing_time"":8862.200000017881},{""page_index"":3,""viewing_time"":6857.799999982119},{""page_index"":4,""viewing_time"":6517.5},{""page_index"":5,""viewing_time"":5338.9000000059605},{""page_index"":6,""viewing_time"":7157.699999988079},{""page_index"":7,""viewing_time"":17013.90000000596},{""page_index"":8,""viewing_time"":8793.40000000596},{""page_index"":9,""viewing_time"":6653.9000000059605},{""page_index"":10,""viewing_time"":6617.799999982119},{""page_index"":11,""viewing_time"":4688.600000023842},{""page_index"":12,""viewing_time"":9582.59999999404},{""page_index"":13,""viewing_time"":9138.199999988079},{""page_index"":14,""viewing_time"":9562},{""page_index"":15,""viewing_time"":6367.200000017881},{""page_index"":16,""viewing_time"":50385.79999998212},{""page_index"":17,""viewing_time"":8392.200000017881}]","186976","","","","","","","","","","","","","","","","","","","","","","","",""
"pit-trial","20","389744","0.0-2.0-8.0-0.0","battery-v0.2","","""event"",""trial"",""time""
""fullscreenenter"",""1"",""2760""
","
","
","""event"",""trial"",""time""
""fullscreenenter"",""1"",""2760""
","
","","","548.4000000059605","","","22","7688","3889","&#9776;","elianto","#3366ff99"," "," ","1","+10","[1406.4000000059605]","1","0","1","","","","","","","",""
"pit-trial","21","393474","0.0-2.0-8.0-1.0","battery-v0.2","","""event"",""trial"",""time""
""fullscreenenter"",""1"",""2760""
","
","
","""event"",""trial"",""time""
""fullscreenenter"",""1"",""2760""
","
","","","866.6000000238419","","","22","7688","3889","&#9776;","elianto","#3366ff99"," "," ","1","+10","[1717.1000000238419]","1","0","1","","","","","","","",""
"pit-trial","22","396926","0.0-2.0-8.0-2.0","battery-v0.2","","""event"",""trial"",""time""
""fullscreenenter"",""1"",""2760""
","
","
","""event"",""trial"",""time""
""fullscreenenter"",""1"",""2760""
","
","","","578.9000000059605","","","22","7688","3889","&#9776;","elianto","#3366ff99"," "," ","1","+10","[1435.300000011921]","1","0","1","","","","","","","",""
"pit-trial","23","400261","0.0-2.0-8.0-3.0","battery-v0.2","","""event"",""trial"",""time""
""fullscreenenter"",""1"",""2760""
","
","
","""event"",""trial"",""time""
""fullscreenenter"",""1"",""2760""
","
","","","475.2999999821186","","","22","7688","3889","&#9776;","elianto","#3366ff99"," "," ","1","0","[1327.2999999821186]","1","0","1","","","","","","","",""
"pit-trial","24","403482","0.0-2.0-8.0-4.0","battery-v0.2","","""event"",""trial"",""time""
""fullscreenenter"",""1"",""2760""
","
","
","""event"",""trial"",""time""
""fullscreenenter"",""1"",""2760""
","
","","","361.90000000596046","","","22","7688","3889","&#9776;","elianto","#3366ff99"," "," ","1","+10","[1215.300000011921]","1","0","1","","","","","","","",""
"pit-trial","25","406740","0.0-2.0-8.1-0.1","battery-v0.2","","""event"",""trial"",""time""
""fullscreenenter"",""1"",""2760""
","
","
","""event"",""trial"",""time""
""fullscreenenter"",""1"",""2760""
","
","","","390.69999998807907","","","22","7688","3889","&#9776;","elianto","#3366ff99"," "," ","1","+10","[1241.2999999821186]","1","0","1","","","","","","","",""
"pit-trial","26","409950","0.0-2.0-8.1-1.1","battery-v0.2","","""event"",""trial"",""time""
""fullscreenenter"",""1"",""2760""
","
","
","""event"",""trial"",""time""
""fullscreenenter"",""1"",""2760""
","
","","","347","","","22","7688","3889","&#9776;","elianto","#3366ff99"," "," ","1","+10","[1202.2999999821186]","1","0","1","","","","","","","",""
"pit-trial","27","413204","0.0-2.0-8.1-2.1","battery-v0.2","","""event"",""trial"",""time""
""fullscreenenter"",""1"",""2760""
","
","
","""event"",""trial"",""time""
""fullscreenenter"",""1"",""2760""
","
","","","386.09999999403954","","","22","7688","3889","&#9776;","elianto","#3366ff99"," "," ","1","+10","[1236.4000000059605]","1","0","1","","","","","","","",""
"pit-trial","28","416397","0.0-2.0-8.1-3.1","battery-v0.2","","""event"",""trial"",""time""
""fullscreenenter"",""1"",""2760""
","
","
","""event"",""trial"",""time""
""fullscreenenter"",""1"",""2760""
","
","","","331.90000000596046","","","22","7688","3889","&#9776;","elianto","#3366ff99"," "," ","1","0","[1189.7000000178814]","1","0","1","","","","","","","",""
"pit-trial","29","419481","0.0-2.0-8.1-4.1","battery-v0.2","","""event"",""trial"",""time""
""fullscreenenter"",""1"",""2760""
","
","
","""event"",""trial"",""time""
""fullscreenenter"",""1"",""2760""
","
","","","229.2000000178814","","","22","7688","3889","&#9776;","elianto","#3366ff99"," "," ","1","+10","[1080.5999999940395]","1","0","1","","","","","","","",""
"pit-trial","30","422566","0.0-2.0-8.2-0.2","battery-v0.2","","""event"",""trial"",""time""
""fullscreenenter"",""1"",""2760""
","
","
","""event"",""trial"",""time""
""fullscreenenter"",""1"",""2760""
","
","","","228.90000000596046","","","22","7688","3889","&#9776;","elianto","#3366ff99"," "," ","1","+10","[1079.4000000059605]","1","0","1","","","","","","","",""
"pit-trial","31","425504","0.0-2.0-8.2-1.2","battery-v0.2","","""event"",""trial"",""time""
""fullscreenenter"",""1"",""2760""
","
","
","""event"",""trial"",""time""
""fullscreenenter"",""1"",""2760""
","
","","","83","","","22","7688","3889","&#9776;","elianto","#3366ff99"," "," ","1","+10","[933.3999999761581]","1","0","1","","","","","","","",""
"pit-trial","32","428703","0.0-2.0-8.2-2.2","battery-v0.2","","""event"",""trial"",""time""
""fullscreenenter"",""1"",""2760""
","
","
","""event"",""trial"",""time""
""fullscreenenter"",""1"",""2760""
","
","","","337.69999998807907","","","22","7688","3889","&#9776;","elianto","#3366ff99"," "," ","1","+10","[1193.800000011921]","1","0","1","","","","","","","",""
"pit-trial","33","431721","0.0-2.0-8.2-3.2","battery-v0.2","","""event"",""trial"",""time""
""fullscreenenter"",""1"",""2760""
","
","
","""event"",""trial"",""time""
""fullscreenenter"",""1"",""2760""
","
","","","162","","","22","7688","3889","&#9776;","elianto","#3366ff99"," "," ","1","0","[1015.5]","1","0","1","","","","","","","",""
"pit-trial","34","434859","0.0-2.0-8.2-4.2","battery-v0.2","","""event"",""trial"",""time""
""fullscreenenter"",""1"",""2760""
","
","
","""event"",""trial"",""time""
""fullscreenenter"",""1"",""2760""
","
","","","280.30000001192093","","","22","7688","3889","&#9776;","elianto","#3366ff99"," "," ","1","+10","[1133.300000011921]","1","0","1","","","","","","","",""
"call-function","35","434861","0.0-2.0-9.0","battery-v0.2","","""event"",""trial"",""time""
""fullscreenenter"",""1"",""2760""
","
","
","""event"",""trial"",""time""
""fullscreenenter"",""1"",""2760""
","
","","","","","","","","","","","","","","","","","","","","","","","","","","",""
"pit-instructions","36","552632","0.0-2.0-10.0","battery-v0.2","","""event"",""trial"",""time""
""fullscreenenter"",""1"",""2760""
","
","
","""event"",""trial"",""time""
""fullscreenenter"",""1"",""2760""
","
","","[{""page_index"":0,""viewing_time"":80462},{""page_index"":1,""viewing_time"":6835.5},{""page_index"":2,""viewing_time"":11773.199999988079},{""page_index"":3,""viewing_time"":9346.59999999404},{""page_index"":4,""viewing_time"":9355}]","117772.69999998808","","","","","","","","","","","","","","","","","","","","","","","",""
"pit-trial","37","556134","0.0-2.0-11.0-0.0","battery-v0.2","","""event"",""trial"",""time""
""fullscreenenter"",""1"",""2760""
","
","
","""event"",""trial"",""time""
""fullscreenenter"",""1"",""2760""
","
","","","635.2000000178814","","","22","7688","3889","&#9761;","elianto","#3366ff99","-1"," ","0","0","[1493.9000000059605]","1","0","2","","","","","","","",""
"pit-trial","38","559374","0.0-2.0-11.0-1.0","battery-v0.2","","""event"",""trial"",""time""
""fullscreenenter"",""1"",""2760""
","
","
","""event"",""trial"",""time""
""fullscreenenter"",""1"",""2760""
","
","","","367.5","","","22","7688","3889","&#9761;","elianto","#3366ff99","-1"," ","0","0","[1224.300000011921]","1","0","2","","","","","","","",""
"pit-trial","39","564230","0.0-2.0-11.0-2.0","battery-v0.2","","""event"",""trial"",""time""
""fullscreenenter"",""1"",""2760""
","
","
","""event"",""trial"",""time""
""fullscreenenter"",""1"",""2760""
","
","","","-1","","","22","7688","3889","&#9761;","elianto","#3366ff99","-1","-1","1","+10","[]","0","0","2","","","","","","","",""
"pit-trial","40","569093","0.0-2.0-11.0-3.0","battery-v0.2","","""event"",""trial"",""time""
""fullscreenenter"",""1"",""2760""
","
","
","""event"",""trial"",""time""
""fullscreenenter"",""1"",""2760""
","
","","","-1","","","22","7688","3889","&#9761;","elianto","#3366ff99","-1","-1","1","0","[]","0","0","2","","","","","","","",""
"pit-trial","41","573950","0.0-2.0-11.0-4.0","battery-v0.2","","""event"",""trial"",""time""
""fullscreenenter"",""1"",""2760""
","
","
","""event"",""trial"",""time""
""fullscreenenter"",""1"",""2760""
","
","","","-1","","","22","7688","3889","&#9761;","elianto","#3366ff99","-1","-1","1","+10","[]","0","0","2","","","","","","","",""
"pit-trial","42","578825","0.0-2.0-11.1-0.1","battery-v0.2","","""event"",""trial"",""time""
""fullscreenenter"",""1"",""2760""
","
","
","""event"",""trial"",""time""
""fullscreenenter"",""1"",""2760""
","
","","","-1","","","22","7688","3889","&#9761;","elianto","#3366ff99","-1","-1","1","+10","[]","0","0","2","","","","","","","",""
"pit-trial","43","583695","0.0-2.0-11.1-1.1","battery-v0.2","","""event"",""trial"",""time""
""fullscreenenter"",""1"",""2760""
","
","
","""event"",""trial"",""time""
""fullscreenenter"",""1"",""2760""
","
","","","-1","","","22","7688","3889","&#9761;","elianto","#3366ff99","-1","-1","1","+10","[]","0","0","2","","","","","","","",""
"pit-trial","44","588548","0.0-2.0-11.1-2.1","battery-v0.2","","""event"",""trial"",""time""
""fullscreenenter"",""1"",""2760""
","
","
","""event"",""trial"",""time""
""fullscreenenter"",""1"",""2760""
","
","","","-1","","","22","7688","3889","&#9761;","elianto","#3366ff99","-1","-1","1","+10","[]","0","0","2","","","","","","","",""
"pit-trial","45","593405","0.0-2.0-11.1-3.1","battery-v0.2","","""event"",""trial"",""time""
""fullscreenenter"",""1"",""2760""
","
","
","""event"",""trial"",""time""
""fullscreenenter"",""1"",""2760""
","
","","","-1","","","22","7688","3889","&#9761;","elianto","#3366ff99","-1","-1","1","0","[]","0","0","2","","","","","","","",""
"pit-trial","46","598260","0.0-2.0-11.1-4.1","battery-v0.2","","""event"",""trial"",""time""
""fullscreenenter"",""1"",""2760""
","
","
","""event"",""trial"",""time""
""fullscreenenter"",""1"",""2760""
","
","","","-1","","","22","7688","3889","&#9761;","elianto","#3366ff99","-1","-1","1","+10","[]","0","0","2","","","","","","","",""
"pit-trial","47","603116","0.0-2.0-11.2-0.2","battery-v0.2","","""event"",""trial"",""time""
""fullscreenenter"",""1"",""2760""
","
","
","""event"",""trial"",""time""
""fullscreenenter"",""1"",""2760""
","
","","","-1","","","22","7688","3889","&#9761;","elianto","#3366ff99","-1","-1","1","+10","[]","0","0","2","","","","","","","",""
"pit-trial","48","607973","0.0-2.0-11.2-1.2","battery-v0.2","","""event"",""trial"",""time""
""fullscreenenter"",""1"",""2760""
","
","
","""event"",""trial"",""time""
""fullscreenenter"",""1"",""2760""
","
","","","-1","","","22","7688","3889","&#9761;","elianto","#3366ff99","-1","-1","1","+10","[]","0","0","2","","","","","","","",""
"pit-trial","49","612830","0.0-2.0-11.2-2.2","battery-v0.2","","""event"",""trial"",""time""
""fullscreenenter"",""1"",""2760""
","
","
","""event"",""trial"",""time""
""fullscreenenter"",""1"",""2760""
","
","","","-1","","","22","7688","3889","&#9761;","elianto","#3366ff99","-1","-1","1","+10","[]","0","0","2","","","","","","","",""
"pit-trial","50","617687","0.0-2.0-11.2-3.2","battery-v0.2","","""event"",""trial"",""time""
""fullscreenenter"",""1"",""2760""
","
","
","""event"",""trial"",""time""
""fullscreenenter"",""1"",""2760""
","
","","","-1","","","22","7688","3889","&#9761;","elianto","#3366ff99","-1","-1","1","0","[]","0","0","2","","","","","","","",""
"pit-trial","51","622542","0.0-2.0-11.2-4.2","battery-v0.2","","""event"",""trial"",""time""
""fullscreenenter"",""1"",""2760""
","
","
","""event"",""trial"",""time""
""fullscreenenter"",""1"",""2760""
","
","","","-1","","","22","7688","3889","&#9761;","elianto","#3366ff99","-1","-1","1","+10","[]","0","0","2","","","","","","","",""
"pit-trial","52","627398","0.0-2.0-11.3-0.3","battery-v0.2","","""event"",""trial"",""time""
""fullscreenenter"",""1"",""2760""
","
","
","""event"",""trial"",""time""
""fullscreenenter"",""1"",""2760""
","
","","","-1","","","22","7688","3889","&#9761;","elianto","#3366ff99","-1","-1","1","+10","[]","0","0","2","","","","","","","",""
"pit-trial","53","632257","0.0-2.0-11.3-1.3","battery-v0.2","","""event"",""trial"",""time""
""fullscreenenter"",""1"",""2760""
","
","
","""event"",""trial"",""time""
""fullscreenenter"",""1"",""2760""
","
","","","-1","","","22","7688","3889","&#9761;","elianto","#3366ff99","-1","-1","1","+10","[]","0","0","2","","","","","","","",""
"pit-trial","54","637118","0.0-2.0-11.3-2.3","battery-v0.2","","""event"",""trial"",""time""
""fullscreenenter"",""1"",""2760""
","
","
","""event"",""trial"",""time""
""fullscreenenter"",""1"",""2760""
","
","","","-1","","","22","7688","3889","&#9761;","elianto","#3366ff99","-1","-1","1","+10","[]","0","0","2","","","","","","","",""
"pit-trial","55","641978","0.0-2.0-11.3-3.3","battery-v0.2","","""event"",""trial"",""time""
""fullscreenenter"",""1"",""2760""
","
","
","""event"",""trial"",""time""
""fullscreenenter"",""1"",""2760""
","
","","","-1","","","22","7688","3889","&#9761;","elianto","#3366ff99","-1","-1","1","0","[]","0","0","2","","","","","","","",""
"pit-trial","56","646836","0.0-2.0-11.3-4.3","battery-v0.2","","""event"",""trial"",""time""
""fullscreenenter"",""1"",""2760""
","
","
","""event"",""trial"",""time""
""fullscreenenter"",""1"",""2760""
","
","","","-1","","","22","7688","3889","&#9761;","elianto","#3366ff99","-1","-1","1","+10","[]","0","0","2","","","","","","","",""
"call-function","57","646838","0.0-2.0-12.0","battery-v0.2","","""event"",""trial"",""time""
""fullscreenenter"",""1"",""2760""
","
","
","""event"",""trial"",""time""
""fullscreenenter"",""1"",""2760""
","
","","","","","","","","","","","","","","","","","","","","","","","","","","",""
"pit-instructions","58","678451","0.0-2.0-13.0","battery-v0.2","","""event"",""trial"",""time""
""fullscreenenter"",""1"",""2760""
","
","
","""event"",""trial"",""time""
""fullscreenenter"",""1"",""2760""
","
","","[{""page_index"":0,""viewing_time"":5854.199999988079},{""page_index"":1,""viewing_time"":6202.300000011921},{""page_index"":2,""viewing_time"":3475.199999988079},{""page_index"":3,""viewing_time"":10695.800000011921},{""page_index"":4,""viewing_time"":5384.4000000059605}]","31612.30000001192","","","","","","","","","","","","","","","","","","","","","","","",""
"pit-trial","59","683320","0.0-2.0-14.0-0.0","battery-v0.2","","""event"",""trial"",""time""
""fullscreenenter"",""1"",""2760""
","
","
","""event"",""trial"",""time""
""fullscreenenter"",""1"",""2760""
","
","","","-1","","","22","7688","3889","&#9826;","elianto","#f73b6a7A","-1","-1","1","0","[]","0","0","3","","","","","","","",""
"pit-trial","60","688196","0.0-2.0-14.0-1.0","battery-v0.2","","""event"",""trial"",""time""
""fullscreenenter"",""1"",""2760""
","
","
","""event"",""trial"",""time""
""fullscreenenter"",""1"",""2760""
","
","","","-1","","","22","7688","3889","&#9826;","elianto","#f73b6a7A","-1","-1","1","0","[]","0","0","3","","","","","","","",""
"pit-trial","61","693070","0.0-2.0-14.0-2.0","battery-v0.2","","""event"",""trial"",""time""
""fullscreenenter"",""1"",""2760""
","
","
","""event"",""trial"",""time""
""fullscreenenter"",""1"",""2760""
","
","","","-1","","","22","7688","3889","&#9826;","elianto","#f73b6a7A","-1","-1","1","0","[]","0","0","3","","","","","","","",""
"pit-trial","62","697935","0.0-2.0-14.0-3.0","battery-v0.2","","""event"",""trial"",""time""
""fullscreenenter"",""1"",""2760""
","
","
","""event"",""trial"",""time""
""fullscreenenter"",""1"",""2760""
","
","","","-1","","","22","7688","3889","&#9826;","elianto","#f73b6a7A","-1","-1","1","-10","[]","0","0","3","","","","","","","",""
"pit-trial","63","702802","0.0-2.0-14.0-4.0","battery-v0.2","","""event"",""trial"",""time""
""fullscreenenter"",""1"",""2760""
","
","
","""event"",""trial"",""time""
""fullscreenenter"",""1"",""2760""
","
","","","-1","","","22","7688","3889","&#9826;","elianto","#f73b6a7A","-1","-1","1","0","[]","0","0","3","","","","","","","",""
"pit-trial","64","707678","0.0-2.0-14.1-0.1","battery-v0.2","","""event"",""trial"",""time""
""fullscreenenter"",""1"",""2760""
","
","
","""event"",""trial"",""time""
""fullscreenenter"",""1"",""2760""
","
","","","-1","","","22","7688","3889","&#9826;","elianto","#f73b6a7A","-1","-1","1","0","[]","0","0","3","","","","","","","",""
"pit-trial","65","712535","0.0-2.0-14.1-1.1","battery-v0.2","","""event"",""trial"",""time""
""fullscreenenter"",""1"",""2760""
","
","
","""event"",""trial"",""time""
""fullscreenenter"",""1"",""2760""
","
","","","-1","","","22","7688","3889","&#9826;","elianto","#f73b6a7A","-1","-1","1","0","[]","0","0","3","","","","","","","",""
"pit-trial","66","717394","0.0-2.0-14.1-2.1","battery-v0.2","","""event"",""trial"",""time""
""fullscreenenter"",""1"",""2760""
","
","
","""event"",""trial"",""time""
""fullscreenenter"",""1"",""2760""
","
","","","-1","","","22","7688","3889","&#9826;","elianto","#f73b6a7A","-1","-1","1","0","[]","0","0","3","","","","","","","",""
"pit-trial","67","722253","0.0-2.0-14.1-3.1","battery-v0.2","","""event"",""trial"",""time""
""fullscreenenter"",""1"",""2760""
","
","
","""event"",""trial"",""time""
""fullscreenenter"",""1"",""2760""
","
","","","-1","","","22","7688","3889","&#9826;","elianto","#f73b6a7A","-1","-1","1","-10","[]","0","0","3","","","","","","","",""
"pit-trial","68","727119","0.0-2.0-14.1-4.1","battery-v0.2","","""event"",""trial"",""time""
""fullscreenenter"",""1"",""2760""
","
","
","""event"",""trial"",""time""
""fullscreenenter"",""1"",""2760""
","
","","","-1","","","22","7688","3889","&#9826;","elianto","#f73b6a7A","-1","-1","1","0","[]","0","0","3","","","","","","","",""
"pit-trial","69","731974","0.0-2.0-14.2-0.2","battery-v0.2","","""event"",""trial"",""time""
""fullscreenenter"",""1"",""2760""
","
","
","""event"",""trial"",""time""
""fullscreenenter"",""1"",""2760""
","
","","","-1","","","22","7688","3889","&#9826;","elianto","#f73b6a7A","-1","-1","1","0","[]","0","0","3","","","","","","","",""
"pit-trial","70","736832","0.0-2.0-14.2-1.2","battery-v0.2","","""event"",""trial"",""time""
""fullscreenenter"",""1"",""2760""
","
","
","""event"",""trial"",""time""
""fullscreenenter"",""1"",""2760""
","
","","","-1","","","22","7688","3889","&#9826;","elianto","#f73b6a7A","-1","-1","1","0","[]","0","0","3","","","","","","","",""
"pit-trial","71","741688","0.0-2.0-14.2-2.2","battery-v0.2","","""event"",""trial"",""time""
""fullscreenenter"",""1"",""2760""
","
","
","""event"",""trial"",""time""
""fullscreenenter"",""1"",""2760""
","
","","","-1","","","22","7688","3889","&#9826;","elianto","#f73b6a7A","-1","-1","1","0","[]","0","0","3","","","","","","","",""
"pit-trial","72","746544","0.0-2.0-14.2-3.2","battery-v0.2","","""event"",""trial"",""time""
""fullscreenenter"",""1"",""2760""
","
","
","""event"",""trial"",""time""
""fullscreenenter"",""1"",""2760""
","
","","","-1","","","22","7688","3889","&#9826;","elianto","#f73b6a7A","-1","-1","1","-10","[]","0","0","3","","","","","","","",""
"pit-trial","73","751401","0.0-2.0-14.2-4.2","battery-v0.2","","""event"",""trial"",""time""
""fullscreenenter"",""1"",""2760""
","
","
","""event"",""trial"",""time""
""fullscreenenter"",""1"",""2760""
","
","","","-1","","","22","7688","3889","&#9826;","elianto","#f73b6a7A","-1","-1","1","0","[]","0","0","3","","","","","","","",""
"pit-trial","74","756255","0.0-2.0-14.3-0.3","battery-v0.2","","""event"",""trial"",""time""
""fullscreenenter"",""1"",""2760""
","
","
","""event"",""trial"",""time""
""fullscreenenter"",""1"",""2760""
","
","","","-1","","","22","7688","3889","&#9826;","elianto","#f73b6a7A","-1","-1","1","0","[]","0","0","3","","","","","","","",""
"pit-trial","75","761110","0.0-2.0-14.3-1.3","battery-v0.2","","""event"",""trial"",""time""
""fullscreenenter"",""1"",""2760""
","
","
","""event"",""trial"",""time""
""fullscreenenter"",""1"",""2760""
","
","","","-1","","","22","7688","3889","&#9826;","elianto","#f73b6a7A","-1","-1","1","0","[]","0","0","3","","","","","","","",""
"pit-trial","76","765970","0.0-2.0-14.3-2.3","battery-v0.2","","""event"",""trial"",""time""
""fullscreenenter"",""1"",""2760""
","
","
","""event"",""trial"",""time""
""fullscreenenter"",""1"",""2760""
","
","","","-1","","","22","7688","3889","&#9826;","elianto","#f73b6a7A","-1","-1","1","0","[]","0","0","3","","","","","","","",""
"pit-trial","77","770826","0.0-2.0-14.3-3.3","battery-v0.2","","""event"",""trial"",""time""
""fullscreenenter"",""1"",""2760""
","
","
","""event"",""trial"",""time""
""fullscreenenter"",""1"",""2760""
","
","","","-1","","","22","7688","3889","&#9826;","elianto","#f73b6a7A","-1","-1","1","-10","[]","0","0","3","","","","","","","",""
"pit-trial","78","775685","0.0-2.0-14.3-4.3","battery-v0.2","","""event"",""trial"",""time""
""fullscreenenter"",""1"",""2760""
","
","
","""event"",""trial"",""time""
""fullscreenenter"",""1"",""2760""
","
","","","-1","","","22","7688","3889","&#9826;","elianto","#f73b6a7A","-1","-1","1","0","[]","0","0","3","","","","","","","",""
"call-function","79","775687","0.0-2.0-15.0","battery-v0.2","","""event"",""trial"",""time""
""fullscreenenter"",""1"",""2760""
","
","
","""event"",""trial"",""time""
""fullscreenenter"",""1"",""2760""
","
","","","","","","","","","","","","","","","","","","","","","","","","","","",""
"pit-instructions","80","1022592","0.0-2.0-16.0","battery-v0.2","","""event"",""trial"",""time""
""fullscreenenter"",""1"",""2760""
","
","
","""event"",""trial"",""time""
""fullscreenenter"",""1"",""2760""
","
","","[{""page_index"":0,""viewing_time"":216026.79999998212},{""page_index"":1,""viewing_time"":14108.800000011921},{""page_index"":2,""viewing_time"":10305.699999988079},{""page_index"":3,""viewing_time"":6461.800000011921}]","246903.59999999404","","","","","","","","","","","","","","","","","","","","","","","",""
"pit-trial","81","1026182","0.0-2.0-17.0-0.0","battery-v0.2","","""event"",""trial"",""time""
""fullscreenenter"",""1"",""2760""
","
","
","""event"",""trial"",""time""
""fullscreenenter"",""1"",""2760""
","
","","","729.5999999940395","","","22","7688","3889","&#9789;","elianto","#f73b6a7A"," "," ","1","0","[1586.5]","1","0","4","","","","","","","",""
"pit-trial","82","1029232","0.0-2.0-17.0-1.0","battery-v0.2","","""event"",""trial"",""time""
""fullscreenenter"",""1"",""2760""
","
","
","""event"",""trial"",""time""
""fullscreenenter"",""1"",""2760""
","
","","","184.5","","","22","7688","3889","&#9789;","elianto","#f73b6a7A"," "," ","1","0","[1036.5]","1","0","4","","","","","","","",""
"pit-trial","83","1032231","0.0-2.0-17.0-2.0","battery-v0.2","","""event"",""trial"",""time""
""fullscreenenter"",""1"",""2760""
","
","
","""event"",""trial"",""time""
""fullscreenenter"",""1"",""2760""
","
","","","137","","","22","7688","3889","&#9789;","elianto","#f73b6a7A"," "," ","1","0","[988.0999999940395]","1","0","4","","","","","","","",""
"pit-trial","84","1035208","0.0-2.0-17.0-3.0","battery-v0.2","","""event"",""trial"",""time""
""fullscreenenter"",""1"",""2760""
","
","
","""event"",""trial"",""time""
""fullscreenenter"",""1"",""2760""
","
","","","116.80000001192093","","","22","7688","3889","&#9789;","elianto","#f73b6a7A"," "," ","1","-10","[969.9000000059605]","1","0","4","","","","","","","",""
"pit-trial","85","1038183","0.0-2.0-17.0-4.0","battery-v0.2","","""event"",""trial"",""time""
""fullscreenenter"",""1"",""2760""
","
","
","""event"",""trial"",""time""
""fullscreenenter"",""1"",""2760""
","
","","","110.80000001192093","","","22","7688","3889","&#9789;","elianto","#f73b6a7A"," "," ","1","0","[617.6999999880791,968]","2","0","4","","","","","","","",""
"pit-trial","86","1041488","0.0-2.0-17.1-0.1","battery-v0.2","","""event"",""trial"",""time""
""fullscreenenter"",""1"",""2760""
","
","
","""event"",""trial"",""time""
""fullscreenenter"",""1"",""2760""
","
","","","443","","","22","7688","3889","&#9789;","elianto","#f73b6a7A"," "," ","1","0","[1298]","1","0","4","","","","","","","",""
"pit-trial","87","1044868","0.0-2.0-17.1-1.1","battery-v0.2","","""event"",""trial"",""time""
""fullscreenenter"",""1"",""2760""
","
","
","""event"",""trial"",""time""
""fullscreenenter"",""1"",""2760""
","
","","","518.5","","","22","7688","3889","&#9789;","elianto","#f73b6a7A"," "," ","1","0","[1371.4000000059605]","1","0","4","","","","","","","",""
"pit-trial","88","1048300","0.0-2.0-17.1-2.1","battery-v0.2","","""event"",""trial"",""time""
""fullscreenenter"",""1"",""2760""
","
","
","""event"",""trial"",""time""
""fullscreenenter"",""1"",""2760""
","
","","","576.5","","","22","7688","3889","&#9789;","elianto","#f73b6a7A"," "," ","1","0","[1426.4000000059605]","1","0","4","","","","","","","",""
"pit-trial","89","1051510","0.0-2.0-17.1-3.1","battery-v0.2","","""event"",""trial"",""time""
""fullscreenenter"",""1"",""2760""
","
","
","""event"",""trial"",""time""
""fullscreenenter"",""1"",""2760""
","
","","","354.59999999403954","","","22","7688","3889","&#9789;","elianto","#f73b6a7A"," "," ","1","-10","[1205.2999999821186]","1","0","4","","","","","","","",""
"pit-trial","90","1054581","0.0-2.0-17.1-4.1","battery-v0.2","","""event"",""trial"",""time""
""fullscreenenter"",""1"",""2760""
","
","
","""event"",""trial"",""time""
""fullscreenenter"",""1"",""2760""
","
","","","213.90000000596046","","","22","7688","3889","&#9789;","elianto","#f73b6a7A"," "," ","1","0","[1066.5]","1","0","4","","","","","","","",""
"pit-trial","91","1057712","0.0-2.0-17.2-0.2","battery-v0.2","","""event"",""trial"",""time""
""fullscreenenter"",""1"",""2760""
","
","
","""event"",""trial"",""time""
""fullscreenenter"",""1"",""2760""
","
","","","275.19999998807907","","","22","7688","3889","&#9789;","elianto","#f73b6a7A"," "," ","1","0","[1125.300000011921]","1","0","4","","","","","","","",""
"pit-trial","92","1060637","0.0-2.0-17.2-1.2","battery-v0.2","","""event"",""trial"",""time""
""fullscreenenter"",""1"",""2760""
","
","
","""event"",""trial"",""time""
""fullscreenenter"",""1"",""2760""
","
","","","69.80000001192093","","","22","7688","3889","&#9789;","elianto","#f73b6a7A"," "," ","1","0","[920.2999999821186]","1","0","4","","","","","","","",""
"pit-trial","93","1063643","0.0-2.0-17.2-2.2","battery-v0.2","","""event"",""trial"",""time""
""fullscreenenter"",""1"",""2760""
","
","
","""event"",""trial"",""time""
""fullscreenenter"",""1"",""2760""
","
","","","150.5","","","22","7688","3889","&#9789;","elianto","#f73b6a7A"," "," ","1","0","[1004.0999999940395]","1","0","4","","","","","","","",""
"pit-trial","94","1066610","0.0-2.0-17.2-3.2","battery-v0.2","","""event"",""trial"",""time""
""fullscreenenter"",""1"",""2760""
","
","
","""event"",""trial"",""time""
""fullscreenenter"",""1"",""2760""
","
","","","112.89999997615814","","","22","7688","3889","&#9789;","elianto","#f73b6a7A"," "," ","1","-10","[964.5]","1","0","4","","","","","","","",""
"pit-trial","95","1069612","0.0-2.0-17.2-4.2","battery-v0.2","","""event"",""trial"",""time""
""fullscreenenter"",""1"",""2760""
","
","
","""event"",""trial"",""time""
""fullscreenenter"",""1"",""2760""
","
","","","146.89999997615814","","","22","7688","3889","&#9789;","elianto","#f73b6a7A"," "," ","1","0","[999]","1","0","4","","","","","","","",""
"pit-trial","96","1072643","0.0-2.0-17.3-0.3","battery-v0.2","","""event"",""trial"",""time""
""fullscreenenter"",""1"",""2760""
","
","
","""event"",""trial"",""time""
""fullscreenenter"",""1"",""2760""
","
","","","175.5","","","22","7688","3889","&#9789;","elianto","#f73b6a7A"," "," ","1","0","[1027.5999999940395]","1","0","4","","","","","","","",""
"pit-trial","97","1075604","0.0-2.0-17.3-1.3","battery-v0.2","","""event"",""trial"",""time""
""fullscreenenter"",""1"",""2760""
","
","
","""event"",""trial"",""time""
""fullscreenenter"",""1"",""2760""
","
","","","103.2000000178814","","","22","7688","3889","&#9789;","elianto","#f73b6a7A"," "," ","1","0","[956.3000000119209]","1","0","4","","","","","","","",""
"pit-trial","98","1078585","0.0-2.0-17.3-2.3","battery-v0.2","","""event"",""trial"",""time""
""fullscreenenter"",""1"",""2760""
","
","
","""event"",""trial"",""time""
""fullscreenenter"",""1"",""2760""
","
","","","124.5","","","22","7688","3889","&#9789;","elianto","#f73b6a7A"," "," ","1","0","[977.6999999880791]","1","0","4","","","","","","","",""
"pit-trial","99","1081587","0.0-2.0-17.3-3.3","battery-v0.2","","""event"",""trial"",""time""
""fullscreenenter"",""1"",""2760""
","
","
","""event"",""trial"",""time""
""fullscreenenter"",""1"",""2760""
","
","","","146.2999999821186","","","22","7688","3889","&#9789;","elianto","#f73b6a7A"," "," ","1","-10","[999.5999999940395]","1","0","4","","","","","","","",""
"pit-trial","100","1084584","0.0-2.0-17.3-4.3","battery-v0.2","","""event"",""trial"",""time""
""fullscreenenter"",""1"",""2760""
","
","
","""event"",""trial"",""time""
""fullscreenenter"",""1"",""2760""
","
","","","139.09999999403954","","","22","7688","3889","&#9789;","elianto","#f73b6a7A"," "," ","1","0","[990.5999999940395]","1","0","4","","","","","","","",""
"call-function","101","1084587","0.0-2.0-18.0","battery-v0.2","","""event"",""trial"",""time""
""fullscreenenter"",""1"",""2760""
","
","
","""event"",""trial"",""time""
""fullscreenenter"",""1"",""2760""
","
","","","","","","","","","","","","","","","","","","","","","","","","","","",""
"pit-instructions","102","1142866","0.0-2.0-19.0","battery-v0.2","","""event"",""trial"",""time""
""fullscreenenter"",""1"",""2760""
","
","
","""event"",""trial"",""time""
""fullscreenenter"",""1"",""2760""
","
","","[{""page_index"":0,""viewing_time"":7140.199999988079},{""page_index"":1,""viewing_time"":6460.800000011921},{""page_index"":2,""viewing_time"":8546.40000000596},{""page_index"":3,""viewing_time"":4382.299999982119},{""page_index"":4,""viewing_time"":8152.300000011921},{""page_index"":5,""viewing_time"":8431.800000011921},{""page_index"":6,""viewing_time"":4942.199999988079},{""page_index"":7,""viewing_time"":5543.5999999940395},{""page_index"":8,""viewing_time"":4676.700000017881}]","58276.90000000596","","","","","","","","","","","","","","","","","","","","","","","",""
"pit-comprehension","103","1147384","0.0-2.0-20.0-0.0","battery-v0.2","","""event"",""trial"",""time""
""fullscreenenter"",""1"",""2760""
","
","
","""event"",""trial"",""time""
""fullscreenenter"",""1"",""2760""
","
","","","4514.0999999940395","[""SPACE""]","0","22","7688","3889","","","","","","","","","","","","","","","","","","",""
"pit-instructions","104","1150042","0.0-2.0-20.0-1.0","battery-v0.2","","""event"",""trial"",""time""
""fullscreenenter"",""1"",""2760""
","
","
","""event"",""trial"",""time""
""fullscreenenter"",""1"",""2760""
","
","","[{""page_index"":0,""viewing_time"":2624.9000000059605}]","2625.4000000059605","","","","","","","","","","","","","","","","","","","","","","","",""
"pit-comprehension","105","1156097","0.0-2.0-21.0-0.0","battery-v0.2","","""event"",""trial"",""time""
""fullscreenenter"",""1"",""2760""
","
","
","""event"",""trial"",""time""
""fullscreenenter"",""1"",""2760""
","
","","","6051.4000000059605","[""10""]","0","22","7688","3889","","","","","","","","","","","","","","","","","","",""
"pit-instructions","106","1157922","0.0-2.0-21.0-1.0","battery-v0.2","","""event"",""trial"",""time""
""fullscreenenter"",""1"",""2760""
","
","
","""event"",""trial"",""time""
""fullscreenenter"",""1"",""2760""
","
","","[{""page_index"":0,""viewing_time"":1795.800000011921}]","1796.2000000178814","","","","","","","","","","","","","","","","","","","","","","","",""
"pit-comprehension","107","1164680","0.0-2.0-22.0-0.0","battery-v0.2","","""event"",""trial"",""time""
""fullscreenenter"",""1"",""2760""
","
","
","""event"",""trial"",""time""
""fullscreenenter"",""1"",""2760""
","
","","","6754.699999988079","[""0""]","0","22","7688","3889","","","","","","","","","","","","","","","","","","",""
"pit-instructions","108","1166389","0.0-2.0-22.0-1.0","battery-v0.2","","""event"",""trial"",""time""
""fullscreenenter"",""1"",""2760""
","
","
","""event"",""trial"",""time""
""fullscreenenter"",""1"",""2760""
","
","","[{""page_index"":0,""viewing_time"":1679.2000000178814}]","1679.6000000238419","","","","","","","","","","","","","","","","","","","","","","","",""
"pit-comprehension","109","1188998","0.0-2.0-23.0-0.0","battery-v0.2","","""event"",""trial"",""time""
""fullscreenenter"",""1"",""2760""
","
","
","""event"",""trial"",""time""
""fullscreenenter"",""1"",""2760""
","
","","","22607.399999976158","[""False""]","1","22","7688","3889","","","","","","","","","","","","","","","","","","",""
"pit-instructions","110","1197278","0.0-2.0-23.0-1.0","battery-v0.2","","""event"",""trial"",""time""
""fullscreenenter"",""1"",""2760""
","
","
","""event"",""trial"",""time""
""fullscreenenter"",""1"",""2760""
","
","","[{""page_index"":0,""viewing_time"":8245.5}]","8245.90000000596","","","","","","","","","","","","","","","","","","","","","","","",""
"pit-instructions","111","1198651","0.0-2.0-23.0-2.0-0.0","battery-v0.2","","""event"",""trial"",""time""
""fullscreenenter"",""1"",""2760""
","
","
","""event"",""trial"",""time""
""fullscreenenter"",""1"",""2760""
","
","","[{""page_index"":0,""viewing_time"":1370.5}]","1371","","","","","","","","","","","","","","","","","","","","","","","",""
"pit-comprehension","112","1207256","0.0-2.0-23.1-0.1","battery-v0.2","","""event"",""trial"",""time""
""fullscreenenter"",""1"",""2760""
","
","
","""event"",""trial"",""time""
""fullscreenenter"",""1"",""2760""
","
","","","8602.799999982119","[""True""]","0","22","7688","3889","","","","","","","","","","","","","","","","","","",""
"pit-instructions","113","1209137","0.0-2.0-23.1-1.1","battery-v0.2","","""event"",""trial"",""time""
""fullscreenenter"",""1"",""2760""
","
","
","""event"",""trial"",""time""
""fullscreenenter"",""1"",""2760""
","
","","[{""page_index"":0,""viewing_time"":1848}]","1848.3999999761581","","","","","","","","","","","","","","","","","","","","","","","",""
"pit-comprehension","114","1371938","0.0-2.0-24.0-0.0","battery-v0.2","","""event"",""trial"",""time""
""fullscreenenter"",""1"",""2760""
","
","
","""event"",""trial"",""time""
""fullscreenenter"",""1"",""2760""
","
","","","162798.19999998808","[""True""]","0","22","7688","3889","","","","","","","","","","","","","","","","","","",""
"pit-instructions","115","1373679","0.0-2.0-24.0-1.0","battery-v0.2","","""event"",""trial"",""time""
""fullscreenenter"",""1"",""2760""
","
","
","""event"",""trial"",""time""
""fullscreenenter"",""1"",""2760""
","
","","[{""page_index"":0,""viewing_time"":1681.199999988079}]","1681.699999988079","","","","","","","","","","","","","","","","","","","","","","","",""
"pit-comprehension","116","1381232","0.0-2.0-25.0-0.0","battery-v0.2","","""event"",""trial"",""time""
""fullscreenenter"",""1"",""2760""
","
","
","""event"",""trial"",""time""
""fullscreenenter"",""1"",""2760""
","
","","","7548.800000011921","[""True""]","0","22","7688","3889","","","","","","","","","","","","","","","","","","",""
"pit-instructions","117","1384412","0.0-2.0-25.0-1.0","battery-v0.2","","""event"",""trial"",""time""
""fullscreenenter"",""1"",""2760""
","
","
","""event"",""trial"",""time""
""fullscreenenter"",""1"",""2760""
","
","","[{""page_index"":0,""viewing_time"":3142}]","3142.4000000059605","","","","","","","","","","","","","","","","","","","","","","","",""
"pit-comprehension","118","1389128","0.0-2.0-26.0-0.0","battery-v0.2","","""event"",""trial"",""time""
""fullscreenenter"",""1"",""2760""
","
","
","""event"",""trial"",""time""
""fullscreenenter"",""1"",""2760""
","
","","","4712.200000017881","[""False""]","0","22","7688","3889","","","","","","","","","","","","","","","","","","",""
"pit-instructions","119","1391919","0.0-2.0-26.0-1.0","battery-v0.2","","""event"",""trial"",""time""
""fullscreenenter"",""1"",""2760""
","
","
","""event"",""trial"",""time""
""fullscreenenter"",""1"",""2760""
","
","","[{""page_index"":0,""viewing_time"":2758.699999988079}]","2759","","","","","","","","","","","","","","","","","","","","","","","",""
"pit-instructions","120","1460588","0.0-3.0","battery-v0.2","","""event"",""trial"",""time""
""fullscreenenter"",""1"",""2760""
","
","
","""event"",""trial"",""time""
""fullscreenenter"",""1"",""2760""
","
","","[{""page_index"":0,""viewing_time"":6536.0999999940395},{""page_index"":1,""viewing_time"":49826},{""page_index"":2,""viewing_time"":12304.799999982119}]","68667.69999998808","","","","","","","","","","","","","","","","","","","","","","","",""
"pit-trial","121","1463965","0.0-4.0","battery-v0.2","","""event"",""trial"",""time""
""fullscreenenter"",""1"",""2760""
","
","
","""event"",""trial"",""time""
""fullscreenenter"",""1"",""2760""
","
","","","497.10000002384186","","","22","7688","3889","&#9733;","elianto","#3366ff99","-1"," ","0","0","[1361.0999999940395]","1","1","","","7688","1","2","2","win","no-go","0"
"pit-trial","122","1467782","0.0-5.0","battery-v0.2","","""event"",""trial"",""time""
""fullscreenenter"",""1"",""2760""
","
","
","""event"",""trial"",""time""
""fullscreenenter"",""1"",""2760""
","
","","","944.4000000059605","","","22","7688","3889","&#9730;","elianto","#3366ff99"," "," ","1","0","[1799.5]","1","1","","","7688","2","1","1","win","go","1"
"pit-trial","123","1472648","0.0-6.0","battery-v0.2","","""event"",""trial"",""time""
""fullscreenenter"",""1"",""2760""
","
","
","""event"",""trial"",""time""
""fullscreenenter"",""1"",""2760""
","
","","","-1","","","22","7688","3889","&#9752;","elianto","#f73b6a7A"," ","-1","0","-10","[]","0","1","","","7688","3","3","3","lose","go","0"
"pit-trial","124","1476700","0.0-7.0","battery-v0.2","","""event"",""trial"",""time""
""fullscreenenter"",""1"",""2760""
","
","
","""event"",""trial"",""time""
""fullscreenenter"",""1"",""2760""
","
","","","1192.3999999761581","","","22","7688","3889","&#9728;","elianto","#f73b6a7A","-1"," ","0","-10","[2048.5999999940395]","1","1","","","7688","4","0","4","lose","no-go","0"
"pit-trial","125","1480372","0.0-8.0","battery-v0.2","","""event"",""trial"",""time""
""fullscreenenter"",""1"",""2760""
","
","
","""event"",""trial"",""time""
""fullscreenenter"",""1"",""2760""
","
","","","806.9000000059605","","","22","7688","3889","&#9752;","elianto","#f73b6a7A"," "," ","1","-10","[1661.699999988079]","1","1","","","7688","5","3","3","lose","go","1"
"pit-trial","126","1484159","0.0-9.0","battery-v0.2","","""event"",""trial"",""time""
""fullscreenenter"",""1"",""2760""
","
","
","""event"",""trial"",""time""
""fullscreenenter"",""1"",""2760""
","
","","","928","","","22","7688","3889","&#9733;","elianto","#3366ff99","-1"," ","0","0","[1779.199999988079,1883.7999999821186]","2","1","","","7688","6","2","2","win","no-go","0"
"pit-trial","127","1487924","0.0-10.0","battery-v0.2","","""event"",""trial"",""time""
""fullscreenenter"",""1"",""2760""
","
","
","""event"",""trial"",""time""
""fullscreenenter"",""1"",""2760""
","
","","","908.4000000059605","","","22","7688","3889","&#9728;","elianto","#f73b6a7A","-1"," ","0","-10","[1762.0999999940395]","1","1","","","7688","7","0","4","lose","no-go","0"
"pit-trial","128","1492780","0.0-11.0","battery-v0.2","","""event"",""trial"",""time""
""fullscreenenter"",""1"",""2760""
","
","
","""event"",""trial"",""time""
""fullscreenenter"",""1"",""2760""
","
","","","-1","","","22","7688","3889","&#9730;","elianto","#3366ff99"," ","-1","0","0","[]","0","1","","","7688","8","1","1","win","go","0"
"pit-trial","129","1497636","0.0-12.0","battery-v0.2","","""event"",""trial"",""time""
""fullscreenenter"",""1"",""2760""
","
","
","""event"",""trial"",""time""
""fullscreenenter"",""1"",""2760""
","
","","","-1","","","22","7688","3889","&#9733;","elianto","#3366ff99","-1","-1","1","+10","[]","0","1","","","7688","9","2","2","win","no-go","0"
"pit-trial","130","1501697","0.0-13.0","battery-v0.2","","""event"",""trial"",""time""
""fullscreenenter"",""1"",""2760""
","
","
","""event"",""trial"",""time""
""fullscreenenter"",""1"",""2760""
","
","","","1207.5","","","22","7688","3889","&#9752;","elianto","#f73b6a7A"," "," ","1","0","[2058.0999999940395]","1","1","","","7688","10","3","3","lose","go","0"
"pit-trial","131","1506554","0.0-14.0","battery-v0.2","","""event"",""trial"",""time""
""fullscreenenter"",""1"",""2760""
","
","
","""event"",""trial"",""time""
""fullscreenenter"",""1"",""2760""
","
","","","-1","","","22","7688","3889","&#9728;","elianto","#f73b6a7A","-1","-1","1","0","[]","0","1","","","7688","11","0","4","lose","no-go","0"
"pit-trial","132","1511228","0.0-15.0","battery-v0.2","","""event"",""trial"",""time""
""fullscreenenter"",""1"",""2760""
","
","
","""event"",""trial"",""time""
""fullscreenenter"",""1"",""2760""
","
","","","1820.800000011921","","","22","7688","3889","&#9730;","elianto","#3366ff99"," "," ","1","0","[2671.800000011921]","1","1","","","7688","12","1","1","win","go","1"
"pit-trial","133","1516086","0.0-16.0","battery-v0.2","","""event"",""trial"",""time""
""fullscreenenter"",""1"",""2760""
","
","
","""event"",""trial"",""time""
""fullscreenenter"",""1"",""2760""
","
","","","-1","","","22","7688","3889","&#9752;","elianto","#f73b6a7A"," ","-1","0","-10","[]","0","1","","","7688","13","3","3","lose","go","0"
"pit-trial","134","1520491","0.0-17.0","battery-v0.2","","""event"",""trial"",""time""
""fullscreenenter"",""1"",""2760""
","
","
","""event"",""trial"",""time""
""fullscreenenter"",""1"",""2760""
","
","","","1548.5999999940395","","","22","7688","3889","&#9730;","elianto","#3366ff99"," "," ","1","+10","[2400.5999999940395]","1","1","","","7688","14","1","1","win","go","0"
"pit-trial","135","1525345","0.0-18.0","battery-v0.2","","""event"",""trial"",""time""
""fullscreenenter"",""1"",""2760""
","
","
","""event"",""trial"",""time""
""fullscreenenter"",""1"",""2760""
","
","","","-1","","","22","7688","3889","&#9728;","elianto","#f73b6a7A","-1","-1","1","-10","[]","0","1","","","7688","15","0","4","lose","no-go","1"
"pit-trial","136","1530198","0.0-19.0","battery-v0.2","","""event"",""trial"",""time""
""fullscreenenter"",""1"",""2760""
","
","
","""event"",""trial"",""time""
""fullscreenenter"",""1"",""2760""
","
","","","-1","","","22","7688","3889","&#9733;","elianto","#3366ff99","-1","-1","1","+10","[]","0","1","","","7688","16","2","2","win","no-go","0"
"pit-trial","137","1534083","0.0-20.0","battery-v0.2","","""event"",""trial"",""time""
""fullscreenenter"",""1"",""2760""
","
","
","""event"",""trial"",""time""
""fullscreenenter"",""1"",""2760""
","
","","","1027","","","22","7688","3889","&#9730;","elianto","#3366ff99"," "," ","1","+10","[1878.4000000059605]","1","1","","","7688","17","1","1","win","go","0"
"pit-trial","138","1538936","0.0-21.0","battery-v0.2","","""event"",""trial"",""time""
""fullscreenenter"",""1"",""2760""
","
","
","""event"",""trial"",""time""
""fullscreenenter"",""1"",""2760""
","
","","","-1","","","22","7688","3889","&#9752;","elianto","#f73b6a7A"," ","-1","0","-10","[]","0","1","","","7688","18","3","3","lose","go","0"
"pit-trial","139","1543789","0.0-22.0","battery-v0.2","","""event"",""trial"",""time""
""fullscreenenter"",""1"",""2760""
","
","
","""event"",""trial"",""time""
""fullscreenenter"",""1"",""2760""
","
","","","-1","","","22","7688","3889","&#9733;","elianto","#3366ff99","-1","-1","1","+10","[]","0","1","","","7688","19","2","2","win","no-go","0"
"pit-trial","140","1548648","0.0-23.0","battery-v0.2","","""event"",""trial"",""time""
""fullscreenenter"",""1"",""2760""
","
","
","""event"",""trial"",""time""
""fullscreenenter"",""1"",""2760""
","
","","","-1","","","22","7688","3889","&#9728;","elianto","#f73b6a7A","-1","-1","1","0","[]","0","1","","","7688","20","0","4","lose","no-go","0"
"pit-instructions","141","1689525","0.0-24.0","battery-v0.2","","""event"",""trial"",""time""
""fullscreenenter"",""1"",""2760""
","
","
","""event"",""trial"",""time""
""fullscreenenter"",""1"",""2760""
","
","","[{""page_index"":0,""viewing_time"":6710.5},{""page_index"":1,""viewing_time"":134164.10000002384}]","140875.10000002384","","","","","","","","","","","","","","","","","","","","","","","",""
"pit-trial","142","1693423","0.0-25.0","battery-v0.2","","""event"",""trial"",""time""
""fullscreenenter"",""1"",""2760""
","
","
","""event"",""trial"",""time""
""fullscreenenter"",""1"",""2760""
","
","","","1041.5999999940395","","","22","7688","3889","r","elianto","#3366ff99"," "," ","1","+10","[1892.0999999940395]","1","2","","","7688","21","1","1","win","go","0"
"pit-trial","143","1698284","0.0-26.0","battery-v0.2","","""event"",""trial"",""time""
""fullscreenenter"",""1"",""2760""
","
","
","""event"",""trial"",""time""
""fullscreenenter"",""1"",""2760""
","
","","","-1","","","22","7688","3889","h","elianto","#f73b6a7A"," ","-1","0","-10","[]","0","2","","","7688","22","3","3","lose","go","0"
"pit-trial","144","1703144","0.0-27.0","battery-v0.2","","""event"",""trial"",""time""
""fullscreenenter"",""1"",""2760""
","
","
","""event"",""trial"",""time""
""fullscreenenter"",""1"",""2760""
","
","","","-1","","","22","7688","3889","m","elianto","#f73b6a7A","-1","-1","1","0","[]","0","2","","","7688","23","0","4","lose","no-go","0"
"pit-trial","145","1708002","0.0-28.0","battery-v0.2","","""event"",""trial"",""time""
""fullscreenenter"",""1"",""2760""
","
","
","""event"",""trial"",""time""
""fullscreenenter"",""1"",""2760""
","
","","","-1","","","22","7688","3889","y","elianto","#f73b6a7A","-1","-1","1","0","[]","0","2","","","7688","24","2","4","lose","no-go","0"
"pit-trial","146","1712855","0.0-29.0","battery-v0.2","","""event"",""trial"",""time""
""fullscreenenter"",""1"",""2760""
","
","
","""event"",""trial"",""time""
""fullscreenenter"",""1"",""2760""
","
","","","-1","","","22","7688","3889","y","elianto","#f73b6a7A","-1","-1","1","0","[]","0","2","","","7688","25","2","4","lose","no-go","0"
"pit-trial","147","1717239","0.0-30.0","battery-v0.2","","""event"",""trial"",""time""
""fullscreenenter"",""1"",""2760""
","
","
","""event"",""trial"",""time""
""fullscreenenter"",""1"",""2760""
","
","","","1531.800000011921","","","22","7688","3889","r","elianto","#3366ff99"," "," ","1","+10","[2381.800000011921]","1","2","","","7688","26","1","1","win","go","0"
"pit-trial","148","1721010","0.0-31.0","battery-v0.2","","""event"",""trial"",""time""
""fullscreenenter"",""1"",""2760""
","
","
","""event"",""trial"",""time""
""fullscreenenter"",""1"",""2760""
","
","","","906.5999999940395","","","22","7688","3889","h","elianto","#f73b6a7A"," "," ","1","0","[1764.7999999821186]","1","2","","","7688","27","3","3","lose","go","0"
"pit-trial","149","1725453","0.0-32.0","battery-v0.2","","""event"",""trial"",""time""
""fullscreenenter"",""1"",""2760""
","
","
","""event"",""trial"",""time""
""fullscreenenter"",""1"",""2760""
","
","","","1585.9000000059605","","","22","7688","3889","m","elianto","#f73b6a7A","-1"," ","0","-10","[2437.699999988079]","1","2","","","7688","28","0","4","lose","no-go","0"
"pit-trial","150","1730307","0.0-33.0","battery-v0.2","","""event"",""trial"",""time""
""fullscreenenter"",""1"",""2760""
","
","
","""event"",""trial"",""time""
""fullscreenenter"",""1"",""2760""
","
","","","-1","","","22","7688","3889","m","elianto","#f73b6a7A","-1","-1","1","0","[]","0","2","","","7688","29","0","4","lose","no-go","0"
"pit-trial","151","1734722","0.0-34.0","battery-v0.2","","""event"",""trial"",""time""
""fullscreenenter"",""1"",""2760""
","
","
","""event"",""trial"",""time""
""fullscreenenter"",""1"",""2760""
","
","","","1560","","","22","7688","3889","r","elianto","#3366ff99"," "," ","1","+10","[2411.7999999821186]","1","2","","","7688","30","1","1","win","go","0"
"pit-trial","152","1739423","0.0-35.0","battery-v0.2","","""event"",""trial"",""time""
""fullscreenenter"",""1"",""2760""
","
","
","""event"",""trial"",""time""
""fullscreenenter"",""1"",""2760""
","
","","","1842.9000000059605","","","22","7688","3889","y","elianto","#f73b6a7A","-1"," ","0","-10","[2697.699999988079]","1","2","","","7688","31","2","4","lose","no-go","0"
"pit-trial","153","1744277","0.0-36.0","battery-v0.2","","""event"",""trial"",""time""
""fullscreenenter"",""1"",""2760""
","
","
","""event"",""trial"",""time""
""fullscreenenter"",""1"",""2760""
","
","","","-1","","","22","7688","3889","h","elianto","#f73b6a7A"," ","-1","0","-10","[]","0","2","","","7688","32","3","3","lose","go","0"
"pit-trial","154","1747783","0.0-37.0","battery-v0.2","","""event"",""trial"",""time""
""fullscreenenter"",""1"",""2760""
","
","
","""event"",""trial"",""time""
""fullscreenenter"",""1"",""2760""
","
","","","648.1999999880791","","","22","7688","3889","h","elianto","#f73b6a7A"," "," ","1","0","[1502.5999999940395]","1","2","","","7688","33","3","3","lose","go","0"
"pit-trial","155","1751432","0.0-38.0","battery-v0.2","","""event"",""trial"",""time""
""fullscreenenter"",""1"",""2760""
","
","
","""event"",""trial"",""time""
""fullscreenenter"",""1"",""2760""
","
","","","790.5","","","22","7688","3889","r","elianto","#3366ff99"," "," ","1","+10","[1643.800000011921]","1","2","","","7688","34","1","1","win","go","0"
"pit-trial","156","1756286","0.0-39.0","battery-v0.2","","""event"",""trial"",""time""
""fullscreenenter"",""1"",""2760""
","
","
","""event"",""trial"",""time""
""fullscreenenter"",""1"",""2760""
","
","","","-1","","","22","7688","3889","m","elianto","#f73b6a7A","-1","-1","1","-10","[]","0","2","","","7688","35","0","4","lose","no-go","1"
"pit-trial","157","1761143","0.0-40.0","battery-v0.2","","""event"",""trial"",""time""
""fullscreenenter"",""1"",""2760""
","
","
","""event"",""trial"",""time""
""fullscreenenter"",""1"",""2760""
","
","","","-1","","","22","7688","3889","y","elianto","#f73b6a7A","-1","-1","1","0","[]","0","2","","","7688","36","2","4","lose","no-go","0"
"pit-trial","158","1766012","0.0-41.0","battery-v0.2","","""event"",""trial"",""time""
""fullscreenenter"",""1"",""2760""
","
","
","""event"",""trial"",""time""
""fullscreenenter"",""1"",""2760""
","
","","","-1","","","22","7688","3889","h","elianto","#f73b6a7A"," ","-1","0","-10","[]","0","2","","","7688","37","3","3","lose","go","0"
"pit-trial","159","1769981","0.0-42.0","battery-v0.2","","""event"",""trial"",""time""
""fullscreenenter"",""1"",""2760""
","
","
","""event"",""trial"",""time""
""fullscreenenter"",""1"",""2760""
","
","","","1112.699999988079","","","22","7688","3889","m","elianto","#f73b6a7A","-1"," ","0","-10","[1964.9000000059605]","1","2","","","7688","38","0","4","lose","no-go","0"
"pit-trial","160","1773962","0.0-43.0","battery-v0.2","","""event"",""trial"",""time""
""fullscreenenter"",""1"",""2760""
","
","
","""event"",""trial"",""time""
""fullscreenenter"",""1"",""2760""
","
","","","1127.1000000238419","","","22","7688","3889","y","elianto","#f73b6a7A","-1"," ","0","0","[1977.2999999821186]","1","2","","","7688","39","2","4","lose","no-go","1"
"pit-trial","161","1777672","0.0-44.0","battery-v0.2","","""event"",""trial"",""time""
""fullscreenenter"",""1"",""2760""
","
","
","""event"",""trial"",""time""
""fullscreenenter"",""1"",""2760""
","
","","","851.1000000238419","","","22","7688","3889","r","elianto","#3366ff99"," "," ","1","0","[1703.5999999940395]","1","2","","","7688","40","1","1","win","go","1"
"pit-trial","162","1782534","0.0-45.0","battery-v0.2","","""event"",""trial"",""time""
""fullscreenenter"",""1"",""2760""
","
","
","""event"",""trial"",""time""
""fullscreenenter"",""1"",""2760""
","
","","","-1","","","22","7688","3889","y","elianto","#f73b6a7A","-1","-1","1","0","[]","0","2","","","7688","41","2","4","lose","no-go","0"
"pit-trial","163","1786776","0.0-46.0","battery-v0.2","","""event"",""trial"",""time""
""fullscreenenter"",""1"",""2760""
","
","
","""event"",""trial"",""time""
""fullscreenenter"",""1"",""2760""
","
","","","1388.5","","","22","7688","3889","m","elianto","#f73b6a7A","-1"," ","0","-10","[2239.899999976158]","1","2","","","7688","42","0","4","lose","no-go","0"
"pit-trial","164","1790322","0.0-47.0","battery-v0.2","","""event"",""trial"",""time""
""fullscreenenter"",""1"",""2760""
","
","
","""event"",""trial"",""time""
""fullscreenenter"",""1"",""2760""
","
","","","691.2000000178814","","","22","7688","3889","r","elianto","#3366ff99"," "," ","1","0","[1542.7999999821186]","1","2","","","7688","43","1","1","win","go","1"
"pit-trial","165","1794788","0.0-48.0","battery-v0.2","","""event"",""trial"",""time""
""fullscreenenter"",""1"",""2760""
","
","
","""event"",""trial"",""time""
""fullscreenenter"",""1"",""2760""
","
","","","1600","","","22","7688","3889","h","elianto","#f73b6a7A"," "," ","1","0","[2453.399999976158]","1","2","","","7688","44","3","3","lose","go","0"
"pit-trial","166","1799646","0.0-49.0","battery-v0.2","","""event"",""trial"",""time""
""fullscreenenter"",""1"",""2760""
","
","
","""event"",""trial"",""time""
""fullscreenenter"",""1"",""2760""
","
","","","-1","","","22","7688","3889","m","elianto","#f73b6a7A","-1","-1","1","-10","[]","0","2","","","7688","45","0","4","lose","no-go","1"
"pit-trial","167","1803492","0.0-50.0","battery-v0.2","","""event"",""trial"",""time""
""fullscreenenter"",""1"",""2760""
","
","
","""event"",""trial"",""time""
""fullscreenenter"",""1"",""2760""
","
","","","988.9000000059605","","","22","7688","3889","z","elianto","#3366ff99","-1"," ","0","+10","[1840]","1","2","","","7688","46","4","2","win","no-go","1"
"pit-trial","168","1807754","0.0-51.0","battery-v0.2","","""event"",""trial"",""time""
""fullscreenenter"",""1"",""2760""
","
","
","""event"",""trial"",""time""
""fullscreenenter"",""1"",""2760""
","
","","","1407.7000000178814","","","22","7688","3889","h","elianto","#f73b6a7A"," "," ","1","0","[2259]","1","2","","","7688","47","3","3","lose","go","0"
"pit-trial","169","1812616","0.0-52.0","battery-v0.2","","""event"",""trial"",""time""
""fullscreenenter"",""1"",""2760""
","
","
","""event"",""trial"",""time""
""fullscreenenter"",""1"",""2760""
","
","","","-1","","","22","7688","3889","y","elianto","#f73b6a7A","-1","-1","1","0","[]","0","2","","","7688","48","2","4","lose","no-go","0"
"pit-trial","170","1817473","0.0-53.0","battery-v0.2","","""event"",""trial"",""time""
""fullscreenenter"",""1"",""2760""
","
","
","""event"",""trial"",""time""
""fullscreenenter"",""1"",""2760""
","
","","","-1","","","22","7688","3889","m","elianto","#f73b6a7A","-1","-1","1","-10","[]","0","2","","","7688","49","0","4","lose","no-go","1"
"pit-trial","171","1821016","0.0-54.0","battery-v0.2","","""event"",""trial"",""time""
""fullscreenenter"",""1"",""2760""
","
","
","""event"",""trial"",""time""
""fullscreenenter"",""1"",""2760""
","
","","","683.5","","","22","7688","3889","r","elianto","#3366ff99"," "," ","1","+10","[1535.699999988079]","1","2","","","7688","50","1","1","win","go","0"
"pit-trial","172","1824582","0.0-55.0","battery-v0.2","","""event"",""trial"",""time""
""fullscreenenter"",""1"",""2760""
","
","
","""event"",""trial"",""time""
""fullscreenenter"",""1"",""2760""
","
","","","709.9000000059605","","","22","7688","3889","z","elianto","#3366ff99","-1"," ","0","0","[1559.9000000059605]","1","2","","","7688","51","4","2","win","no-go","0"
"pit-trial","173","1829436","0.0-56.0","battery-v0.2","","""event"",""trial"",""time""
""fullscreenenter"",""1"",""2760""
","
","
","""event"",""trial"",""time""
""fullscreenenter"",""1"",""2760""
","
","","","-1","","","22","7688","3889","h","elianto","#f73b6a7A"," ","-1","0","-10","[]","0","2","","","7688","52","3","3","lose","go","0"
"pit-trial","174","1833742","0.0-57.0","battery-v0.2","","""event"",""trial"",""time""
""fullscreenenter"",""1"",""2760""
","
","
","""event"",""trial"",""time""
""fullscreenenter"",""1"",""2760""
","
","","","1450.7999999821186","","","22","7688","3889","m","elianto","#f73b6a7A","-1"," ","0","0","[2301.0999999940395]","1","2","","","7688","53","0","4","lose","no-go","1"
"pit-trial","175","1837307","0.0-58.0","battery-v0.2","","""event"",""trial"",""time""
""fullscreenenter"",""1"",""2760""
","
","
","""event"",""trial"",""time""
""fullscreenenter"",""1"",""2760""
","
","","","709.3000000119209","","","22","7688","3889","r","elianto","#3366ff99"," "," ","1","0","[1560]","1","2","","","7688","54","1","1","win","go","1"
"pit-trial","176","1842161","0.0-59.0","battery-v0.2","","""event"",""trial"",""time""
""fullscreenenter"",""1"",""2760""
","
","
","""event"",""trial"",""time""
""fullscreenenter"",""1"",""2760""
","
","","","-1","","","22","7688","3889","y","elianto","#f73b6a7A","-1","-1","1","-10","[]","0","2","","","7688","55","2","4","lose","no-go","1"
"pit-trial","177","1845680","0.0-60.0","battery-v0.2","","""event"",""trial"",""time""
""fullscreenenter"",""1"",""2760""
","
","
","""event"",""trial"",""time""
""fullscreenenter"",""1"",""2760""
","
","","","654.1999999880791","","","22","7688","3889","z","elianto","#3366ff99","-1"," ","0","+10","[1505.5]","1","2","","","7688","56","4","2","win","no-go","1"
"pit-trial","178","1849271","0.0-61.0","battery-v0.2","","""event"",""trial"",""time""
""fullscreenenter"",""1"",""2760""
","
","
","""event"",""trial"",""time""
""fullscreenenter"",""1"",""2760""
","
","","","734.2999999821186","","","22","7688","3889","r","elianto","#3366ff99"," "," ","1","+10","[1585.5999999940395]","1","2","","","7688","57","1","1","win","go","0"
"pit-trial","179","1852608","0.0-62.0","battery-v0.2","","""event"",""trial"",""time""
""fullscreenenter"",""1"",""2760""
","
","
","""event"",""trial"",""time""
""fullscreenenter"",""1"",""2760""
","
","","","478.2000000178814","","","22","7688","3889","h","elianto","#f73b6a7A"," "," ","1","0","[1331]","1","2","","","7688","58","3","3","lose","go","0"
"pit-trial","180","1855916","0.0-63.0","battery-v0.2","","""event"",""trial"",""time""
""fullscreenenter"",""1"",""2760""
","
","
","""event"",""trial"",""time""
""fullscreenenter"",""1"",""2760""
","
","","","452.40000000596046","","","22","7688","3889","m","elianto","#f73b6a7A","-1"," ","0","0","[1304.5]","1","2","","","7688","59","0","4","lose","no-go","1"
"pit-trial","181","1859645","0.0-64.0","battery-v0.2","","""event"",""trial"",""time""
""fullscreenenter"",""1"",""2760""
","
","
","""event"",""trial"",""time""
""fullscreenenter"",""1"",""2760""
","
","","","871.9000000059605","","","22","7688","3889","z","elianto","#3366ff99","-1"," ","0","0","[1726.2000000178814]","1","2","","","7688","60","4","2","win","no-go","0"
"pit-trial","182","1864499","0.0-65.0","battery-v0.2","","""event"",""trial"",""time""
""fullscreenenter"",""1"",""2760""
","
","
","""event"",""trial"",""time""
""fullscreenenter"",""1"",""2760""
","
","","","-1","","","22","7688","3889","y","elianto","#f73b6a7A","-1","-1","1","0","[]","0","2","","","7688","61","2","4","lose","no-go","0"
"pit-trial","183","1868054","0.0-66.0","battery-v0.2","","""event"",""trial"",""time""
""fullscreenenter"",""1"",""2760""
","
","
","""event"",""trial"",""time""
""fullscreenenter"",""1"",""2760""
","
","","","695.8000000119209","","","22","7688","3889","r","elianto","#3366ff99"," "," ","1","+10","[1549.5]","1","2","","","7688","62","1","1","win","go","0"
"pit-trial","184","1871652","0.0-67.0","battery-v0.2","","""event"",""trial"",""time""
""fullscreenenter"",""1"",""2760""
","
","
","""event"",""trial"",""time""
""fullscreenenter"",""1"",""2760""
","
","","","740.5999999940395","","","22","7688","3889","h","elianto","#f73b6a7A"," "," ","1","0","[1593]","1","2","","","7688","63","3","3","lose","go","0"
"pit-trial","185","1875143","0.0-68.0","battery-v0.2","","""event"",""trial"",""time""
""fullscreenenter"",""1"",""2760""
","
","
","""event"",""trial"",""time""
""fullscreenenter"",""1"",""2760""
","
","","","631.5","","","22","7688","3889","z","elianto","#3366ff99","-1"," ","0","0","[1484.2000000178814]","1","2","","","7688","64","4","2","win","no-go","0"
"pit-trial","186","1880002","0.0-69.0","battery-v0.2","","""event"",""trial"",""time""
""fullscreenenter"",""1"",""2760""
","
","
","""event"",""trial"",""time""
""fullscreenenter"",""1"",""2760""
","
","","","-1","","","22","7688","3889","y","elianto","#f73b6a7A","-1","-1","1","0","[]","0","2","","","7688","65","2","4","lose","no-go","0"
"pit-trial","187","1884857","0.0-70.0","battery-v0.2","","""event"",""trial"",""time""
""fullscreenenter"",""1"",""2760""
","
","
","""event"",""trial"",""time""
""fullscreenenter"",""1"",""2760""
","
","","","-1","","","22","7688","3889","z","elianto","#3366ff99","-1","-1","1","0","[]","0","2","","","7688","66","4","2","win","no-go","1"
"pit-trial","188","1888423","0.0-71.0","battery-v0.2","","""event"",""trial"",""time""
""fullscreenenter"",""1"",""2760""
","
","
","""event"",""trial"",""time""
""fullscreenenter"",""1"",""2760""
","
","","","707.1999999880791","","","22","7688","3889","r","elianto","#3366ff99"," "," ","1","0","[1559.699999988079]","1","2","","","7688","67","1","1","win","go","1"
"pit-trial","189","1892432","0.0-72.0","battery-v0.2","","""event"",""trial"",""time""
""fullscreenenter"",""1"",""2760""
","
","
","""event"",""trial"",""time""
""fullscreenenter"",""1"",""2760""
","
","","","1151.300000011921","","","22","7688","3889","h","elianto","#f73b6a7A"," "," ","1","0","[2002.4000000059605]","1","2","","","7688","68","3","3","lose","go","0"
"pit-trial","190","1896343","0.0-73.0","battery-v0.2","","""event"",""trial"",""time""
""fullscreenenter"",""1"",""2760""
","
","
","""event"",""trial"",""time""
""fullscreenenter"",""1"",""2760""
","
","","","1054.1000000238419","","","22","7688","3889","c","elianto","#3366ff99"," "," ","1","+10","[1904.5999999940395]","1","2","","","7688","69","5","1","win","go","0"
"pit-trial","191","1900704","0.0-74.0","battery-v0.2","","""event"",""trial"",""time""
""fullscreenenter"",""1"",""2760""
","
","
","""event"",""trial"",""time""
""fullscreenenter"",""1"",""2760""
","
","","","1504.4000000059605","","","22","7688","3889","z","elianto","#3366ff99","-1"," ","0","0","[2355.2999999821186]","1","2","","","7688","70","4","2","win","no-go","0"
"pit-trial","192","1904194","0.0-75.0","battery-v0.2","","""event"",""trial"",""time""
""fullscreenenter"",""1"",""2760""
","
","
","""event"",""trial"",""time""
""fullscreenenter"",""1"",""2760""
","
","","","630.6999999880791","","","22","7688","3889","r","elianto","#3366ff99"," "," ","1","+10","[1483.9000000059605]","1","2","","","7688","71","1","1","win","go","0"
"pit-trial","193","1908549","0.0-76.0","battery-v0.2","","""event"",""trial"",""time""
""fullscreenenter"",""1"",""2760""
","
","
","""event"",""trial"",""time""
""fullscreenenter"",""1"",""2760""
","
","","","1499.9000000059605","","","22","7688","3889","h","elianto","#f73b6a7A"," "," ","1","0","[2352.300000011921]","1","2","","","7688","72","3","3","lose","go","0"
"pit-trial","194","1912017","0.0-77.0","battery-v0.2","","""event"",""trial"",""time""
""fullscreenenter"",""1"",""2760""
","
","
","""event"",""trial"",""time""
""fullscreenenter"",""1"",""2760""
","
","","","610.0999999940395","","","22","7688","3889","h","elianto","#f73b6a7A"," "," ","1","0","[1464.0999999940395]","1","2","","","7688","73","3","3","lose","go","0"
"pit-trial","195","1915623","0.0-78.0","battery-v0.2","","""event"",""trial"",""time""
""fullscreenenter"",""1"",""2760""
","
","
","""event"",""trial"",""time""
""fullscreenenter"",""1"",""2760""
","
","","","749.1000000238419","","","22","7688","3889","r","elianto","#3366ff99"," "," ","1","+10","[1600.4000000059605]","1","2","","","7688","74","1","1","win","go","0"
"pit-trial","196","1920478","0.0-79.0","battery-v0.2","","""event"",""trial"",""time""
""fullscreenenter"",""1"",""2760""
","
","
","""event"",""trial"",""time""
""fullscreenenter"",""1"",""2760""
","
","","","-1","","","22","7688","3889","z","elianto","#3366ff99","-1","-1","1","+10","[]","0","2","","","7688","75","4","2","win","no-go","0"
"pit-trial","197","1924256","0.0-80.0","battery-v0.2","","""event"",""trial"",""time""
""fullscreenenter"",""1"",""2760""
","
","
","""event"",""trial"",""time""
""fullscreenenter"",""1"",""2760""
","
","","","921.2000000178814","","","22","7688","3889","c","elianto","#3366ff99"," "," ","1","+10","[1772.5999999940395]","1","2","","","7688","76","5","1","win","go","0"
"pit-trial","198","1929114","0.0-81.0","battery-v0.2","","""event"",""trial"",""time""
""fullscreenenter"",""1"",""2760""
","
","
","""event"",""trial"",""time""
""fullscreenenter"",""1"",""2760""
","
","","","-1","","","22","7688","3889","z","elianto","#3366ff99","-1","-1","1","+10","[]","0","2","","","7688","77","4","2","win","no-go","0"
"pit-trial","199","1932568","0.0-82.0","battery-v0.2","","""event"",""trial"",""time""
""fullscreenenter"",""1"",""2760""
","
","
","""event"",""trial"",""time""
""fullscreenenter"",""1"",""2760""
","
","","","592.2999999821186","","","22","7688","3889","c","elianto","#3366ff99"," "," ","1","+10","[1448.7999999821186]","1","2","","","7688","78","5","1","win","go","0"
"pit-trial","200","1936387","0.0-83.0","battery-v0.2","","""event"",""trial"",""time""
""fullscreenenter"",""1"",""2760""
","
","
","""event"",""trial"",""time""
""fullscreenenter"",""1"",""2760""
","
","","","961.1999999880791","","","22","7688","3889","h","elianto","#f73b6a7A"," "," ","1","-10","[1812.0999999940395]","1","2","","","7688","79","3","3","lose","go","1"
"pit-trial","201","1940568","0.0-84.0","battery-v0.2","","""event"",""trial"",""time""
""fullscreenenter"",""1"",""2760""
","
","
","""event"",""trial"",""time""
""fullscreenenter"",""1"",""2760""
","
","","","1323.5","","","22","7688","3889","b","elianto","#f73b6a7A","-1"," ","0","0","[2177.0999999940395]","1","2","","","7688","80","6","4","lose","no-go","1"
"pit-trial","202","1945423","0.0-85.0","battery-v0.2","","""event"",""trial"",""time""
""fullscreenenter"",""1"",""2760""
","
","
","""event"",""trial"",""time""
""fullscreenenter"",""1"",""2760""
","
","","","-1","","","22","7688","3889","c","elianto","#3366ff99"," ","-1","0","0","[]","0","2","","","7688","81","5","1","win","go","0"
"pit-trial","203","1950276","0.0-86.0","battery-v0.2","","""event"",""trial"",""time""
""fullscreenenter"",""1"",""2760""
","
","
","""event"",""trial"",""time""
""fullscreenenter"",""1"",""2760""
","
","","","-1","","","22","7688","3889","z","elianto","#3366ff99","-1","-1","1","+10","[]","0","2","","","7688","82","4","2","win","no-go","0"
"pit-trial","204","1955129","0.0-87.0","battery-v0.2","","""event"",""trial"",""time""
""fullscreenenter"",""1"",""2760""
","
","
","""event"",""trial"",""time""
""fullscreenenter"",""1"",""2760""
","
","","","-1","","","22","7688","3889","b","elianto","#f73b6a7A","-1","-1","1","-10","[]","0","2","","","7688","83","6","4","lose","no-go","1"
"pit-trial","205","1958979","0.0-88.0","battery-v0.2","","""event"",""trial"",""time""
""fullscreenenter"",""1"",""2760""
","
","
","""event"",""trial"",""time""
""fullscreenenter"",""1"",""2760""
","
","","","994.3999999761581","","","22","7688","3889","t","elianto","#f73b6a7A"," "," ","1","0","[1844.4000000059605]","1","2","","","7688","84","7","3","lose","go","0"
"pit-trial","206","1962679","0.0-89.0","battery-v0.2","","""event"",""trial"",""time""
""fullscreenenter"",""1"",""2760""
","
","
","""event"",""trial"",""time""
""fullscreenenter"",""1"",""2760""
","
","","","845.0999999940395","","","22","7688","3889","b","elianto","#f73b6a7A","-1"," ","0","0","[1696.800000011921]","1","2","","","7688","85","6","4","lose","no-go","1"
"pit-trial","207","1966238","0.0-90.0","battery-v0.2","","""event"",""trial"",""time""
""fullscreenenter"",""1"",""2760""
","
","
","""event"",""trial"",""time""
""fullscreenenter"",""1"",""2760""
","
","","","705.5","","","22","7688","3889","t","elianto","#f73b6a7A"," "," ","1","0","[1556.5999999940395]","1","2","","","7688","86","7","3","lose","go","0"
"pit-trial","208","1970390","0.0-91.0","battery-v0.2","","""event"",""trial"",""time""
""fullscreenenter"",""1"",""2760""
","
","
","""event"",""trial"",""time""
""fullscreenenter"",""1"",""2760""
","
","","","1295.5999999940395","","","22","7688","3889","z","elianto","#3366ff99","-1"," ","0","0","[2148.2000000178814]","1","2","","","7688","87","4","2","win","no-go","0"
"pit-trial","209","1974094","0.0-92.0","battery-v0.2","","""event"",""trial"",""time""
""fullscreenenter"",""1"",""2760""
","
","
","""event"",""trial"",""time""
""fullscreenenter"",""1"",""2760""
","
","","","850.0999999940395","","","22","7688","3889","c","elianto","#3366ff99"," "," ","1","+10","[1701.5999999940395]","1","2","","","7688","88","5","1","win","go","0"
"pit-trial","210","1978948","0.0-93.0","battery-v0.2","","""event"",""trial"",""time""
""fullscreenenter"",""1"",""2760""
","
","
","""event"",""trial"",""time""
""fullscreenenter"",""1"",""2760""
","
","","","-1","","","22","7688","3889","z","elianto","#3366ff99","-1","-1","1","0","[]","0","2","","","7688","89","4","2","win","no-go","1"
"pit-trial","211","1982571","0.0-94.0","battery-v0.2","","""event"",""trial"",""time""
""fullscreenenter"",""1"",""2760""
","
","
","""event"",""trial"",""time""
""fullscreenenter"",""1"",""2760""
","
","","","760.5999999940395","","","22","7688","3889","c","elianto","#3366ff99"," "," ","1","+10","[1612.5999999940395]","1","2","","","7688","90","5","1","win","go","0"
"pit-trial","212","1986204","0.0-95.0","battery-v0.2","","""event"",""trial"",""time""
""fullscreenenter"",""1"",""2760""
","
","
","""event"",""trial"",""time""
""fullscreenenter"",""1"",""2760""
","
","","","774","","","22","7688","3889","t","elianto","#f73b6a7A"," "," ","1","0","[1625.7000000178814]","1","2","","","7688","91","7","3","lose","go","0"
"pit-trial","213","1989557","0.0-96.0","battery-v0.2","","""event"",""trial"",""time""
""fullscreenenter"",""1"",""2760""
","
","
","""event"",""trial"",""time""
""fullscreenenter"",""1"",""2760""
","
","","","496.39999997615814","","","22","7688","3889","b","elianto","#f73b6a7A","-1"," ","0","-10","[1349]","1","2","","","7688","92","6","4","lose","no-go","0"
"pit-trial","214","1992986","0.0-97.0","battery-v0.2","","""event"",""trial"",""time""
""fullscreenenter"",""1"",""2760""
","
","
","""event"",""trial"",""time""
""fullscreenenter"",""1"",""2760""
","
","","","570.2000000178814","","","22","7688","3889","c","elianto","#3366ff99"," "," ","1","+10","[1423.5999999940395]","1","2","","","7688","93","5","1","win","go","0"
"pit-trial","215","1996618","0.0-98.0","battery-v0.2","","""event"",""trial"",""time""
""fullscreenenter"",""1"",""2760""
","
","
","""event"",""trial"",""time""
""fullscreenenter"",""1"",""2760""
","
","","","774.2000000178814","","","22","7688","3889","f","elianto","#3366ff99","-1"," ","0","+10","[1627.699999988079]","1","2","","","7688","94","8","2","win","no-go","1"
"pit-trial","216","2000526","0.0-99.0","battery-v0.2","","""event"",""trial"",""time""
""fullscreenenter"",""1"",""2760""
","
","
","""event"",""trial"",""time""
""fullscreenenter"",""1"",""2760""
","
","","","1048.2999999821186","","","22","7688","3889","b","elianto","#f73b6a7A","-1"," ","0","-10","[1901.2999999821186]","1","2","","","7688","95","6","4","lose","no-go","0"
"pit-trial","217","2004276","0.0-100.0","battery-v0.2","","""event"",""trial"",""time""
""fullscreenenter"",""1"",""2760""
","
","
","""event"",""trial"",""time""
""fullscreenenter"",""1"",""2760""
","
","","","895.7000000178814","","","22","7688","3889","t","elianto","#f73b6a7A"," "," ","1","-10","[1746.800000011921]","1","2","","","7688","96","7","3","lose","go","1"
"pit-trial","218","2007697","0.0-101.0","battery-v0.2","","""event"",""trial"",""time""
""fullscreenenter"",""1"",""2760""
","
","
","""event"",""trial"",""time""
""fullscreenenter"",""1"",""2760""
","
","","","565.3999999761581","","","22","7688","3889","f","elianto","#3366ff99","-1"," ","0","0","[1416.0999999940395]","1","2","","","7688","97","8","2","win","no-go","0"
"pit-trial","219","2012552","0.0-102.0","battery-v0.2","","""event"",""trial"",""time""
""fullscreenenter"",""1"",""2760""
","
","
","""event"",""trial"",""time""
""fullscreenenter"",""1"",""2760""
","
","","","-1","","","22","7688","3889","t","elianto","#f73b6a7A"," ","-1","0","-10","[]","0","2","","","7688","98","7","3","lose","go","0"
"pit-trial","220","2016166","0.0-103.0","battery-v0.2","","""event"",""trial"",""time""
""fullscreenenter"",""1"",""2760""
","
","
","""event"",""trial"",""time""
""fullscreenenter"",""1"",""2760""
","
","","","756.7999999821186","","","22","7688","3889","c","elianto","#3366ff99"," "," ","1","+10","[1610.0999999940395]","1","2","","","7688","99","5","1","win","go","0"
"pit-trial","221","2019614","0.0-104.0","battery-v0.2","","""event"",""trial"",""time""
""fullscreenenter"",""1"",""2760""
","
","
","""event"",""trial"",""time""
""fullscreenenter"",""1"",""2760""
","
","","","591.1999999880791","","","22","7688","3889","b","elianto","#f73b6a7A","-1"," ","0","-10","[1444.300000011921]","1","2","","","7688","100","6","4","lose","no-go","0"
"pit-trial","222","2023312","0.0-105.0","battery-v0.2","","""event"",""trial"",""time""
""fullscreenenter"",""1"",""2760""
","
","
","""event"",""trial"",""time""
""fullscreenenter"",""1"",""2760""
","
","","","840.4000000059605","","","22","7688","3889","c","elianto","#3366ff99"," "," ","1","0","[1692.4000000059605]","1","2","","","7688","101","5","1","win","go","1"
"pit-trial","223","2027977","0.0-106.0","battery-v0.2","","""event"",""trial"",""time""
""fullscreenenter"",""1"",""2760""
","
","
","""event"",""trial"",""time""
""fullscreenenter"",""1"",""2760""
","
","","","1811.5999999940395","","","22","7688","3889","b","elianto","#f73b6a7A","-1"," ","0","-10","[2661.5999999940395]","1","2","","","7688","102","6","4","lose","no-go","0"
"pit-trial","224","2031552","0.0-107.0","battery-v0.2","","""event"",""trial"",""time""
""fullscreenenter"",""1"",""2760""
","
","
","""event"",""trial"",""time""
""fullscreenenter"",""1"",""2760""
","
","","","718.1999999880791","","","22","7688","3889","n","elianto","#3366ff99","-1"," ","0","0","[1569.0999999940395]","1","2","","","7688","103","9","2","win","no-go","0"
"pit-trial","225","2035449","0.0-108.0","battery-v0.2","","""event"",""trial"",""time""
""fullscreenenter"",""1"",""2760""
","
","
","""event"",""trial"",""time""
""fullscreenenter"",""1"",""2760""
","
","","","1031.5999999940395","","","22","7688","3889","f","elianto","#3366ff99","-1"," ","0","0","[1885.5]","1","2","","","7688","104","8","2","win","no-go","0"
"pit-trial","226","2040312","0.0-109.0","battery-v0.2","","""event"",""trial"",""time""
""fullscreenenter"",""1"",""2760""
","
","
","""event"",""trial"",""time""
""fullscreenenter"",""1"",""2760""
","
","","","-1","","","22","7688","3889","b","elianto","#f73b6a7A","-1","-1","1","0","[]","0","2","","","7688","105","6","4","lose","no-go","0"
"pit-trial","227","2044172","0.0-110.0","battery-v0.2","","""event"",""trial"",""time""
""fullscreenenter"",""1"",""2760""
","
","
","""event"",""trial"",""time""
""fullscreenenter"",""1"",""2760""
","
","","","1002.5","","","22","7688","3889","c","elianto","#3366ff99"," "," ","1","+10","[1855.9000000059605]","1","2","","","7688","106","5","1","win","go","0"
"pit-trial","228","2048358","0.0-111.0","battery-v0.2","","""event"",""trial"",""time""
""fullscreenenter"",""1"",""2760""
","
","
","""event"",""trial"",""time""
""fullscreenenter"",""1"",""2760""
","
","","","1330.0999999940395","","","22","7688","3889","n","elianto","#3366ff99","-1"," ","0","0","[2183.0999999940395]","1","2","","","7688","107","9","2","win","no-go","0"
"pit-trial","229","2053217","0.0-112.0","battery-v0.2","","""event"",""trial"",""time""
""fullscreenenter"",""1"",""2760""
","
","
","""event"",""trial"",""time""
""fullscreenenter"",""1"",""2760""
","
","","","-1","","","22","7688","3889","f","elianto","#3366ff99","-1","-1","1","0","[2901.5]","1","2","","","7688","108","8","2","win","no-go","1"
"pit-trial","230","2056717","0.0-113.0","battery-v0.2","","""event"",""trial"",""time""
""fullscreenenter"",""1"",""2760""
","
","
","""event"",""trial"",""time""
""fullscreenenter"",""1"",""2760""
","
","","","642.9000000059605","","","22","7688","3889","c","elianto","#3366ff99"," "," ","1","0","[1496.300000011921]","1","2","","","7688","109","5","1","win","go","1"
"pit-trial","231","2061575","0.0-114.0","battery-v0.2","","""event"",""trial"",""time""
""fullscreenenter"",""1"",""2760""
","
","
","""event"",""trial"",""time""
""fullscreenenter"",""1"",""2760""
","
","","","-1","","","22","7688","3889","n","elianto","#3366ff99","-1","-1","1","+10","[]","0","2","","","7688","110","9","2","win","no-go","0"
"pit-trial","232","2065483","0.0-115.0","battery-v0.2","","""event"",""trial"",""time""
""fullscreenenter"",""1"",""2760""
","
","
","""event"",""trial"",""time""
""fullscreenenter"",""1"",""2760""
","
","","","1051.5","","","22","7688","3889","f","elianto","#3366ff99","-1"," ","0","0","[1902.0999999940395]","1","2","","","7688","111","8","2","win","no-go","0"
"pit-trial","233","2070344","0.0-116.0","battery-v0.2","","""event"",""trial"",""time""
""fullscreenenter"",""1"",""2760""
","
","
","""event"",""trial"",""time""
""fullscreenenter"",""1"",""2760""
","
","","","-1","","","22","7688","3889","b","elianto","#f73b6a7A","-1","-1","1","-10","[]","0","2","","","7688","112","6","4","lose","no-go","1"
"pit-trial","234","2074130","0.0-117.0","battery-v0.2","","""event"",""trial"",""time""
""fullscreenenter"",""1"",""2760""
","
","
","""event"",""trial"",""time""
""fullscreenenter"",""1"",""2760""
","
","","","930.9000000059605","","","22","7688","3889","f","elianto","#3366ff99","-1"," ","0","0","[1783.800000011921]","1","2","","","7688","113","8","2","win","no-go","0"
"pit-trial","235","2077831","0.0-118.0","battery-v0.2","","""event"",""trial"",""time""
""fullscreenenter"",""1"",""2760""
","
","
","""event"",""trial"",""time""
""fullscreenenter"",""1"",""2760""
","
","","","838.6999999880791","","","22","7688","3889","c","elianto","#3366ff99"," "," ","1","+10","[1695]","1","2","","","7688","114","5","1","win","go","0"
"pit-trial","236","2081598","0.0-119.0","battery-v0.2","","""event"",""trial"",""time""
""fullscreenenter"",""1"",""2760""
","
","
","""event"",""trial"",""time""
""fullscreenenter"",""1"",""2760""
","
","","","910.3999999761581","","","22","7688","3889","t","elianto","#f73b6a7A"," "," ","1","0","[1760.8999999761581]","1","2","","","7688","115","7","3","lose","go","0"
"pit-trial","237","2085421","0.0-120.0","battery-v0.2","","""event"",""trial"",""time""
""fullscreenenter"",""1"",""2760""
","
","
","""event"",""trial"",""time""
""fullscreenenter"",""1"",""2760""
","
","","","953.7000000178814","","","22","7688","3889","n","elianto","#3366ff99","-1"," ","0","0","[1805.5]","1","2","","","7688","116","9","2","win","no-go","0"
"pit-trial","238","2089156","0.0-121.0","battery-v0.2","","""event"",""trial"",""time""
""fullscreenenter"",""1"",""2760""
","
","
","""event"",""trial"",""time""
""fullscreenenter"",""1"",""2760""
","
","","","880.7000000178814","","","22","7688","3889","c","elianto","#3366ff99"," "," ","1","+10","[1732.0999999940395]","1","2","","","7688","117","5","1","win","go","0"
"pit-trial","239","2094010","0.0-122.0","battery-v0.2","","""event"",""trial"",""time""
""fullscreenenter"",""1"",""2760""
","
","
","""event"",""trial"",""time""
""fullscreenenter"",""1"",""2760""
","
","","","-1","","","22","7688","3889","f","elianto","#3366ff99","-1","-1","1","+10","[]","0","2","","","7688","118","8","2","win","no-go","0"
"pit-trial","240","2098867","0.0-123.0","battery-v0.2","","""event"",""trial"",""time""
""fullscreenenter"",""1"",""2760""
","
","
","""event"",""trial"",""time""
""fullscreenenter"",""1"",""2760""
","
","","","-1","","","22","7688","3889","n","elianto","#3366ff99","-1","-1","1","+10","[]","0","2","","","7688","119","9","2","win","no-go","0"
"pit-trial","241","2103724","0.0-124.0","battery-v0.2","","""event"",""trial"",""time""
""fullscreenenter"",""1"",""2760""
","
","
","""event"",""trial"",""time""
""fullscreenenter"",""1"",""2760""
","
","","","-1","","","22","7688","3889","b","elianto","#f73b6a7A","-1","-1","1","0","[]","0","2","","","7688","120","6","4","lose","no-go","0"
"pit-trial","242","2108578","0.0-125.0","battery-v0.2","","""event"",""trial"",""time""
""fullscreenenter"",""1"",""2760""
","
","
","""event"",""trial"",""time""
""fullscreenenter"",""1"",""2760""
","
","","","-1","","","22","7688","3889","f","elianto","#3366ff99","-1","-1","1","+10","[]","0","2","","","7688","121","8","2","win","no-go","0"
"pit-trial","243","2112094","0.0-126.0","battery-v0.2","","""event"",""trial"",""time""
""fullscreenenter"",""1"",""2760""
","
","
","""event"",""trial"",""time""
""fullscreenenter"",""1"",""2760""
","
","","","657","","","22","7688","3889","c","elianto","#3366ff99"," "," ","1","+10","[1508.699999988079]","1","2","","","7688","122","5","1","win","go","0"
"pit-trial","244","2116956","0.0-127.0","battery-v0.2","","""event"",""trial"",""time""
""fullscreenenter"",""1"",""2760""
","
","
","""event"",""trial"",""time""
""fullscreenenter"",""1"",""2760""
","
","","","-1","","","22","7688","3889","t","elianto","#f73b6a7A"," ","-1","0","-10","[]","0","2","","","7688","123","7","3","lose","go","0"
"pit-trial","245","2121814","0.0-128.0","battery-v0.2","","""event"",""trial"",""time""
""fullscreenenter"",""1"",""2760""
","
","
","""event"",""trial"",""time""
""fullscreenenter"",""1"",""2760""
","
","","","-1","","","22","7688","3889","n","elianto","#3366ff99","-1","-1","1","+10","[]","0","2","","","7688","124","9","2","win","no-go","0"
"pit-trial","246","2126679","0.0-129.0","battery-v0.2","","""event"",""trial"",""time""
""fullscreenenter"",""1"",""2760""
","
","
","""event"",""trial"",""time""
""fullscreenenter"",""1"",""2760""
","
","","","-1","","","22","7688","3889","f","elianto","#3366ff99","-1","-1","1","0","[]","0","2","","","7688","125","8","2","win","no-go","1"
"pit-trial","247","2130774","0.0-130.0","battery-v0.2","","""event"",""trial"",""time""
""fullscreenenter"",""1"",""2760""
","
","
","""event"",""trial"",""time""
""fullscreenenter"",""1"",""2760""
","
","","","1227.5","","","22","7688","3889","t","elianto","#f73b6a7A"," "," ","1","0","[2081.4000000059605]","1","2","","","7688","126","7","3","lose","go","0"
"pit-trial","248","2135643","0.0-131.0","battery-v0.2","","""event"",""trial"",""time""
""fullscreenenter"",""1"",""2760""
","
","
","""event"",""trial"",""time""
""fullscreenenter"",""1"",""2760""
","
","","","-1","","","22","7688","3889","b","elianto","#f73b6a7A","-1","-1","1","-10","[]","0","2","","","7688","127","6","4","lose","no-go","1"
"pit-trial","249","2140502","0.0-132.0","battery-v0.2","","""event"",""trial"",""time""
""fullscreenenter"",""1"",""2760""
","
","
","""event"",""trial"",""time""
""fullscreenenter"",""1"",""2760""
","
","","","-1","","","22","7688","3889","n","elianto","#3366ff99","-1","-1","1","+10","[]","0","2","","","7688","128","9","2","win","no-go","0"
"pit-trial","250","2145367","0.0-133.0","battery-v0.2","","""event"",""trial"",""time""
""fullscreenenter"",""1"",""2760""
","
","
","""event"",""trial"",""time""
""fullscreenenter"",""1"",""2760""
","
","","","-1","","","22","7688","3889","n","elianto","#3366ff99","-1","-1","1","+10","[]","0","2","","","7688","129","9","2","win","no-go","0"
"pit-trial","251","2150224","0.0-134.0","battery-v0.2","","""event"",""trial"",""time""
""fullscreenenter"",""1"",""2760""
","
","
","""event"",""trial"",""time""
""fullscreenenter"",""1"",""2760""
","
","","","-1","","","22","7688","3889","b","elianto","#f73b6a7A","-1","-1","1","0","[]","0","2","","","7688","130","6","4","lose","no-go","0"
"pit-trial","252","2155078","0.0-135.0","battery-v0.2","","""event"",""trial"",""time""
""fullscreenenter"",""1"",""2760""
","
","
","""event"",""trial"",""time""
""fullscreenenter"",""1"",""2760""
","
","","","-1","","","22","7688","3889","f","elianto","#3366ff99","-1","-1","1","+10","[]","0","2","","","7688","131","8","2","win","no-go","0"
"pit-trial","253","2158975","0.0-136.0","battery-v0.2","","""event"",""trial"",""time""
""fullscreenenter"",""1"",""2760""
","
","
","""event"",""trial"",""time""
""fullscreenenter"",""1"",""2760""
","
","","","1028.9000000059605","","","22","7688","3889","t","elianto","#f73b6a7A"," "," ","1","-10","[1880]","1","2","","","7688","132","7","3","lose","go","1"
"pit-trial","254","2163828","0.0-137.0","battery-v0.2","","""event"",""trial"",""time""
""fullscreenenter"",""1"",""2760""
","
","
","""event"",""trial"",""time""
""fullscreenenter"",""1"",""2760""
","
","","","-1","","","22","7688","3889","b","elianto","#f73b6a7A","-1","-1","1","0","[]","0","2","","","7688","133","6","4","lose","no-go","0"
"pit-trial","255","2168697","0.0-138.0","battery-v0.2","","""event"",""trial"",""time""
""fullscreenenter"",""1"",""2760""
","
","
","""event"",""trial"",""time""
""fullscreenenter"",""1"",""2760""
","
","","","-1","","","22","7688","3889","t","elianto","#f73b6a7A"," ","-1","0","-10","[]","0","2","","","7688","134","7","3","lose","go","0"
"pit-trial","256","2173554","0.0-139.0","battery-v0.2","","""event"",""trial"",""time""
""fullscreenenter"",""1"",""2760""
","
","
","""event"",""trial"",""time""
""fullscreenenter"",""1"",""2760""
","
","","","-1","","","22","7688","3889","f","elianto","#3366ff99","-1","-1","1","+10","[]","0","2","","","7688","135","8","2","win","no-go","0"
"pit-trial","257","2178407","0.0-140.0","battery-v0.2","","""event"",""trial"",""time""
""fullscreenenter"",""1"",""2760""
","
","
","""event"",""trial"",""time""
""fullscreenenter"",""1"",""2760""
","
","","","-1","","","22","7688","3889","n","elianto","#3366ff99","-1","-1","1","+10","[]","0","2","","","7688","136","9","2","win","no-go","0"
"pit-trial","258","2183268","0.0-141.0","battery-v0.2","","""event"",""trial"",""time""
""fullscreenenter"",""1"",""2760""
","
","
","""event"",""trial"",""time""
""fullscreenenter"",""1"",""2760""
","
","","","-1","","","22","7688","3889","n","elianto","#3366ff99","-1","-1","1","0","[]","0","2","","","7688","137","9","2","win","no-go","1"
"pit-trial","259","2188126","0.0-142.0","battery-v0.2","","""event"",""trial"",""time""
""fullscreenenter"",""1"",""2760""
","
","
","""event"",""trial"",""time""
""fullscreenenter"",""1"",""2760""
","
","","","-1","","","22","7688","3889","f","elianto","#3366ff99","-1","-1","1","+10","[]","0","2","","","7688","138","8","2","win","no-go","0"
"pit-trial","260","2192984","0.0-143.0","battery-v0.2","","""event"",""trial"",""time""
""fullscreenenter"",""1"",""2760""
","
","
","""event"",""trial"",""time""
""fullscreenenter"",""1"",""2760""
","
","","","-1","","","22","7688","3889","b","elianto","#f73b6a7A","-1","-1","1","0","[]","0","2","","","7688","139","6","4","lose","no-go","0"
"pit-trial","261","2196385","0.0-144.0","battery-v0.2","","""event"",""trial"",""time""
""fullscreenenter"",""1"",""2760""
","
","
","""event"",""trial"",""time""
""fullscreenenter"",""1"",""2760""
","
","","","543.1000000238419","","","22","7688","3889","t","elianto","#f73b6a7A"," "," ","1","0","[1395.4000000059605]","1","2","","","7688","140","7","3","lose","go","0"
"pit-instructions","262","2777957","0.0-145.0","battery-v0.2","","""event"",""trial"",""time""
""fullscreenenter"",""1"",""2760""
","
","
","""event"",""trial"",""time""
""fullscreenenter"",""1"",""2760""
","
","","[{""page_index"":0,""viewing_time"":167709.40000000596},{""page_index"":1,""viewing_time"":413860.39999997616}]","581570.400000006","","","","","","","","","","","","","","","","","","","","","","","",""
"pit-trial","263","2782821","0.0-146.0","battery-v0.2","","""event"",""trial"",""time""
""fullscreenenter"",""1"",""2760""
","
","
","""event"",""trial"",""time""
""fullscreenenter"",""1"",""2760""
","
","","","-1","","","22","7688","3889","u","elianto","#f73b6a7A"," ","-1","0","0","[]","0","3","","","7688","141","0","3","lose","go","1"
"pit-trial","264","2787675","0.0-147.0","battery-v0.2","","""event"",""trial"",""time""
""fullscreenenter"",""1"",""2760""
","
","
","""event"",""trial"",""time""
""fullscreenenter"",""1"",""2760""
","
","","","-1","","","22","7688","3889","l","elianto","#3366ff99","-1","-1","1","0","[]","0","3","","","7688","142","1","2","win","no-go","1"
"pit-trial","265","2791681","0.0-148.0","battery-v0.2","","""event"",""trial"",""time""
""fullscreenenter"",""1"",""2760""
","
","
","""event"",""trial"",""time""
""fullscreenenter"",""1"",""2760""
","
","","","1150.5","","","22","7688","3889","a","elianto","#f73b6a7A"," "," ","1","0","[2000.7999999821186]","1","3","","","7688","143","2","3","lose","go","0"
"pit-trial","266","2796541","0.0-149.0","battery-v0.2","","""event"",""trial"",""time""
""fullscreenenter"",""1"",""2760""
","
","
","""event"",""trial"",""time""
""fullscreenenter"",""1"",""2760""
","
","","","-1","","","22","7688","3889","g","elianto","#f73b6a7A","-1","-1","1","-10","[]","0","3","","","7688","144","3","4","lose","no-go","1"
"pit-trial","267","2800152","0.0-150.0","battery-v0.2","","""event"",""trial"",""time""
""fullscreenenter"",""1"",""2760""
","
","
","""event"",""trial"",""time""
""fullscreenenter"",""1"",""2760""
","
