"trial_type","trial_index","time_elapsed","internal_node_id","task_version","subject_id","interactions","blur_events","focus_events","fullscreenenter_events","fullscreenexit_events","success","view_history","rt","responses","num_errors","age","subject","participantId","rune","rune_set","hex","correct","choice","accuracy","outcome","keys","total_keys","block","practice","value","sub","trial","stimulus","robot","valence","action","sham"
"pavlovia","0","10","0.0-0.0","battery-v0.2","","""event"",""trial"",""time""
""fullscreenenter"",""1"",""2744""
","
","
","""event"",""trial"",""time""
""fullscreenenter"",""1"",""2744""
","
","","","","","","","","","","","","","","","","","","","","","","","","","","",""
"fullscreen","1","3704","0.0-1.0","battery-v0.2","","""event"",""trial"",""time""
""fullscreenenter"",""1"",""2744""
","
","
","""event"",""trial"",""time""
""fullscreenenter"",""1"",""2744""
","
","true","","","","","","","","","","","","","","","","","","","","","","","","","",""
"pit-instructions","2","10161","0.0-2.0-0.0","battery-v0.2","","""event"",""trial"",""time""
""fullscreenenter"",""1"",""2744""
","
","
","""event"",""trial"",""time""
""fullscreenenter"",""1"",""2744""
","
","","[{""page_index"":0,""viewing_time"":6450.800000011921}]","6451.100000008941","","","","","","","","","","","","","","","","","","","","","","","",""
"pit-comprehension","3","13490","0.0-2.0-1.0-0.0","battery-v0.2","","""event"",""trial"",""time""
""fullscreenenter"",""1"",""2744""
","
","
","""event"",""trial"",""time""
""fullscreenenter"",""1"",""2744""
","
","","","3326.2000000029802","[""shark""]","0","15","18244","6938","","","","","","","","","","","","","","","","","","",""
"pit-instructions","4","15185","0.0-2.0-1.0-1.0","battery-v0.2","","""event"",""trial"",""time""
""fullscreenenter"",""1"",""2744""
","
","
","""event"",""trial"",""time""
""fullscreenenter"",""1"",""2744""
","
","","[{""page_index"":0,""viewing_time"":1686.0999999940395}]","1686.4000000059605","","","","","","","","","","","","","","","","","","","","","","","",""
"pit-comprehension","5","18965","0.0-2.0-2.0-0.0","battery-v0.2","","""event"",""trial"",""time""
""fullscreenenter"",""1"",""2744""
","
","
","""event"",""trial"",""time""
""fullscreenenter"",""1"",""2744""
","
","","","3778.3999999910593","[""tiger""]","0","15","18244","6938","","","","","","","","","","","","","","","","","","",""
"pit-instructions","6","20330","0.0-2.0-2.0-1.0","battery-v0.2","","""event"",""trial"",""time""
""fullscreenenter"",""1"",""2744""
","
","
","""event"",""trial"",""time""
""fullscreenenter"",""1"",""2744""
","
","","[{""page_index"":0,""viewing_time"":1362.199999988079}]","1362.3999999910593","","","","","","","","","","","","","","","","","","","","","","","",""
"pit-instructions","7","133336","0.0-2.0-3.0","battery-v0.2","","""event"",""trial"",""time""
""fullscreenenter"",""1"",""2744""
","
","
","""event"",""trial"",""time""
""fullscreenenter"",""1"",""2744""
","
","","[{""page_index"":0,""viewing_time"":10033.79999999702},{""page_index"":1,""viewing_time"":7339.9000000059605},{""page_index"":2,""viewing_time"":6939.70000000298},{""page_index"":3,""viewing_time"":6691.899999991059},{""page_index"":4,""viewing_time"":7431.29999999702},{""page_index"":5,""viewing_time"":8735.90000000596},{""page_index"":6,""viewing_time"":8456.40000000596},{""page_index"":7,""viewing_time"":6984.0999999940395},{""page_index"":8,""viewing_time"":6424.4000000059605},{""page_index"":9,""viewing_time"":10657.5},{""page_index"":10,""viewing_time"":7334.5999999940395},{""page_index"":11,""viewing_time"":8427.79999999702},{""page_index"":12,""viewing_time"":9844.79999999702},{""page_index"":13,""viewing_time"":7701.9000000059605}]","113004.29999999702","","","","","","","","","","","","","","","","","","","","","","","",""
"pit-trial","8","136795","0.0-2.0-4.0-0.0","battery-v0.2","","""event"",""trial"",""time""
""fullscreenenter"",""1"",""2744""
","
","
","""event"",""trial"",""time""
""fullscreenenter"",""1"",""2744""
","
","","","596.0999999940395","","","15","18244","6938","&#9784;","elianto","#FFFFF080"," "," ","1","&#10004","[1448.7000000029802]","1","0","0","","","","","","","",""
"pit-trial","9","140295","0.0-2.0-4.1-0.1","battery-v0.2","","""event"",""trial"",""time""
""fullscreenenter"",""1"",""2744""
","
","
","""event"",""trial"",""time""
""fullscreenenter"",""1"",""2744""
","
","","","633.2999999970198","","","15","18244","6938","&#9784;","elianto","#FFFFF080"," "," ","1","&#10004","[1490.2000000029802]","1","0","0","","","","","","","",""
"pit-trial","10","143761","0.0-2.0-4.2-0.2","battery-v0.2","","""event"",""trial"",""time""
""fullscreenenter"",""1"",""2744""
","
","
","""event"",""trial"",""time""
""fullscreenenter"",""1"",""2744""
","
","","","600.7000000029802","","","15","18244","6938","&#9784;","elianto","#FFFFF080"," "," ","1","&#10004","[1455]","1","0","0","","","","","","","",""
"pit-trial","11","147142","0.0-2.0-4.3-0.3","battery-v0.2","","""event"",""trial"",""time""
""fullscreenenter"",""1"",""2744""
","
","
","""event"",""trial"",""time""
""fullscreenenter"",""1"",""2744""
","
","","","512.7999999970198","","","15","18244","6938","&#9784;","elianto","#FFFFF080"," "," ","1","&#10004","[1363.7000000029802]","1","0","0","","","","","","","",""
"pit-trial","12","150582","0.0-2.0-4.4-0.4","battery-v0.2","","""event"",""trial"",""time""
""fullscreenenter"",""1"",""2744""
","
","
","""event"",""trial"",""time""
""fullscreenenter"",""1"",""2744""
","
","","","571.2999999970198","","","15","18244","6938","&#9784;","elianto","#FFFFF080"," "," ","1","&#10004","[1432.6000000089407]","1","0","0","","","","","","","",""
"pit-instructions","13","175090","0.0-2.0-5.0","battery-v0.2","","""event"",""trial"",""time""
""fullscreenenter"",""1"",""2744""
","
","
","""event"",""trial"",""time""
""fullscreenenter"",""1"",""2744""
","
","","[{""page_index"":0,""viewing_time"":6989.300000011921},{""page_index"":1,""viewing_time"":7038.29999999702},{""page_index"":2,""viewing_time"":5233.899999991059},{""page_index"":3,""viewing_time"":5240.100000008941}]","24501.90000000596","","","","","","","","","","","","","","","","","","","","","","","",""
"pit-trial","14","179956","0.0-2.0-6.0-0.0","battery-v0.2","","""event"",""trial"",""time""
""fullscreenenter"",""1"",""2744""
","
","
","""event"",""trial"",""time""
""fullscreenenter"",""1"",""2744""
","
","","","-1","","","15","18244","6938","&#9854;","elianto","#FFFFF080","-1","-1","1","&#10004","[]","0","0","1","","","","","","","",""
"pit-trial","15","184833","0.0-2.0-6.1-0.1","battery-v0.2","","""event"",""trial"",""time""
""fullscreenenter"",""1"",""2744""
","
","
","""event"",""trial"",""time""
""fullscreenenter"",""1"",""2744""
","
","","","-1","","","15","18244","6938","&#9854;","elianto","#FFFFF080","-1","-1","1","&#10004","[]","0","0","1","","","","","","","",""
"pit-trial","16","189704","0.0-2.0-6.2-0.2","battery-v0.2","","""event"",""trial"",""time""
""fullscreenenter"",""1"",""2744""
","
","
","""event"",""trial"",""time""
""fullscreenenter"",""1"",""2744""
","
","","","-1","","","15","18244","6938","&#9854;","elianto","#FFFFF080","-1","-1","1","&#10004","[]","0","0","1","","","","","","","",""
"pit-trial","17","194576","0.0-2.0-6.3-0.3","battery-v0.2","","""event"",""trial"",""time""
""fullscreenenter"",""1"",""2744""
","
","
","""event"",""trial"",""time""
""fullscreenenter"",""1"",""2744""
","
","","","-1","","","15","18244","6938","&#9854;","elianto","#FFFFF080","-1","-1","1","&#10004","[]","0","0","1","","","","","","","",""
"pit-trial","18","199444","0.0-2.0-6.4-0.4","battery-v0.2","","""event"",""trial"",""time""
""fullscreenenter"",""1"",""2744""
","
","
","""event"",""trial"",""time""
""fullscreenenter"",""1"",""2744""
","
","","","-1","","","15","18244","6938","&#9854;","elianto","#FFFFF080","-1","-1","1","&#10004","[]","0","0","1","","","","","","","",""
"pit-instructions","19","353873","0.0-2.0-7.0","battery-v0.2","","""event"",""trial"",""time""
""fullscreenenter"",""1"",""2744""
","
","
","""event"",""trial"",""time""
""fullscreenenter"",""1"",""2744""
","
","","[{""page_index"":0,""viewing_time"":14752.39999999106},{""page_index"":1,""viewing_time"":7907.4000000059605},{""page_index"":2,""viewing_time"":9287.20000000298},{""page_index"":3,""viewing_time"":6428.899999991059},{""page_index"":4,""viewing_time"":7000.100000008941},{""page_index"":5,""viewing_time"":7868},{""page_index"":6,""viewing_time"":6295},{""page_index"":7,""viewing_time"":8536.79999999702},{""page_index"":8,""viewing_time"":10868.09999999404},{""page_index"":9,""viewing_time"":7136.70000000298},{""page_index"":10,""viewing_time"":7240.29999999702},{""page_index"":11,""viewing_time"":6278.70000000298},{""page_index"":12,""viewing_time"":8479.79999999702},{""page_index"":13,""viewing_time"":10120.90000000596},{""page_index"":14,""viewing_time"":11479.09999999404},{""page_index"":15,""viewing_time"":6844.600000008941},{""page_index"":16,""viewing_time"":6691.699999988079},{""page_index"":17,""viewing_time"":11208.10000000894}]","154424.79999999702","","","","","","","","","","","","","","","","","","","","","","","",""
"pit-trial","20","357292","0.0-2.0-8.0-0.0","battery-v0.2","","""event"",""trial"",""time""
""fullscreenenter"",""1"",""2744""
","
","
","""event"",""trial"",""time""
""fullscreenenter"",""1"",""2744""
","
","","","552.7999999970198","","","15","18244","6938","&#9776;","elianto","#3366ff99"," "," ","1","+10","[1403.7999999970198]","1","0","1","","","","","","","",""
"pit-trial","21","360657","0.0-2.0-8.0-1.0","battery-v0.2","","""event"",""trial"",""time""
""fullscreenenter"",""1"",""2744""
","
","
","""event"",""trial"",""time""
""fullscreenenter"",""1"",""2744""
","
","","","512.5999999940395","","","15","18244","6938","&#9776;","elianto","#3366ff99"," "," ","1","+10","[1362.7999999970198]","1","0","1","","","","","","","",""
"pit-trial","22","364169","0.0-2.0-8.0-2.0","battery-v0.2","","""event"",""trial"",""time""
""fullscreenenter"",""1"",""2744""
","
","
","""event"",""trial"",""time""
""fullscreenenter"",""1"",""2744""
","
","","","650.2000000029802","","","15","18244","6938","&#9776;","elianto","#3366ff99"," "," ","1","+10","[1501.300000011921]","1","0","1","","","","","","","",""
"pit-trial","23","367456","0.0-2.0-8.0-3.0","battery-v0.2","","""event"",""trial"",""time""
""fullscreenenter"",""1"",""2744""
","
","
","""event"",""trial"",""time""
""fullscreenenter"",""1"",""2744""
","
","","","416","","","15","18244","6938","&#9776;","elianto","#3366ff99"," "," ","1","0","[1269.7999999970198]","1","0","1","","","","","","","",""
"pit-trial","24","370781","0.0-2.0-8.0-4.0","battery-v0.2","","""event"",""trial"",""time""
""fullscreenenter"",""1"",""2744""
","
","
","""event"",""trial"",""time""
""fullscreenenter"",""1"",""2744""
","
","","","468.79999999701977","","","15","18244","6938","&#9776;","elianto","#3366ff99"," "," ","1","+10","[1319]","1","0","1","","","","","","","",""
"pit-trial","25","374224","0.0-2.0-8.1-0.1","battery-v0.2","","""event"",""trial"",""time""
""fullscreenenter"",""1"",""2744""
","
","
","""event"",""trial"",""time""
""fullscreenenter"",""1"",""2744""
","
","","","568","","","15","18244","6938","&#9776;","elianto","#3366ff99"," "," ","1","+10","[1424.0999999940395]","1","0","1","","","","","","","",""
"pit-trial","26","378377","0.0-2.0-8.1-1.1","battery-v0.2","","""event"",""trial"",""time""
""fullscreenenter"",""1"",""2744""
","
","
","""event"",""trial"",""time""
""fullscreenenter"",""1"",""2744""
","
","","","1290.6000000089407","","","15","18244","6938","&#9776;","elianto","#3366ff99"," "," ","1","+10","[2142.699999988079]","1","0","1","","","","","","","",""
"pit-trial","27","381925","0.0-2.0-8.1-2.1","battery-v0.2","","""event"",""trial"",""time""
""fullscreenenter"",""1"",""2744""
","
","
","""event"",""trial"",""time""
""fullscreenenter"",""1"",""2744""
","
","","","679.7000000029802","","","15","18244","6938","&#9776;","elianto","#3366ff99"," "," ","1","+10","[1540.9000000059605]","1","0","1","","","","","","","",""
"pit-trial","28","385305","0.0-2.0-8.1-3.1","battery-v0.2","","""event"",""trial"",""time""
""fullscreenenter"",""1"",""2744""
","
","
","""event"",""trial"",""time""
""fullscreenenter"",""1"",""2744""
","
","","","517","","","15","18244","6938","&#9776;","elianto","#3366ff99"," "," ","1","0","[1369.5]","1","0","1","","","","","","","",""
"pit-trial","29","388709","0.0-2.0-8.1-4.1","battery-v0.2","","""event"",""trial"",""time""
""fullscreenenter"",""1"",""2744""
","
","
","""event"",""trial"",""time""
""fullscreenenter"",""1"",""2744""
","
","","","544.4000000059605","","","15","18244","6938","&#9776;","elianto","#3366ff99"," "," ","1","+10","[1398.2000000029802]","1","0","1","","","","","","","",""
"pit-trial","30","392154","0.0-2.0-8.2-0.2","battery-v0.2","","""event"",""trial"",""time""
""fullscreenenter"",""1"",""2744""
","
","
","""event"",""trial"",""time""
""fullscreenenter"",""1"",""2744""
","
","","","590.3999999910593","","","15","18244","6938","&#9776;","elianto","#3366ff99"," "," ","1","+10","[1440.5999999940395]","1","0","1","","","","","","","",""
"pit-trial","31","395525","0.0-2.0-8.2-1.2","battery-v0.2","","""event"",""trial"",""time""
""fullscreenenter"",""1"",""2744""
","
","
","""event"",""trial"",""time""
""fullscreenenter"",""1"",""2744""
","
","","","509.5","","","15","18244","6938","&#9776;","elianto","#3366ff99"," "," ","1","+10","[1364.4000000059605]","1","0","1","","","","","","","",""
"pit-trial","32","398695","0.0-2.0-8.2-2.2","battery-v0.2","","""event"",""trial"",""time""
""fullscreenenter"",""1"",""2744""
","
","
","""event"",""trial"",""time""
""fullscreenenter"",""1"",""2744""
","
","","","301.90000000596046","","","15","18244","6938","&#9776;","elianto","#3366ff99"," "," ","1","+10","[1152.699999988079]","1","0","1","","","","","","","",""
"pit-trial","33","402191","0.0-2.0-8.2-3.2","battery-v0.2","","""event"",""trial"",""time""
""fullscreenenter"",""1"",""2744""
","
","
","""event"",""trial"",""time""
""fullscreenenter"",""1"",""2744""
","
","","","628.7999999970198","","","15","18244","6938","&#9776;","elianto","#3366ff99"," "," ","1","0","[1487]","1","0","1","","","","","","","",""
"pit-trial","34","405490","0.0-2.0-8.2-4.2","battery-v0.2","","""event"",""trial"",""time""
""fullscreenenter"",""1"",""2744""
","
","
","""event"",""trial"",""time""
""fullscreenenter"",""1"",""2744""
","
","","","445","","","15","18244","6938","&#9776;","elianto","#3366ff99"," "," ","1","+10","[1295.2000000029802]","1","0","1","","","","","","","",""
"call-function","35","405494","0.0-2.0-9.0","battery-v0.2","","""event"",""trial"",""time""
""fullscreenenter"",""1"",""2744""
","
","
","""event"",""trial"",""time""
""fullscreenenter"",""1"",""2744""
","
","","","","","","","","","","","","","","","","","","","","","","","","","","",""
"pit-instructions","36","463368","0.0-2.0-10.0","battery-v0.2","","""event"",""trial"",""time""
""fullscreenenter"",""1"",""2744""
","
","
","""event"",""trial"",""time""
""fullscreenenter"",""1"",""2744""
","
","","[{""page_index"":0,""viewing_time"":13953.70000000298},{""page_index"":1,""viewing_time"":11639.89999999106},{""page_index"":2,""viewing_time"":13047.60000000894},{""page_index"":3,""viewing_time"":11640.699999988079},{""page_index"":4,""viewing_time"":7582.70000000298}]","57865.20000000298","","","","","","","","","","","","","","","","","","","","","","","",""
"pit-trial","37","468237","0.0-2.0-11.0-0.0","battery-v0.2","","""event"",""trial"",""time""
""fullscreenenter"",""1"",""2744""
","
","
","""event"",""trial"",""time""
""fullscreenenter"",""1"",""2744""
","
","","","-1","","","15","18244","6938","&#9761;","elianto","#3366ff99","-1","-1","1","+10","[]","0","0","2","","","","","","","",""
"pit-trial","38","473107","0.0-2.0-11.0-1.0","battery-v0.2","","""event"",""trial"",""time""
""fullscreenenter"",""1"",""2744""
","
","
","""event"",""trial"",""time""
""fullscreenenter"",""1"",""2744""
","
","","","-1","","","15","18244","6938","&#9761;","elianto","#3366ff99","-1","-1","1","+10","[]","0","0","2","","","","","","","",""
"pit-trial","39","477977","0.0-2.0-11.0-2.0","battery-v0.2","","""event"",""trial"",""time""
""fullscreenenter"",""1"",""2744""
","
","
","""event"",""trial"",""time""
""fullscreenenter"",""1"",""2744""
","
","","","-1","","","15","18244","6938","&#9761;","elianto","#3366ff99","-1","-1","1","+10","[]","0","0","2","","","","","","","",""
"pit-trial","40","482842","0.0-2.0-11.0-3.0","battery-v0.2","","""event"",""trial"",""time""
""fullscreenenter"",""1"",""2744""
","
","
","""event"",""trial"",""time""
""fullscreenenter"",""1"",""2744""
","
","","","-1","","","15","18244","6938","&#9761;","elianto","#3366ff99","-1","-1","1","0","[]","0","0","2","","","","","","","",""
"pit-trial","41","487721","0.0-2.0-11.0-4.0","battery-v0.2","","""event"",""trial"",""time""
""fullscreenenter"",""1"",""2744""
","
","
","""event"",""trial"",""time""
""fullscreenenter"",""1"",""2744""
","
","","","-1","","","15","18244","6938","&#9761;","elianto","#3366ff99","-1","-1","1","+10","[]","0","0","2","","","","","","","",""
"pit-trial","42","492614","0.0-2.0-11.1-0.1","battery-v0.2","","""event"",""trial"",""time""
""fullscreenenter"",""1"",""2744""
","
","
","""event"",""trial"",""time""
""fullscreenenter"",""1"",""2744""
","
","","","-1","","","15","18244","6938","&#9761;","elianto","#3366ff99","-1","-1","1","+10","[]","0","0","2","","","","","","","",""
"pit-trial","43","497473","0.0-2.0-11.1-1.1","battery-v0.2","","""event"",""trial"",""time""
""fullscreenenter"",""1"",""2744""
","
","
","""event"",""trial"",""time""
""fullscreenenter"",""1"",""2744""
","
","","","-1","","","15","18244","6938","&#9761;","elianto","#3366ff99","-1","-1","1","+10","[]","0","0","2","","","","","","","",""
"pit-trial","44","502335","0.0-2.0-11.1-2.1","battery-v0.2","","""event"",""trial"",""time""
""fullscreenenter"",""1"",""2744""
","
","
","""event"",""trial"",""time""
""fullscreenenter"",""1"",""2744""
","
","","","-1","","","15","18244","6938","&#9761;","elianto","#3366ff99","-1","-1","1","+10","[]","0","0","2","","","","","","","",""
"pit-trial","45","507198","0.0-2.0-11.1-3.1","battery-v0.2","","""event"",""trial"",""time""
""fullscreenenter"",""1"",""2744""
","
","
","""event"",""trial"",""time""
""fullscreenenter"",""1"",""2744""
","
","","","-1","","","15","18244","6938","&#9761;","elianto","#3366ff99","-1","-1","1","0","[]","0","0","2","","","","","","","",""
"pit-trial","46","512060","0.0-2.0-11.1-4.1","battery-v0.2","","""event"",""trial"",""time""
""fullscreenenter"",""1"",""2744""
","
","
","""event"",""trial"",""time""
""fullscreenenter"",""1"",""2744""
","
","","","-1","","","15","18244","6938","&#9761;","elianto","#3366ff99","-1","-1","1","+10","[]","0","0","2","","","","","","","",""
"pit-trial","47","516924","0.0-2.0-11.2-0.2","battery-v0.2","","""event"",""trial"",""time""
""fullscreenenter"",""1"",""2744""
","
","
","""event"",""trial"",""time""
""fullscreenenter"",""1"",""2744""
","
","","","-1","","","15","18244","6938","&#9761;","elianto","#3366ff99","-1","-1","1","+10","[]","0","0","2","","","","","","","",""
"pit-trial","48","521785","0.0-2.0-11.2-1.2","battery-v0.2","","""event"",""trial"",""time""
""fullscreenenter"",""1"",""2744""
","
","
","""event"",""trial"",""time""
""fullscreenenter"",""1"",""2744""
","
","","","-1","","","15","18244","6938","&#9761;","elianto","#3366ff99","-1","-1","1","+10","[]","0","0","2","","","","","","","",""
"pit-trial","49","526652","0.0-2.0-11.2-2.2","battery-v0.2","","""event"",""trial"",""time""
""fullscreenenter"",""1"",""2744""
","
","
","""event"",""trial"",""time""
""fullscreenenter"",""1"",""2744""
","
","","","-1","","","15","18244","6938","&#9761;","elianto","#3366ff99","-1","-1","1","+10","[]","0","0","2","","","","","","","",""
"pit-trial","50","531520","0.0-2.0-11.2-3.2","battery-v0.2","","""event"",""trial"",""time""
""fullscreenenter"",""1"",""2744""
","
","
","""event"",""trial"",""time""
""fullscreenenter"",""1"",""2744""
","
","","","-1","","","15","18244","6938","&#9761;","elianto","#3366ff99","-1","-1","1","0","[]","0","0","2","","","","","","","",""
"pit-trial","51","536377","0.0-2.0-11.2-4.2","battery-v0.2","","""event"",""trial"",""time""
""fullscreenenter"",""1"",""2744""
","
","
","""event"",""trial"",""time""
""fullscreenenter"",""1"",""2744""
","
","","","-1","","","15","18244","6938","&#9761;","elianto","#3366ff99","-1","-1","1","+10","[]","0","0","2","","","","","","","",""
"pit-trial","52","541249","0.0-2.0-11.3-0.3","battery-v0.2","","""event"",""trial"",""time""
""fullscreenenter"",""1"",""2744""
","
","
","""event"",""trial"",""time""
""fullscreenenter"",""1"",""2744""
","
","","","-1","","","15","18244","6938","&#9761;","elianto","#3366ff99","-1","-1","1","+10","[]","0","0","2","","","","","","","",""
"pit-trial","53","544795","0.0-2.0-11.3-1.3","battery-v0.2","","""event"",""trial"",""time""
""fullscreenenter"",""1"",""2744""
","
","
","""event"",""trial"",""time""
""fullscreenenter"",""1"",""2744""
","
","","","685","","","15","18244","6938","&#9761;","elianto","#3366ff99","-1"," ","0","0","[1535.199999988079]","1","0","2","","","","","","","",""
"pit-trial","54","549659","0.0-2.0-11.3-2.3","battery-v0.2","","""event"",""trial"",""time""
""fullscreenenter"",""1"",""2744""
","
","
","""event"",""trial"",""time""
""fullscreenenter"",""1"",""2744""
","
","","","-1","","","15","18244","6938","&#9761;","elianto","#3366ff99","-1","-1","1","+10","[]","0","0","2","","","","","","","",""
"pit-trial","55","554539","0.0-2.0-11.3-3.3","battery-v0.2","","""event"",""trial"",""time""
""fullscreenenter"",""1"",""2744""
","
","
","""event"",""trial"",""time""
""fullscreenenter"",""1"",""2744""
","
","","","-1","","","15","18244","6938","&#9761;","elianto","#3366ff99","-1","-1","1","0","[]","0","0","2","","","","","","","",""
"pit-trial","56","559417","0.0-2.0-11.3-4.3","battery-v0.2","","""event"",""trial"",""time""
""fullscreenenter"",""1"",""2744""
","
","
","""event"",""trial"",""time""
""fullscreenenter"",""1"",""2744""
","
","","","-1","","","15","18244","6938","&#9761;","elianto","#3366ff99","-1","-1","1","+10","[]","0","0","2","","","","","","","",""
"call-function","57","559420","0.0-2.0-12.0","battery-v0.2","","""event"",""trial"",""time""
""fullscreenenter"",""1"",""2744""
","
","
","""event"",""trial"",""time""
""fullscreenenter"",""1"",""2744""
","
","","","","","","","","","","","","","","","","","","","","","","","","","","",""
"pit-instructions","58","603235","0.0-2.0-13.0","battery-v0.2","","""event"",""trial"",""time""
""fullscreenenter"",""1"",""2744""
","
","
","""event"",""trial"",""time""
""fullscreenenter"",""1"",""2744""
","
","","[{""page_index"":0,""viewing_time"":8471.20000000298},{""page_index"":1,""viewing_time"":9264.20000000298},{""page_index"":2,""viewing_time"":6719.5},{""page_index"":3,""viewing_time"":12519.5},{""page_index"":4,""viewing_time"":6838.699999988079}]","43813.90000000596","","","","","","","","","","","","","","","","","","","","","","","",""
"pit-trial","59","606821","0.0-2.0-14.0-0.0","battery-v0.2","","""event"",""trial"",""time""
""fullscreenenter"",""1"",""2744""
","
","
","""event"",""trial"",""time""
""fullscreenenter"",""1"",""2744""
","
","","","716.7999999970198","","","15","18244","6938","&#9826;","elianto","#f73b6a7A","-1"," ","0","-10","[1568]","1","0","3","","","","","","","",""
"pit-trial","60","611691","0.0-2.0-14.0-1.0","battery-v0.2","","""event"",""trial"",""time""
""fullscreenenter"",""1"",""2744""
","
","
","""event"",""trial"",""time""
""fullscreenenter"",""1"",""2744""
","
","","","-1","","","15","18244","6938","&#9826;","elianto","#f73b6a7A","-1","-1","1","0","[]","0","0","3","","","","","","","",""
"pit-trial","61","616566","0.0-2.0-14.0-2.0","battery-v0.2","","""event"",""trial"",""time""
""fullscreenenter"",""1"",""2744""
","
","
","""event"",""trial"",""time""
""fullscreenenter"",""1"",""2744""
","
","","","-1","","","15","18244","6938","&#9826;","elianto","#f73b6a7A","-1","-1","1","0","[]","0","0","3","","","","","","","",""
"pit-trial","62","621439","0.0-2.0-14.0-3.0","battery-v0.2","","""event"",""trial"",""time""
""fullscreenenter"",""1"",""2744""
","
","
","""event"",""trial"",""time""
""fullscreenenter"",""1"",""2744""
","
","","","-1","","","15","18244","6938","&#9826;","elianto","#f73b6a7A","-1","-1","1","-10","[]","0","0","3","","","","","","","",""
"pit-trial","63","626313","0.0-2.0-14.0-4.0","battery-v0.2","","""event"",""trial"",""time""
""fullscreenenter"",""1"",""2744""
","
","
","""event"",""trial"",""time""
""fullscreenenter"",""1"",""2744""
","
","","","-1","","","15","18244","6938","&#9826;","elianto","#f73b6a7A","-1","-1","1","0","[]","0","0","3","","","","","","","",""
"pit-trial","64","631180","0.0-2.0-14.1-0.1","battery-v0.2","","""event"",""trial"",""time""
""fullscreenenter"",""1"",""2744""
","
","
","""event"",""trial"",""time""
""fullscreenenter"",""1"",""2744""
","
","","","-1","","","15","18244","6938","&#9826;","elianto","#f73b6a7A","-1","-1","1","0","[]","0","0","3","","","","","","","",""
"pit-trial","65","636037","0.0-2.0-14.1-1.1","battery-v0.2","","""event"",""trial"",""time""
""fullscreenenter"",""1"",""2744""
","
","
","""event"",""trial"",""time""
""fullscreenenter"",""1"",""2744""
","
","","","-1","","","15","18244","6938","&#9826;","elianto","#f73b6a7A","-1","-1","1","0","[]","0","0","3","","","","","","","",""
"pit-trial","66","640905","0.0-2.0-14.1-2.1","battery-v0.2","","""event"",""trial"",""time""
""fullscreenenter"",""1"",""2744""
","
","
","""event"",""trial"",""time""
""fullscreenenter"",""1"",""2744""
","
","","","-1","","","15","18244","6938","&#9826;","elianto","#f73b6a7A","-1","-1","1","0","[]","0","0","3","","","","","","","",""
"pit-trial","67","645766","0.0-2.0-14.1-3.1","battery-v0.2","","""event"",""trial"",""time""
""fullscreenenter"",""1"",""2744""
","
","
","""event"",""trial"",""time""
""fullscreenenter"",""1"",""2744""
","
","","","-1","","","15","18244","6938","&#9826;","elianto","#f73b6a7A","-1","-1","1","-10","[4748.79999999702]","1","0","3","","","","","","","",""
"pit-trial","68","649202","0.0-2.0-14.1-4.1","battery-v0.2","","""event"",""trial"",""time""
""fullscreenenter"",""1"",""2744""
","
","
","""event"",""trial"",""time""
""fullscreenenter"",""1"",""2744""
","
","","","571.2999999970198","","","15","18244","6938","&#9826;","elianto","#f73b6a7A","-1"," ","0","-10","[1422.2000000029802]","1","0","3","","","","","","","",""
"pit-trial","69","654070","0.0-2.0-14.2-0.2","battery-v0.2","","""event"",""trial"",""time""
""fullscreenenter"",""1"",""2744""
","
","
","""event"",""trial"",""time""
""fullscreenenter"",""1"",""2744""
","
","","","-1","","","15","18244","6938","&#9826;","elianto","#f73b6a7A","-1","-1","1","0","[]","0","0","3","","","","","","","",""
"pit-trial","70","658931","0.0-2.0-14.2-1.2","battery-v0.2","","""event"",""trial"",""time""
""fullscreenenter"",""1"",""2744""
","
","
","""event"",""trial"",""time""
""fullscreenenter"",""1"",""2744""
","
","","","-1","","","15","18244","6938","&#9826;","elianto","#f73b6a7A","-1","-1","1","0","[]","0","0","3","","","","","","","",""
"pit-trial","71","663804","0.0-2.0-14.2-2.2","battery-v0.2","","""event"",""trial"",""time""
""fullscreenenter"",""1"",""2744""
","
","
","""event"",""trial"",""time""
""fullscreenenter"",""1"",""2744""
","
","","","-1","","","15","18244","6938","&#9826;","elianto","#f73b6a7A","-1","-1","1","0","[]","0","0","3","","","","","","","",""
"pit-trial","72","668676","0.0-2.0-14.2-3.2","battery-v0.2","","""event"",""trial"",""time""
""fullscreenenter"",""1"",""2744""
","
","
","""event"",""trial"",""time""
""fullscreenenter"",""1"",""2744""
","
","","","-1","","","15","18244","6938","&#9826;","elianto","#f73b6a7A","-1","-1","1","-10","[]","0","0","3","","","","","","","",""
"pit-trial","73","673533","0.0-2.0-14.2-4.2","battery-v0.2","","""event"",""trial"",""time""
""fullscreenenter"",""1"",""2744""
","
","
","""event"",""trial"",""time""
""fullscreenenter"",""1"",""2744""
","
","","","-1","","","15","18244","6938","&#9826;","elianto","#f73b6a7A","-1","-1","1","0","[]","0","0","3","","","","","","","",""
"pit-trial","74","678409","0.0-2.0-14.3-0.3","battery-v0.2","","""event"",""trial"",""time""
""fullscreenenter"",""1"",""2744""
","
","
","""event"",""trial"",""time""
""fullscreenenter"",""1"",""2744""
","
","","","-1","","","15","18244","6938","&#9826;","elianto","#f73b6a7A","-1","-1","1","0","[]","0","0","3","","","","","","","",""
"pit-trial","75","683282","0.0-2.0-14.3-1.3","battery-v0.2","","""event"",""trial"",""time""
""fullscreenenter"",""1"",""2744""
","
","
","""event"",""trial"",""time""
""fullscreenenter"",""1"",""2744""
","
","","","-1","","","15","18244","6938","&#9826;","elianto","#f73b6a7A","-1","-1","1","0","[]","0","0","3","","","","","","","",""
"pit-trial","76","688144","0.0-2.0-14.3-2.3","battery-v0.2","","""event"",""trial"",""time""
""fullscreenenter"",""1"",""2744""
","
","
","""event"",""trial"",""time""
""fullscreenenter"",""1"",""2744""
","
","","","-1","","","15","18244","6938","&#9826;","elianto","#f73b6a7A","-1","-1","1","0","[]","0","0","3","","","","","","","",""
"pit-trial","77","693018","0.0-2.0-14.3-3.3","battery-v0.2","","""event"",""trial"",""time""
""fullscreenenter"",""1"",""2744""
","
","
","""event"",""trial"",""time""
""fullscreenenter"",""1"",""2744""
","
","","","-1","","","15","18244","6938","&#9826;","elianto","#f73b6a7A","-1","-1","1","-10","[]","0","0","3","","","","","","","",""
"pit-trial","78","697881","0.0-2.0-14.3-4.3","battery-v0.2","","""event"",""trial"",""time""
""fullscreenenter"",""1"",""2744""
","
","
","""event"",""trial"",""time""
""fullscreenenter"",""1"",""2744""
","
","","","-1","","","15","18244","6938","&#9826;","elianto","#f73b6a7A","-1","-1","1","0","[]","0","0","3","","","","","","","",""
"call-function","79","697883","0.0-2.0-15.0","battery-v0.2","","""event"",""trial"",""time""
""fullscreenenter"",""1"",""2744""
","
","
","""event"",""trial"",""time""
""fullscreenenter"",""1"",""2744""
","
","","","","","","","","","","","","","","","","","","","","","","","","","","",""
"pit-instructions","80","730457","0.0-2.0-16.0","battery-v0.2","","""event"",""trial"",""time""
""fullscreenenter"",""1"",""2744""
","
","
","""event"",""trial"",""time""
""fullscreenenter"",""1"",""2744""
","
","","[{""page_index"":0,""viewing_time"":11454},{""page_index"":1,""viewing_time"":9951.09999999404},{""page_index"":2,""viewing_time"":5475.20000000298},{""page_index"":3,""viewing_time"":5692.4000000059605}]","32573","","","","","","","","","","","","","","","","","","","","","","","",""
"pit-trial","81","733789","0.0-2.0-17.0-0.0","battery-v0.2","","""event"",""trial"",""time""
""fullscreenenter"",""1"",""2744""
","
","
","""event"",""trial"",""time""
""fullscreenenter"",""1"",""2744""
","
","","","465.5","","","15","18244","6938","&#9789;","elianto","#f73b6a7A"," "," ","1","0","[1318.800000011921]","1","0","4","","","","","","","",""
"pit-trial","82","737133","0.0-2.0-17.0-1.0","battery-v0.2","","""event"",""trial"",""time""
""fullscreenenter"",""1"",""2744""
","
","
","""event"",""trial"",""time""
""fullscreenenter"",""1"",""2744""
","
","","","470.3999999910593","","","15","18244","6938","&#9789;","elianto","#f73b6a7A"," "," ","1","0","[1320.7999999970198]","1","0","4","","","","","","","",""
"pit-trial","83","740427","0.0-2.0-17.0-2.0","battery-v0.2","","""event"",""trial"",""time""
""fullscreenenter"",""1"",""2744""
","
","
","""event"",""trial"",""time""
""fullscreenenter"",""1"",""2744""
","
","","","425.70000000298023","","","15","18244","6938","&#9789;","elianto","#f73b6a7A"," "," ","1","0","[1276.9000000059605]","1","0","4","","","","","","","",""
"pit-trial","84","743702","0.0-2.0-17.0-3.0","battery-v0.2","","""event"",""trial"",""time""
""fullscreenenter"",""1"",""2744""
","
","
","""event"",""trial"",""time""
""fullscreenenter"",""1"",""2744""
","
","","","402.5","","","15","18244","6938","&#9789;","elianto","#f73b6a7A"," "," ","1","-10","[1255.7999999970198]","1","0","4","","","","","","","",""
"pit-trial","85","746991","0.0-2.0-17.0-4.0","battery-v0.2","","""event"",""trial"",""time""
""fullscreenenter"",""1"",""2744""
","
","
","""event"",""trial"",""time""
""fullscreenenter"",""1"",""2744""
","
","","","425.59999999403954","","","15","18244","6938","&#9789;","elianto","#f73b6a7A"," "," ","1","0","[1276]","1","0","4","","","","","","","",""
"pit-trial","86","750402","0.0-2.0-17.1-0.1","battery-v0.2","","""event"",""trial"",""time""
""fullscreenenter"",""1"",""2744""
","
","
","""event"",""trial"",""time""
""fullscreenenter"",""1"",""2744""
","
","","","539.9000000059605","","","15","18244","6938","&#9789;","elianto","#f73b6a7A"," "," ","1","0","[1393.6000000089407]","1","0","4","","","","","","","",""
"pit-trial","87","754007","0.0-2.0-17.1-1.1","battery-v0.2","","""event"",""trial"",""time""
""fullscreenenter"",""1"",""2744""
","
","
","""event"",""trial"",""time""
""fullscreenenter"",""1"",""2744""
","
","","","741.3999999910593","","","15","18244","6938","&#9789;","elianto","#f73b6a7A"," "," ","1","0","[1591.2999999970198]","1","0","4","","","","","","","",""
"pit-trial","88","757284","0.0-2.0-17.1-2.1","battery-v0.2","","""event"",""trial"",""time""
""fullscreenenter"",""1"",""2744""
","
","
","""event"",""trial"",""time""
""fullscreenenter"",""1"",""2744""
","
","","","401","","","15","18244","6938","&#9789;","elianto","#f73b6a7A"," "," ","1","0","[1260.5]","1","0","4","","","","","","","",""
"pit-trial","89","760585","0.0-2.0-17.1-3.1","battery-v0.2","","""event"",""trial"",""time""
""fullscreenenter"",""1"",""2744""
","
","
","""event"",""trial"",""time""
""fullscreenenter"",""1"",""2744""
","
","","","441.70000000298023","","","15","18244","6938","&#9789;","elianto","#f73b6a7A"," "," ","1","-10","[1293.2000000029802]","1","0","4","","","","","","","",""
"pit-trial","90","764464","0.0-2.0-17.1-4.1","battery-v0.2","","""event"",""trial"",""time""
""fullscreenenter"",""1"",""2744""
","
","
","""event"",""trial"",""time""
""fullscreenenter"",""1"",""2744""
","
","","","1021.7999999970198","","","15","18244","6938","&#9789;","elianto","#f73b6a7A"," "," ","1","0","[1872.9000000059605]","1","0","4","","","","","","","",""
"pit-trial","91","768741","0.0-2.0-17.2-0.2","battery-v0.2","","""event"",""trial"",""time""
""fullscreenenter"",""1"",""2744""
","
","
","""event"",""trial"",""time""
""fullscreenenter"",""1"",""2744""
","
","","","1415.4000000059605","","","15","18244","6938","&#9789;","elianto","#f73b6a7A"," "," ","1","0","[2266.5]","1","0","4","","","","","","","",""
"pit-trial","92","772692","0.0-2.0-17.2-1.2","battery-v0.2","","""event"",""trial"",""time""
""fullscreenenter"",""1"",""2744""
","
","
","""event"",""trial"",""time""
""fullscreenenter"",""1"",""2744""
","
","","","1086.800000011921","","","15","18244","6938","&#9789;","elianto","#f73b6a7A"," "," ","1","0","[1941.2000000029802]","1","0","4","","","","","","","",""
"pit-trial","93","776399","0.0-2.0-17.2-2.2","battery-v0.2","","""event"",""trial"",""time""
""fullscreenenter"",""1"",""2744""
","
","
","""event"",""trial"",""time""
""fullscreenenter"",""1"",""2744""
","
","","","837","","","15","18244","6938","&#9789;","elianto","#f73b6a7A"," "," ","1","0","[1693.4000000059605]","1","0","4","","","","","","","",""
"pit-trial","94","780050","0.0-2.0-17.2-3.2","battery-v0.2","","""event"",""trial"",""time""
""fullscreenenter"",""1"",""2744""
","
","
","""event"",""trial"",""time""
""fullscreenenter"",""1"",""2744""
","
","","","782.1000000089407","","","15","18244","6938","&#9789;","elianto","#f73b6a7A"," "," ","1","-10","[1634.5999999940395]","1","0","4","","","","","","","",""
"pit-trial","95","784920","0.0-2.0-17.2-4.2","battery-v0.2","","""event"",""trial"",""time""
""fullscreenenter"",""1"",""2744""
","
","
","""event"",""trial"",""time""
""fullscreenenter"",""1"",""2744""
","
","","","-1","","","15","18244","6938","&#9789;","elianto","#f73b6a7A"," ","-1","0","-10","[3432.1000000089407]","1","0","4","","","","","","","",""
"pit-trial","96","788450","0.0-2.0-17.3-0.3","battery-v0.2","","""event"",""trial"",""time""
""fullscreenenter"",""1"",""2744""
","
","
","""event"",""trial"",""time""
""fullscreenenter"",""1"",""2744""
","
","","","668.0999999940395","","","15","18244","6938","&#9789;","elianto","#f73b6a7A"," "," ","1","0","[1519.3999999910593]","1","0","4","","","","","","","",""
"pit-trial","97","792024","0.0-2.0-17.3-1.3","battery-v0.2","","""event"",""trial"",""time""
""fullscreenenter"",""1"",""2744""
","
","
","""event"",""trial"",""time""
""fullscreenenter"",""1"",""2744""
","
","","","715.6000000089407","","","15","18244","6938","&#9789;","elianto","#f73b6a7A"," "," ","1","0","[1567.2999999970198]","1","0","4","","","","","","","",""
"pit-trial","98","796893","0.0-2.0-17.3-2.3","battery-v0.2","","""event"",""trial"",""time""
""fullscreenenter"",""1"",""2744""
","
","
","""event"",""trial"",""time""
""fullscreenenter"",""1"",""2744""
","
","","","-1","","","15","18244","6938","&#9789;","elianto","#f73b6a7A"," ","-1","0","-10","[]","0","0","4","","","","","","","",""
"pit-trial","99","800151","0.0-2.0-17.3-3.3","battery-v0.2","","""event"",""trial"",""time""
""fullscreenenter"",""1"",""2744""
","
","
","""event"",""trial"",""time""
""fullscreenenter"",""1"",""2744""
","
","","","383.6000000089407","","","15","18244","6938","&#9789;","elianto","#f73b6a7A"," "," ","1","-10","[1237.199999988079]","1","0","4","","","","","","","",""
"pit-trial","100","803544","0.0-2.0-17.3-4.3","battery-v0.2","","""event"",""trial"",""time""
""fullscreenenter"",""1"",""2744""
","
","
","""event"",""trial"",""time""
""fullscreenenter"",""1"",""2744""
","
","","","531.8999999910593","","","15","18244","6938","&#9789;","elianto","#f73b6a7A"," "," ","1","0","[748.8999999910593,1388,3251.8999999910593]","3","0","4","","","","","","","",""
"call-function","101","803546","0.0-2.0-18.0","battery-v0.2","","""event"",""trial"",""time""
""fullscreenenter"",""1"",""2744""
","
","
","""event"",""trial"",""time""
""fullscreenenter"",""1"",""2744""
","
","","","","","","","","","","","","","","","","","","","","","","","","","","",""
"pit-instructions","102","880608","0.0-2.0-19.0","battery-v0.2","","""event"",""trial"",""time""
""fullscreenenter"",""1"",""2744""
","
","
","""event"",""trial"",""time""
""fullscreenenter"",""1"",""2744""
","
","","[{""page_index"":0,""viewing_time"":6904},{""page_index"":1,""viewing_time"":7448.399999991059},{""page_index"":2,""viewing_time"":15267.29999999702},{""page_index"":3,""viewing_time"":9715.5},{""page_index"":4,""viewing_time"":10164.60000000894},{""page_index"":5,""viewing_time"":12900.09999999404},{""page_index"":6,""viewing_time"":4528},{""page_index"":7,""viewing_time"":6380.70000000298},{""page_index"":8,""viewing_time"":3739.2999999970198}]","77048.09999999404","","","","","","","","","","","","","","","","","","","","","","","",""
"pit-comprehension","103","885688","0.0-2.0-20.0-0.0","battery-v0.2","","""event"",""trial"",""time""
""fullscreenenter"",""1"",""2744""
","
","
","""event"",""trial"",""time""
""fullscreenenter"",""1"",""2744""
","
","","","5077.4000000059605","[""SPACE""]","0","15","18244","6938","","","","","","","","","","","","","","","","","","",""
"pit-instructions","104","890848","0.0-2.0-20.0-1.0","battery-v0.2","","""event"",""trial"",""time""
""fullscreenenter"",""1"",""2744""
","
","
","""event"",""trial"",""time""
""fullscreenenter"",""1"",""2744""
","
","","[{""page_index"":0,""viewing_time"":5130.29999999702}]","5130.5","","","","","","","","","","","","","","","","","","","","","","","",""
"pit-comprehension","105","895360","0.0-2.0-21.0-0.0","battery-v0.2","","""event"",""trial"",""time""
""fullscreenenter"",""1"",""2744""
","
","
","""event"",""trial"",""time""
""fullscreenenter"",""1"",""2744""
","
","","","4509.600000008941","[""10""]","0","15","18244","6938","","","","","","","","","","","","","","","","","","",""
"pit-instructions","106","897201","0.0-2.0-21.0-1.0","battery-v0.2","","""event"",""trial"",""time""
""fullscreenenter"",""1"",""2744""
","
","
","""event"",""trial"",""time""
""fullscreenenter"",""1"",""2744""
","
","","[{""page_index"":0,""viewing_time"":1812.0999999940395}]","1812.3999999910593","","","","","","","","","","","","","","","","","","","","","","","",""
"pit-comprehension","107","904485","0.0-2.0-22.0-0.0","battery-v0.2","","""event"",""trial"",""time""
""fullscreenenter"",""1"",""2744""
","
","
","""event"",""trial"",""time""
""fullscreenenter"",""1"",""2744""
","
","","","7281.5","[""0""]","0","15","18244","6938","","","","","","","","","","","","","","","","","","",""
"pit-instructions","108","905956","0.0-2.0-22.0-1.0","battery-v0.2","","""event"",""trial"",""time""
""fullscreenenter"",""1"",""2744""
","
","
","""event"",""trial"",""time""
""fullscreenenter"",""1"",""2744""
","
","","[{""page_index"":0,""viewing_time"":1446.0999999940395}]","1446.3999999910593","","","","","","","","","","","","","","","","","","","","","","","",""
"pit-comprehension","109","914853","0.0-2.0-23.0-0.0","battery-v0.2","","""event"",""trial"",""time""
""fullscreenenter"",""1"",""2744""
","
","
","""event"",""trial"",""time""
""fullscreenenter"",""1"",""2744""
","
","","","8894.39999999106","[""True""]","0","15","18244","6938","","","","","","","","","","","","","","","","","","",""
"pit-instructions","110","918774","0.0-2.0-23.0-1.0","battery-v0.2","","""event"",""trial"",""time""
""fullscreenenter"",""1"",""2744""
","
","
","""event"",""trial"",""time""
""fullscreenenter"",""1"",""2744""
","
","","[{""page_index"":0,""viewing_time"":3878.2000000029802}]","3878.300000011921","","","","","","","","","","","","","","","","","","","","","","","",""
"pit-comprehension","111","926442","0.0-2.0-24.0-0.0","battery-v0.2","","""event"",""trial"",""time""
""fullscreenenter"",""1"",""2744""
","
","
","""event"",""trial"",""time""
""fullscreenenter"",""1"",""2744""
","
","","","7666","[""True""]","0","15","18244","6938","","","","","","","","","","","","","","","","","","",""
"pit-instructions","112","927914","0.0-2.0-24.0-1.0","battery-v0.2","","""event"",""trial"",""time""
""fullscreenenter"",""1"",""2744""
","
","
","""event"",""trial"",""time""
""fullscreenenter"",""1"",""2744""
","
","","[{""page_index"":0,""viewing_time"":1444.5}]","1444.9000000059605","","","","","","","","","","","","","","","","","","","","","","","",""
"pit-comprehension","113","934411","0.0-2.0-25.0-0.0","battery-v0.2","","""event"",""trial"",""time""
""fullscreenenter"",""1"",""2744""
","
","
","""event"",""trial"",""time""
""fullscreenenter"",""1"",""2744""
","
","","","6494.9000000059605","[""True""]","0","15","18244","6938","","","","","","","","","","","","","","","","","","",""
"pit-instructions","114","935967","0.0-2.0-25.0-1.0","battery-v0.2","","""event"",""trial"",""time""
""fullscreenenter"",""1"",""2744""
","
","
","""event"",""trial"",""time""
""fullscreenenter"",""1"",""2744""
","
","","[{""page_index"":0,""viewing_time"":1529}]","1529.2000000029802","","","","","","","","","","","","","","","","","","","","","","","",""
"pit-comprehension","115","941599","0.0-2.0-26.0-0.0","battery-v0.2","","""event"",""trial"",""time""
""fullscreenenter"",""1"",""2744""
","
","
","""event"",""trial"",""time""
""fullscreenenter"",""1"",""2744""
","
","","","5630.600000008941","[""False""]","0","15","18244","6938","","","","","","","","","","","","","","","","","","",""
"pit-instructions","116","943143","0.0-2.0-26.0-1.0","battery-v0.2","","""event"",""trial"",""time""
""fullscreenenter"",""1"",""2744""
","
","
","""event"",""trial"",""time""
""fullscreenenter"",""1"",""2744""
","
","","[{""page_index"":0,""viewing_time"":1513}]","1513.2000000029802","","","","","","","","","","","","","","","","","","","","","","","",""
"pit-instructions","117","960114","0.0-3.0","battery-v0.2","","""event"",""trial"",""time""
""fullscreenenter"",""1"",""2744""
","
","
","""event"",""trial"",""time""
""fullscreenenter"",""1"",""2744""
","
","","[{""page_index"":0,""viewing_time"":4954.29999999702},{""page_index"":1,""viewing_time"":5083.79999999702},{""page_index"":2,""viewing_time"":6931.300000011921}]","16969.70000000298","","","","","","","","","","","","","","","","","","","","","","","",""
"pit-trial","118","963490","0.0-4.0","battery-v0.2","","""event"",""trial"",""time""
""fullscreenenter"",""1"",""2744""
","
","
","""event"",""trial"",""time""
""fullscreenenter"",""1"",""2744""
","
","","","515.8999999910593","","","15","18244","6938","&#9728;","elianto","#f73b6a7A","-1"," ","0","0","[1366.8999999910593]","1","1","","","18244","1","0","4","lose","no-go","1"
"pit-trial","119","966915","0.0-5.0","battery-v0.2","","""event"",""trial"",""time""
""fullscreenenter"",""1"",""2744""
","
","
","""event"",""trial"",""time""
""fullscreenenter"",""1"",""2744""
","
","","","561.2000000029802","","","15","18244","6938","&#9733;","elianto","#3366ff99","-1"," ","0","+10","[1416.5]","1","1","","","18244","2","2","2","win","no-go","1"
"pit-trial","120","970542","0.0-6.0","battery-v0.2","","""event"",""trial"",""time""
""fullscreenenter"",""1"",""2744""
","
","
","""event"",""trial"",""time""
""fullscreenenter"",""1"",""2744""
","
","","","770.6000000089407","","","15","18244","6938","&#9752;","elianto","#f73b6a7A"," "," ","1","0","[1621.1000000089407]","1","1","","","18244","3","3","3","lose","go","0"
"pit-trial","121","974162","0.0-7.0","battery-v0.2","","""event"",""trial"",""time""
""fullscreenenter"",""1"",""2744""
","
","
","""event"",""trial"",""time""
""fullscreenenter"",""1"",""2744""
","
","","","750.8999999910593","","","15","18244","6938","&#9730;","elianto","#3366ff99"," "," ","1","+10","[1604.7000000029802]","1","1","","","18244","4","1","1","win","go","0"
"pit-trial","122","977498","0.0-8.0","battery-v0.2","","""event"",""trial"",""time""
""fullscreenenter"",""1"",""2744""
","
","
","""event"",""trial"",""time""
""fullscreenenter"",""1"",""2744""
","
","","","469.29999999701977","","","15","18244","6938","&#9752;","elianto","#f73b6a7A"," "," ","1","0","[1320.2000000029802]","1","1","","","18244","5","3","3","lose","go","0"
"pit-trial","123","980804","0.0-9.0","battery-v0.2","","""event"",""trial"",""time""
""fullscreenenter"",""1"",""2744""
","
","
","""event"",""trial"",""time""
""fullscreenenter"",""1"",""2744""
","
","","","426.8999999910593","","","15","18244","6938","&#9733;","elianto","#3366ff99","-1"," ","0","+10","[1278.7000000029802]","1","1","","","18244","6","2","2","win","no-go","1"
"pit-trial","124","984130","0.0-10.0","battery-v0.2","","""event"",""trial"",""time""
""fullscreenenter"",""1"",""2744""
","
","
","""event"",""trial"",""time""
""fullscreenenter"",""1"",""2744""
","
","","","468.59999999403954","","","15","18244","6938","&#9730;","elianto","#3366ff99"," "," ","1","+10","[1322.0999999940395]","1","1","","","18244","7","1","1","win","go","0"
"pit-trial","125","987542","0.0-11.0","battery-v0.2","","""event"",""trial"",""time""
""fullscreenenter"",""1"",""2744""
","
","
","""event"",""trial"",""time""
""fullscreenenter"",""1"",""2744""
","
","","","551.6000000089407","","","15","18244","6938","&#9728;","elianto","#f73b6a7A","-1"," ","0","0","[1402]","1","1","","","18244","8","0","4","lose","no-go","1"
"pit-trial","126","991101","0.0-12.0","battery-v0.2","","""event"",""trial"",""time""
""fullscreenenter"",""1"",""2744""
","
","
","""event"",""trial"",""time""
""fullscreenenter"",""1"",""2744""
","
","","","699.1000000089407","","","15","18244","6938","&#9733;","elianto","#3366ff99","-1"," ","0","0","[1551.2999999970198]","1","1","","","18244","9","2","2","win","no-go","0"
"pit-trial","127","994684","0.0-13.0","battery-v0.2","","""event"",""trial"",""time""
""fullscreenenter"",""1"",""2744""
","
","
","""event"",""trial"",""time""
""fullscreenenter"",""1"",""2744""
","
","","","721.1000000089407","","","15","18244","6938","&#9728;","elianto","#f73b6a7A","-1"," ","0","-10","[1575.5]","1","1","","","18244","10","0","4","lose","no-go","0"
"pit-trial","128","998184","0.0-14.0","battery-v0.2","","""event"",""trial"",""time""
""fullscreenenter"",""1"",""2744""
","
","
","""event"",""trial"",""time""
""fullscreenenter"",""1"",""2744""
","
","","","640.7999999970198","","","15","18244","6938","&#9752;","elianto","#f73b6a7A"," "," ","1","-10","[1495.9000000059605]","1","1","","","18244","11","3","3","lose","go","1"
"pit-trial","129","1001652","0.0-15.0","battery-v0.2","","""event"",""trial"",""time""
""fullscreenenter"",""1"",""2744""
","
","
","""event"",""trial"",""time""
""fullscreenenter"",""1"",""2744""
","
","","","605.5","","","15","18244","6938","&#9730;","elianto","#3366ff99"," "," ","1","+10","[1459.7999999970198]","1","1","","","18244","12","1","1","win","go","0"
"pit-trial","130","1004987","0.0-16.0","battery-v0.2","","""event"",""trial"",""time""
""fullscreenenter"",""1"",""2744""
","
","
","""event"",""trial"",""time""
""fullscreenenter"",""1"",""2744""
","
","","","463.90000000596046","","","15","18244","6938","&#9728;","elianto","#f73b6a7A","-1"," ","0","-10","[1320.2000000029802]","1","1","","","18244","13","0","4","lose","no-go","0"
"pit-trial","131","1008474","0.0-17.0","battery-v0.2","","""event"",""trial"",""time""
""fullscreenenter"",""1"",""2744""
","
","
","""event"",""trial"",""time""
""fullscreenenter"",""1"",""2744""
","
","","","628.3999999910593","","","15","18244","6938","&#9733;","elianto","#3366ff99","-1"," ","0","0","[1481.0999999940395]","1","1","","","18244","14","2","2","win","no-go","0"
"pit-trial","132","1011914","0.0-18.0","battery-v0.2","","""event"",""trial"",""time""
""fullscreenenter"",""1"",""2744""
","
","
","""event"",""trial"",""time""
""fullscreenenter"",""1"",""2744""
","
","","","581.0999999940395","","","15","18244","6938","&#9752;","elianto","#f73b6a7A"," "," ","1","0","[1433.5999999940395]","1","1","","","18244","15","3","3","lose","go","0"
"pit-trial","133","1015247","0.0-19.0","battery-v0.2","","""event"",""trial"",""time""
""fullscreenenter"",""1"",""2744""
","
","
","""event"",""trial"",""time""
""fullscreenenter"",""1"",""2744""
","
","","","477.8999999910593","","","15","18244","6938","&#9730;","elianto","#3366ff99"," "," ","1","+10","[1329.2000000029802]","1","1","","","18244","16","1","1","win","go","0"
"pit-trial","134","1018484","0.0-20.0","battery-v0.2","","""event"",""trial"",""time""
""fullscreenenter"",""1"",""2744""
","
","
","""event"",""trial"",""time""
""fullscreenenter"",""1"",""2744""
","
","","","378.40000000596046","","","15","18244","6938","&#9752;","elianto","#f73b6a7A"," "," ","1","0","[1229.2000000029802]","1","1","","","18244","17","3","3","lose","go","0"
"pit-trial","135","1021818","0.0-21.0","battery-v0.2","","""event"",""trial"",""time""
""fullscreenenter"",""1"",""2744""
","
","
","""event"",""trial"",""time""
""fullscreenenter"",""1"",""2744""
","
","","","476.3999999910593","","","15","18244","6938","&#9733;","elianto","#3366ff99","-1"," ","0","+10","[1327.1000000089407]","1","1","","","18244","18","2","2","win","no-go","1"
"pit-trial","136","1025134","0.0-22.0","battery-v0.2","","""event"",""trial"",""time""
""fullscreenenter"",""1"",""2744""
","
","
","""event"",""trial"",""time""
""fullscreenenter"",""1"",""2744""
","
","","","452.29999999701977","","","15","18244","6938","&#9730;","elianto","#3366ff99"," "," ","1","+10","[1307]","1","1","","","18244","19","1","1","win","go","0"
"pit-trial","137","1028503","0.0-23.0","battery-v0.2","","""event"",""trial"",""time""
""fullscreenenter"",""1"",""2744""
","
","
","""event"",""trial"",""time""
""fullscreenenter"",""1"",""2744""
","
","","","510.1000000089407","","","15","18244","6938","&#9728;","elianto","#f73b6a7A","-1"," ","0","-10","[1365.7999999970198]","1","1","","","18244","20","0","4","lose","no-go","0"
"pit-instructions","138","1043595","0.0-24.0","battery-v0.2","","""event"",""trial"",""time""
""fullscreenenter"",""1"",""2744""
","
","
","""event"",""trial"",""time""
""fullscreenenter"",""1"",""2744""
","
","","[{""page_index"":0,""viewing_time"":8997.70000000298},{""page_index"":1,""viewing_time"":6082.5}]","15080.40000000596","","","","","","","","","","","","","","","","","","","","","","","",""
"pit-trial","139","1047021","0.0-25.0","battery-v0.2","","""event"",""trial"",""time""
""fullscreenenter"",""1"",""2744""
","
","
","""event"",""trial"",""time""
""fullscreenenter"",""1"",""2744""
","
","","","565.8000000119209","","","15","18244","6938","b","elianto","#f73b6a7A"," "," ","1","0","[1418.7000000029802]","1","2","","","18244","21","3","3","lose","go","0"
"pit-trial","140","1050636","0.0-26.0","battery-v0.2","","""event"",""trial"",""time""
""fullscreenenter"",""1"",""2744""
","
","
","""event"",""trial"",""time""
""fullscreenenter"",""1"",""2744""
","
","","","758.7000000029802","","","15","18244","6938","t","elianto","#f73b6a7A","-1"," ","0","-10","[1609.2999999970198]","1","2","","","18244","22","2","4","lose","no-go","0"
"pit-trial","141","1054372","0.0-27.0","battery-v0.2","","""event"",""trial"",""time""
""fullscreenenter"",""1"",""2744""
","
","
","""event"",""trial"",""time""
""fullscreenenter"",""1"",""2744""
","
","","","878.6999999880791","","","15","18244","6938","n","elianto","#f73b6a7A","-1"," ","0","0","[1729.9000000059605]","1","2","","","18244","23","0","4","lose","no-go","1"
"pit-trial","142","1058079","0.0-28.0","battery-v0.2","","""event"",""trial"",""time""
""fullscreenenter"",""1"",""2744""
","
","
","""event"",""trial"",""time""
""fullscreenenter"",""1"",""2744""
","
","","","838.9000000059605","","","15","18244","6938","f","elianto","#3366ff99"," "," ","1","0","[1689.8999999910593]","1","2","","","18244","24","1","1","win","go","1"
"pit-trial","143","1061569","0.0-29.0","battery-v0.2","","""event"",""trial"",""time""
""fullscreenenter"",""1"",""2744""
","
","
","""event"",""trial"",""time""
""fullscreenenter"",""1"",""2744""
","
","","","633.2999999970198","","","15","18244","6938","n","elianto","#f73b6a7A","-1"," ","0","-10","[1486.7999999970198]","1","2","","","18244","25","0","4","lose","no-go","0"
"pit-trial","144","1064986","0.0-30.0","battery-v0.2","","""event"",""trial"",""time""
""fullscreenenter"",""1"",""2744""
","
","
","""event"",""trial"",""time""
""fullscreenenter"",""1"",""2744""
","
","","","551.2000000029802","","","15","18244","6938","b","elianto","#f73b6a7A"," "," ","1","0","[1404]","1","2","","","18244","26","3","3","lose","go","0"
"pit-trial","145","1068456","0.0-31.0","battery-v0.2","","""event"",""trial"",""time""
""fullscreenenter"",""1"",""2744""
","
","
","""event"",""trial"",""time""
""fullscreenenter"",""1"",""2744""
","
","","","615.8999999910593","","","15","18244","6938","t","elianto","#f73b6a7A","-1"," ","0","-10","[1467]","1","2","","","18244","27","2","4","lose","no-go","0"
"pit-trial","146","1073315","0.0-32.0","battery-v0.2","","""event"",""trial"",""time""
""fullscreenenter"",""1"",""2744""
","
","
","""event"",""trial"",""time""
""fullscreenenter"",""1"",""2744""
","
","","","-1","","","15","18244","6938","f","elianto","#3366ff99"," ","-1","0","0","[]","0","2","","","18244","28","1","1","win","go","0"
"pit-trial","147","1076835","0.0-33.0","battery-v0.2","","""event"",""trial"",""time""
""fullscreenenter"",""1"",""2744""
","
","
","""event"",""trial"",""time""
""fullscreenenter"",""1"",""2744""
","
","","","661.6999999880791","","","15","18244","6938","b","elianto","#f73b6a7A"," "," ","1","-10","[1514.699999988079]","1","2","","","18244","29","3","3","lose","go","1"
"pit-trial","148","1080432","0.0-34.0","battery-v0.2","","""event"",""trial"",""time""
""fullscreenenter"",""1"",""2744""
","
","
","""event"",""trial"",""time""
""fullscreenenter"",""1"",""2744""
","
","","","732.4000000059605","","","15","18244","6938","n","elianto","#f73b6a7A","-1"," ","0","-10","[1585.699999988079]","1","2","","","18244","30","0","4","lose","no-go","0"
"pit-trial","149","1084806","0.0-35.0","battery-v0.2","","""event"",""trial"",""time""
""fullscreenenter"",""1"",""2744""
","
","
","""event"",""trial"",""time""
""fullscreenenter"",""1"",""2744""
","
","","","1505.2999999970198","","","15","18244","6938","f","elianto","#3366ff99"," "," ","1","+10","[2358.0999999940395]","1","2","","","18244","31","1","1","win","go","0"
"pit-trial","150","1088619","0.0-36.0","battery-v0.2","","""event"",""trial"",""time""
""fullscreenenter"",""1"",""2744""
","
","
","""event"",""trial"",""time""
""fullscreenenter"",""1"",""2744""
","
","","","956.7999999970198","","","15","18244","6938","t","elianto","#f73b6a7A","-1"," ","0","0","[1807.6000000089407]","1","2","","","18244","32","2","4","lose","no-go","1"
"pit-trial","151","1092501","0.0-37.0","battery-v0.2","","""event"",""trial"",""time""
""fullscreenenter"",""1"",""2744""
","
","
","""event"",""trial"",""time""
""fullscreenenter"",""1"",""2744""
","
","","","1023.0999999940395","","","15","18244","6938","f","elianto","#3366ff99"," "," ","1","+10","[1873.7999999970198]","1","2","","","18244","33","1","1","win","go","0"
"pit-trial","152","1097369","0.0-38.0","battery-v0.2","","""event"",""trial"",""time""
""fullscreenenter"",""1"",""2744""
","
","
","""event"",""trial"",""time""
""fullscreenenter"",""1"",""2744""
","
","","","-1","","","15","18244","6938","n","elianto","#f73b6a7A","-1","-1","1","0","[]","0","2","","","18244","34","0","4","lose","no-go","0"
"pit-trial","153","1101389","0.0-39.0","battery-v0.2","","""event"",""trial"",""time""
""fullscreenenter"",""1"",""2744""
","
","
","""event"",""trial"",""time""
""fullscreenenter"",""1"",""2744""
","
","","","1160.9000000059605","","","15","18244","6938","b","elianto","#f73b6a7A"," "," ","1","0","[2011.7000000029802]","1","2","","","18244","35","3","3","lose","go","0"
"pit-trial","154","1105084","0.0-40.0","battery-v0.2","","""event"",""trial"",""time""
""fullscreenenter"",""1"",""2744""
","
","
","""event"",""trial"",""time""
""fullscreenenter"",""1"",""2744""
","
","","","831.5","","","15","18244","6938","t","elianto","#f73b6a7A","-1"," ","0","-10","[1681.7999999970198]","1","2","","","18244","36","2","4","lose","no-go","0"
"pit-trial","155","1108739","0.0-41.0","battery-v0.2","","""event"",""trial"",""time""
""fullscreenenter"",""1"",""2744""
","
","
","""event"",""trial"",""time""
""fullscreenenter"",""1"",""2744""
","
","","","794.0999999940395","","","15","18244","6938","b","elianto","#f73b6a7A"," "," ","1","0","[1645]","1","2","","","18244","37","3","3","lose","go","0"
"pit-trial","156","1113605","0.0-42.0","battery-v0.2","","""event"",""trial"",""time""
""fullscreenenter"",""1"",""2744""
","
","
","""event"",""trial"",""time""
""fullscreenenter"",""1"",""2744""
","
","","","-1","","","15","18244","6938","t","elianto","#f73b6a7A","-1","-1","1","0","[]","0","2","","","18244","38","2","4","lose","no-go","0"
"pit-trial","157","1118473","0.0-43.0","battery-v0.2","","""event"",""trial"",""time""
""fullscreenenter"",""1"",""2744""
","
","
","""event"",""trial"",""time""
""fullscreenenter"",""1"",""2744""
","
","","","-1","","","15","18244","6938","n","elianto","#f73b6a7A","-1","-1","1","0","[]","0","2","","","18244","39","0","4","lose","no-go","0"
"pit-trial","158","1121974","0.0-44.0","battery-v0.2","","""event"",""trial"",""time""
""fullscreenenter"",""1"",""2744""
","
","
","""event"",""trial"",""time""
""fullscreenenter"",""1"",""2744""
","
","","","639.2999999970198","","","15","18244","6938","f","elianto","#3366ff99"," "," ","1","0","[1494.5999999940395]","1","2","","","18244","40","1","1","win","go","1"
"pit-trial","159","1125843","0.0-45.0","battery-v0.2","","""event"",""trial"",""time""
""fullscreenenter"",""1"",""2744""
","
","
","""event"",""trial"",""time""
""fullscreenenter"",""1"",""2744""
","
","","","1012.7000000029802","","","15","18244","6938","f","elianto","#3366ff99"," "," ","1","0","[1866]","1","2","","","18244","41","1","1","win","go","1"
"pit-trial","160","1129239","0.0-46.0","battery-v0.2","","""event"",""trial"",""time""
""fullscreenenter"",""1"",""2744""
","
","
","""event"",""trial"",""time""
""fullscreenenter"",""1"",""2744""
","
","","","536.5999999940395","","","15","18244","6938","b","elianto","#f73b6a7A"," "," ","1","0","[1388.5]","1","2","","","18244","42","3","3","lose","go","0"
"pit-trial","161","1134117","0.0-47.0","battery-v0.2","","""event"",""trial"",""time""
""fullscreenenter"",""1"",""2744""
","
","
","""event"",""trial"",""time""
""fullscreenenter"",""1"",""2744""
","
","","","-1","","","15","18244","6938","n","elianto","#f73b6a7A","-1","-1","1","0","[]","0","2","","","18244","43","0","4","lose","no-go","0"
"pit-trial","162","1137456","0.0-48.0","battery-v0.2","","""event"",""trial"",""time""
""fullscreenenter"",""1"",""2744""
","
","
","""event"",""trial"",""time""
""fullscreenenter"",""1"",""2744""
","
","","","479.79999999701977","","","15","18244","6938","t","elianto","#f73b6a7A","-1"," ","0","0","[1330.300000011921]","1","2","","","18244","44","2","4","lose","no-go","1"
"pit-trial","163","1142313","0.0-49.0","battery-v0.2","","""event"",""trial"",""time""
""fullscreenenter"",""1"",""2744""
","
","
","""event"",""trial"",""time""
""fullscreenenter"",""1"",""2744""
","
","","","-1","","","15","18244","6938","n","elianto","#f73b6a7A","-1","-1","1","-10","[]","0","2","","","18244","45","0","4","lose","no-go","1"
"pit-trial","164","1146269","0.0-50.0","battery-v0.2","","""event"",""trial"",""time""
""fullscreenenter"",""1"",""2744""
","
","
","""event"",""trial"",""time""
""fullscreenenter"",""1"",""2744""
","
","","","1100.0999999940395","","","15","18244","6938","c","elianto","#3366ff99","-1"," ","0","0","[1950.4000000059605]","1","2","","","18244","46","4","2","win","no-go","0"
"pit-trial","165","1151136","0.0-51.0","battery-v0.2","","""event"",""trial"",""time""
""fullscreenenter"",""1"",""2744""
","
","
","""event"",""trial"",""time""
""fullscreenenter"",""1"",""2744""
","
","","","-1","","","15","18244","6938","t","elianto","#f73b6a7A","-1","-1","1","0","[]","0","2","","","18244","47","2","4","lose","no-go","0"
"pit-trial","166","1154939","0.0-52.0","battery-v0.2","","""event"",""trial"",""time""
""fullscreenenter"",""1"",""2744""
","
","
","""event"",""trial"",""time""
""fullscreenenter"",""1"",""2744""
","
","","","943.1999999880791","","","15","18244","6938","b","elianto","#f73b6a7A"," "," ","1","0","[1793.2999999970198]","1","2","","","18244","48","3","3","lose","go","0"
"pit-trial","167","1159823","0.0-53.0","battery-v0.2","","""event"",""trial"",""time""
""fullscreenenter"",""1"",""2744""
","
","
","""event"",""trial"",""time""
""fullscreenenter"",""1"",""2744""
","
","","","-1","","","15","18244","6938","c","elianto","#3366ff99","-1","-1","1","+10","[]","0","2","","","18244","49","4","2","win","no-go","0"
"pit-trial","168","1164710","0.0-54.0","battery-v0.2","","""event"",""trial"",""time""
""fullscreenenter"",""1"",""2744""
","
","
","""event"",""trial"",""time""
""fullscreenenter"",""1"",""2744""
","
","","","-1","","","15","18244","6938","n","elianto","#f73b6a7A","-1","-1","1","0","[]","0","2","","","18244","50","0","4","lose","no-go","0"
"pit-trial","169","1168185","0.0-55.0","battery-v0.2","","""event"",""trial"",""time""
""fullscreenenter"",""1"",""2744""
","
","
","""event"",""trial"",""time""
""fullscreenenter"",""1"",""2744""
","
","","","607.9000000059605","","","15","18244","6938","b","elianto","#f73b6a7A"," "," ","1","0","[1459.7000000029802]","1","2","","","18244","51","3","3","lose","go","0"
"pit-trial","170","1173060","0.0-56.0","battery-v0.2","","""event"",""trial"",""time""
""fullscreenenter"",""1"",""2744""
","
","
","""event"",""trial"",""time""
""fullscreenenter"",""1"",""2744""
","
","","","-1","","","15","18244","6938","f","elianto","#3366ff99"," ","-1","0","0","[]","0","2","","","18244","52","1","1","win","go","0"
"pit-trial","171","1176993","0.0-57.0","battery-v0.2","","""event"",""trial"",""time""
""fullscreenenter"",""1"",""2744""
","
","
","""event"",""trial"",""time""
""fullscreenenter"",""1"",""2744""
","
","","","1075.8999999910593","","","15","18244","6938","c","elianto","#3366ff99","-1"," ","0","0","[1926]","1","2","","","18244","53","4","2","win","no-go","0"
"pit-trial","172","1180812","0.0-58.0","battery-v0.2","","""event"",""trial"",""time""
""fullscreenenter"",""1"",""2744""
","
","
","""event"",""trial"",""time""
""fullscreenenter"",""1"",""2744""
","
","","","956.8000000119209","","","15","18244","6938","f","elianto","#3366ff99"," "," ","1","0","[1809.1000000089407,1888.4000000059605]","2","2","","","18244","54","1","1","win","go","1"
"pit-trial","173","1185679","0.0-59.0","battery-v0.2","","""event"",""trial"",""time""
""fullscreenenter"",""1"",""2744""
","
","
","""event"",""trial"",""time""
""fullscreenenter"",""1"",""2744""
","
","","","-1","","","15","18244","6938","t","elianto","#f73b6a7A","-1","-1","1","0","[]","0","2","","","18244","55","2","4","lose","no-go","0"
"pit-trial","174","1190544","0.0-60.0","battery-v0.2","","""event"",""trial"",""time""
""fullscreenenter"",""1"",""2744""
","
","
","""event"",""trial"",""time""
""fullscreenenter"",""1"",""2744""
","
","","","-1","","","15","18244","6938","n","elianto","#f73b6a7A","-1","-1","1","-10","[]","0","2","","","18244","56","0","4","lose","no-go","1"
"pit-trial","175","1195407","0.0-61.0","battery-v0.2","","""event"",""trial"",""time""
""fullscreenenter"",""1"",""2744""
","
","
","""event"",""trial"",""time""
""fullscreenenter"",""1"",""2744""
","
","","","-1","","","15","18244","6938","n","elianto","#f73b6a7A","-1","-1","1","0","[]","0","2","","","18244","57","0","4","lose","no-go","0"
"pit-trial","176","1199208","0.0-62.0","battery-v0.2","","""event"",""trial"",""time""
""fullscreenenter"",""1"",""2744""
","
","
","""event"",""trial"",""time""
""fullscreenenter"",""1"",""2744""
","
","","","936.7999999970198","","","15","18244","6938","c","elianto","#3366ff99","-1"," ","0","0","[1787.1000000089407]","1","2","","","18244","58","4","2","win","no-go","0"
"pit-trial","177","1202826","0.0-63.0","battery-v0.2","","""event"",""trial"",""time""
""fullscreenenter"",""1"",""2744""
","
","
","""event"",""trial"",""time""
""fullscreenenter"",""1"",""2744""
","
","","","758.2999999970198","","","15","18244","6938","b","elianto","#f73b6a7A"," "," ","1","-10","[1610.2000000029802]","1","2","","","18244","59","3","3","lose","go","1"
"pit-trial","178","1206532","0.0-64.0","battery-v0.2","","""event"",""trial"",""time""
""fullscreenenter"",""1"",""2744""
","
","
","""event"",""trial"",""time""
""fullscreenenter"",""1"",""2744""
","
","","","845.2000000029802","","","15","18244","6938","f","elianto","#3366ff99"," "," ","1","0","[1696.4000000059605]","1","2","","","18244","60","1","1","win","go","1"
"pit-trial","179","1211406","0.0-65.0","battery-v0.2","","""event"",""trial"",""time""
""fullscreenenter"",""1"",""2744""
","
","
","""event"",""trial"",""time""
""fullscreenenter"",""1"",""2744""
","
","","","-1","","","15","18244","6938","c","elianto","#3366ff99","-1","-1","1","+10","[]","0","2","","","18244","61","4","2","win","no-go","0"
"pit-trial","180","1216262","0.0-66.0","battery-v0.2","","""event"",""trial"",""time""
""fullscreenenter"",""1"",""2744""
","
","
","""event"",""trial"",""time""
""fullscreenenter"",""1"",""2744""
","
","","","-1","","","15","18244","6938","t","elianto","#f73b6a7A","-1","-1","1","0","[]","0","2","","","18244","62","2","4","lose","no-go","0"
"pit-trial","181","1220210","0.0-67.0","battery-v0.2","","""event"",""trial"",""time""
""fullscreenenter"",""1"",""2744""
","
","
","""event"",""trial"",""time""
""fullscreenenter"",""1"",""2744""
","
","","","1089.4000000059605","","","15","18244","6938","f","elianto","#3366ff99"," "," ","1","+10","[1939.5]","1","2","","","18244","63","1","1","win","go","0"
"pit-trial","182","1224313","0.0-68.0","battery-v0.2","","""event"",""trial"",""time""
""fullscreenenter"",""1"",""2744""
","
","
","""event"",""trial"",""time""
""fullscreenenter"",""1"",""2744""
","
","","","1237.2999999970198","","","15","18244","6938","b","elianto","#f73b6a7A"," "," ","1","0","[2088.1000000089407]","1","2","","","18244","64","3","3","lose","go","0"
"pit-trial","183","1228330","0.0-69.0","battery-v0.2","","""event"",""trial"",""time""
""fullscreenenter"",""1"",""2744""
","
","
","""event"",""trial"",""time""
""fullscreenenter"",""1"",""2744""
","
","","","1153","","","15","18244","6938","b","elianto","#f73b6a7A"," "," ","1","0","[2005.199999988079]","1","2","","","18244","65","3","3","lose","go","0"
"pit-trial","184","1233200","0.0-70.0","battery-v0.2","","""event"",""trial"",""time""
""fullscreenenter"",""1"",""2744""
","
","
","""event"",""trial"",""time""
""fullscreenenter"",""1"",""2744""
","
","","","-1","","","15","18244","6938","t","elianto","#f73b6a7A","-1","-1","1","0","[]","0","2","","","18244","66","2","4","lose","no-go","0"
"pit-trial","185","1238077","0.0-71.0","battery-v0.2","","""event"",""trial"",""time""
""fullscreenenter"",""1"",""2744""
","
","
","""event"",""trial"",""time""
""fullscreenenter"",""1"",""2744""
","
","","","-1","","","15","18244","6938","c","elianto","#3366ff99","-1","-1","1","+10","[]","0","2","","","18244","67","4","2","win","no-go","0"
"pit-trial","186","1241879","0.0-72.0","battery-v0.2","","""event"",""trial"",""time""
""fullscreenenter"",""1"",""2744""
","
","
","""event"",""trial"",""time""
""fullscreenenter"",""1"",""2744""
","
","","","929.4000000059605","","","15","18244","6938","f","elianto","#3366ff99"," "," ","1","+10","[1783.7999999970198]","1","2","","","18244","68","1","1","win","go","0"
"pit-trial","187","1246756","0.0-73.0","battery-v0.2","","""event"",""trial"",""time""
""fullscreenenter"",""1"",""2744""
","
","
","""event"",""trial"",""time""
""fullscreenenter"",""1"",""2744""
","
","","","-1","","","15","18244","6938","c","elianto","#3366ff99","-1","-1","1","+10","[]","0","2","","","18244","69","4","2","win","no-go","0"
"pit-trial","188","1250618","0.0-74.0","battery-v0.2","","""event"",""trial"",""time""
""fullscreenenter"",""1"",""2744""
","
","
","""event"",""trial"",""time""
""fullscreenenter"",""1"",""2744""
","
","","","1005.7999999970198","","","15","18244","6938","b","elianto","#f73b6a7A"," "," ","1","0","[1856.7999999970198]","1","2","","","18244","70","3","3","lose","go","0"
"pit-trial","189","1254784","0.0-75.0","battery-v0.2","","""event"",""trial"",""time""
""fullscreenenter"",""1"",""2744""
","
","
","""event"",""trial"",""time""
""fullscreenenter"",""1"",""2744""
","
","","","1309.5999999940395","","","15","18244","6938","f","elianto","#3366ff99"," "," ","1","+10","[2162.2000000029802]","1","2","","","18244","71","1","1","win","go","0"
"pit-trial","190","1258911","0.0-76.0","battery-v0.2","","""event"",""trial"",""time""
""fullscreenenter"",""1"",""2744""
","
","
","""event"",""trial"",""time""
""fullscreenenter"",""1"",""2744""
","
","","","1264.5","","","15","18244","6938","z","elianto","#3366ff99"," "," ","1","+10","[2115.3999999910593]","1","2","","","18244","72","5","1","win","go","0"
"pit-trial","191","1262690","0.0-77.0","battery-v0.2","","""event"",""trial"",""time""
""fullscreenenter"",""1"",""2744""
","
","
","""event"",""trial"",""time""
""fullscreenenter"",""1"",""2744""
","
","","","914.7000000029802","","","15","18244","6938","b","elianto","#f73b6a7A"," "," ","1","0","[1773.2999999970198]","1","2","","","18244","73","3","3","lose","go","0"
"pit-trial","192","1267559","0.0-78.0","battery-v0.2","","""event"",""trial"",""time""
""fullscreenenter"",""1"",""2744""
","
","
","""event"",""trial"",""time""
""fullscreenenter"",""1"",""2744""
","
","","","-1","","","15","18244","6938","c","elianto","#3366ff99","-1","-1","1","+10","[]","0","2","","","18244","74","4","2","win","no-go","0"
"pit-trial","193","1271926","0.0-79.0","battery-v0.2","","""event"",""trial"",""time""
""fullscreenenter"",""1"",""2744""
","
","
","""event"",""trial"",""time""
""fullscreenenter"",""1"",""2744""
","
","","","1507.1000000089407","","","15","18244","6938","z","elianto","#3366ff99"," "," ","1","+10","[2360.1000000089407]","1","2","","","18244","75","5","1","win","go","0"
"pit-trial","194","1275744","0.0-80.0","battery-v0.2","","""event"",""trial"",""time""
""fullscreenenter"",""1"",""2744""
","
","
","""event"",""trial"",""time""
""fullscreenenter"",""1"",""2744""
","
","","","949.7000000029802","","","15","18244","6938","f","elianto","#3366ff99"," "," ","1","0","[1808.1000000089407]","1","2","","","18244","76","1","1","win","go","1"
"pit-trial","195","1279347","0.0-81.0","battery-v0.2","","""event"",""trial"",""time""
""fullscreenenter"",""1"",""2744""
","
","
","""event"",""trial"",""time""
""fullscreenenter"",""1"",""2744""
","
","","","734","","","15","18244","6938","z","elianto","#3366ff99"," "," ","1","+10","[1589.2000000029802]","1","2","","","18244","77","5","1","win","go","0"
"pit-trial","196","1284213","0.0-82.0","battery-v0.2","","""event"",""trial"",""time""
""fullscreenenter"",""1"",""2744""
","
","
","""event"",""trial"",""time""
""fullscreenenter"",""1"",""2744""
","
","","","-1","","","15","18244","6938","c","elianto","#3366ff99","-1","-1","1","+10","[]","0","2","","","18244","78","4","2","win","no-go","0"
"pit-trial","197","1288259","0.0-83.0","battery-v0.2","","""event"",""trial"",""time""
""fullscreenenter"",""1"",""2744""
","
","
","""event"",""trial"",""time""
""fullscreenenter"",""1"",""2744""
","
","","","1167.6000000089407","","","15","18244","6938","h","elianto","#f73b6a7A","-1"," ","0","-10","[2024.800000011921]","1","2","","","18244","79","6","4","lose","no-go","0"
"pit-trial","198","1292008","0.0-84.0","battery-v0.2","","""event"",""trial"",""time""
""fullscreenenter"",""1"",""2744""
","
","
","""event"",""trial"",""time""
""fullscreenenter"",""1"",""2744""
","
","","","883.5999999940395","","","15","18244","6938","b","elianto","#f73b6a7A"," "," ","1","-10","[1735.1000000089407]","1","2","","","18244","80","3","3","lose","go","1"
"pit-trial","199","1296884","0.0-85.0","battery-v0.2","","""event"",""trial"",""time""
""fullscreenenter"",""1"",""2744""
","
","
","""event"",""trial"",""time""
""fullscreenenter"",""1"",""2744""
","
","","","-1","","","15","18244","6938","c","elianto","#3366ff99","-1","-1","1","0","[]","0","2","","","18244","81","4","2","win","no-go","1"
"pit-trial","200","1301748","0.0-86.0","battery-v0.2","","""event"",""trial"",""time""
""fullscreenenter"",""1"",""2744""
","
","
","""event"",""trial"",""time""
""fullscreenenter"",""1"",""2744""
","
","","","-1","","","15","18244","6938","h","elianto","#f73b6a7A","-1","-1","1","0","[]","0","2","","","18244","82","6","4","lose","no-go","0"
"pit-trial","201","1306039","0.0-87.0","battery-v0.2","","""event"",""trial"",""time""
""fullscreenenter"",""1"",""2744""
","
","
","""event"",""trial"",""time""
""fullscreenenter"",""1"",""2744""
","
","","","1433","","","15","18244","6938","y","elianto","#f73b6a7A"," "," ","1","0","[2283.2000000029802]","1","2","","","18244","83","7","3","lose","go","0"
"pit-trial","202","1309864","0.0-88.0","battery-v0.2","","""event"",""trial"",""time""
""fullscreenenter"",""1"",""2744""
","
","
","""event"",""trial"",""time""
""fullscreenenter"",""1"",""2744""
","
","","","955","","","15","18244","6938","z","elianto","#3366ff99"," "," ","1","0","[1808.7999999970198]","1","2","","","18244","84","5","1","win","go","1"
"pit-trial","203","1314729","0.0-89.0","battery-v0.2","","""event"",""trial"",""time""
""fullscreenenter"",""1"",""2744""
","
","
","""event"",""trial"",""time""
""fullscreenenter"",""1"",""2744""
","
","","","-1","","","15","18244","6938","c","elianto","#3366ff99","-1","-1","1","0","[]","0","2","","","18244","85","4","2","win","no-go","1"
"pit-trial","204","1319609","0.0-90.0","battery-v0.2","","""event"",""trial"",""time""
""fullscreenenter"",""1"",""2744""
","
","
","""event"",""trial"",""time""
""fullscreenenter"",""1"",""2744""
","
","","","-1","","","15","18244","6938","y","elianto","#f73b6a7A"," ","-1","0","-10","[]","0","2","","","18244","86","7","3","lose","go","0"
"pit-trial","205","1324477","0.0-91.0","battery-v0.2","","""event"",""trial"",""time""
""fullscreenenter"",""1"",""2744""
","
","
","""event"",""trial"",""time""
""fullscreenenter"",""1"",""2744""
","
","","","-1","","","15","18244","6938","h","elianto","#f73b6a7A","-1","-1","1","0","[]","0","2","","","18244","87","6","4","lose","no-go","0"
"pit-trial","206","1329132","0.0-92.0","battery-v0.2","","""event"",""trial"",""time""
""fullscreenenter"",""1"",""2744""
","
","
","""event"",""trial"",""time""
""fullscreenenter"",""1"",""2744""
","
","","","1797.300000011921","","","15","18244","6938","z","elianto","#3366ff99"," "," ","1","+10","[2651.3999999910593]","1","2","","","18244","88","5","1","win","go","0"
"pit-trial","207","1333467","0.0-93.0","battery-v0.2","","""event"",""trial"",""time""
""fullscreenenter"",""1"",""2744""
","
","
","""event"",""trial"",""time""
""fullscreenenter"",""1"",""2744""
","
","","","1481.1000000089407","","","15","18244","6938","y","elianto","#f73b6a7A"," "," ","1","0","[2331.7999999970198]","1","2","","","18244","89","7","3","lose","go","0"
"pit-trial","208","1338327","0.0-94.0","battery-v0.2","","""event"",""trial"",""time""
""fullscreenenter"",""1"",""2744""
","
","
","""event"",""trial"",""time""
""fullscreenenter"",""1"",""2744""
","
","","","-1","","","15","18244","6938","c","elianto","#3366ff99","-1","-1","1","+10","[]","0","2","","","18244","90","4","2","win","no-go","0"
"pit-trial","209","1342243","0.0-95.0","battery-v0.2","","""event"",""trial"",""time""
""fullscreenenter"",""1"",""2744""
","
","
","""event"",""trial"",""time""
""fullscreenenter"",""1"",""2744""
","
","","","1058.7000000029802","","","15","18244","6938","z","elianto","#3366ff99"," "," ","1","+10","[1912.7000000029802]","1","2","","","18244","91","5","1","win","go","0"
"pit-trial","210","1347115","0.0-96.0","battery-v0.2","","""event"",""trial"",""time""
""fullscreenenter"",""1"",""2744""
","
","
","""event"",""trial"",""time""
""fullscreenenter"",""1"",""2744""
","
","","","-1","","","15","18244","6938","h","elianto","#f73b6a7A","-1","-1","1","0","[]","0","2","","","18244","92","6","4","lose","no-go","0"
"pit-trial","211","1350935","0.0-97.0","battery-v0.2","","""event"",""trial"",""time""
""fullscreenenter"",""1"",""2744""
","
","
","""event"",""trial"",""time""
""fullscreenenter"",""1"",""2744""
","
","","","952","","","15","18244","6938","z","elianto","#3366ff99"," "," ","1","+10","[1806.9000000059605]","1","2","","","18244","93","5","1","win","go","0"
"pit-trial","212","1355157","0.0-98.0","battery-v0.2","","""event"",""trial"",""time""
""fullscreenenter"",""1"",""2744""
","
","
","""event"",""trial"",""time""
""fullscreenenter"",""1"",""2744""
","
","","","1362.7999999970198","","","15","18244","6938","r","elianto","#3366ff99","-1"," ","0","0","[2218.9000000059605]","1","2","","","18244","94","8","2","win","no-go","0"
"pit-trial","213","1360020","0.0-99.0","battery-v0.2","","""event"",""trial"",""time""
""fullscreenenter"",""1"",""2744""
","
","
","""event"",""trial"",""time""
""fullscreenenter"",""1"",""2744""
","
","","","-1","","","15","18244","6938","y","elianto","#f73b6a7A"," ","-1","0","-10","[]","0","2","","","18244","95","7","3","lose","go","0"
"pit-trial","214","1364895","0.0-100.0","battery-v0.2","","""event"",""trial"",""time""
""fullscreenenter"",""1"",""2744""
","
","
","""event"",""trial"",""time""
""fullscreenenter"",""1"",""2744""
","
","","","-1","","","15","18244","6938","h","elianto","#f73b6a7A","-1","-1","1","0","[]","0","2","","","18244","96","6","4","lose","no-go","0"
"pit-trial","215","1368669","0.0-101.0","battery-v0.2","","""event"",""trial"",""time""
""fullscreenenter"",""1"",""2744""
","
","
","""event"",""trial"",""time""
""fullscreenenter"",""1"",""2744""
","
","","","899.7000000029802","","","15","18244","6938","y","elianto","#f73b6a7A"," "," ","1","0","[1760.6000000089407]","1","2","","","18244","97","7","3","lose","go","0"
"pit-trial","216","1373536","0.0-102.0","battery-v0.2","","""event"",""trial"",""time""
""fullscreenenter"",""1"",""2744""
","
","
","""event"",""trial"",""time""
""fullscreenenter"",""1"",""2744""
","
","","","-1","","","15","18244","6938","h","elianto","#f73b6a7A","-1","-1","1","-10","[]","0","2","","","18244","98","6","4","lose","no-go","1"
"pit-trial","217","1377453","0.0-103.0","battery-v0.2","","""event"",""trial"",""time""
""fullscreenenter"",""1"",""2744""
","
","
","""event"",""trial"",""time""
""fullscreenenter"",""1"",""2744""
","
","","","1063.1000000089407","","","15","18244","6938","z","elianto","#3366ff99"," "," ","1","+10","[1913.2000000029802]","1","2","","","18244","99","5","1","win","go","0"
"pit-trial","218","1382334","0.0-104.0","battery-v0.2","","""event"",""trial"",""time""
""fullscreenenter"",""1"",""2744""
","
","
","""event"",""trial"",""time""
""fullscreenenter"",""1"",""2744""
","
","","","-1","","","15","18244","6938","r","elianto","#3366ff99","-1","-1","1","+10","[]","0","2","","","18244","100","8","2","win","no-go","0"
"pit-trial","219","1387211","0.0-105.0","battery-v0.2","","""event"",""trial"",""time""
""fullscreenenter"",""1"",""2744""
","
","
","""event"",""trial"",""time""
""fullscreenenter"",""1"",""2744""
","
","","","-1","","","15","18244","6938","h","elianto","#f73b6a7A","-1","-1","1","0","[]","0","2","","","18244","101","6","4","lose","no-go","0"
"pit-trial","220","1392070","0.0-106.0","battery-v0.2","","""event"",""trial"",""time""
""fullscreenenter"",""1"",""2744""
","
","
","""event"",""trial"",""time""
""fullscreenenter"",""1"",""2744""
","
","","","-1","","","15","18244","6938","m","elianto","#3366ff99","-1","-1","1","0","[]","0","2","","","18244","102","9","2","win","no-go","1"
"pit-trial","221","1396941","0.0-107.0","battery-v0.2","","""event"",""trial"",""time""
""fullscreenenter"",""1"",""2744""
","
","
","""event"",""trial"",""time""
""fullscreenenter"",""1"",""2744""
","
","","","-1","","","15","18244","6938","r","elianto","#3366ff99","-1","-1","1","0","[]","0","2","","","18244","103","8","2","win","no-go","1"
"pit-trial","222","1400677","0.0-108.0","battery-v0.2","","""event"",""trial"",""time""
""fullscreenenter"",""1"",""2744""
","
","
","""event"",""trial"",""time""
""fullscreenenter"",""1"",""2744""
","
","","","881.2000000029802","","","15","18244","6938","z","elianto","#3366ff99"," "," ","1","+10","[1732.4000000059605]","1","2","","","18244","104","5","1","win","go","0"
"pit-trial","223","1404399","0.0-109.0","battery-v0.2","","""event"",""trial"",""time""
""fullscreenenter"",""1"",""2744""
","
","
","""event"",""trial"",""time""
""fullscreenenter"",""1"",""2744""
","
","","","853.7000000029802","","","15","18244","6938","m","elianto","#3366ff99","-1"," ","0","0","[1715.2999999970198]","1","2","","","18244","105","9","2","win","no-go","0"
"pit-trial","224","1409272","0.0-110.0","battery-v0.2","","""event"",""trial"",""time""
""fullscreenenter"",""1"",""2744""
","
","
","""event"",""trial"",""time""
""fullscreenenter"",""1"",""2744""
","
","","","-1","","","15","18244","6938","h","elianto","#f73b6a7A","-1","-1","1","-10","[]","0","2","","","18244","106","6","4","lose","no-go","1"
"pit-trial","225","1413104","0.0-111.0","battery-v0.2","","""event"",""trial"",""time""
""fullscreenenter"",""1"",""2744""
","
","
","""event"",""trial"",""time""
""fullscreenenter"",""1"",""2744""
","
","","","966.3999999910593","","","15","18244","6938","z","elianto","#3366ff99"," "," ","1","+10","[1821.4000000059605]","1","2","","","18244","107","5","1","win","go","0"
"pit-trial","226","1417649","0.0-112.0","battery-v0.2","","""event"",""trial"",""time""
""fullscreenenter"",""1"",""2744""
","
","
","""event"",""trial"",""time""
""fullscreenenter"",""1"",""2744""
","
","","","1682.8999999910593","","","15","18244","6938","r","elianto","#3366ff99","-1"," ","0","+10","[2540.7000000029802]","1","2","","","18244","108","8","2","win","no-go","1"
"pit-trial","227","1421511","0.0-113.0","battery-v0.2","","""event"",""trial"",""time""
""fullscreenenter"",""1"",""2744""
","
","
","""event"",""trial"",""time""
""fullscreenenter"",""1"",""2744""
","
","","","998.2999999970198","","","15","18244","6938","z","elianto","#3366ff99"," "," ","1","+10","[1851.2000000029802]","1","2","","","18244","109","5","1","win","go","0"
"pit-trial","228","1425059","0.0-114.0","battery-v0.2","","""event"",""trial"",""time""
""fullscreenenter"",""1"",""2744""
","
","
","""event"",""trial"",""time""
""fullscreenenter"",""1"",""2744""
","
","","","688.4000000059605","","","15","18244","6938","m","elianto","#3366ff99","-1"," ","0","0","[1541.3999999910593]","1","2","","","18244","110","9","2","win","no-go","0"
"pit-trial","229","1429732","0.0-115.0","battery-v0.2","","""event"",""trial"",""time""
""fullscreenenter"",""1"",""2744""
","
","
","""event"",""trial"",""time""
""fullscreenenter"",""1"",""2744""
","
","","","1813.2999999970198","","","15","18244","6938","r","elianto","#3366ff99","-1"," ","0","0","[2666]","1","2","","","18244","111","8","2","win","no-go","0"
"pit-trial","230","1434593","0.0-116.0","battery-v0.2","","""event"",""trial"",""time""
""fullscreenenter"",""1"",""2744""
","
","
","""event"",""trial"",""time""
""fullscreenenter"",""1"",""2744""
","
","","","-1","","","15","18244","6938","h","elianto","#f73b6a7A","-1","-1","1","0","[]","0","2","","","18244","112","6","4","lose","no-go","0"
"pit-trial","231","1438888","0.0-117.0","battery-v0.2","","""event"",""trial"",""time""
""fullscreenenter"",""1"",""2744""
","
","
","""event"",""trial"",""time""
""fullscreenenter"",""1"",""2744""
","
","","","1432","","","15","18244","6938","y","elianto","#f73b6a7A"," "," ","1","0","[2291.0999999940395]","1","2","","","18244","113","7","3","lose","go","0"
"pit-trial","232","1443033","0.0-118.0","battery-v0.2","","""event"",""trial"",""time""
""fullscreenenter"",""1"",""2744""
","
","
","""event"",""trial"",""time""
""fullscreenenter"",""1"",""2744""
","
","","","1280.7000000029802","","","15","18244","6938","r","elianto","#3366ff99","-1"," ","0","0","[2131.9000000059605]","1","2","","","18244","114","8","2","win","no-go","0"
"pit-trial","233","1447256","0.0-119.0","battery-v0.2","","""event"",""trial"",""time""
""fullscreenenter"",""1"",""2744""
","
","
","""event"",""trial"",""time""
""fullscreenenter"",""1"",""2744""
","
","","","1368.5","","","15","18244","6938","m","elianto","#3366ff99","-1"," ","0","0","[2220.3999999910593]","1","2","","","18244","115","9","2","win","no-go","0"
"pit-trial","234","1450963","0.0-120.0","battery-v0.2","","""event"",""trial"",""time""
""fullscreenenter"",""1"",""2744""
","
","
","""event"",""trial"",""time""
""fullscreenenter"",""1"",""2744""
","
","","","843.4000000059605","","","15","18244","6938","z","elianto","#3366ff99"," "," ","1","0","[1700.8999999910593]","1","2","","","18244","116","5","1","win","go","1"
"pit-trial","235","1455829","0.0-121.0","battery-v0.2","","""event"",""trial"",""time""
""fullscreenenter"",""1"",""2744""
","
","
","""event"",""trial"",""time""
""fullscreenenter"",""1"",""2744""
","
","","","-1","","","15","18244","6938","m","elianto","#3366ff99","-1","-1","1","0","[]","0","2","","","18244","117","9","2","win","no-go","1"
"pit-trial","236","1459728","0.0-122.0","battery-v0.2","","""event"",""trial"",""time""
""fullscreenenter"",""1"",""2744""
","
","
","""event"",""trial"",""time""
""fullscreenenter"",""1"",""2744""
","
","","","1023.5","","","15","18244","6938","z","elianto","#3366ff99"," "," ","1","0","[1879.300000011921]","1","2","","","18244","118","5","1","win","go","1"
"pit-trial","237","1463676","0.0-123.0","battery-v0.2","","""event"",""trial"",""time""
""fullscreenenter"",""1"",""2744""
","
","
","""event"",""trial"",""time""
""fullscreenenter"",""1"",""2744""
","
","","","1087.6000000089407","","","15","18244","6938","r","elianto","#3366ff99","-1"," ","0","0","[1941.199999988079]","1","2","","","18244","119","8","2","win","no-go","0"
"pit-trial","238","1468555","0.0-124.0","battery-v0.2","","""event"",""trial"",""time""
""fullscreenenter"",""1"",""2744""
","
","
","""event"",""trial"",""time""
""fullscreenenter"",""1"",""2744""
","
","","","-1","","","15","18244","6938","h","elianto","#f73b6a7A","-1","-1","1","0","[]","0","2","","","18244","120","6","4","lose","no-go","0"
"pit-trial","239","1472870","0.0-125.0","battery-v0.2","","""event"",""trial"",""time""
""fullscreenenter"",""1"",""2744""
","
","
","""event"",""trial"",""time""
""fullscreenenter"",""1"",""2744""
","
","","","1452.0999999940395","","","15","18244","6938","y","elianto","#f73b6a7A"," "," ","1","0","[2304.199999988079]","1","2","","","18244","121","7","3","lose","go","0"
"pit-trial","240","1477740","0.0-126.0","battery-v0.2","","""event"",""trial"",""time""
""fullscreenenter"",""1"",""2744""
","
","
","""event"",""trial"",""time""
""fullscreenenter"",""1"",""2744""
","
","","","-1","","","15","18244","6938","m","elianto","#3366ff99","-1","-1","1","+10","[]","0","2","","","18244","122","9","2","win","no-go","0"
"pit-trial","241","1482138","0.0-127.0","battery-v0.2","","""event"",""trial"",""time""
""fullscreenenter"",""1"",""2744""
","
","
","""event"",""trial"",""time""
""fullscreenenter"",""1"",""2744""
","
","","","1534","","","15","18244","6938","r","elianto","#3366ff99","-1"," ","0","0","[2384.2999999970198]","1","2","","","18244","123","8","2","win","no-go","0"
"pit-trial","242","1485949","0.0-128.0","battery-v0.2","","""event"",""trial"",""time""
""fullscreenenter"",""1"",""2744""
","
","
","""event"",""trial"",""time""
""fullscreenenter"",""1"",""2744""
","
","","","943.7999999970198","","","15","18244","6938","z","elianto","#3366ff99"," "," ","1","+10","[1795.2999999970198]","1","2","","","18244","124","5","1","win","go","0"
"pit-trial","243","1490810","0.0-129.0","battery-v0.2","","""event"",""trial"",""time""
""fullscreenenter"",""1"",""2744""
","
","
","""event"",""trial"",""time""
""fullscreenenter"",""1"",""2744""
","
","","","-1","","","15","18244","6938","h","elianto","#f73b6a7A","-1","-1","1","0","[]","0","2","","","18244","125","6","4","lose","no-go","0"
"pit-trial","244","1495684","0.0-130.0","battery-v0.2","","""event"",""trial"",""time""
""fullscreenenter"",""1"",""2744""
","
","
","""event"",""trial"",""time""
""fullscreenenter"",""1"",""2744""
","
","","","-1","","","15","18244","6938","r","elianto","#3366ff99","-1","-1","1","+10","[]","0","2","","","18244","126","8","2","win","no-go","0"
"pit-trial","245","1500563","0.0-131.0","battery-v0.2","","""event"",""trial"",""time""
""fullscreenenter"",""1"",""2744""
","
","
","""event"",""trial"",""time""
""fullscreenenter"",""1"",""2744""
","
","","","-1","","","15","18244","6938","m","elianto","#3366ff99","-1","-1","1","0","[3056.8999999910593]","1","2","","","18244","127","9","2","win","no-go","1"
"pit-trial","246","1504415","0.0-132.0","battery-v0.2","","""event"",""trial"",""time""
""fullscreenenter"",""1"",""2744""
","
","
","""event"",""trial"",""time""
""fullscreenenter"",""1"",""2744""
","
","","","985.5999999940395","","","15","18244","6938","y","elianto","#f73b6a7A"," "," ","1","-10","[1841.7000000029802]","1","2","","","18244","128","7","3","lose","go","1"
"pit-trial","247","1508006","0.0-133.0","battery-v0.2","","""event"",""trial"",""time""
""fullscreenenter"",""1"",""2744""
","
","
","""event"",""trial"",""time""
""fullscreenenter"",""1"",""2744""
","
","","","725.9000000059605","","","15","18244","6938","y","elianto","#f73b6a7A"," "," ","1","0","[1580.5]","1","2","","","18244","129","7","3","lose","go","0"
"pit-trial","248","1512872","0.0-134.0","battery-v0.2","","""event"",""trial"",""time""
""fullscreenenter"",""1"",""2744""
","
","
","""event"",""trial"",""time""
""fullscreenenter"",""1"",""2744""
","
","","","-1","","","15","18244","6938","h","elianto","#f73b6a7A","-1","-1","1","0","[]","0","2","","","18244","130","6","4","lose","no-go","0"
"pit-trial","249","1516796","0.0-135.0","battery-v0.2","","""event"",""trial"",""time""
""fullscreenenter"",""1"",""2744""
","
","
","""event"",""trial"",""time""
""fullscreenenter"",""1"",""2744""
","
","","","1064.2999999970198","","","15","18244","6938","m","elianto","#3366ff99","-1"," ","0","0","[1915.7000000029802]","1","2","","","18244","131","9","2","win","no-go","0"
"pit-trial","250","1521659","0.0-136.0","battery-v0.2","","""event"",""trial"",""time""
""fullscreenenter"",""1"",""2744""
","
","
","""event"",""trial"",""time""
""fullscreenenter"",""1"",""2744""
","
","","","-1","","","15","18244","6938","r","elianto","#3366ff99","-1","-1","1","+10","[]","0","2","","","18244","132","8","2","win","no-go","0"
"pit-trial","251","1526527","0.0-137.0","battery-v0.2","","""event"",""trial"",""time""
""fullscreenenter"",""1"",""2744""
","
","
","""event"",""trial"",""time""
""fullscreenenter"",""1"",""2744""
","
","","","-1","","","15","18244","6938","r","elianto","#3366ff99","-1","-1","1","+10","[]","0","2","","","18244","133","8","2","win","no-go","0"
"pit-trial","252","1531390","0.0-138.0","battery-v0.2","","""event"",""trial"",""time""
""fullscreenenter"",""1"",""2744""
","
","
","""event"",""trial"",""time""
""fullscreenenter"",""1"",""2744""
","
","","","-1","","","15","18244","6938","h","elianto","#f73b6a7A","-1","-1","1","0","[]","0","2","","","18244","134","6","4","lose","no-go","0"
"pit-trial","253","1535176","0.0-139.0","battery-v0.2","","""event"",""trial"",""time""
""fullscreenenter"",""1"",""2744""
","
","
","""event"",""trial"",""time""
""fullscreenenter"",""1"",""2744""
","
","","","922.3000000119209","","","15","18244","6938","y","elianto","#f73b6a7A"," "," ","1","0","[1778.7000000029802]","1","2","","","18244","135","7","3","lose","go","0"
"pit-trial","254","1539751","0.0-140.0","battery-v0.2","","""event"",""trial"",""time""
""fullscreenenter"",""1"",""2744""
","
","
","""event"",""trial"",""time""
""fullscreenenter"",""1"",""2744""
","
","","","1713.5","","","15","18244","6938","m","elianto","#3366ff99","-1"," ","0","0","[2567.2000000029802]","1","2","","","18244","136","9","2","win","no-go","0"
"pit-trial","255","1544618","0.0-141.0","battery-v0.2","","""event"",""trial"",""time""
""fullscreenenter"",""1"",""2744""
","
","
","""event"",""trial"",""time""
""fullscreenenter"",""1"",""2744""
","
","","","-1","","","15","18244","6938","r","elianto","#3366ff99","-1","-1","1","+10","[]","0","2","","","18244","137","8","2","win","no-go","0"
"pit-trial","256","1548418","0.0-142.0","battery-v0.2","","""event"",""trial"",""time""
""fullscreenenter"",""1"",""2744""
","
","
","""event"",""trial"",""time""
""fullscreenenter"",""1"",""2744""
","
","","","933","","","15","18244","6938","y","elianto","#f73b6a7A"," "," ","1","0","[1789.5999999940395]","1","2","","","18244","138","7","3","lose","go","0"
"pit-trial","257","1553285","0.0-143.0","battery-v0.2","","""event"",""trial"",""time""
""fullscreenenter"",""1"",""2744""
","
","
","""event"",""trial"",""time""
""fullscreenenter"",""1"",""2744""
","
","","","-1","","","15","18244","6938","h","elianto","#f73b6a7A","-1","-1","1","0","[]","0","2","","","18244","139","6","4","lose","no-go","0"
"pit-trial","258","1557657","0.0-144.0","battery-v0.2","","""event"",""trial"",""time""
""fullscreenenter"",""1"",""2744""
","
","
","""event"",""trial"",""time""
""fullscreenenter"",""1"",""2744""
","
","","","1502.5999999940395","","","15","18244","6938","m","elianto","#3366ff99","-1"," ","0","0","[2354.199999988079]","1","2","","","18244","140","9","2","win","no-go","0"
"pit-instructions","259","1573457","0.0-145.0","battery-v0.2","","""event"",""trial"",""time""
""fullscreenenter"",""1"",""2744""
","
","
","""event"",""trial"",""time""
""fullscreenenter"",""1"",""2744""
","
","","[{""page_index"":0,""viewing_time"":6616},{""page_index"":1,""viewing_time"":9182.09999999404}]","15798.29999999702","","","","","","","","","","","","","","","","","","","","","","","",""
"pit-trial","260","1577262","0.0-146.0","battery-v0.2","","""event"",""trial"",""time""
""fullscreenenter"",""1"",""2744""
","
","
","""event"",""trial"",""time""
""fullscreenenter"",""1"",""2744""
","
","","","947.0999999940395","","","15","18244","6938","e","elianto","#f73b6a7A"," "," ","1","0","[1798.699999988079]","1","3","","","18244","141","2","3","lose","go","0"
"pit-trial","261","1580825","0.0-147.0","battery-v0.2","","""event"",""trial"",""time""
""fullscreenenter"",""1"",""2744""
","
","
","""event"",""trial"",""time""
""fullscreenenter"",""1"",""2744""
","
","","","701.4000000059605","","","15","18244","6938","j","elianto","#f73b6a7A"," "," ","1","-10","[1553.3999999910593]","1","3","","","18244","142","0","3","lose","go","1"
"pit-trial","262","1585684","0.0-148.0","battery-v0.2","","""event"",""trial"",""time""
""fullscreenenter"",""1"",""2744""
","
","
","""event"",""trial"",""time""
""fullscreenenter"",""1"",""2744""
","
","","","-1","","","15","18244","6938","w","elianto","#f73b6a7A","-1","-1","1","0","[]","0","3","","","18244","143","3","4","lose","no-go","0"
"pit-trial","263","1589359","0.0-149.0","battery-v0.2","","""event"",""trial"",""time""
""fullscreenenter"",""1"",""2744""
","
","
","""event"",""trial"",""time""
""fullscreenenter"",""1"",""2744""
","
","","","793","","","15","18244","6938","d","elianto","#3366ff99","-1"," ","0","0","[1651.8999999910593]","1","3","","","18244","144","1","2","win","no-go","0"
"pit-trial","264","1594236","0.0-150.0","battery-v0.2","","""event"",""trial"",""time""
""fullscreenenter"",""1"",""2744""
","
","
","""event"",""trial"",""time""
""fullscreenenter"",""1"",""2744""
","
","","","-1","","","15","18244","6938","d","elianto","#3366ff99","-1","-1","1","+10","[]","0","3","","","18244","145","1","2","win","no-go","0"
"pit-trial","265","1599108","0.0-151.0","battery-v0.2","","""event"",""trial"",""time""
""fullscreenenter"",""1"",""2744""
","
","
","""event"",""trial"",""time""
""fullscreenenter"",""1"",""2744""
","
