"trial_type","trial_index","time_elapsed","internal_node_id","task_version","subject_id","interactions","blur_events","focus_events","fullscreenenter_events","fullscreenexit_events","success","view_history","rt","responses","num_errors","age","subject","participantId","rune","rune_set","hex","correct","choice","accuracy","outcome","keys","total_keys","block","practice","value","sub","trial","stimulus","robot","valence","action","sham"
"pavlovia","0","7","0.0-0.0","battery-v0.2","","""event"",""trial"",""time""
""fullscreenenter"",""1"",""2201""
","
","
","""event"",""trial"",""time""
""fullscreenenter"",""1"",""2201""
","
","","","","","","","","","","","","","","","","","","","","","","","","","","",""
"fullscreen","1","3169","0.0-1.0","battery-v0.2","","""event"",""trial"",""time""
""fullscreenenter"",""1"",""2201""
","
","
","""event"",""trial"",""time""
""fullscreenenter"",""1"",""2201""
","
","true","","","","","","","","","","","","","","","","","","","","","","","","","",""
"pit-instructions","2","8764","0.0-2.0-0.0","battery-v0.2","","""event"",""trial"",""time""
""fullscreenenter"",""1"",""2201""
","
","
","""event"",""trial"",""time""
""fullscreenenter"",""1"",""2201""
","
","","[{""page_index"":0,""viewing_time"":5589.000000000002}]","5589.000000000002","","","","","","","","","","","","","","","","","","","","","","","",""
"pit-comprehension","3","13787","0.0-2.0-1.0-0.0","battery-v0.2","","""event"",""trial"",""time""
""fullscreenenter"",""1"",""2201""
","
","
","""event"",""trial"",""time""
""fullscreenenter"",""1"",""2201""
","
","","","4935","[""shark""]","0","16","13203","5678","","","","","","","","","","","","","","","","","","",""
"pit-instructions","4","16182","0.0-2.0-1.0-1.0","battery-v0.2","","""event"",""trial"",""time""
""fullscreenenter"",""1"",""2201""
","
","
","""event"",""trial"",""time""
""fullscreenenter"",""1"",""2201""
","
","","[{""page_index"":0,""viewing_time"":2386}]","2387","","","","","","","","","","","","","","","","","","","","","","","",""
"pit-comprehension","5","18484","0.0-2.0-2.0-0.0","battery-v0.2","","""event"",""trial"",""time""
""fullscreenenter"",""1"",""2201""
","
","
","""event"",""trial"",""time""
""fullscreenenter"",""1"",""2201""
","
","","","2295","[""tiger""]","0","16","13203","5678","","","","","","","","","","","","","","","","","","",""
"pit-instructions","6","23064","0.0-2.0-2.0-1.0","battery-v0.2","","""event"",""trial"",""time""
""fullscreenenter"",""1"",""2201""
","
","
","""event"",""trial"",""time""
""fullscreenenter"",""1"",""2201""
","
","","[{""page_index"":0,""viewing_time"":4574}]","4574","","","","","","","","","","","","","","","","","","","","","","","",""
"pit-instructions","7","120218","0.0-2.0-3.0","battery-v0.2","","""event"",""trial"",""time""
""fullscreenenter"",""1"",""2201""
","
","
","""event"",""trial"",""time""
""fullscreenenter"",""1"",""2201""
","
","","[{""page_index"":0,""viewing_time"":8159.999999999996},{""page_index"":1,""viewing_time"":6805.000000000011},{""page_index"":2,""viewing_time"":6528.999999999993},{""page_index"":3,""viewing_time"":5670},{""page_index"":4,""viewing_time"":5698},{""page_index"":5,""viewing_time"":5717},{""page_index"":6,""viewing_time"":6851},{""page_index"":7,""viewing_time"":6201.000000000015},{""page_index"":8,""viewing_time"":7600.999999999985},{""page_index"":9,""viewing_time"":8550},{""page_index"":10,""viewing_time"":7319},{""page_index"":11,""viewing_time"":7683},{""page_index"":12,""viewing_time"":6717},{""page_index"":13,""viewing_time"":7649}]","97150","","","","","","","","","","","","","","","","","","","","","","","",""
"pit-trial","8","123951","0.0-2.0-4.0-0.0","battery-v0.2","","""event"",""trial"",""time""
""fullscreenenter"",""1"",""2201""
","
","
","""event"",""trial"",""time""
""fullscreenenter"",""1"",""2201""
","
","","","863","","","16","13203","5678","&#9784;","elianto","#FFFFF080"," "," ","1","&#10004","[1712.0000000000146]","1","0","0","","","","","","","",""
"pit-trial","9","127551","0.0-2.0-4.1-0.1","battery-v0.2","","""event"",""trial"",""time""
""fullscreenenter"",""1"",""2201""
","
","
","""event"",""trial"",""time""
""fullscreenenter"",""1"",""2201""
","
","","","738","","","16","13203","5678","&#9784;","elianto","#FFFFF080"," "," ","1","&#10004","[1586.9999999999854]","1","0","0","","","","","","","",""
"pit-trial","10","131056","0.0-2.0-4.2-0.2","battery-v0.2","","""event"",""trial"",""time""
""fullscreenenter"",""1"",""2201""
","
","
","""event"",""trial"",""time""
""fullscreenenter"",""1"",""2201""
","
","","","643","","","16","13203","5678","&#9784;","elianto","#FFFFF080"," "," ","1","&#10004","[1493]","1","0","0","","","","","","","",""
"pit-trial","11","134470","0.0-2.0-4.3-0.3","battery-v0.2","","""event"",""trial"",""time""
""fullscreenenter"",""1"",""2201""
","
","
","""event"",""trial"",""time""
""fullscreenenter"",""1"",""2201""
","
","","","551","","","16","13203","5678","&#9784;","elianto","#FFFFF080"," "," ","1","&#10004","[1401]","1","0","0","","","","","","","",""
"pit-trial","12","137834","0.0-2.0-4.4-0.4","battery-v0.2","","""event"",""trial"",""time""
""fullscreenenter"",""1"",""2201""
","
","
","""event"",""trial"",""time""
""fullscreenenter"",""1"",""2201""
","
","","","501","","","16","13203","5678","&#9784;","elianto","#FFFFF080"," "," ","1","&#10004","[1352]","1","0","0","","","","","","","",""
"pit-instructions","13","159255","0.0-2.0-5.0","battery-v0.2","","""event"",""trial"",""time""
""fullscreenenter"",""1"",""2201""
","
","
","""event"",""trial"",""time""
""fullscreenenter"",""1"",""2201""
","
","","[{""page_index"":0,""viewing_time"":4862},{""page_index"":1,""viewing_time"":6421},{""page_index"":2,""viewing_time"":5095},{""page_index"":3,""viewing_time"":5033}]","21412","","","","","","","","","","","","","","","","","","","","","","","",""
"pit-trial","14","164115","0.0-2.0-6.0-0.0","battery-v0.2","","""event"",""trial"",""time""
""fullscreenenter"",""1"",""2201""
","
","
","""event"",""trial"",""time""
""fullscreenenter"",""1"",""2201""
","
","","","-1","","","16","13203","5678","&#9854;","elianto","#FFFFF080","-1","-1","1","&#10004","[]","0","0","1","","","","","","","",""
"pit-trial","15","168978","0.0-2.0-6.1-0.1","battery-v0.2","","""event"",""trial"",""time""
""fullscreenenter"",""1"",""2201""
","
","
","""event"",""trial"",""time""
""fullscreenenter"",""1"",""2201""
","
","","","-1","","","16","13203","5678","&#9854;","elianto","#FFFFF080","-1","-1","1","&#10004","[]","0","0","1","","","","","","","",""
"pit-trial","16","173840","0.0-2.0-6.2-0.2","battery-v0.2","","""event"",""trial"",""time""
""fullscreenenter"",""1"",""2201""
","
","
","""event"",""trial"",""time""
""fullscreenenter"",""1"",""2201""
","
","","","-1","","","16","13203","5678","&#9854;","elianto","#FFFFF080","-1","-1","1","&#10004","[]","0","0","1","","","","","","","",""
"pit-trial","17","178702","0.0-2.0-6.3-0.3","battery-v0.2","","""event"",""trial"",""time""
""fullscreenenter"",""1"",""2201""
","
","
","""event"",""trial"",""time""
""fullscreenenter"",""1"",""2201""
","
","","","-1","","","16","13203","5678","&#9854;","elianto","#FFFFF080","-1","-1","1","&#10004","[]","0","0","1","","","","","","","",""
"pit-trial","18","183565","0.0-2.0-6.4-0.4","battery-v0.2","","""event"",""trial"",""time""
""fullscreenenter"",""1"",""2201""
","
","
","""event"",""trial"",""time""
""fullscreenenter"",""1"",""2201""
","
","","","-1","","","16","13203","5678","&#9854;","elianto","#FFFFF080","-1","-1","1","&#10004","[]","0","0","1","","","","","","","",""
"pit-instructions","19","322993","0.0-2.0-7.0","battery-v0.2","","""event"",""trial"",""time""
""fullscreenenter"",""1"",""2201""
","
","
","""event"",""trial"",""time""
""fullscreenenter"",""1"",""2201""
","
","","[{""page_index"":0,""viewing_time"":5981},{""page_index"":1,""viewing_time"":6614},{""page_index"":2,""viewing_time"":8485},{""page_index"":3,""viewing_time"":25286},{""page_index"":4,""viewing_time"":5348},{""page_index"":5,""viewing_time"":5785},{""page_index"":6,""viewing_time"":4416.000000000029},{""page_index"":7,""viewing_time"":8767.99999999997},{""page_index"":8,""viewing_time"":7166},{""page_index"":9,""viewing_time"":7471},{""page_index"":10,""viewing_time"":6332},{""page_index"":11,""viewing_time"":6136},{""page_index"":12,""viewing_time"":7234},{""page_index"":13,""viewing_time"":7532},{""page_index"":14,""viewing_time"":7318},{""page_index"":15,""viewing_time"":6550},{""page_index"":16,""viewing_time"":6150.000000000058},{""page_index"":17,""viewing_time"":6849.999999999942}]","139422","","","","","","","","","","","","","","","","","","","","","","","",""
"pit-trial","20","326566","0.0-2.0-8.0-0.0","battery-v0.2","","""event"",""trial"",""time""
""fullscreenenter"",""1"",""2201""
","
","
","""event"",""trial"",""time""
""fullscreenenter"",""1"",""2201""
","
","","","711.9999999999418","","","16","13203","5678","&#9776;","elianto","#3366ff99"," "," ","1","+10","[1562.9999999999418]","1","0","1","","","","","","","",""
"pit-trial","21","330053","0.0-2.0-8.0-1.0","battery-v0.2","","""event"",""trial"",""time""
""fullscreenenter"",""1"",""2201""
","
","
","""event"",""trial"",""time""
""fullscreenenter"",""1"",""2201""
","
","","","624","","","16","13203","5678","&#9776;","elianto","#3366ff99"," "," ","1","+10","[1475]","1","0","1","","","","","","","",""
"pit-trial","22","333626","0.0-2.0-8.0-2.0","battery-v0.2","","""event"",""trial"",""time""
""fullscreenenter"",""1"",""2201""
","
","
","""event"",""trial"",""time""
""fullscreenenter"",""1"",""2201""
","
","","","712","","","16","13203","5678","&#9776;","elianto","#3366ff99"," "," ","1","+10","[1563]","1","0","1","","","","","","","",""
"pit-trial","23","337065","0.0-2.0-8.0-3.0","battery-v0.2","","""event"",""trial"",""time""
""fullscreenenter"",""1"",""2201""
","
","
","""event"",""trial"",""time""
""fullscreenenter"",""1"",""2201""
","
","","","579","","","16","13203","5678","&#9776;","elianto","#3366ff99"," "," ","1","0","[1429]","1","0","1","","","","","","","",""
"pit-trial","24","340540","0.0-2.0-8.0-4.0","battery-v0.2","","""event"",""trial"",""time""
""fullscreenenter"",""1"",""2201""
","
","
","""event"",""trial"",""time""
""fullscreenenter"",""1"",""2201""
","
","","","613","","","16","13203","5678","&#9776;","elianto","#3366ff99"," "," ","1","+10","[1464]","1","0","1","","","","","","","",""
"pit-trial","25","344085","0.0-2.0-8.1-0.1","battery-v0.2","","""event"",""trial"",""time""
""fullscreenenter"",""1"",""2201""
","
","
","""event"",""trial"",""time""
""fullscreenenter"",""1"",""2201""
","
","","","680","","","16","13203","5678","&#9776;","elianto","#3366ff99"," "," ","1","+10","[1531]","1","0","1","","","","","","","",""
"pit-trial","26","347558","0.0-2.0-8.1-1.1","battery-v0.2","","""event"",""trial"",""time""
""fullscreenenter"",""1"",""2201""
","
","
","""event"",""trial"",""time""
""fullscreenenter"",""1"",""2201""
","
","","","611","","","16","13203","5678","&#9776;","elianto","#3366ff99"," "," ","1","+10","[1462]","1","0","1","","","","","","","",""
"pit-trial","27","351247","0.0-2.0-8.1-2.1","battery-v0.2","","""event"",""trial"",""time""
""fullscreenenter"",""1"",""2201""
","
","
","""event"",""trial"",""time""
""fullscreenenter"",""1"",""2201""
","
","","","826","","","16","13203","5678","&#9776;","elianto","#3366ff99"," "," ","1","+10","[1677]","1","0","1","","","","","","","",""
"pit-trial","28","354832","0.0-2.0-8.1-3.1","battery-v0.2","","""event"",""trial"",""time""
""fullscreenenter"",""1"",""2201""
","
","
","""event"",""trial"",""time""
""fullscreenenter"",""1"",""2201""
","
","","","723","","","16","13203","5678","&#9776;","elianto","#3366ff99"," "," ","1","0","[1574]","1","0","1","","","","","","","",""
"pit-trial","29","358168","0.0-2.0-8.1-4.1","battery-v0.2","","""event"",""trial"",""time""
""fullscreenenter"",""1"",""2201""
","
","
","""event"",""trial"",""time""
""fullscreenenter"",""1"",""2201""
","
","","","473","","","16","13203","5678","&#9776;","elianto","#3366ff99"," "," ","1","+10","[1324]","1","0","1","","","","","","","",""
"pit-trial","30","361447","0.0-2.0-8.2-0.2","battery-v0.2","","""event"",""trial"",""time""
""fullscreenenter"",""1"",""2201""
","
","
","""event"",""trial"",""time""
""fullscreenenter"",""1"",""2201""
","
","","","415.9999999999418","","","16","13203","5678","&#9776;","elianto","#3366ff99"," "," ","1","+10","[1266.9999999999418]","1","0","1","","","","","","","",""
"pit-trial","31","364723","0.0-2.0-8.2-1.2","battery-v0.2","","""event"",""trial"",""time""
""fullscreenenter"",""1"",""2201""
","
","
","""event"",""trial"",""time""
""fullscreenenter"",""1"",""2201""
","
","","","415","","","16","13203","5678","&#9776;","elianto","#3366ff99"," "," ","1","+10","[1264]","1","0","1","","","","","","","",""
"pit-trial","32","368030","0.0-2.0-8.2-2.2","battery-v0.2","","""event"",""trial"",""time""
""fullscreenenter"",""1"",""2201""
","
","
","""event"",""trial"",""time""
""fullscreenenter"",""1"",""2201""
","
","","","445","","","16","13203","5678","&#9776;","elianto","#3366ff99"," "," ","1","+10","[1296]","1","0","1","","","","","","","",""
"pit-trial","33","371435","0.0-2.0-8.2-3.2","battery-v0.2","","""event"",""trial"",""time""
""fullscreenenter"",""1"",""2201""
","
","
","""event"",""trial"",""time""
""fullscreenenter"",""1"",""2201""
","
","","","540.9999999999418","","","16","13203","5678","&#9776;","elianto","#3366ff99"," "," ","1","0","[1393]","1","0","1","","","","","","","",""
"pit-trial","34","374958","0.0-2.0-8.2-4.2","battery-v0.2","","""event"",""trial"",""time""
""fullscreenenter"",""1"",""2201""
","
","
","""event"",""trial"",""time""
""fullscreenenter"",""1"",""2201""
","
","","","662","","","16","13203","5678","&#9776;","elianto","#3366ff99"," "," ","1","+10","[1513]","1","0","1","","","","","","","",""
"call-function","35","374967","0.0-2.0-9.0","battery-v0.2","","""event"",""trial"",""time""
""fullscreenenter"",""1"",""2201""
","
","
","""event"",""trial"",""time""
""fullscreenenter"",""1"",""2201""
","
","","","","","","","","","","","","","","","","","","","","","","","","","","",""
"pit-instructions","36","414666","0.0-2.0-10.0","battery-v0.2","","""event"",""trial"",""time""
""fullscreenenter"",""1"",""2201""
","
","
","""event"",""trial"",""time""
""fullscreenenter"",""1"",""2201""
","
","","[{""page_index"":0,""viewing_time"":6545},{""page_index"":1,""viewing_time"":7085},{""page_index"":2,""viewing_time"":9082},{""page_index"":3,""viewing_time"":9751},{""page_index"":4,""viewing_time"":7237}]","39700","","","","","","","","","","","","","","","","","","","","","","","",""
"pit-trial","37","418083","0.0-2.0-11.0-0.0","battery-v0.2","","""event"",""trial"",""time""
""fullscreenenter"",""1"",""2201""
","
","
","""event"",""trial"",""time""
""fullscreenenter"",""1"",""2201""
","
","","","550","","","16","13203","5678","&#9761;","elianto","#3366ff99","-1"," ","0","0","[1401]","1","0","2","","","","","","","",""
"pit-trial","38","421333","0.0-2.0-11.0-1.0","battery-v0.2","","""event"",""trial"",""time""
""fullscreenenter"",""1"",""2201""
","
","
","""event"",""trial"",""time""
""fullscreenenter"",""1"",""2201""
","
","","","388","","","16","13203","5678","&#9761;","elianto","#3366ff99","-1"," ","0","0","[1239]","1","0","2","","","","","","","",""
"pit-trial","39","426194","0.0-2.0-11.0-2.0","battery-v0.2","","""event"",""trial"",""time""
""fullscreenenter"",""1"",""2201""
","
","
","""event"",""trial"",""time""
""fullscreenenter"",""1"",""2201""
","
","","","-1","","","16","13203","5678","&#9761;","elianto","#3366ff99","-1","-1","1","+10","[]","0","0","2","","","","","","","",""
"pit-trial","40","431055","0.0-2.0-11.0-3.0","battery-v0.2","","""event"",""trial"",""time""
""fullscreenenter"",""1"",""2201""
","
","
","""event"",""trial"",""time""
""fullscreenenter"",""1"",""2201""
","
","","","-1","","","16","13203","5678","&#9761;","elianto","#3366ff99","-1","-1","1","0","[]","0","0","2","","","","","","","",""
"pit-trial","41","435915","0.0-2.0-11.0-4.0","battery-v0.2","","""event"",""trial"",""time""
""fullscreenenter"",""1"",""2201""
","
","
","""event"",""trial"",""time""
""fullscreenenter"",""1"",""2201""
","
","","","-1","","","16","13203","5678","&#9761;","elianto","#3366ff99","-1","-1","1","+10","[]","0","0","2","","","","","","","",""
"pit-trial","42","440778","0.0-2.0-11.1-0.1","battery-v0.2","","""event"",""trial"",""time""
""fullscreenenter"",""1"",""2201""
","
","
","""event"",""trial"",""time""
""fullscreenenter"",""1"",""2201""
","
","","","-1","","","16","13203","5678","&#9761;","elianto","#3366ff99","-1","-1","1","+10","[]","0","0","2","","","","","","","",""
"pit-trial","43","445658","0.0-2.0-11.1-1.1","battery-v0.2","","""event"",""trial"",""time""
""fullscreenenter"",""1"",""2201""
","
","
","""event"",""trial"",""time""
""fullscreenenter"",""1"",""2201""
","
","","","-1","","","16","13203","5678","&#9761;","elianto","#3366ff99","-1","-1","1","+10","[]","0","0","2","","","","","","","",""
"pit-trial","44","450549","0.0-2.0-11.1-2.1","battery-v0.2","","""event"",""trial"",""time""
""fullscreenenter"",""1"",""2201""
","
","
","""event"",""trial"",""time""
""fullscreenenter"",""1"",""2201""
","
","","","-1","","","16","13203","5678","&#9761;","elianto","#3366ff99","-1","-1","1","+10","[]","0","0","2","","","","","","","",""
"pit-trial","45","455437","0.0-2.0-11.1-3.1","battery-v0.2","","""event"",""trial"",""time""
""fullscreenenter"",""1"",""2201""
","
","
","""event"",""trial"",""time""
""fullscreenenter"",""1"",""2201""
","
","","","-1","","","16","13203","5678","&#9761;","elianto","#3366ff99","-1","-1","1","0","[]","0","0","2","","","","","","","",""
"pit-trial","46","460327","0.0-2.0-11.1-4.1","battery-v0.2","","""event"",""trial"",""time""
""fullscreenenter"",""1"",""2201""
","
","
","""event"",""trial"",""time""
""fullscreenenter"",""1"",""2201""
","
","","","-1","","","16","13203","5678","&#9761;","elianto","#3366ff99","-1","-1","1","+10","[]","0","0","2","","","","","","","",""
"pit-trial","47","465216","0.0-2.0-11.2-0.2","battery-v0.2","","""event"",""trial"",""time""
""fullscreenenter"",""1"",""2201""
","
","
","""event"",""trial"",""time""
""fullscreenenter"",""1"",""2201""
","
","","","-1","","","16","13203","5678","&#9761;","elianto","#3366ff99","-1","-1","1","+10","[]","0","0","2","","","","","","","",""
"pit-trial","48","470107","0.0-2.0-11.2-1.2","battery-v0.2","","""event"",""trial"",""time""
""fullscreenenter"",""1"",""2201""
","
","
","""event"",""trial"",""time""
""fullscreenenter"",""1"",""2201""
","
","","","-1","","","16","13203","5678","&#9761;","elianto","#3366ff99","-1","-1","1","+10","[]","0","0","2","","","","","","","",""
"pit-trial","49","474997","0.0-2.0-11.2-2.2","battery-v0.2","","""event"",""trial"",""time""
""fullscreenenter"",""1"",""2201""
","
","
","""event"",""trial"",""time""
""fullscreenenter"",""1"",""2201""
","
","","","-1","","","16","13203","5678","&#9761;","elianto","#3366ff99","-1","-1","1","+10","[]","0","0","2","","","","","","","",""
"pit-trial","50","479887","0.0-2.0-11.2-3.2","battery-v0.2","","""event"",""trial"",""time""
""fullscreenenter"",""1"",""2201""
","
","
","""event"",""trial"",""time""
""fullscreenenter"",""1"",""2201""
","
","","","-1","","","16","13203","5678","&#9761;","elianto","#3366ff99","-1","-1","1","0","[]","0","0","2","","","","","","","",""
"pit-trial","51","484775","0.0-2.0-11.2-4.2","battery-v0.2","","""event"",""trial"",""time""
""fullscreenenter"",""1"",""2201""
","
","
","""event"",""trial"",""time""
""fullscreenenter"",""1"",""2201""
","
","","","-1","","","16","13203","5678","&#9761;","elianto","#3366ff99","-1","-1","1","+10","[]","0","0","2","","","","","","","",""
"pit-trial","52","489667","0.0-2.0-11.3-0.3","battery-v0.2","","""event"",""trial"",""time""
""fullscreenenter"",""1"",""2201""
","
","
","""event"",""trial"",""time""
""fullscreenenter"",""1"",""2201""
","
","","","-1","","","16","13203","5678","&#9761;","elianto","#3366ff99","-1","-1","1","+10","[]","0","0","2","","","","","","","",""
"pit-trial","53","494557","0.0-2.0-11.3-1.3","battery-v0.2","","""event"",""trial"",""time""
""fullscreenenter"",""1"",""2201""
","
","
","""event"",""trial"",""time""
""fullscreenenter"",""1"",""2201""
","
","","","-1","","","16","13203","5678","&#9761;","elianto","#3366ff99","-1","-1","1","+10","[]","0","0","2","","","","","","","",""
"pit-trial","54","499445","0.0-2.0-11.3-2.3","battery-v0.2","","""event"",""trial"",""time""
""fullscreenenter"",""1"",""2201""
","
","
","""event"",""trial"",""time""
""fullscreenenter"",""1"",""2201""
","
","","","-1","","","16","13203","5678","&#9761;","elianto","#3366ff99","-1","-1","1","+10","[]","0","0","2","","","","","","","",""
"pit-trial","55","504337","0.0-2.0-11.3-3.3","battery-v0.2","","""event"",""trial"",""time""
""fullscreenenter"",""1"",""2201""
","
","
","""event"",""trial"",""time""
""fullscreenenter"",""1"",""2201""
","
","","","-1","","","16","13203","5678","&#9761;","elianto","#3366ff99","-1","-1","1","0","[]","0","0","2","","","","","","","",""
"pit-trial","56","509226","0.0-2.0-11.3-4.3","battery-v0.2","","""event"",""trial"",""time""
""fullscreenenter"",""1"",""2201""
","
","
","""event"",""trial"",""time""
""fullscreenenter"",""1"",""2201""
","
","","","-1","","","16","13203","5678","&#9761;","elianto","#3366ff99","-1","-1","1","+10","[]","0","0","2","","","","","","","",""
"call-function","57","509235","0.0-2.0-12.0","battery-v0.2","","""event"",""trial"",""time""
""fullscreenenter"",""1"",""2201""
","
","
","""event"",""trial"",""time""
""fullscreenenter"",""1"",""2201""
","
","","","","","","","","","","","","","","","","","","","","","","","","","","",""
"pit-instructions","58","541417","0.0-2.0-13.0","battery-v0.2","","""event"",""trial"",""time""
""fullscreenenter"",""1"",""2201""
","
","
","""event"",""trial"",""time""
""fullscreenenter"",""1"",""2201""
","
","","[{""page_index"":0,""viewing_time"":6150.000000000058},{""page_index"":1,""viewing_time"":6981},{""page_index"":2,""viewing_time"":3768.999999999942},{""page_index"":3,""viewing_time"":11152},{""page_index"":4,""viewing_time"":4131}]","32183","","","","","","","","","","","","","","","","","","","","","","","",""
"pit-trial","59","545058","0.0-2.0-14.0-0.0","battery-v0.2","","""event"",""trial"",""time""
""fullscreenenter"",""1"",""2201""
","
","
","""event"",""trial"",""time""
""fullscreenenter"",""1"",""2201""
","
","","","781","","","16","13203","5678","&#9826;","elianto","#f73b6a7A","-1"," ","0","-10","[1632]","1","0","3","","","","","","","",""
"pit-trial","60","548108","0.0-2.0-14.0-1.0","battery-v0.2","","""event"",""trial"",""time""
""fullscreenenter"",""1"",""2201""
","
","
","""event"",""trial"",""time""
""fullscreenenter"",""1"",""2201""
","
","","","186","","","16","13203","5678","&#9826;","elianto","#f73b6a7A","-1"," ","0","-10","[1036]","1","0","3","","","","","","","",""
"pit-trial","61","551318","0.0-2.0-14.0-2.0","battery-v0.2","","""event"",""trial"",""time""
""fullscreenenter"",""1"",""2201""
","
","
","""event"",""trial"",""time""
""fullscreenenter"",""1"",""2201""
","
","","","350","","","16","13203","5678","&#9826;","elianto","#f73b6a7A","-1"," ","0","-10","[1200]","1","0","3","","","","","","","",""
"pit-trial","62","556179","0.0-2.0-14.0-3.0","battery-v0.2","","""event"",""trial"",""time""
""fullscreenenter"",""1"",""2201""
","
","
","""event"",""trial"",""time""
""fullscreenenter"",""1"",""2201""
","
","","","-1","","","16","13203","5678","&#9826;","elianto","#f73b6a7A","-1","-1","1","-10","[]","0","0","3","","","","","","","",""
"pit-trial","63","561040","0.0-2.0-14.0-4.0","battery-v0.2","","""event"",""trial"",""time""
""fullscreenenter"",""1"",""2201""
","
","
","""event"",""trial"",""time""
""fullscreenenter"",""1"",""2201""
","
","","","-1","","","16","13203","5678","&#9826;","elianto","#f73b6a7A","-1","-1","1","0","[]","0","0","3","","","","","","","",""
"pit-trial","64","565904","0.0-2.0-14.1-0.1","battery-v0.2","","""event"",""trial"",""time""
""fullscreenenter"",""1"",""2201""
","
","
","""event"",""trial"",""time""
""fullscreenenter"",""1"",""2201""
","
","","","-1","","","16","13203","5678","&#9826;","elianto","#f73b6a7A","-1","-1","1","0","[]","0","0","3","","","","","","","",""
"pit-trial","65","570765","0.0-2.0-14.1-1.1","battery-v0.2","","""event"",""trial"",""time""
""fullscreenenter"",""1"",""2201""
","
","
","""event"",""trial"",""time""
""fullscreenenter"",""1"",""2201""
","
","","","-1","","","16","13203","5678","&#9826;","elianto","#f73b6a7A","-1","-1","1","0","[]","0","0","3","","","","","","","",""
"pit-trial","66","575643","0.0-2.0-14.1-2.1","battery-v0.2","","""event"",""trial"",""time""
""fullscreenenter"",""1"",""2201""
","
","
","""event"",""trial"",""time""
""fullscreenenter"",""1"",""2201""
","
","","","-1","","","16","13203","5678","&#9826;","elianto","#f73b6a7A","-1","-1","1","0","[]","0","0","3","","","","","","","",""
"pit-trial","67","580534","0.0-2.0-14.1-3.1","battery-v0.2","","""event"",""trial"",""time""
""fullscreenenter"",""1"",""2201""
","
","
","""event"",""trial"",""time""
""fullscreenenter"",""1"",""2201""
","
","","","-1","","","16","13203","5678","&#9826;","elianto","#f73b6a7A","-1","-1","1","-10","[]","0","0","3","","","","","","","",""
"pit-trial","68","585424","0.0-2.0-14.1-4.1","battery-v0.2","","""event"",""trial"",""time""
""fullscreenenter"",""1"",""2201""
","
","
","""event"",""trial"",""time""
""fullscreenenter"",""1"",""2201""
","
","","","-1","","","16","13203","5678","&#9826;","elianto","#f73b6a7A","-1","-1","1","0","[]","0","0","3","","","","","","","",""
"pit-trial","69","590313","0.0-2.0-14.2-0.2","battery-v0.2","","""event"",""trial"",""time""
""fullscreenenter"",""1"",""2201""
","
","
","""event"",""trial"",""time""
""fullscreenenter"",""1"",""2201""
","
","","","-1","","","16","13203","5678","&#9826;","elianto","#f73b6a7A","-1","-1","1","0","[]","0","0","3","","","","","","","",""
"pit-trial","70","595203","0.0-2.0-14.2-1.2","battery-v0.2","","""event"",""trial"",""time""
""fullscreenenter"",""1"",""2201""
","
","
","""event"",""trial"",""time""
""fullscreenenter"",""1"",""2201""
","
","","","-1","","","16","13203","5678","&#9826;","elianto","#f73b6a7A","-1","-1","1","0","[]","0","0","3","","","","","","","",""
"pit-trial","71","600093","0.0-2.0-14.2-2.2","battery-v0.2","","""event"",""trial"",""time""
""fullscreenenter"",""1"",""2201""
","
","
","""event"",""trial"",""time""
""fullscreenenter"",""1"",""2201""
","
","","","-1","","","16","13203","5678","&#9826;","elianto","#f73b6a7A","-1","-1","1","0","[]","0","0","3","","","","","","","",""
"pit-trial","72","604983","0.0-2.0-14.2-3.2","battery-v0.2","","""event"",""trial"",""time""
""fullscreenenter"",""1"",""2201""
","
","
","""event"",""trial"",""time""
""fullscreenenter"",""1"",""2201""
","
","","","-1","","","16","13203","5678","&#9826;","elianto","#f73b6a7A","-1","-1","1","-10","[]","0","0","3","","","","","","","",""
"pit-trial","73","609873","0.0-2.0-14.2-4.2","battery-v0.2","","""event"",""trial"",""time""
""fullscreenenter"",""1"",""2201""
","
","
","""event"",""trial"",""time""
""fullscreenenter"",""1"",""2201""
","
","","","-1","","","16","13203","5678","&#9826;","elianto","#f73b6a7A","-1","-1","1","0","[]","0","0","3","","","","","","","",""
"pit-trial","74","614763","0.0-2.0-14.3-0.3","battery-v0.2","","""event"",""trial"",""time""
""fullscreenenter"",""1"",""2201""
","
","
","""event"",""trial"",""time""
""fullscreenenter"",""1"",""2201""
","
","","","-1","","","16","13203","5678","&#9826;","elianto","#f73b6a7A","-1","-1","1","0","[]","0","0","3","","","","","","","",""
"pit-trial","75","619653","0.0-2.0-14.3-1.3","battery-v0.2","","""event"",""trial"",""time""
""fullscreenenter"",""1"",""2201""
","
","
","""event"",""trial"",""time""
""fullscreenenter"",""1"",""2201""
","
","","","-1","","","16","13203","5678","&#9826;","elianto","#f73b6a7A","-1","-1","1","0","[]","0","0","3","","","","","","","",""
"pit-trial","76","624542","0.0-2.0-14.3-2.3","battery-v0.2","","""event"",""trial"",""time""
""fullscreenenter"",""1"",""2201""
","
","
","""event"",""trial"",""time""
""fullscreenenter"",""1"",""2201""
","
","","","-1","","","16","13203","5678","&#9826;","elianto","#f73b6a7A","-1","-1","1","0","[]","0","0","3","","","","","","","",""
"pit-trial","77","629431","0.0-2.0-14.3-3.3","battery-v0.2","","""event"",""trial"",""time""
""fullscreenenter"",""1"",""2201""
","
","
","""event"",""trial"",""time""
""fullscreenenter"",""1"",""2201""
","
","","","-1","","","16","13203","5678","&#9826;","elianto","#f73b6a7A","-1","-1","1","-10","[]","0","0","3","","","","","","","",""
"pit-trial","78","634322","0.0-2.0-14.3-4.3","battery-v0.2","","""event"",""trial"",""time""
""fullscreenenter"",""1"",""2201""
","
","
","""event"",""trial"",""time""
""fullscreenenter"",""1"",""2201""
","
","","","-1","","","16","13203","5678","&#9826;","elianto","#f73b6a7A","-1","-1","1","0","[]","0","0","3","","","","","","","",""
"call-function","79","634332","0.0-2.0-15.0","battery-v0.2","","""event"",""trial"",""time""
""fullscreenenter"",""1"",""2201""
","
","
","""event"",""trial"",""time""
""fullscreenenter"",""1"",""2201""
","
","","","","","","","","","","","","","","","","","","","","","","","","","","",""
"pit-instructions","80","660576","0.0-2.0-16.0","battery-v0.2","","""event"",""trial"",""time""
""fullscreenenter"",""1"",""2201""
","
","
","""event"",""trial"",""time""
""fullscreenenter"",""1"",""2201""
","
","","[{""page_index"":0,""viewing_time"":8408.000000000116},{""page_index"":1,""viewing_time"":8136.999999999884},{""page_index"":2,""viewing_time"":4596},{""page_index"":3,""viewing_time"":5103}]","26244","","","","","","","","","","","","","","","","","","","","","","","",""
"pit-trial","81","663891","0.0-2.0-17.0-0.0","battery-v0.2","","""event"",""trial"",""time""
""fullscreenenter"",""1"",""2201""
","
","
","""event"",""trial"",""time""
""fullscreenenter"",""1"",""2201""
","
","","","450.9999999998836","","","16","13203","5678","&#9789;","elianto","#f73b6a7A"," "," ","1","0","[1303]","1","0","4","","","","","","","",""
"pit-trial","82","666789","0.0-2.0-17.0-1.0","battery-v0.2","","""event"",""trial"",""time""
""fullscreenenter"",""1"",""2201""
","
","
","""event"",""trial"",""time""
""fullscreenenter"",""1"",""2201""
","
","","","35","","","16","13203","5678","&#9789;","elianto","#f73b6a7A"," "," ","1","0","[886,2508]","2","0","4","","","","","","","",""
"pit-trial","83","670393","0.0-2.0-17.0-2.0","battery-v0.2","","""event"",""trial"",""time""
""fullscreenenter"",""1"",""2201""
","
","
","""event"",""trial"",""time""
""fullscreenenter"",""1"",""2201""
","
","","","743","","","16","13203","5678","&#9789;","elianto","#f73b6a7A"," "," ","1","0","[1593]","1","0","4","","","","","","","",""
"pit-trial","84","673604","0.0-2.0-17.0-3.0","battery-v0.2","","""event"",""trial"",""time""
""fullscreenenter"",""1"",""2201""
","
","
","""event"",""trial"",""time""
""fullscreenenter"",""1"",""2201""
","
","","","349","","","16","13203","5678","&#9789;","elianto","#f73b6a7A"," "," ","1","-10","[1200]","1","0","4","","","","","","","",""
"pit-trial","85","677092","0.0-2.0-17.0-4.0","battery-v0.2","","""event"",""trial"",""time""
""fullscreenenter"",""1"",""2201""
","
","
","""event"",""trial"",""time""
""fullscreenenter"",""1"",""2201""
","
","","","626","","","16","13203","5678","&#9789;","elianto","#f73b6a7A"," "," ","1","0","[1476]","1","0","4","","","","","","","",""
"pit-trial","86","680636","0.0-2.0-17.1-0.1","battery-v0.2","","""event"",""trial"",""time""
""fullscreenenter"",""1"",""2201""
","
","
","""event"",""trial"",""time""
""fullscreenenter"",""1"",""2201""
","
","","","681","","","16","13203","5678","&#9789;","elianto","#f73b6a7A"," "," ","1","0","[1532]","1","0","4","","","","","","","",""
"pit-trial","87","684006","0.0-2.0-17.1-1.1","battery-v0.2","","""event"",""trial"",""time""
""fullscreenenter"",""1"",""2201""
","
","
","""event"",""trial"",""time""
""fullscreenenter"",""1"",""2201""
","
","","","508","","","16","13203","5678","&#9789;","elianto","#f73b6a7A"," "," ","1","0","[1358]","1","0","4","","","","","","","",""
"pit-trial","88","687303","0.0-2.0-17.1-2.1","battery-v0.2","","""event"",""trial"",""time""
""fullscreenenter"",""1"",""2201""
","
","
","""event"",""trial"",""time""
""fullscreenenter"",""1"",""2201""
","
","","","436","","","16","13203","5678","&#9789;","elianto","#f73b6a7A"," "," ","1","0","[1287]","1","0","4","","","","","","","",""
"pit-trial","89","690544","0.0-2.0-17.1-3.1","battery-v0.2","","""event"",""trial"",""time""
""fullscreenenter"",""1"",""2201""
","
","
","""event"",""trial"",""time""
""fullscreenenter"",""1"",""2201""
","
","","","380","","","16","13203","5678","&#9789;","elianto","#f73b6a7A"," "," ","1","-10","[1230]","1","0","4","","","","","","","",""
"pit-trial","90","693843","0.0-2.0-17.1-4.1","battery-v0.2","","""event"",""trial"",""time""
""fullscreenenter"",""1"",""2201""
","
","
","""event"",""trial"",""time""
""fullscreenenter"",""1"",""2201""
","
","","","436","","","16","13203","5678","&#9789;","elianto","#f73b6a7A"," "," ","1","0","[1286]","1","0","4","","","","","","","",""
"pit-trial","91","697160","0.0-2.0-17.2-0.2","battery-v0.2","","""event"",""trial"",""time""
""fullscreenenter"",""1"",""2201""
","
","
","""event"",""trial"",""time""
""fullscreenenter"",""1"",""2201""
","
","","","456","","","16","13203","5678","&#9789;","elianto","#f73b6a7A"," "," ","1","0","[1306]","1","0","4","","","","","","","",""
"pit-trial","92","700706","0.0-2.0-17.2-1.2","battery-v0.2","","""event"",""trial"",""time""
""fullscreenenter"",""1"",""2201""
","
","
","""event"",""trial"",""time""
""fullscreenenter"",""1"",""2201""
","
","","","683","","","16","13203","5678","&#9789;","elianto","#f73b6a7A"," "," ","1","0","[1534]","1","0","4","","","","","","","",""
"pit-trial","93","704337","0.0-2.0-17.2-2.2","battery-v0.2","","""event"",""trial"",""time""
""fullscreenenter"",""1"",""2201""
","
","
","""event"",""trial"",""time""
""fullscreenenter"",""1"",""2201""
","
","","","769","","","16","13203","5678","&#9789;","elianto","#f73b6a7A"," "," ","1","0","[1620]","1","0","4","","","","","","","",""
"pit-trial","94","707627","0.0-2.0-17.2-3.2","battery-v0.2","","""event"",""trial"",""time""
""fullscreenenter"",""1"",""2201""
","
","
","""event"",""trial"",""time""
""fullscreenenter"",""1"",""2201""
","
","","","427","","","16","13203","5678","&#9789;","elianto","#f73b6a7A"," "," ","1","-10","[1278]","1","0","4","","","","","","","",""
"pit-trial","95","711728","0.0-2.0-17.2-4.2","battery-v0.2","","""event"",""trial"",""time""
""fullscreenenter"",""1"",""2201""
","
","
","""event"",""trial"",""time""
""fullscreenenter"",""1"",""2201""
","
","","","1241","","","16","13203","5678","&#9789;","elianto","#f73b6a7A"," "," ","1","0","[2092]","1","0","4","","","","","","","",""
"pit-trial","96","715120","0.0-2.0-17.3-0.3","battery-v0.2","","""event"",""trial"",""time""
""fullscreenenter"",""1"",""2201""
","
","
","""event"",""trial"",""time""
""fullscreenenter"",""1"",""2201""
","
","","","530","","","16","13203","5678","&#9789;","elianto","#f73b6a7A"," "," ","1","0","[1381]","1","0","4","","","","","","","",""
"pit-trial","97","717996","0.0-2.0-17.3-1.3","battery-v0.2","","""event"",""trial"",""time""
""fullscreenenter"",""1"",""2201""
","
","
","""event"",""trial"",""time""
""fullscreenenter"",""1"",""2201""
","
","","","14","","","16","13203","5678","&#9789;","elianto","#f73b6a7A"," "," ","1","0","[865]","1","0","4","","","","","","","",""
"pit-trial","98","721293","0.0-2.0-17.3-2.3","battery-v0.2","","""event"",""trial"",""time""
""fullscreenenter"",""1"",""2201""
","
","
","""event"",""trial"",""time""
""fullscreenenter"",""1"",""2201""
","
","","","436.0000000001164","","","16","13203","5678","&#9789;","elianto","#f73b6a7A"," "," ","1","0","[1287.0000000001164]","1","0","4","","","","","","","",""
"pit-trial","99","724641","0.0-2.0-17.3-3.3","battery-v0.2","","""event"",""trial"",""time""
""fullscreenenter"",""1"",""2201""
","
","
","""event"",""trial"",""time""
""fullscreenenter"",""1"",""2201""
","
","","","482","","","16","13203","5678","&#9789;","elianto","#f73b6a7A"," "," ","1","-10","[1333]","1","0","4","","","","","","","",""
"pit-trial","100","728793","0.0-2.0-17.3-4.3","battery-v0.2","","""event"",""trial"",""time""
""fullscreenenter"",""1"",""2201""
","
","
","""event"",""trial"",""time""
""fullscreenenter"",""1"",""2201""
","
","","","1290","","","16","13203","5678","&#9789;","elianto","#f73b6a7A"," "," ","1","0","[2141]","1","0","4","","","","","","","",""
"call-function","101","728800","0.0-2.0-18.0","battery-v0.2","","""event"",""trial"",""time""
""fullscreenenter"",""1"",""2201""
","
","
","""event"",""trial"",""time""
""fullscreenenter"",""1"",""2201""
","
","","","","","","","","","","","","","","","","","","","","","","","","","","",""
"pit-instructions","102","798078","0.0-2.0-19.0","battery-v0.2","","""event"",""trial"",""time""
""fullscreenenter"",""1"",""2201""
","
","
","""event"",""trial"",""time""
""fullscreenenter"",""1"",""2201""
","
","","[{""page_index"":0,""viewing_time"":6493},{""page_index"":1,""viewing_time"":5885},{""page_index"":2,""viewing_time"":14216},{""page_index"":3,""viewing_time"":7334},{""page_index"":4,""viewing_time"":8935},{""page_index"":5,""viewing_time"":8035},{""page_index"":6,""viewing_time"":8468},{""page_index"":7,""viewing_time"":6051},{""page_index"":8,""viewing_time"":3862}]","69279","","","","","","","","","","","","","","","","","","","","","","","",""
"pit-comprehension","103","802549","0.0-2.0-20.0-0.0","battery-v0.2","","""event"",""trial"",""time""
""fullscreenenter"",""1"",""2201""
","
","
","""event"",""trial"",""time""
""fullscreenenter"",""1"",""2201""
","
","","","4462","[""SPACE""]","0","16","13203","5678","","","","","","","","","","","","","","","","","","",""
"pit-instructions","104","806263","0.0-2.0-20.0-1.0","battery-v0.2","","""event"",""trial"",""time""
""fullscreenenter"",""1"",""2201""
","
","
","""event"",""trial"",""time""
""fullscreenenter"",""1"",""2201""
","
","","[{""page_index"":0,""viewing_time"":3680}]","3681","","","","","","","","","","","","","","","","","","","","","","","",""
"pit-comprehension","105","811882","0.0-2.0-21.0-0.0","battery-v0.2","","""event"",""trial"",""time""
""fullscreenenter"",""1"",""2201""
","
","
","""event"",""trial"",""time""
""fullscreenenter"",""1"",""2201""
","
","","","5612.999999999884","[""10""]","0","16","13203","5678","","","","","","","","","","","","","","","","","","",""
"pit-instructions","106","815582","0.0-2.0-21.0-1.0","battery-v0.2","","""event"",""trial"",""time""
""fullscreenenter"",""1"",""2201""
","
","
","""event"",""trial"",""time""
""fullscreenenter"",""1"",""2201""
","
","","[{""page_index"":0,""viewing_time"":3666.0000000001164}]","3667","","","","","","","","","","","","","","","","","","","","","","","",""
"pit-comprehension","107","822150","0.0-2.0-22.0-0.0","battery-v0.2","","""event"",""trial"",""time""
""fullscreenenter"",""1"",""2201""
","
","
","""event"",""trial"",""time""
""fullscreenenter"",""1"",""2201""
","
","","","6562","[""-10""]","1","16","13203","5678","","","","","","","","","","","","","","","","","","",""
"pit-instructions","108","830265","0.0-2.0-22.0-1.0","battery-v0.2","","""event"",""trial"",""time""
""fullscreenenter"",""1"",""2201""
","
","
","""event"",""trial"",""time""
""fullscreenenter"",""1"",""2201""
","
","","[{""page_index"":0,""viewing_time"":8077.999999999884}]","8077.999999999884","","","","","","","","","","","","","","","","","","","","","","","",""
"pit-instructions","109","831683","0.0-2.0-22.0-2.0-0.0","battery-v0.2","","""event"",""trial"",""time""
""fullscreenenter"",""1"",""2201""
","
","
","""event"",""trial"",""time""
""fullscreenenter"",""1"",""2201""
","
","","[{""page_index"":0,""viewing_time"":1413}]","1413","","","","","","","","","","","","","","","","","","","","","","","",""
"pit-comprehension","110","838082","0.0-2.0-22.1-0.1","battery-v0.2","","""event"",""trial"",""time""
""fullscreenenter"",""1"",""2201""
","
","
","""event"",""trial"",""time""
""fullscreenenter"",""1"",""2201""
","
","","","6392","[""0""]","0","16","13203","5678","","","","","","","","","","","","","","","","","","",""
"pit-instructions","111","840598","0.0-2.0-22.1-1.1","battery-v0.2","","""event"",""trial"",""time""
""fullscreenenter"",""1"",""2201""
","
","
","""event"",""trial"",""time""
""fullscreenenter"",""1"",""2201""
","
","","[{""page_index"":0,""viewing_time"":2482}]","2482","","","","","","","","","","","","","","","","","","","","","","","",""
"pit-comprehension","112","852348","0.0-2.0-23.0-0.0","battery-v0.2","","""event"",""trial"",""time""
""fullscreenenter"",""1"",""2201""
","
","
","""event"",""trial"",""time""
""fullscreenenter"",""1"",""2201""
","
","","","11744","[""True""]","0","16","13203","5678","","","","","","","","","","","","","","","","","","",""
"pit-instructions","113","854480","0.0-2.0-23.0-1.0","battery-v0.2","","""event"",""trial"",""time""
""fullscreenenter"",""1"",""2201""
","
","
","""event"",""trial"",""time""
""fullscreenenter"",""1"",""2201""
","
","","[{""page_index"":0,""viewing_time"":2096.9999999998836}]","2097.9999999998836","","","","","","","","","","","","","","","","","","","","","","","",""
"pit-comprehension","114","861934","0.0-2.0-24.0-0.0","battery-v0.2","","""event"",""trial"",""time""
""fullscreenenter"",""1"",""2201""
","
","
","""event"",""trial"",""time""
""fullscreenenter"",""1"",""2201""
","
","","","7448","[""True""]","0","16","13203","5678","","","","","","","","","","","","","","","","","","",""
"pit-instructions","115","863964","0.0-2.0-24.0-1.0","battery-v0.2","","""event"",""trial"",""time""
""fullscreenenter"",""1"",""2201""
","
","
","""event"",""trial"",""time""
""fullscreenenter"",""1"",""2201""
","
","","[{""page_index"":0,""viewing_time"":1995.0000000001164}]","1995.0000000001164","","","","","","","","","","","","","","","","","","","","","","","",""
"pit-comprehension","116","870819","0.0-2.0-25.0-0.0","battery-v0.2","","""event"",""trial"",""time""
""fullscreenenter"",""1"",""2201""
","
","
","""event"",""trial"",""time""
""fullscreenenter"",""1"",""2201""
","
","","","6849","[""True""]","0","16","13203","5678","","","","","","","","","","","","","","","","","","",""
"pit-instructions","117","872734","0.0-2.0-25.0-1.0","battery-v0.2","","""event"",""trial"",""time""
""fullscreenenter"",""1"",""2201""
","
","
","""event"",""trial"",""time""
""fullscreenenter"",""1"",""2201""
","
","","[{""page_index"":0,""viewing_time"":1880}]","1880","","","","","","","","","","","","","","","","","","","","","","","",""
"pit-comprehension","118","877667","0.0-2.0-26.0-0.0","battery-v0.2","","""event"",""trial"",""time""
""fullscreenenter"",""1"",""2201""
","
","
","""event"",""trial"",""time""
""fullscreenenter"",""1"",""2201""
","
","","","4926","[""False""]","0","16","13203","5678","","","","","","","","","","","","","","","","","","",""
"pit-instructions","119","879916","0.0-2.0-26.0-1.0","battery-v0.2","","""event"",""trial"",""time""
""fullscreenenter"",""1"",""2201""
","
","
","""event"",""trial"",""time""
""fullscreenenter"",""1"",""2201""
","
","","[{""page_index"":0,""viewing_time"":2214.0000000001164}]","2215","","","","","","","","","","","","","","","","","","","","","","","",""
"pit-instructions","120","896466","0.0-3.0","battery-v0.2","","""event"",""trial"",""time""
""fullscreenenter"",""1"",""2201""
","
","
","""event"",""trial"",""time""
""fullscreenenter"",""1"",""2201""
","
","","[{""page_index"":0,""viewing_time"":4193},{""page_index"":1,""viewing_time"":5101},{""page_index"":2,""viewing_time"":7250}]","16545","","","","","","","","","","","","","","","","","","","","","","","",""
"pit-trial","121","901327","0.0-4.0","battery-v0.2","","""event"",""trial"",""time""
""fullscreenenter"",""1"",""2201""
","
","
","""event"",""trial"",""time""
""fullscreenenter"",""1"",""2201""
","
","","","-1","","","16","13203","5678","&#9733;","elianto","#3366ff99","-1","-1","1","+10","[2896]","1","1","","","13203","1","2","2","win","no-go","0"
"pit-trial","122","904955","0.0-5.0","battery-v0.2","","""event"",""trial"",""time""
""fullscreenenter"",""1"",""2201""
","
","
","""event"",""trial"",""time""
""fullscreenenter"",""1"",""2201""
","
","","","765.0000000001164","","","16","13203","5678","&#9730;","elianto","#3366ff99"," "," ","1","0","[1615]","1","1","","","13203","2","1","1","win","go","1"
"pit-trial","123","908462","0.0-6.0","battery-v0.2","","""event"",""trial"",""time""
""fullscreenenter"",""1"",""2201""
","
","
","""event"",""trial"",""time""
""fullscreenenter"",""1"",""2201""
","
","","","646","","","16","13203","5678","&#9728;","elianto","#f73b6a7A","-1"," ","0","-10","[1497]","1","1","","","13203","3","0","4","lose","no-go","0"
"pit-trial","124","912089","0.0-7.0","battery-v0.2","","""event"",""trial"",""time""
""fullscreenenter"",""1"",""2201""
","
","
","""event"",""trial"",""time""
""fullscreenenter"",""1"",""2201""
","
","","","764.0000000001164","","","16","13203","5678","&#9752;","elianto","#f73b6a7A"," "," ","1","0","[1616.0000000001164]","1","1","","","13203","4","3","3","lose","go","0"
"pit-trial","125","916952","0.0-8.0","battery-v0.2","","""event"",""trial"",""time""
""fullscreenenter"",""1"",""2201""
","
","
","""event"",""trial"",""time""
""fullscreenenter"",""1"",""2201""
","
","","","-1","","","16","13203","5678","&#9730;","elianto","#3366ff99"," ","-1","0","0","[]","0","1","","","13203","5","1","1","win","go","0"
"pit-trial","126","921815","0.0-9.0","battery-v0.2","","""event"",""trial"",""time""
""fullscreenenter"",""1"",""2201""
","
","
","""event"",""trial"",""time""
""fullscreenenter"",""1"",""2201""
","
","","","-1","","","16","13203","5678","&#9728;","elianto","#f73b6a7A","-1","-1","1","-10","[]","0","1","","","13203","6","0","4","lose","no-go","1"
"pit-trial","127","925293","0.0-10.0","battery-v0.2","","""event"",""trial"",""time""
""fullscreenenter"",""1"",""2201""
","
","
","""event"",""trial"",""time""
""fullscreenenter"",""1"",""2201""
","
","","","616","","","16","13203","5678","&#9733;","elianto","#3366ff99","-1"," ","0","0","[1467]","1","1","","","13203","7","2","2","win","no-go","0"
"pit-trial","128","928948","0.0-11.0","battery-v0.2","","""event"",""trial"",""time""
""fullscreenenter"",""1"",""2201""
","
","
","""event"",""trial"",""time""
""fullscreenenter"",""1"",""2201""
","
","","","794.0000000001164","","","16","13203","5678","&#9752;","elianto","#f73b6a7A"," "," ","1","0","[1645.0000000001164]","1","1","","","13203","8","3","3","lose","go","0"
"pit-trial","129","933806","0.0-12.0","battery-v0.2","","""event"",""trial"",""time""
""fullscreenenter"",""1"",""2201""
","
","
","""event"",""trial"",""time""
""fullscreenenter"",""1"",""2201""
","
","","","-1","","","16","13203","5678","&#9728;","elianto","#f73b6a7A","-1","-1","1","0","[]","0","1","","","13203","9","0","4","lose","no-go","0"
"pit-trial","130","938068","0.0-13.0","battery-v0.2","","""event"",""trial"",""time""
""fullscreenenter"",""1"",""2201""
","
","
","""event"",""trial"",""time""
""fullscreenenter"",""1"",""2201""
","
","","","1402","","","16","13203","5678","&#9752;","elianto","#f73b6a7A"," "," ","1","0","[2253]","1","1","","","13203","10","3","3","lose","go","0"
"pit-trial","131","942420","0.0-14.0","battery-v0.2","","""event"",""trial"",""time""
""fullscreenenter"",""1"",""2201""
","
","
","""event"",""trial"",""time""
""fullscreenenter"",""1"",""2201""
","
","","","1490","","","16","13203","5678","&#9730;","elianto","#3366ff99"," "," ","1","+10","[2341]","1","1","","","13203","11","1","1","win","go","0"
"pit-trial","132","946377","0.0-15.0","battery-v0.2","","""event"",""trial"",""time""
""fullscreenenter"",""1"",""2201""
","
","
","""event"",""trial"",""time""
""fullscreenenter"",""1"",""2201""
","
","","","1091","","","16","13203","5678","&#9733;","elianto","#3366ff99","-1"," ","0","+10","[1945]","1","1","","","13203","12","2","2","win","no-go","1"
"pit-trial","133","951238","0.0-16.0","battery-v0.2","","""event"",""trial"",""time""
""fullscreenenter"",""1"",""2201""
","
","
","""event"",""trial"",""time""
""fullscreenenter"",""1"",""2201""
","
","","","-1","","","16","13203","5678","&#9728;","elianto","#f73b6a7A","-1","-1","1","0","[]","0","1","","","13203","13","0","4","lose","no-go","0"
"pit-trial","134","956098","0.0-17.0","battery-v0.2","","""event"",""trial"",""time""
""fullscreenenter"",""1"",""2201""
","
","
","""event"",""trial"",""time""
""fullscreenenter"",""1"",""2201""
","
","","","-1","","","16","13203","5678","&#9752;","elianto","#f73b6a7A"," ","-1","0","-10","[]","0","1","","","13203","14","3","3","lose","go","0"
"pit-trial","135","959641","0.0-18.0","battery-v0.2","","""event"",""trial"",""time""
""fullscreenenter"",""1"",""2201""
","
","
","""event"",""trial"",""time""
""fullscreenenter"",""1"",""2201""
","
","","","682.0000000001164","","","16","13203","5678","&#9730;","elianto","#3366ff99"," "," ","1","+10","[1533.0000000001164]","1","1","","","13203","15","1","1","win","go","0"
"pit-trial","136","963109","0.0-19.0","battery-v0.2","","""event"",""trial"",""time""
""fullscreenenter"",""1"",""2201""
","
","
","""event"",""trial"",""time""
""fullscreenenter"",""1"",""2201""
","
","","","601.9999999998836","","","16","13203","5678","&#9733;","elianto","#3366ff99","-1"," ","0","0","[1455]","1","1","","","13203","16","2","2","win","no-go","0"
"pit-trial","137","966679","0.0-20.0","battery-v0.2","","""event"",""trial"",""time""
""fullscreenenter"",""1"",""2201""
","
","
","""event"",""trial"",""time""
""fullscreenenter"",""1"",""2201""
","
","","","707","","","16","13203","5678","&#9733;","elianto","#3366ff99","-1"," ","0","+10","[1557.0000000001164]","1","1","","","13203","17","2","2","win","no-go","1"
"pit-trial","138","971545","0.0-21.0","battery-v0.2","","""event"",""trial"",""time""
""fullscreenenter"",""1"",""2201""
","
","
","""event"",""trial"",""time""
""fullscreenenter"",""1"",""2201""
","
","","","-1","","","16","13203","5678","&#9728;","elianto","#f73b6a7A","-1","-1","1","0","[]","0","1","","","13203","18","0","4","lose","no-go","0"
"pit-trial","139","976119","0.0-22.0","battery-v0.2","","""event"",""trial"",""time""
""fullscreenenter"",""1"",""2201""
","
","
","""event"",""trial"",""time""
""fullscreenenter"",""1"",""2201""
","
","","","1714","","","16","13203","5678","&#9730;","elianto","#3366ff99"," "," ","1","0","[2565]","1","1","","","13203","19","1","1","win","go","1"
"pit-trial","140","980986","0.0-23.0","battery-v0.2","","""event"",""trial"",""time""
""fullscreenenter"",""1"",""2201""
","
","
","""event"",""trial"",""time""
""fullscreenenter"",""1"",""2201""
","
","","","-1","","","16","13203","5678","&#9752;","elianto","#f73b6a7A"," ","-1","0","0","[]","0","1","","","13203","20","3","3","lose","go","1"
"pit-instructions","141","993286","0.0-24.0","battery-v0.2","","""event"",""trial"",""time""
""fullscreenenter"",""1"",""2201""
","
","
","""event"",""trial"",""time""
""fullscreenenter"",""1"",""2201""
","
","","[{""page_index"":0,""viewing_time"":5639},{""page_index"":1,""viewing_time"":6651}]","12290","","","","","","","","","","","","","","","","","","","","","","","",""
"pit-trial","142","997198","0.0-25.0","battery-v0.2","","""event"",""trial"",""time""
""fullscreenenter"",""1"",""2201""
","
","
","""event"",""trial"",""time""
""fullscreenenter"",""1"",""2201""
","
","","","1052","","","16","13203","5678","l","elianto","#3366ff99","-1"," ","0","0","[1902]","1","2","","","13203","21","1","2","win","no-go","0"
"pit-trial","143","1000908","0.0-26.0","battery-v0.2","","""event"",""trial"",""time""
""fullscreenenter"",""1"",""2201""
","
","
","""event"",""trial"",""time""
""fullscreenenter"",""1"",""2201""
","
","","","848","","","16","13203","5678","a","elianto","#f73b6a7A"," "," ","1","0","[1699]","1","2","","","13203","22","2","3","lose","go","0"
"pit-trial","144","1004786","0.0-27.0","battery-v0.2","","""event"",""trial"",""time""
""fullscreenenter"",""1"",""2201""
","
","
","""event"",""trial"",""time""
""fullscreenenter"",""1"",""2201""
","
","","","1015","","","16","13203","5678","g","elianto","#f73b6a7A","-1"," ","0","0","[1866]","1","2","","","13203","23","3","4","lose","no-go","1"
"pit-trial","145","1008473","0.0-28.0","battery-v0.2","","""event"",""trial"",""time""
""fullscreenenter"",""1"",""2201""
","
","
","""event"",""trial"",""time""
""fullscreenenter"",""1"",""2201""
","
","","","822.9999999998836","","","16","13203","5678","u","elianto","#f73b6a7A"," "," ","1","0","[1673.9999999998836]","1","2","","","13203","24","0","3","lose","go","0"
"pit-trial","146","1012006","0.0-29.0","battery-v0.2","","""event"",""trial"",""time""
""fullscreenenter"",""1"",""2201""
","
","
","""event"",""trial"",""time""
""fullscreenenter"",""1"",""2201""
","
","","","671","","","16","13203","5678","g","elianto","#f73b6a7A","-1"," ","0","-10","[1521]","1","2","","","13203","25","3","4","lose","no-go","0"
"pit-trial","147","1015725","0.0-30.0","battery-v0.2","","""event"",""trial"",""time""
""fullscreenenter"",""1"",""2201""
","
","
","""event"",""trial"",""time""
""fullscreenenter"",""1"",""2201""
","
","","","855.0000000001164","","","16","13203","5678","u","elianto","#f73b6a7A"," "," ","1","-10","[1706.0000000001164]","1","2","","","13203","26","0","3","lose","go","1"
"pit-trial","148","1019354","0.0-31.0","battery-v0.2","","""event"",""trial"",""time""
""fullscreenenter"",""1"",""2201""
","
","
","""event"",""trial"",""time""
""fullscreenenter"",""1"",""2201""
","
","","","765","","","16","13203","5678","a","elianto","#f73b6a7A"," "," ","1","0","[1616]","1","2","","","13203","27","2","3","lose","go","0"
"pit-trial","149","1023200","0.0-32.0","battery-v0.2","","""event"",""trial"",""time""
""fullscreenenter"",""1"",""2201""
","
","
","""event"",""trial"",""time""
""fullscreenenter"",""1"",""2201""
","
","","","982","","","16","13203","5678","l","elianto","#3366ff99","-1"," ","0","0","[1833]","1","2","","","13203","28","1","2","win","no-go","0"
"pit-trial","150","1026924","0.0-33.0","battery-v0.2","","""event"",""trial"",""time""
""fullscreenenter"",""1"",""2201""
","
","
","""event"",""trial"",""time""
""fullscreenenter"",""1"",""2201""
","
","","","858.9999999998836","","","16","13203","5678","u","elianto","#f73b6a7A"," "," ","1","0","[1708.9999999997672]","1","2","","","13203","29","0","3","lose","go","0"
"pit-trial","151","1031785","0.0-34.0","battery-v0.2","","""event"",""trial"",""time""
""fullscreenenter"",""1"",""2201""
","
","
","""event"",""trial"",""time""
""fullscreenenter"",""1"",""2201""
","
","","","-1","","","16","13203","5678","l","elianto","#3366ff99","-1","-1","1","+10","[]","0","2","","","13203","30","1","2","win","no-go","0"
"pit-trial","152","1035375","0.0-35.0","battery-v0.2","","""event"",""trial"",""time""
""fullscreenenter"",""1"",""2201""
","
","
","""event"",""trial"",""time""
""fullscreenenter"",""1"",""2201""
","
","","","730","","","16","13203","5678","a","elianto","#f73b6a7A"," "," ","1","0","[1580.9999999998836]","1","2","","","13203","31","2","3","lose","go","0"
"pit-trial","153","1039281","0.0-36.0","battery-v0.2","","""event"",""trial"",""time""
""fullscreenenter"",""1"",""2201""
","
","
","""event"",""trial"",""time""
""fullscreenenter"",""1"",""2201""
","
","","","1041.9999999998836","","","16","13203","5678","g","elianto","#f73b6a7A","-1"," ","0","-10","[1891]","1","2","","","13203","32","3","4","lose","no-go","0"
"pit-trial","154","1042832","0.0-37.0","battery-v0.2","","""event"",""trial"",""time""
""fullscreenenter"",""1"",""2201""
","
","
","""event"",""trial"",""time""
""fullscreenenter"",""1"",""2201""
","
","","","693.0000000002328","","","16","13203","5678","a","elianto","#f73b6a7A"," "," ","1","0","[1543.0000000001164]","1","2","","","13203","33","2","3","lose","go","0"
"pit-trial","155","1047694","0.0-38.0","battery-v0.2","","""event"",""trial"",""time""
""fullscreenenter"",""1"",""2201""
","
","
","""event"",""trial"",""time""
""fullscreenenter"",""1"",""2201""
","
","","","-1","","","16","13203","5678","g","elianto","#f73b6a7A","-1","-1","1","0","[]","0","2","","","13203","34","3","4","lose","no-go","0"
"pit-trial","156","1051694","0.0-39.0","battery-v0.2","","""event"",""trial"",""time""
""fullscreenenter"",""1"",""2201""
","
","
","""event"",""trial"",""time""
""fullscreenenter"",""1"",""2201""
","
","","","1137","","","16","13203","5678","u","elianto","#f73b6a7A"," "," ","1","0","[1987]","1","2","","","13203","35","0","3","lose","go","0"
"pit-trial","157","1056557","0.0-40.0","battery-v0.2","","""event"",""trial"",""time""
""fullscreenenter"",""1"",""2201""
","
","
","""event"",""trial"",""time""
""fullscreenenter"",""1"",""2201""
","
","","","-1","","","16","13203","5678","l","elianto","#3366ff99","-1","-1","1","+10","[]","0","2","","","13203","36","1","2","win","no-go","0"
"pit-trial","158","1061420","0.0-41.0","battery-v0.2","","""event"",""trial"",""time""
""fullscreenenter"",""1"",""2201""
","
","
","""event"",""trial"",""time""
""fullscreenenter"",""1"",""2201""
","
","","","-1","","","16","13203","5678","g","elianto","#f73b6a7A","-1","-1","1","0","[]","0","2","","","13203","37","3","4","lose","no-go","0"
"pit-trial","159","1064815","0.0-42.0","battery-v0.2","","""event"",""trial"",""time""
""fullscreenenter"",""1"",""2201""
","
","
","""event"",""trial"",""time""
""fullscreenenter"",""1"",""2201""
","
","","","534","","","16","13203","5678","a","elianto","#f73b6a7A"," "," ","1","0","[1385]","1","2","","","13203","38","2","3","lose","go","0"
"pit-trial","160","1068366","0.0-43.0","battery-v0.2","","""event"",""trial"",""time""
""fullscreenenter"",""1"",""2201""
","
","
","""event"",""trial"",""time""
""fullscreenenter"",""1"",""2201""
","
","","","684","","","16","13203","5678","u","elianto","#f73b6a7A"," "," ","1","0","[1539]","1","2","","","13203","39","0","3","lose","go","0"
"pit-trial","161","1073235","0.0-44.0","battery-v0.2","","""event"",""trial"",""time""
""fullscreenenter"",""1"",""2201""
","
","
","""event"",""trial"",""time""
""fullscreenenter"",""1"",""2201""
","
","","","-1","","","16","13203","5678","l","elianto","#3366ff99","-1","-1","1","+10","[]","0","2","","","13203","40","1","2","win","no-go","0"
"pit-trial","162","1076644","0.0-45.0","battery-v0.2","","""event"",""trial"",""time""
""fullscreenenter"",""1"",""2201""
","
","
","""event"",""trial"",""time""
""fullscreenenter"",""1"",""2201""
","
","","","547","","","16","13203","5678","a","elianto","#f73b6a7A"," "," ","1","0","[1398]","1","2","","","13203","41","2","3","lose","go","0"
"pit-trial","163","1081502","0.0-46.0","battery-v0.2","","""event"",""trial"",""time""
""fullscreenenter"",""1"",""2201""
","
","
","""event"",""trial"",""time""
""fullscreenenter"",""1"",""2201""
","
","","","-1","","","16","13203","5678","g","elianto","#f73b6a7A","-1","-1","1","-10","[]","0","2","","","13203","42","3","4","lose","no-go","1"
"pit-trial","164","1085062","0.0-47.0","battery-v0.2","","""event"",""trial"",""time""
""fullscreenenter"",""1"",""2201""
","
","
","""event"",""trial"",""time""
""fullscreenenter"",""1"",""2201""
","
","","","697","","","16","13203","5678","u","elianto","#f73b6a7A"," "," ","1","0","[1547]","1","2","","","13203","43","0","3","lose","go","0"
"pit-trial","165","1089922","0.0-48.0","battery-v0.2","","""event"",""trial"",""time""
""fullscreenenter"",""1"",""2201""
","
","
","""event"",""trial"",""time""
""fullscreenenter"",""1"",""2201""
","
","","","-1","","","16","13203","5678","l","elianto","#3366ff99","-1","-1","1","+10","[]","0","2","","","13203","44","1","2","win","no-go","0"
"pit-trial","166","1093323","0.0-49.0","battery-v0.2","","""event"",""trial"",""time""
""fullscreenenter"",""1"",""2201""
","
","
","""event"",""trial"",""time""
""fullscreenenter"",""1"",""2201""
","
","","","539.9999999997672","","","16","13203","5678","a","elianto","#f73b6a7A"," "," ","1","0","[1392]","1","2","","","13203","45","2","3","lose","go","0"
"pit-trial","167","1098186","0.0-50.0","battery-v0.2","","""event"",""trial"",""time""
""fullscreenenter"",""1"",""2201""
","
","
","""event"",""trial"",""time""
""fullscreenenter"",""1"",""2201""
","
","","","-1","","","16","13203","5678","l","elianto","#3366ff99","-1","-1","1","+10","[]","0","2","","","13203","46","1","2","win","no-go","0"
"pit-trial","168","1101854","0.0-51.0","battery-v0.2","","""event"",""trial"",""time""
""fullscreenenter"",""1"",""2201""
","
","
","""event"",""trial"",""time""
""fullscreenenter"",""1"",""2201""
","
","","","807","","","16","13203","5678","u","elianto","#f73b6a7A"," "," ","1","0","[1656.9999999997672]","1","2","","","13203","47","0","3","lose","go","0"
"pit-trial","169","1106721","0.0-52.0","battery-v0.2","","""event"",""trial"",""time""
""fullscreenenter"",""1"",""2201""
","
","
","""event"",""trial"",""time""
""fullscreenenter"",""1"",""2201""
","
","","","-1","","","16","13203","5678","g","elianto","#f73b6a7A","-1","-1","1","0","[]","0","2","","","13203","48","3","4","lose","no-go","0"
"pit-trial","170","1110206","0.0-53.0","battery-v0.2","","""event"",""trial"",""time""
""fullscreenenter"",""1"",""2201""
","
","
","""event"",""trial"",""time""
""fullscreenenter"",""1"",""2201""
","
","","","616","","","16","13203","5678","a","elianto","#f73b6a7A"," "," ","1","0","[1468]","1","2","","","13203","49","2","3","lose","go","0"
"pit-trial","171","1115068","0.0-54.0","battery-v0.2","","""event"",""trial"",""time""
""fullscreenenter"",""1"",""2201""
","
","
","""event"",""trial"",""time""
""fullscreenenter"",""1"",""2201""
","
","","","-1","","","16","13203","5678","g","elianto","#f73b6a7A","-1","-1","1","0","[]","0","2","","","13203","50","3","4","lose","no-go","0"
"pit-trial","172","1118571","0.0-55.0","battery-v0.2","","""event"",""trial"",""time""
""fullscreenenter"",""1"",""2201""
","
","
","""event"",""trial"",""time""
""fullscreenenter"",""1"",""2201""
","
","","","637","","","16","13203","5678","u","elianto","#f73b6a7A"," "," ","1","0","[1490]","1","2","","","13203","51","0","3","lose","go","0"
"pit-trial","173","1123429","0.0-56.0","battery-v0.2","","""event"",""trial"",""time""
""fullscreenenter"",""1"",""2201""
","
","
","""event"",""trial"",""time""
""fullscreenenter"",""1"",""2201""
","
","","","-1","","","16","13203","5678","l","elianto","#3366ff99","-1","-1","1","+10","[]","0","2","","","13203","52","1","2","win","no-go","0"
"pit-trial","174","1128290","0.0-57.0","battery-v0.2","","""event"",""trial"",""time""
""fullscreenenter"",""1"",""2201""
","
","
","""event"",""trial"",""time""
""fullscreenenter"",""1"",""2201""
","
","","","-1","","","16","13203","5678","l","elianto","#3366ff99","-1","-1","1","+10","[]","0","2","","","13203","53","1","2","win","no-go","0"
"pit-trial","175","1131830","0.0-58.0","battery-v0.2","","""event"",""trial"",""time""
""fullscreenenter"",""1"",""2201""
","
","
","""event"",""trial"",""time""
""fullscreenenter"",""1"",""2201""
","
","","","682","","","16","13203","5678","u","elianto","#f73b6a7A"," "," ","1","0","[1532]","1","2","","","13203","54","0","3","lose","go","0"
"pit-trial","176","1136691","0.0-59.0","battery-v0.2","","""event"",""trial"",""time""
""fullscreenenter"",""1"",""2201""
","
","
","""event"",""trial"",""time""
""fullscreenenter"",""1"",""2201""
","
","","","-1","","","16","13203","5678","g","elianto","#f73b6a7A","-1","-1","1","0","[]","0","2","","","13203","55","3","4","lose","no-go","0"
"pit-trial","177","1140140","0.0-60.0","battery-v0.2","","""event"",""trial"",""time""
""fullscreenenter"",""1"",""2201""
","
","
","""event"",""trial"",""time""
""fullscreenenter"",""1"",""2201""
","
","","","585","","","16","13203","5678","a","elianto","#f73b6a7A"," "," ","1","0","[1436]","1","2","","","13203","56","2","3","lose","go","0"
"pit-trial","178","1144390","0.0-61.0","battery-v0.2","","""event"",""trial"",""time""
""fullscreenenter"",""1"",""2201""
","
","
","""event"",""trial"",""time""
""fullscreenenter"",""1"",""2201""
","
","","","1390","","","16","13203","5678","p","elianto","#3366ff99"," "," ","1","0","[2241]","1","2","","","13203","57","4","1","win","go","1"
"pit-trial","179","1147950","0.0-62.0","battery-v0.2","","""event"",""trial"",""time""
""fullscreenenter"",""1"",""2201""
","
","
","""event"",""trial"",""time""
""fullscreenenter"",""1"",""2201""
","
","","","698","","","16","13203","5678","a","elianto","#f73b6a7A"," "," ","1","0","[1549]","1","2","","","13203","58","2","3","lose","go","0"
"pit-trial","180","1152812","0.0-63.0","battery-v0.2","","""event"",""trial"",""time""
""fullscreenenter"",""1"",""2201""
","
","
","""event"",""trial"",""time""
""fullscreenenter"",""1"",""2201""
","
","","","-1","","","16","13203","5678","g","elianto","#f73b6a7A","-1","-1","1","0","[]","0","2","","","13203","59","3","4","lose","no-go","0"
"pit-trial","181","1156391","0.0-64.0","battery-v0.2","","""event"",""trial"",""time""
""fullscreenenter"",""1"",""2201""
","
","
","""event"",""trial"",""time""
""fullscreenenter"",""1"",""2201""
","
","","","715.9999999997672","","","16","13203","5678","u","elianto","#f73b6a7A"," "," ","1","0","[1566]","1","2","","","13203","60","0","3","lose","go","0"
"pit-trial","182","1160111","0.0-65.0","battery-v0.2","","""event"",""trial"",""time""
""fullscreenenter"",""1"",""2201""
","
","
","""event"",""trial"",""time""
""fullscreenenter"",""1"",""2201""
","
","","","858","","","16","13203","5678","a","elianto","#f73b6a7A"," "," ","1","0","[1709]","1","2","","","13203","61","2","3","lose","go","0"
"pit-trial","183","1163800","0.0-66.0","battery-v0.2","","""event"",""trial"",""time""
""fullscreenenter"",""1"",""2201""
","
","
","""event"",""trial"",""time""
""fullscreenenter"",""1"",""2201""
","
","","","827","","","16","13203","5678","p","elianto","#3366ff99"," "," ","1","+10","[1677]","1","2","","","13203","62","4","1","win","go","0"
"pit-trial","184","1168663","0.0-67.0","battery-v0.2","","""event"",""trial"",""time""
""fullscreenenter"",""1"",""2201""
","
","
","""event"",""trial"",""time""
""fullscreenenter"",""1"",""2201""
","
","","","-1","","","16","13203","5678","g","elianto","#f73b6a7A","-1","-1","1","0","[]","0","2","","","13203","63","3","4","lose","no-go","0"
"pit-trial","185","1173530","0.0-68.0","battery-v0.2","","""event"",""trial"",""time""
""fullscreenenter"",""1"",""2201""
","
","
","""event"",""trial"",""time""
""fullscreenenter"",""1"",""2201""
","
","","","-1","","","16","13203","5678","l","elianto","#3366ff99","-1","-1","1","+10","[]","0","2","","","13203","64","1","2","win","no-go","0"
"pit-trial","186","1177642","0.0-69.0","battery-v0.2","","""event"",""trial"",""time""
""fullscreenenter"",""1"",""2201""
","
","
","""event"",""trial"",""time""
""fullscreenenter"",""1"",""2201""
","
","","","1253","","","16","13203","5678","s","elianto","#3366ff99","-1"," ","0","0","[2105]","1","2","","","13203","65","5","2","win","no-go","0"
"pit-trial","187","1181267","0.0-70.0","battery-v0.2","","""event"",""trial"",""time""
""fullscreenenter"",""1"",""2201""
","
","
","""event"",""trial"",""time""
""fullscreenenter"",""1"",""2201""
","
","","","767","","","16","13203","5678","p","elianto","#3366ff99"," "," ","1","+10","[1618]","1","2","","","13203","66","4","1","win","go","0"
"pit-trial","188","1186127","0.0-71.0","battery-v0.2","","""event"",""trial"",""time""
""fullscreenenter"",""1"",""2201""
","
","
","""event"",""trial"",""time""
""fullscreenenter"",""1"",""2201""
","
","","","-1","","","16","13203","5678","l","elianto","#3366ff99","-1","-1","1","+10","[]","0","2","","","13203","67","1","2","win","no-go","0"
"pit-trial","189","1190988","0.0-72.0","battery-v0.2","","""event"",""trial"",""time""
""fullscreenenter"",""1"",""2201""
","
","
","""event"",""trial"",""time""
""fullscreenenter"",""1"",""2201""
","
","","","-1","","","16","13203","5678","g","elianto","#f73b6a7A","-1","-1","1","-10","[]","0","2","","","13203","68","3","4","lose","no-go","1"
"pit-trial","190","1195847","0.0-73.0","battery-v0.2","","""event"",""trial"",""time""
""fullscreenenter"",""1"",""2201""
","
","
","""event"",""trial"",""time""
""fullscreenenter"",""1"",""2201""
","
","","","-1","","","16","13203","5678","l","elianto","#3366ff99","-1","-1","1","+10","[]","0","2","","","13203","69","1","2","win","no-go","0"
"pit-trial","191","1199699","0.0-74.0","battery-v0.2","","""event"",""trial"",""time""
""fullscreenenter"",""1"",""2201""
","
","
","""event"",""trial"",""time""
""fullscreenenter"",""1"",""2201""
","
","","","992","","","16","13203","5678","s","elianto","#3366ff99","-1"," ","0","0","[1843.9999999997672]","1","2","","","13203","70","5","2","win","no-go","0"
"pit-trial","192","1203749","0.0-75.0","battery-v0.2","","""event"",""trial"",""time""
""fullscreenenter"",""1"",""2201""
","
","
","""event"",""trial"",""time""
""fullscreenenter"",""1"",""2201""
","
","","","1188","","","16","13203","5678","a","elianto","#f73b6a7A"," "," ","1","0","[2039]","1","2","","","13203","71","2","3","lose","go","0"
"pit-trial","193","1207793","0.0-76.0","battery-v0.2","","""event"",""trial"",""time""
""fullscreenenter"",""1"",""2201""
","
","
","""event"",""trial"",""time""
""fullscreenenter"",""1"",""2201""
","
","","","1184","","","16","13203","5678","p","elianto","#3366ff99"," "," ","1","+10","[2034]","1","2","","","13203","72","4","1","win","go","0"
"pit-trial","194","1212654","0.0-77.0","battery-v0.2","","""event"",""trial"",""time""
""fullscreenenter"",""1"",""2201""
","
","
","""event"",""trial"",""time""
""fullscreenenter"",""1"",""2201""
","
","","","-1","","","16","13203","5678","s","elianto","#3366ff99","-1","-1","1","+10","[]","0","2","","","13203","73","5","2","win","no-go","0"
"pit-trial","195","1217517","0.0-78.0","battery-v0.2","","""event"",""trial"",""time""
""fullscreenenter"",""1"",""2201""
","
","
","""event"",""trial"",""time""
""fullscreenenter"",""1"",""2201""
","
","","","-1","","","16","13203","5678","g","elianto","#f73b6a7A","-1","-1","1","-10","[]","0","2","","","13203","74","3","4","lose","no-go","1"
"pit-trial","196","1222379","0.0-79.0","battery-v0.2","","""event"",""trial"",""time""
""fullscreenenter"",""1"",""2201""
","
","
","""event"",""trial"",""time""
""fullscreenenter"",""1"",""2201""
","
","","","-1","","","16","13203","5678","l","elianto","#3366ff99","-1","-1","1","+10","[]","0","2","","","13203","75","1","2","win","no-go","0"
"pit-trial","197","1226277","0.0-80.0","battery-v0.2","","""event"",""trial"",""time""
""fullscreenenter"",""1"",""2201""
","
","
","""event"",""trial"",""time""
""fullscreenenter"",""1"",""2201""
","
","","","1036","","","16","13203","5678","p","elianto","#3366ff99"," "," ","1","+10","[1887]","1","2","","","13203","76","4","1","win","go","0"
"pit-trial","198","1230158","0.0-81.0","battery-v0.2","","""event"",""trial"",""time""
""fullscreenenter"",""1"",""2201""
","
","
","""event"",""trial"",""time""
""fullscreenenter"",""1"",""2201""
","
","","","1018","","","16","13203","5678","p","elianto","#3366ff99"," "," ","1","+10","[1869]","1","2","","","13203","77","4","1","win","go","0"
"pit-trial","199","1235028","0.0-82.0","battery-v0.2","","""event"",""trial"",""time""
""fullscreenenter"",""1"",""2201""
","
","
","""event"",""trial"",""time""
""fullscreenenter"",""1"",""2201""
","
","","","-1","","","16","13203","5678","s","elianto","#3366ff99","-1","-1","1","+10","[]","0","2","","","13203","78","5","2","win","no-go","0"
"pit-trial","200","1239886","0.0-83.0","battery-v0.2","","""event"",""trial"",""time""
""fullscreenenter"",""1"",""2201""
","
","
","""event"",""trial"",""time""
""fullscreenenter"",""1"",""2201""
","
","","","-1","","","16","13203","5678","g","elianto","#f73b6a7A","-1","-1","1","-10","[]","0","2","","","13203","79","3","4","lose","no-go","1"
"pit-trial","201","1243750","0.0-84.0","battery-v0.2","","""event"",""trial"",""time""
""fullscreenenter"",""1"",""2201""
","
","
","""event"",""trial"",""time""
""fullscreenenter"",""1"",""2201""
","
","","","1005","","","16","13203","5678","p","elianto","#3366ff99"," "," ","1","0","[1856]","1","2","","","13203","80","4","1","win","go","1"
"pit-trial","202","1247577","0.0-85.0","battery-v0.2","","""event"",""trial"",""time""
""fullscreenenter"",""1"",""2201""
","
","
","""event"",""trial"",""time""
""fullscreenenter"",""1"",""2201""
","
","","","962.9999999997672","","","16","13203","5678","p","elianto","#3366ff99"," "," ","1","+10","[1814]","1","2","","","13203","81","4","1","win","go","0"
"pit-trial","203","1252439","0.0-86.0","battery-v0.2","","""event"",""trial"",""time""
""fullscreenenter"",""1"",""2201""
","
","
","""event"",""trial"",""time""
""fullscreenenter"",""1"",""2201""
","
","","","-1","","","16","13203","5678","s","elianto","#3366ff99","-1","-1","1","+10","[]","0","2","","","13203","82","5","2","win","no-go","0"
"pit-trial","204","1256907","0.0-87.0","battery-v0.2","","""event"",""trial"",""time""
""fullscreenenter"",""1"",""2201""
","
","
","""event"",""trial"",""time""
""fullscreenenter"",""1"",""2201""
","
","","","1607","","","16","13203","5678","e","elianto","#f73b6a7A","-1"," ","0","0","[2457.999999999767]","1","2","","","13203","83","7","4","lose","no-go","1"
"pit-trial","205","1261768","0.0-88.0","battery-v0.2","","""event"",""trial"",""time""
""fullscreenenter"",""1"",""2201""
","
","
","""event"",""trial"",""time""
""fullscreenenter"",""1"",""2201""
","
","","","-1","","","16","13203","5678","g","elianto","#f73b6a7A","-1","-1","1","-10","[]","0","2","","","13203","84","3","4","lose","no-go","1"
"pit-trial","206","1265635","0.0-89.0","battery-v0.2","","""event"",""trial"",""time""
""fullscreenenter"",""1"",""2201""
","
","
","""event"",""trial"",""time""
""fullscreenenter"",""1"",""2201""
","
","","","1002.9999999997672","","","16","13203","5678","e","elianto","#f73b6a7A","-1"," ","0","-10","[1853]","1","2","","","13203","85","7","4","lose","no-go","0"
"pit-trial","207","1269598","0.0-90.0","battery-v0.2","","""event"",""trial"",""time""
""fullscreenenter"",""1"",""2201""
","
","
","""event"",""trial"",""time""
""fullscreenenter"",""1"",""2201""
","
","","","1101.9999999997672","","","16","13203","5678","w","elianto","#f73b6a7A"," "," ","1","0","[1952]","1","2","","","13203","86","6","3","lose","go","0"
"pit-trial","208","1274460","0.0-91.0","battery-v0.2","","""event"",""trial"",""time""
""fullscreenenter"",""1"",""2201""
","
","
","""event"",""trial"",""time""
""fullscreenenter"",""1"",""2201""
","
","","","-1","","","16","13203","5678","s","elianto","#3366ff99","-1","-1","1","+10","[]","0","2","","","13203","87","5","2","win","no-go","0"
"pit-trial","209","1278327","0.0-92.0","battery-v0.2","","""event"",""trial"",""time""
""fullscreenenter"",""1"",""2201""
","
","
","""event"",""trial"",""time""
""fullscreenenter"",""1"",""2201""
","
","","","1005","","","16","13203","5678","p","elianto","#3366ff99"," "," ","1","+10","[1856]","1","2","","","13203","88","4","1","win","go","0"
"pit-trial","210","1282050","0.0-93.0","battery-v0.2","","""event"",""trial"",""time""
""fullscreenenter"",""1"",""2201""
","
","
","""event"",""trial"",""time""
""fullscreenenter"",""1"",""2201""
","
","","","860","","","16","13203","5678","p","elianto","#3366ff99"," "," ","1","0","[1711]","1","2","","","13203","89","4","1","win","go","1"
"pit-trial","211","1286297","0.0-94.0","battery-v0.2","","""event"",""trial"",""time""
""fullscreenenter"",""1"",""2201""
","
","
","""event"",""trial"",""time""
""fullscreenenter"",""1"",""2201""
","
","","","1386","","","16","13203","5678","w","elianto","#f73b6a7A"," "," ","1","0","[2236]","1","2","","","13203","90","6","3","lose","go","0"
"pit-trial","212","1290325","0.0-95.0","battery-v0.2","","""event"",""trial"",""time""
""fullscreenenter"",""1"",""2201""
","
","
","""event"",""trial"",""time""
""fullscreenenter"",""1"",""2201""
","
","","","1167","","","16","13203","5678","e","elianto","#f73b6a7A","-1"," ","0","-10","[2017]","1","2","","","13203","91","7","4","lose","no-go","0"
"pit-trial","213","1295187","0.0-96.0","battery-v0.2","","""event"",""trial"",""time""
""fullscreenenter"",""1"",""2201""
","
","
","""event"",""trial"",""time""
""fullscreenenter"",""1"",""2201""
","
","","","-1","","","16","13203","5678","s","elianto","#3366ff99","-1","-1","1","+10","[]","0","2","","","13203","92","5","2","win","no-go","0"
"pit-trial","214","1299286","0.0-97.0","battery-v0.2","","""event"",""trial"",""time""
""fullscreenenter"",""1"",""2201""
","
","
","""event"",""trial"",""time""
""fullscreenenter"",""1"",""2201""
","
","","","1238","","","16","13203","5678","e","elianto","#f73b6a7A","-1"," ","0","0","[2088]","1","2","","","13203","93","7","4","lose","no-go","1"
"pit-trial","215","1304147","0.0-98.0","battery-v0.2","","""event"",""trial"",""time""
""fullscreenenter"",""1"",""2201""
","
","
","""event"",""trial"",""time""
""fullscreenenter"",""1"",""2201""
","
","","","-1","","","16","13203","5678","s","elianto","#3366ff99","-1","-1","1","+10","[]","0","2","","","13203","94","5","2","win","no-go","0"
"pit-trial","216","1307924","0.0-99.0","battery-v0.2","","""event"",""trial"",""time""
""fullscreenenter"",""1"",""2201""
","
","
","""event"",""trial"",""time""
""fullscreenenter"",""1"",""2201""
","
","","","913","","","16","13203","5678","w","elianto","#f73b6a7A"," "," ","1","0","[1764]","1","2","","","13203","95","6","3","lose","go","0"
"pit-trial","217","1312137","0.0-100.0","battery-v0.2","","""event"",""trial"",""time""
""fullscreenenter"",""1"",""2201""
","
","
","""event"",""trial"",""time""
""fullscreenenter"",""1"",""2201""
","
","","","1353","","","16","13203","5678","d","elianto","#3366ff99"," "," ","1","+10","[2204]","1","2","","","13203","96","8","1","win","go","0"
"pit-trial","218","1315874","0.0-101.0","battery-v0.2","","""event"",""trial"",""time""
""fullscreenenter"",""1"",""2201""
","
","
","""event"",""trial"",""time""
""fullscreenenter"",""1"",""2201""
","
","","","871.0000000002328","","","16","13203","5678","w","elianto","#f73b6a7A"," "," ","1","0","[1722.0000000002328]","1","2","","","13203","97","6","3","lose","go","0"
"pit-trial","219","1319624","0.0-102.0","battery-v0.2","","""event"",""trial"",""time""
""fullscreenenter"",""1"",""2201""
","
","
","""event"",""trial"",""time""
""fullscreenenter"",""1"",""2201""
","
","","","889","","","16","13203","5678","d","elianto","#3366ff99"," "," ","1","+10","[1741]","1","2","","","13203","98","8","1","win","go","0"
"pit-trial","220","1324486","0.0-103.0","battery-v0.2","","""event"",""trial"",""time""
""fullscreenenter"",""1"",""2201""
","
","
","""event"",""trial"",""time""
""fullscreenenter"",""1"",""2201""
","
","","","-1","","","16","13203","5678","s","elianto","#3366ff99","-1","-1","1","+10","[]","0","2","","","13203","99","5","2","win","no-go","0"
"pit-trial","221","1329344","0.0-104.0","battery-v0.2","","""event"",""trial"",""time""
""fullscreenenter"",""1"",""2201""
","
","
","""event"",""trial"",""time""
""fullscreenenter"",""1"",""2201""
","
","","","-1","","","16","13203","5678","e","elianto","#f73b6a7A","-1","-1","1","0","[]","0","2","","","13203","100","7","4","lose","no-go","0"
"pit-trial","222","1333010","0.0-105.0","battery-v0.2","","""event"",""trial"",""time""
""fullscreenenter"",""1"",""2201""
","
","
","""event"",""trial"",""time""
""fullscreenenter"",""1"",""2201""
","
","","","805","","","16","13203","5678","d","elianto","#3366ff99"," "," ","1","+10","[1656]","1","2","","","13203","101","8","1","win","go","0"
"pit-trial","223","1337871","0.0-106.0","battery-v0.2","","""event"",""trial"",""time""
""fullscreenenter"",""1"",""2201""
","
","
","""event"",""trial"",""time""
""fullscreenenter"",""1"",""2201""
","
","","","-1","","","16","13203","5678","s","elianto","#3366ff99","-1","-1","1","0","[]","0","2","","","13203","102","5","2","win","no-go","1"
"pit-trial","224","1342732","0.0-107.0","battery-v0.2","","""event"",""trial"",""time""
""fullscreenenter"",""1"",""2201""
","
","
","""event"",""trial"",""time""
""fullscreenenter"",""1"",""2201""
","
","","","-1","","","16","13203","5678","e","elianto","#f73b6a7A","-1","-1","1","0","[]","0","2","","","13203","103","7","4","lose","no-go","0"
"pit-trial","225","1346705","0.0-108.0","battery-v0.2","","""event"",""trial"",""time""
""fullscreenenter"",""1"",""2201""
","
","
","""event"",""trial"",""time""
""fullscreenenter"",""1"",""2201""
","
","","","1112","","","16","13203","5678","j","elianto","#3366ff99"," "," ","1","+10","[1962]","1","2","","","13203","104","9","1","win","go","0"
"pit-trial","226","1351565","0.0-109.0","battery-v0.2","","""event"",""trial"",""time""
""fullscreenenter"",""1"",""2201""
","
","
","""event"",""trial"",""time""
""fullscreenenter"",""1"",""2201""
","
","","","-1","","","16","13203","5678","w","elianto","#f73b6a7A"," ","-1","0","-10","[3222]","1","2","","","13203","105","6","3","lose","go","0"
"pit-trial","227","1355091","0.0-110.0","battery-v0.2","","""event"",""trial"",""time""
""fullscreenenter"",""1"",""2201""
","
","
","""event"",""trial"",""time""
""fullscreenenter"",""1"",""2201""
","
","","","664.9999999997672","","","16","13203","5678","p","elianto","#3366ff99"," "," ","1","0","[1516]","1","2","","","13203","106","4","1","win","go","1"
"pit-trial","228","1358622","0.0-111.0","battery-v0.2","","""event"",""trial"",""time""
""fullscreenenter"",""1"",""2201""
","
","
","""event"",""trial"",""time""
""fullscreenenter"",""1"",""2201""
","
","","","664","","","16","13203","5678","d","elianto","#3366ff99"," "," ","1","+10","[1518]","1","2","","","13203","107","8","1","win","go","0"
"pit-trial","229","1362162","0.0-112.0","battery-v0.2","","""event"",""trial"",""time""
""fullscreenenter"",""1"",""2201""
","
","
","""event"",""trial"",""time""
""fullscreenenter"",""1"",""2201""
","
","","","682","","","16","13203","5678","j","elianto","#3366ff99"," "," ","1","+10","[1533]","1","2","","","13203","108","9","1","win","go","0"
"pit-trial","230","1365605","0.0-113.0","battery-v0.2","","""event"",""trial"",""time""
""fullscreenenter"",""1"",""2201""
","
","
","""event"",""trial"",""time""
""fullscreenenter"",""1"",""2201""
","
","","","580","","","16","13203","5678","d","elianto","#3366ff99"," "," ","1","0","[1431]","1","2","","","13203","109","8","1","win","go","1"
"pit-trial","231","1370471","0.0-114.0","battery-v0.2","","""event"",""trial"",""time""
""fullscreenenter"",""1"",""2201""
","
","
","""event"",""trial"",""time""
""fullscreenenter"",""1"",""2201""
","
","","","-1","","","16","13203","5678","s","elianto","#3366ff99","-1","-1","1","+10","[]","0","2","","","13203","110","5","2","win","no-go","0"
"pit-trial","232","1374095","0.0-115.0","battery-v0.2","","""event"",""trial"",""time""
""fullscreenenter"",""1"",""2201""
","
","
","""event"",""trial"",""time""
""fullscreenenter"",""1"",""2201""
","
","","","764.9999999997672","","","16","13203","5678","j","elianto","#3366ff99"," "," ","1","+10","[1616]","1","2","","","13203","111","9","1","win","go","0"
"pit-trial","233","1377664","0.0-116.0","battery-v0.2","","""event"",""trial"",""time""
""fullscreenenter"",""1"",""2201""
","
","
","""event"",""trial"",""time""
""fullscreenenter"",""1"",""2201""
","
","","","711","","","16","13203","5678","w","elianto","#f73b6a7A"," "," ","1","0","[1561]","1","2","","","13203","112","6","3","lose","go","0"
"pit-trial","234","1382524","0.0-117.0","battery-v0.2","","""event"",""trial"",""time""
""fullscreenenter"",""1"",""2201""
","
","
","""event"",""trial"",""time""
""fullscreenenter"",""1"",""2201""
","
","","","-1","","","16","13203","5678","s","elianto","#3366ff99","-1","-1","1","+10","[]","0","2","","","13203","113","5","2","win","no-go","0"
"pit-trial","235","1386079","0.0-118.0","battery-v0.2","","""event"",""trial"",""time""
""fullscreenenter"",""1"",""2201""
","
","
","""event"",""trial"",""time""
""fullscreenenter"",""1"",""2201""
","
","","","693","","","16","13203","5678","w","elianto","#f73b6a7A"," "," ","1","-10","[1544]","1","2","","","13203","114","6","3","lose","go","1"
"pit-trial","236","1389601","0.0-119.0","battery-v0.2","","""event"",""trial"",""time""
""fullscreenenter"",""1"",""2201""
","
","
","""event"",""trial"",""time""
""fullscreenenter"",""1"",""2201""
","
","","","661","","","16","13203","5678","d","elianto","#3366ff99"," "," ","1","+10","[1512]","1","2","","","13203","115","8","1","win","go","0"
"pit-trial","237","1393210","0.0-120.0","battery-v0.2","","""event"",""trial"",""time""
""fullscreenenter"",""1"",""2201""
","
","
","""event"",""trial"",""time""
""fullscreenenter"",""1"",""2201""
","
","","","745.9999999997672","","","16","13203","5678","j","elianto","#3366ff99"," "," ","1","0","[1597]","1","2","","","13203","116","9","1","win","go","1"
"pit-trial","238","1396635","0.0-121.0","battery-v0.2","","""event"",""trial"",""time""
""fullscreenenter"",""1"",""2201""
","
","
","""event"",""trial"",""time""
""fullscreenenter"",""1"",""2201""
","
","","","567","","","16","13203","5678","j","elianto","#3366ff99"," "," ","1","+10","[1418.0000000002328]","1","2","","","13203","117","9","1","win","go","0"
"pit-trial","239","1401493","0.0-122.0","battery-v0.2","","""event"",""trial"",""time""
""fullscreenenter"",""1"",""2201""
","
","
","""event"",""trial"",""time""
""fullscreenenter"",""1"",""2201""
","
","","","-1","","","16","13203","5678","s","elianto","#3366ff99","-1","-1","1","+10","[]","0","2","","","13203","118","5","2","win","no-go","0"
"pit-trial","240","1404971","0.0-123.0","battery-v0.2","","""event"",""trial"",""time""
""fullscreenenter"",""1"",""2201""
","
","
","""event"",""trial"",""time""
""fullscreenenter"",""1"",""2201""
","
","","","615","","","16","13203","5678","d","elianto","#3366ff99"," "," ","1","+10","[1466.9999999997672]","1","2","","","13203","119","8","1","win","go","0"
"pit-trial","241","1408450","0.0-124.0","battery-v0.2","","""event"",""trial"",""time""
""fullscreenenter"",""1"",""2201""
","
","
","""event"",""trial"",""time""
""fullscreenenter"",""1"",""2201""
","
","","","612","","","16","13203","5678","w","elianto","#f73b6a7A"," "," ","1","0","[1462]","1","2","","","13203","120","6","3","lose","go","0"
"pit-trial","242","1413310","0.0-125.0","battery-v0.2","","""event"",""trial"",""time""
""fullscreenenter"",""1"",""2201""
","
","
","""event"",""trial"",""time""
""fullscreenenter"",""1"",""2201""
","
","","","-1","","","16","13203","5678","e","elianto","#f73b6a7A","-1","-1","1","0","[]","0","2","","","13203","121","7","4","lose","no-go","0"
"pit-trial","243","1416889","0.0-126.0","battery-v0.2","","""event"",""trial"",""time""
""fullscreenenter"",""1"",""2201""
","
","
","""event"",""trial"",""time""
""fullscreenenter"",""1"",""2201""
","
","","","720","","","16","13203","5678","w","elianto","#f73b6a7A"," "," ","1","0","[1569.9999999997672]","1","2","","","13203","122","6","3","lose","go","0"
"pit-trial","244","1420315","0.0-127.0","battery-v0.2","","""event"",""trial"",""time""
""fullscreenenter"",""1"",""2201""
","
","
","""event"",""trial"",""time""
""fullscreenenter"",""1"",""2201""
","
","","","566","","","16","13203","5678","d","elianto","#3366ff99"," "," ","1","+10","[1416]","1","2","","","13203","123","8","1","win","go","0"
"pit-trial","245","1423673","0.0-128.0","battery-v0.2","","""event"",""trial"",""time""
""fullscreenenter"",""1"",""2201""
","
","
","""event"",""trial"",""time""
""fullscreenenter"",""1"",""2201""
","
","","","498","","","16","13203","5678","j","elianto","#3366ff99"," "," ","1","+10","[1348]","1","2","","","13203","124","9","1","win","go","0"
"pit-trial","246","1427041","0.0-129.0","battery-v0.2","","""event"",""trial"",""time""
""fullscreenenter"",""1"",""2201""
","
","
","""event"",""trial"",""time""
""fullscreenenter"",""1"",""2201""
","
","","","507","","","16","13203","5678","d","elianto","#3366ff99"," "," ","1","+10","[1356.9999999997672]","1","2","","","13203","125","8","1","win","go","0"
"pit-trial","247","1430433","0.0-130.0","battery-v0.2","","""event"",""trial"",""time""
""fullscreenenter"",""1"",""2201""
","
","
","""event"",""trial"",""time""
""fullscreenenter"",""1"",""2201""
","
","","","526.9999999997672","","","16","13203","5678","w","elianto","#f73b6a7A"," "," ","1","0","[1378]","1","2","","","13203","126","6","3","lose","go","0"
"pit-trial","248","1433852","0.0-131.0","battery-v0.2","","""event"",""trial"",""time""
""fullscreenenter"",""1"",""2201""
","
","
","""event"",""trial"",""time""
""fullscreenenter"",""1"",""2201""
","
","","","556","","","16","13203","5678","j","elianto","#3366ff99"," "," ","1","+10","[1407]","1","2","","","13203","127","9","1","win","go","0"
"pit-trial","249","1438722","0.0-132.0","battery-v0.2","","""event"",""trial"",""time""
""fullscreenenter"",""1"",""2201""
","
","
","""event"",""trial"",""time""
""fullscreenenter"",""1"",""2201""
","
","","","-1","","","16","13203","5678","e","elianto","#f73b6a7A","-1","-1","1","0","[]","0","2","","","13203","128","7","4","lose","no-go","0"
"pit-trial","250","1443580","0.0-133.0","battery-v0.2","","""event"",""trial"",""time""
""fullscreenenter"",""1"",""2201""
","
","
","""event"",""trial"",""time""
""fullscreenenter"",""1"",""2201""
","
","","","-1","","","16","13203","5678","e","elianto","#f73b6a7A","-1","-1","1","0","[]","0","2","","","13203","129","7","4","lose","no-go","0"
"pit-trial","251","1446998","0.0-134.0","battery-v0.2","","""event"",""trial"",""time""
""fullscreenenter"",""1"",""2201""
","
","
","""event"",""trial"",""time""
""fullscreenenter"",""1"",""2201""
","
","","","556","","","16","13203","5678","j","elianto","#3366ff99"," "," ","1","+10","[1405]","1","2","","","13203","130","9","1","win","go","0"
"pit-trial","252","1450449","0.0-135.0","battery-v0.2","","""event"",""trial"",""time""
""fullscreenenter"",""1"",""2201""
","
","
","""event"",""trial"",""time""
""fullscreenenter"",""1"",""2201""
","
","","","594","","","16","13203","5678","w","elianto","#f73b6a7A"," "," ","1","0","[1444]","1","2","","","13203","131","6","3","lose","go","0"
"pit-trial","253","1453839","0.0-136.0","battery-v0.2","","""event"",""trial"",""time""
""fullscreenenter"",""1"",""2201""
","
","
","""event"",""trial"",""time""
""fullscreenenter"",""1"",""2201""
","
","","","528","","","16","13203","5678","d","elianto","#3366ff99"," "," ","1","+10","[1378.0000000002328]","1","2","","","13203","132","8","1","win","go","0"
"pit-trial","254","1457280","0.0-137.0","battery-v0.2","","""event"",""trial"",""time""
""fullscreenenter"",""1"",""2201""
","
","
","""event"",""trial"",""time""
""fullscreenenter"",""1"",""2201""
","
","","","581","","","16","13203","5678","j","elianto","#3366ff99"," "," ","1","+10","[1432]","1","2","","","13203","133","9","1","win","go","0"
"pit-trial","255","1462149","0.0-138.0","battery-v0.2","","""event"",""trial"",""time""
""fullscreenenter"",""1"",""2201""
","
","
","""event"",""trial"",""time""
""fullscreenenter"",""1"",""2201""
","
","","","-1","","","16","13203","5678","e","elianto","#f73b6a7A","-1","-1","1","-10","[]","0","2","","","13203","134","7","4","lose","no-go","1"
"pit-trial","256","1465582","0.0-139.0","battery-v0.2","","""event"",""trial"",""time""
""fullscreenenter"",""1"",""2201""
","
","
","""event"",""trial"",""time""
""fullscreenenter"",""1"",""2201""
","
","","","575","","","16","13203","5678","d","elianto","#3366ff99"," "," ","1","+10","[1425]","1","2","","","13203","135","8","1","win","go","0"
"pit-trial","257","1468952","0.0-140.0","battery-v0.2","","""event"",""trial"",""time""
""fullscreenenter"",""1"",""2201""
","
","
","""event"",""trial"",""time""
""fullscreenenter"",""1"",""2201""
","
","","","509.00000000023283","","","16","13203","5678","w","elianto","#f73b6a7A"," "," ","1","0","[1360.0000000002328]","1","2","","","13203","136","6","3","lose","go","0"
"pit-trial","258","1472437","0.0-141.0","battery-v0.2","","""event"",""trial"",""time""
""fullscreenenter"",""1"",""2201""
","
","
","""event"",""trial"",""time""
""fullscreenenter"",""1"",""2201""
","
","","","624","","","16","13203","5678","w","elianto","#f73b6a7A"," "," ","1","-10","[1475]","1","2","","","13203","137","6","3","lose","go","1"
"pit-trial","259","1477298","0.0-142.0","battery-v0.2","","""event"",""trial"",""time""
""fullscreenenter"",""1"",""2201""
","
","
","""event"",""trial"",""time""
""fullscreenenter"",""1"",""2201""
","
","","","-1","","","16","13203","5678","e","elianto","#f73b6a7A","-1","-1","1","0","[]","0","2","","","13203","138","7","4","lose","no-go","0"
"pit-trial","260","1481782","0.0-143.0","battery-v0.2","","""event"",""trial"",""time""
""fullscreenenter"",""1"",""2201""
","
","
","""event"",""trial"",""time""
""fullscreenenter"",""1"",""2201""
","
","","","1625","","","16","13203","5678","d","elianto","#3366ff99"," "," ","1","+10","[2474.999999999767]","1","2","","","13203","139","8","1","win","go","0"
"pit-trial","261","1485749","0.0-144.0","battery-v0.2","","""event"",""trial"",""time""
""fullscreenenter"",""1"",""2201""
","
","
","""event"",""trial"",""time""
""fullscreenenter"",""1"",""2201""
","
","","","1106","","","16","13203","5678","j","elianto","#3366ff99"," "," ","1","+10","[1956]","1","2","","","13203","140","9","1","win","go","0"
"pit-instructions","262","1535658","0.0-145.0","battery-v0.2","","""event"",""trial"",""time""
""fullscreenenter"",""1"",""2201""
","
","
","""event"",""trial"",""time""
""fullscreenenter"",""1"",""2201""
","
","","[{""page_index"":0,""viewing_time"":40554},{""page_index"":1,""viewing_time"":9348}]","49902","","","","","","","","","","","","","","","","","","","","","","","",""
"pit-trial","263","1539728","0.0-146.0","battery-v0.2","","""event"",""trial"",""time""
""fullscreenenter"",""1"",""2201""
","
","
","""event"",""trial"",""time""
""fullscreenenter"",""1"",""2201""
","
","","","1204","","","16","13203","5678","n","elianto","#f73b6a7A","-1"," ","0","0","[2054]","1","3","","","13203","141","0","4","lose","no-go","1"
"pit-trial","264","1543557","0.0-147.0","battery-v0.2","","""event"",""trial"",""time""
""fullscreenenter"",""1"",""2201""
","
","
","""event"",""trial"",""time""
""fullscreenenter"",""1"",""2201""
","
","","","969","","","16","13203","5678","b","elianto","#f73b6a7A"," "," ","1","0","[1819.9999999997672]","1","3","","","13203","142","3","3","lose","go","0"
"pit-trial","265","1547020","0.0-148.0","battery-v0.2","","""event"",""trial"",""time""
""fullscreenenter"",""1"",""2201""
","
","
","""event"",""trial"",""time""
""fullscreenenter"",""1"",""2201""
","
","","","602","","","16","13203","5678","t","elianto","#f73b6a7A","-1"," ","0","0","[1453]","1","3","","","13203","143","2","4","lose","no-go","1"
"pit-trial","266","1550489","0.0-149.0","battery-v0.2","","""event"",""trial"",""time""
""fullscreenenter"",""1"",""2201""
","
","
","""event"",""trial"",""time""
""fullscreenenter"",""1"",""2201""
","
","","","612","","","16","13203","5678","f","elianto","#3366ff99"," "," ","1","+10","[1461]","1","3","","","13203","144","1","1","win","go","0"
"pit-trial","267","1554126","0.0-150.0","battery-v0.2","","""event"",""trial"",""time""
""fullscreenenter"",""1"",""2201""
","
","
","""event"",""trial"",""time""
""fullscreenenter"",""1"",""2201""
","
","","","776","","","16","13203","5678","t","elianto","#f73b6a7A","-1"," ","0","0","[1626]","1","3","","","13203","145","2","4","lose","no-go","1"
"pit-trial","268","1557605","0.0-151.0","battery-v0.2","","""event"",""trial"",""time""
""fullscreenenter"",""1"",""2201""
","
","
","""event"",""trial"",""time""
""fullscreenenter"",""1"",""2201""
","
","","","621","","","16","13203","5678","f","elianto","#3366ff99"," "," ","1","+10","[1473]","1","3","","","13203","146","1","1","win","go","0"
"pit-trial","269","1561107","0.0-152.0","battery-v0.2","","""event"",""trial"",""time""
""fullscreenenter"",""1"",""2201""
","
","
","""event"",""trial"",""time""
""fullscreenenter"",""1"",""2201""
","
","","","643","","","16","13203","5678","n","elianto","#f73b6a7A","-1"," ","0","-10","[1493]","1","3","","","13203","147","0","4","lose","no-go","0"
"pit-trial","270","1564617","0.0-153.0","battery-v0.2","","""event"",""trial"",""time""
""fullscreenenter"",""1"",""2201""
","
","
","""event"",""trial"",""time""
""fullscreenenter"",""1"",""2201""
","
","","","648","","","16","13203","5678","b","elianto","#f73b6a7A"," "," ","1","0","[1498]","1","3","","","13203","148","3","3","lose","go","0"
"pit-trial","271","1568145","0.0-154.0","battery-v0.2","","""event"",""trial"",""time""
""fullscreenenter"",""1"",""2201""
","
","
","""event"",""trial"",""time""
""fullscreenenter"",""1"",""2201""
","
","","","666","","","16","13203","5678","t","elianto","#f73b6a7A","-1"," ","0","-10","[1517]","1","3","","","13203","149","2","4","lose","no-go","0"
"pit-trial","272","1573006","0.0-155.0","battery-v0.2","","""event"",""trial"",""time""
""fullscreenenter"",""1"",""2201""
","
","
","""event"",""trial"",""time""
""fullscreenenter"",""1"",""2201""
","
","","","-1","","","16","13203","5678","b","elianto","#f73b6a7A"," ","-1","0","-10","[]","0","3","","","13203","150","3","3","lose","go","0"
"pit-trial","273","1577867","0.0-156.0","battery-v0.2","","""event"",""trial"",""time""
""fullscreenenter"",""1"",""2201""
","
","
","""event"",""trial"",""time""
""fullscreenenter"",""1"",""2201""
","
","","","-1","","","16","13203","5678","n","elianto","#f73b6a7A","-1","-1","1","0","[]","0","3","","","13203","151","0","4","lose","no-go","0"
"pit-trial","274","1581965","0.0-157.0","battery-v0.2","","""event"",""trial"",""time""
""fullscreenenter"",""1"",""2201""
","
","
","""event"",""trial"",""time""
""fullscreenenter"",""1"",""2201""
","
","","","1235.9999999997672","","","16","13203","5678","f","elianto","#3366ff99"," "," ","1","0","[2086]","1","3","","","13203","152","1","1","win","go","1"
"pit-trial","275","1585683","0.0-158.0","battery-v0.2","","""event"",""trial"",""time""
