"trial_type","trial_index","time_elapsed","internal_node_id","task_version","subject_id","interactions","blur_events","focus_events","fullscreenenter_events","fullscreenexit_events","success","view_history","rt","responses","num_errors","age","subject","participantId","rune","rune_set","hex","correct","choice","accuracy","outcome","keys","total_keys","block","practice","value","sub","trial","stimulus","robot","valence","action","sham"
"pavlovia","0","14","0.0-0.0","battery-v0.2","","""event"",""trial"",""time""
""fullscreenenter"",""1"",""1772""
","
","
","""event"",""trial"",""time""
""fullscreenenter"",""1"",""1772""
","
","","","","","","","","","","","","","","","","","","","","","","","","","","",""
"fullscreen","1","2678","0.0-1.0","battery-v0.2","","""event"",""trial"",""time""
""fullscreenenter"",""1"",""1772""
","
","
","""event"",""trial"",""time""
""fullscreenenter"",""1"",""1772""
","
","true","","","","","","","","","","","","","","","","","","","","","","","","","",""
"pit-instructions","2","11027","0.0-2.0-0.0","battery-v0.2","","""event"",""trial"",""time""
""fullscreenenter"",""1"",""1772""
","
","
","""event"",""trial"",""time""
""fullscreenenter"",""1"",""1772""
","
","","[{""page_index"":0,""viewing_time"":8342}]","8344","","","","","","","","","","","","","","","","","","","","","","","",""
"pit-comprehension","3","14635","0.0-2.0-1.0-0.0","battery-v0.2","","""event"",""trial"",""time""
""fullscreenenter"",""1"",""1772""
","
","
","""event"",""trial"",""time""
""fullscreenenter"",""1"",""1772""
","
","","","3541","[""shark""]","0","25","16876","6565","","","","","","","","","","","","","","","","","","",""
"pit-instructions","4","16082","0.0-2.0-1.0-1.0","battery-v0.2","","""event"",""trial"",""time""
""fullscreenenter"",""1"",""1772""
","
","
","""event"",""trial"",""time""
""fullscreenenter"",""1"",""1772""
","
","","[{""page_index"":0,""viewing_time"":1437}]","1438","","","","","","","","","","","","","","","","","","","","","","","",""
"pit-comprehension","5","19371","0.0-2.0-2.0-0.0","battery-v0.2","","""event"",""trial"",""time""
""fullscreenenter"",""1"",""1772""
","
","
","""event"",""trial"",""time""
""fullscreenenter"",""1"",""1772""
","
","","","3285","[""tiger""]","0","25","16876","6565","","","","","","","","","","","","","","","","","","",""
"pit-instructions","6","21270","0.0-2.0-2.0-1.0","battery-v0.2","","""event"",""trial"",""time""
""fullscreenenter"",""1"",""1772""
","
","
","""event"",""trial"",""time""
""fullscreenenter"",""1"",""1772""
","
","","[{""page_index"":0,""viewing_time"":1892}]","1892","","","","","","","","","","","","","","","","","","","","","","","",""
"pit-instructions","7","110476","0.0-2.0-3.0","battery-v0.2","","""event"",""trial"",""time""
""fullscreenenter"",""1"",""1772""
","
","
","""event"",""trial"",""time""
""fullscreenenter"",""1"",""1772""
","
","","[{""page_index"":0,""viewing_time"":7906},{""page_index"":1,""viewing_time"":5458},{""page_index"":2,""viewing_time"":6789.000000000007},{""page_index"":3,""viewing_time"":5602.999999999993},{""page_index"":4,""viewing_time"":5577},{""page_index"":5,""viewing_time"":5664},{""page_index"":6,""viewing_time"":6714},{""page_index"":7,""viewing_time"":6445},{""page_index"":8,""viewing_time"":6366},{""page_index"":9,""viewing_time"":7440},{""page_index"":10,""viewing_time"":7810},{""page_index"":11,""viewing_time"":5966},{""page_index"":12,""viewing_time"":7086},{""page_index"":13,""viewing_time"":4376}]","89201","","","","","","","","","","","","","","","","","","","","","","","",""
"pit-trial","8","113447","0.0-2.0-4.0-0.0","battery-v0.2","","""event"",""trial"",""time""
""fullscreenenter"",""1"",""1772""
","
","
","""event"",""trial"",""time""
""fullscreenenter"",""1"",""1772""
","
","","","115.00000000001455","","","25","16876","6565","&#9784;","elianto","#FFFFF080"," "," ","1","&#10004","[966.0000000000146]","1","0","0","","","","","","","",""
"pit-trial","9","116381","0.0-2.0-4.1-0.1","battery-v0.2","","""event"",""trial"",""time""
""fullscreenenter"",""1"",""1772""
","
","
","""event"",""trial"",""time""
""fullscreenenter"",""1"",""1772""
","
","","","80","","","25","16876","6565","&#9784;","elianto","#FFFFF080"," "," ","1","&#10004","[931]","1","0","0","","","","","","","",""
"pit-trial","10","119600","0.0-2.0-4.2-0.2","battery-v0.2","","""event"",""trial"",""time""
""fullscreenenter"",""1"",""1772""
","
","
","""event"",""trial"",""time""
""fullscreenenter"",""1"",""1772""
","
","","","365","","","25","16876","6565","&#9784;","elianto","#FFFFF080"," "," ","1","&#10004","[1215]","1","0","0","","","","","","","",""
"pit-trial","11","122863","0.0-2.0-4.3-0.3","battery-v0.2","","""event"",""trial"",""time""
""fullscreenenter"",""1"",""1772""
","
","
","""event"",""trial"",""time""
""fullscreenenter"",""1"",""1772""
","
","","","408","","","25","16876","6565","&#9784;","elianto","#FFFFF080"," "," ","1","&#10004","[1258]","1","0","0","","","","","","","",""
"pit-trial","12","126142","0.0-2.0-4.4-0.4","battery-v0.2","","""event"",""trial"",""time""
""fullscreenenter"",""1"",""1772""
","
","
","""event"",""trial"",""time""
""fullscreenenter"",""1"",""1772""
","
","","","425","","","25","16876","6565","&#9784;","elianto","#FFFFF080"," "," ","1","&#10004","[1275]","1","0","0","","","","","","","",""
"pit-instructions","13","147055","0.0-2.0-5.0","battery-v0.2","","""event"",""trial"",""time""
""fullscreenenter"",""1"",""1772""
","
","
","""event"",""trial"",""time""
""fullscreenenter"",""1"",""1772""
","
","","[{""page_index"":0,""viewing_time"":4574},{""page_index"":1,""viewing_time"":5124},{""page_index"":2,""viewing_time"":4569},{""page_index"":3,""viewing_time"":6641}]","20909","","","","","","","","","","","","","","","","","","","","","","","",""
"pit-trial","14","151909","0.0-2.0-6.0-0.0","battery-v0.2","","""event"",""trial"",""time""
""fullscreenenter"",""1"",""1772""
","
","
","""event"",""trial"",""time""
""fullscreenenter"",""1"",""1772""
","
","","","-1","","","25","16876","6565","&#9854;","elianto","#FFFFF080","-1","-1","1","&#10004","[]","0","0","1","","","","","","","",""
"pit-trial","15","156764","0.0-2.0-6.1-0.1","battery-v0.2","","""event"",""trial"",""time""
""fullscreenenter"",""1"",""1772""
","
","
","""event"",""trial"",""time""
""fullscreenenter"",""1"",""1772""
","
","","","-1","","","25","16876","6565","&#9854;","elianto","#FFFFF080","-1","-1","1","&#10004","[]","0","0","1","","","","","","","",""
"pit-trial","16","161619","0.0-2.0-6.2-0.2","battery-v0.2","","""event"",""trial"",""time""
""fullscreenenter"",""1"",""1772""
","
","
","""event"",""trial"",""time""
""fullscreenenter"",""1"",""1772""
","
","","","-1","","","25","16876","6565","&#9854;","elianto","#FFFFF080","-1","-1","1","&#10004","[]","0","0","1","","","","","","","",""
"pit-trial","17","166474","0.0-2.0-6.3-0.3","battery-v0.2","","""event"",""trial"",""time""
""fullscreenenter"",""1"",""1772""
","
","
","""event"",""trial"",""time""
""fullscreenenter"",""1"",""1772""
","
","","","-1","","","25","16876","6565","&#9854;","elianto","#FFFFF080","-1","-1","1","&#10004","[]","0","0","1","","","","","","","",""
"pit-trial","18","171328","0.0-2.0-6.4-0.4","battery-v0.2","","""event"",""trial"",""time""
""fullscreenenter"",""1"",""1772""
","
","
","""event"",""trial"",""time""
""fullscreenenter"",""1"",""1772""
","
","","","-1","","","25","16876","6565","&#9854;","elianto","#FFFFF080","-1","-1","1","&#10004","[]","0","0","1","","","","","","","",""
"pit-instructions","19","283714","0.0-2.0-7.0","battery-v0.2","","""event"",""trial"",""time""
""fullscreenenter"",""1"",""1772""
","
","
","""event"",""trial"",""time""
""fullscreenenter"",""1"",""1772""
","
","","[{""page_index"":0,""viewing_time"":6232},{""page_index"":1,""viewing_time"":6136},{""page_index"":2,""viewing_time"":5838},{""page_index"":3,""viewing_time"":5264},{""page_index"":4,""viewing_time"":6201},{""page_index"":5,""viewing_time"":6419.000000000029},{""page_index"":6,""viewing_time"":4105.999999999971},{""page_index"":7,""viewing_time"":7290},{""page_index"":8,""viewing_time"":6326},{""page_index"":9,""viewing_time"":5214},{""page_index"":10,""viewing_time"":7111.000000000029},{""page_index"":11,""viewing_time"":5140.999999999971},{""page_index"":12,""viewing_time"":7201},{""page_index"":13,""viewing_time"":6992},{""page_index"":14,""viewing_time"":7272},{""page_index"":15,""viewing_time"":6448},{""page_index"":16,""viewing_time"":6352},{""page_index"":17,""viewing_time"":6836}]","112379","","","","","","","","","","","","","","","","","","","","","","","",""
"pit-trial","20","287013","0.0-2.0-8.0-0.0","battery-v0.2","","""event"",""trial"",""time""
""fullscreenenter"",""1"",""1772""
","
","
","""event"",""trial"",""time""
""fullscreenenter"",""1"",""1772""
","
","","","444.0000000000582","","","25","16876","6565","&#9776;","elianto","#3366ff99"," "," ","1","+10","[1295.0000000000582]","1","0","1","","","","","","","",""
"pit-trial","21","290427","0.0-2.0-8.0-1.0","battery-v0.2","","""event"",""trial"",""time""
""fullscreenenter"",""1"",""1772""
","
","
","""event"",""trial"",""time""
""fullscreenenter"",""1"",""1772""
","
","","","560","","","25","16876","6565","&#9776;","elianto","#3366ff99"," "," ","1","+10","[1410]","1","0","1","","","","","","","",""
"pit-trial","22","293712","0.0-2.0-8.0-2.0","battery-v0.2","","""event"",""trial"",""time""
""fullscreenenter"",""1"",""1772""
","
","
","""event"",""trial"",""time""
""fullscreenenter"",""1"",""1772""
","
","","","431","","","25","16876","6565","&#9776;","elianto","#3366ff99"," "," ","1","+10","[1281]","1","0","1","","","","","","","",""
"pit-trial","23","297226","0.0-2.0-8.0-3.0","battery-v0.2","","""event"",""trial"",""time""
""fullscreenenter"",""1"",""1772""
","
","
","""event"",""trial"",""time""
""fullscreenenter"",""1"",""1772""
","
","","","661","","","25","16876","6565","&#9776;","elianto","#3366ff99"," "," ","1","0","[1511]","1","0","1","","","","","","","",""
"pit-trial","24","300699","0.0-2.0-8.0-4.0","battery-v0.2","","""event"",""trial"",""time""
""fullscreenenter"",""1"",""1772""
","
","
","""event"",""trial"",""time""
""fullscreenenter"",""1"",""1772""
","
","","","617.0000000000582","","","25","16876","6565","&#9776;","elianto","#3366ff99"," "," ","1","+10","[1467.0000000000582]","1","0","1","","","","","","","",""
"pit-trial","25","304133","0.0-2.0-8.1-0.1","battery-v0.2","","""event"",""trial"",""time""
""fullscreenenter"",""1"",""1772""
","
","
","""event"",""trial"",""time""
""fullscreenenter"",""1"",""1772""
","
","","","580","","","25","16876","6565","&#9776;","elianto","#3366ff99"," "," ","1","+10","[1431]","1","0","1","","","","","","","",""
"pit-trial","26","307581","0.0-2.0-8.1-1.1","battery-v0.2","","""event"",""trial"",""time""
""fullscreenenter"",""1"",""1772""
","
","
","""event"",""trial"",""time""
""fullscreenenter"",""1"",""1772""
","
","","","593","","","25","16876","6565","&#9776;","elianto","#3366ff99"," "," ","1","+10","[1444]","1","0","1","","","","","","","",""
"pit-trial","27","310894","0.0-2.0-8.1-2.1","battery-v0.2","","""event"",""trial"",""time""
""fullscreenenter"",""1"",""1772""
","
","
","""event"",""trial"",""time""
""fullscreenenter"",""1"",""1772""
","
","","","460","","","25","16876","6565","&#9776;","elianto","#3366ff99"," "," ","1","+10","[1310]","1","0","1","","","","","","","",""
"pit-trial","28","314160","0.0-2.0-8.1-3.1","battery-v0.2","","""event"",""trial"",""time""
""fullscreenenter"",""1"",""1772""
","
","
","""event"",""trial"",""time""
""fullscreenenter"",""1"",""1772""
","
","","","412","","","25","16876","6565","&#9776;","elianto","#3366ff99"," "," ","1","0","[1262]","1","0","1","","","","","","","",""
"pit-trial","29","317486","0.0-2.0-8.1-4.1","battery-v0.2","","""event"",""trial"",""time""
""fullscreenenter"",""1"",""1772""
","
","
","""event"",""trial"",""time""
""fullscreenenter"",""1"",""1772""
","
","","","472.9999999999418","","","25","16876","6565","&#9776;","elianto","#3366ff99"," "," ","1","+10","[1323]","1","0","1","","","","","","","",""
"pit-trial","30","320858","0.0-2.0-8.2-0.2","battery-v0.2","","""event"",""trial"",""time""
""fullscreenenter"",""1"",""1772""
","
","
","""event"",""trial"",""time""
""fullscreenenter"",""1"",""1772""
","
","","","517","","","25","16876","6565","&#9776;","elianto","#3366ff99"," "," ","1","+10","[1367.9999999999418]","1","0","1","","","","","","","",""
"pit-trial","31","324345","0.0-2.0-8.2-1.2","battery-v0.2","","""event"",""trial"",""time""
""fullscreenenter"",""1"",""1772""
","
","
","""event"",""trial"",""time""
""fullscreenenter"",""1"",""1772""
","
","","","633","","","25","16876","6565","&#9776;","elianto","#3366ff99"," "," ","1","+10","[1483]","1","0","1","","","","","","","",""
"pit-trial","32","327686","0.0-2.0-8.2-2.2","battery-v0.2","","""event"",""trial"",""time""
""fullscreenenter"",""1"",""1772""
","
","
","""event"",""trial"",""time""
""fullscreenenter"",""1"",""1772""
","
","","","488","","","25","16876","6565","&#9776;","elianto","#3366ff99"," "," ","1","+10","[1338.0000000000582]","1","0","1","","","","","","","",""
"pit-trial","33","330956","0.0-2.0-8.2-3.2","battery-v0.2","","""event"",""trial"",""time""
""fullscreenenter"",""1"",""1772""
","
","
","""event"",""trial"",""time""
""fullscreenenter"",""1"",""1772""
","
","","","416","","","25","16876","6565","&#9776;","elianto","#3366ff99"," "," ","1","0","[1265]","1","0","1","","","","","","","",""
"pit-trial","34","334195","0.0-2.0-8.2-4.2","battery-v0.2","","""event"",""trial"",""time""
""fullscreenenter"",""1"",""1772""
","
","
","""event"",""trial"",""time""
""fullscreenenter"",""1"",""1772""
","
","","","385","","","25","16876","6565","&#9776;","elianto","#3366ff99"," "," ","1","+10","[1236]","1","0","1","","","","","","","",""
"call-function","35","334197","0.0-2.0-9.0","battery-v0.2","","""event"",""trial"",""time""
""fullscreenenter"",""1"",""1772""
","
","
","""event"",""trial"",""time""
""fullscreenenter"",""1"",""1772""
","
","","","","","","","","","","","","","","","","","","","","","","","","","","",""
"pit-instructions","36","375115","0.0-2.0-10.0","battery-v0.2","","""event"",""trial"",""time""
""fullscreenenter"",""1"",""1772""
","
","
","""event"",""trial"",""time""
""fullscreenenter"",""1"",""1772""
","
","","[{""page_index"":0,""viewing_time"":6719.999999999942},{""page_index"":1,""viewing_time"":6415},{""page_index"":2,""viewing_time"":10216.000000000058},{""page_index"":3,""viewing_time"":10411.999999999942},{""page_index"":4,""viewing_time"":7153.000000000058}]","40916","","","","","","","","","","","","","","","","","","","","","","","",""
"pit-trial","37","378537","0.0-2.0-11.0-0.0","battery-v0.2","","""event"",""trial"",""time""
""fullscreenenter"",""1"",""1772""
","
","
","""event"",""trial"",""time""
""fullscreenenter"",""1"",""1772""
","
","","","566","","","25","16876","6565","&#9761;","elianto","#3366ff99","-1"," ","0","0","[1417]","1","0","2","","","","","","","",""
"pit-trial","38","382169","0.0-2.0-11.0-1.0","battery-v0.2","","""event"",""trial"",""time""
""fullscreenenter"",""1"",""1772""
","
","
","""event"",""trial"",""time""
""fullscreenenter"",""1"",""1772""
","
","","","777","","","25","16876","6565","&#9761;","elianto","#3366ff99","-1"," ","0","0","[1629]","1","0","2","","","","","","","",""
"pit-trial","39","385709","0.0-2.0-11.0-2.0","battery-v0.2","","""event"",""trial"",""time""
""fullscreenenter"",""1"",""1772""
","
","
","""event"",""trial"",""time""
""fullscreenenter"",""1"",""1772""
","
","","","685","","","25","16876","6565","&#9761;","elianto","#3366ff99","-1"," ","0","0","[1536]","1","0","2","","","","","","","",""
"pit-trial","40","388736","0.0-2.0-11.0-3.0","battery-v0.2","","""event"",""trial"",""time""
""fullscreenenter"",""1"",""1772""
","
","
","""event"",""trial"",""time""
""fullscreenenter"",""1"",""1772""
","
","","","170.0000000000582","","","25","16876","6565","&#9761;","elianto","#3366ff99","-1"," ","0","+10","[1024]","1","0","2","","","","","","","",""
"pit-trial","41","392048","0.0-2.0-11.0-4.0","battery-v0.2","","""event"",""trial"",""time""
""fullscreenenter"",""1"",""1772""
","
","
","""event"",""trial"",""time""
""fullscreenenter"",""1"",""1772""
","
","","","458","","","25","16876","6565","&#9761;","elianto","#3366ff99","-1"," ","0","0","[1308]","1","0","2","","","","","","","",""
"pit-trial","42","395523","0.0-2.0-11.1-0.1","battery-v0.2","","""event"",""trial"",""time""
""fullscreenenter"",""1"",""1772""
","
","
","""event"",""trial"",""time""
""fullscreenenter"",""1"",""1772""
","
","","","621.0000000000582","","","25","16876","6565","&#9761;","elianto","#3366ff99","-1"," ","0","0","[1471]","1","0","2","","","","","","","",""
"pit-trial","43","398691","0.0-2.0-11.1-1.1","battery-v0.2","","""event"",""trial"",""time""
""fullscreenenter"",""1"",""1772""
","
","
","""event"",""trial"",""time""
""fullscreenenter"",""1"",""1772""
","
","","","314","","","25","16876","6565","&#9761;","elianto","#3366ff99","-1"," ","0","0","[1164]","1","0","2","","","","","","","",""
"pit-trial","44","401684","0.0-2.0-11.1-2.1","battery-v0.2","","""event"",""trial"",""time""
""fullscreenenter"",""1"",""1772""
","
","
","""event"",""trial"",""time""
""fullscreenenter"",""1"",""1772""
","
","","","138","","","25","16876","6565","&#9761;","elianto","#3366ff99","-1"," ","0","0","[990]","1","0","2","","","","","","","",""
"pit-trial","45","404969","0.0-2.0-11.1-3.1","battery-v0.2","","""event"",""trial"",""time""
""fullscreenenter"",""1"",""1772""
","
","
","""event"",""trial"",""time""
""fullscreenenter"",""1"",""1772""
","
","","","430","","","25","16876","6565","&#9761;","elianto","#3366ff99","-1"," ","0","+10","[1281]","1","0","2","","","","","","","",""
"pit-trial","46","408023","0.0-2.0-11.1-4.1","battery-v0.2","","""event"",""trial"",""time""
""fullscreenenter"",""1"",""1772""
","
","
","""event"",""trial"",""time""
""fullscreenenter"",""1"",""1772""
","
","","","201","","","25","16876","6565","&#9761;","elianto","#3366ff99","-1"," ","0","0","[1052]","1","0","2","","","","","","","",""
"pit-trial","47","411017","0.0-2.0-11.2-0.2","battery-v0.2","","""event"",""trial"",""time""
""fullscreenenter"",""1"",""1772""
","
","
","""event"",""trial"",""time""
""fullscreenenter"",""1"",""1772""
","
","","","139","","","25","16876","6565","&#9761;","elianto","#3366ff99","-1"," ","0","0","[990]","1","0","2","","","","","","","",""
"pit-trial","48","414038","0.0-2.0-11.2-1.2","battery-v0.2","","""event"",""trial"",""time""
""fullscreenenter"",""1"",""1772""
","
","
","""event"",""trial"",""time""
""fullscreenenter"",""1"",""1772""
","
","","","168","","","25","16876","6565","&#9761;","elianto","#3366ff99","-1"," ","0","0","[1018]","1","0","2","","","","","","","",""
"pit-trial","49","417052","0.0-2.0-11.2-2.2","battery-v0.2","","""event"",""trial"",""time""
""fullscreenenter"",""1"",""1772""
","
","
","""event"",""trial"",""time""
""fullscreenenter"",""1"",""1772""
","
","","","159.9999999999418","","","25","16876","6565","&#9761;","elianto","#3366ff99","-1"," ","0","0","[1010]","1","0","2","","","","","","","",""
"pit-trial","50","420034","0.0-2.0-11.2-3.2","battery-v0.2","","""event"",""trial"",""time""
""fullscreenenter"",""1"",""1772""
","
","
","""event"",""trial"",""time""
""fullscreenenter"",""1"",""1772""
","
","","","129","","","25","16876","6565","&#9761;","elianto","#3366ff99","-1"," ","0","+10","[979]","1","0","2","","","","","","","",""
"pit-trial","51","424889","0.0-2.0-11.2-4.2","battery-v0.2","","""event"",""trial"",""time""
""fullscreenenter"",""1"",""1772""
","
","
","""event"",""trial"",""time""
""fullscreenenter"",""1"",""1772""
","
","","","-1","","","25","16876","6565","&#9761;","elianto","#3366ff99","-1","-1","1","+10","[]","0","0","2","","","","","","","",""
"pit-trial","52","427996","0.0-2.0-11.3-0.3","battery-v0.2","","""event"",""trial"",""time""
""fullscreenenter"",""1"",""1772""
","
","
","""event"",""trial"",""time""
""fullscreenenter"",""1"",""1772""
","
","","","253","","","25","16876","6565","&#9761;","elianto","#3366ff99","-1"," ","0","0","[1104]","1","0","2","","","","","","","",""
"pit-trial","53","430924","0.0-2.0-11.3-1.3","battery-v0.2","","""event"",""trial"",""time""
""fullscreenenter"",""1"",""1772""
","
","
","""event"",""trial"",""time""
""fullscreenenter"",""1"",""1772""
","
","","","75","","","25","16876","6565","&#9761;","elianto","#3366ff99","-1"," ","0","0","[924.9999999999418]","1","0","2","","","","","","","",""
"pit-trial","54","433856","0.0-2.0-11.3-2.3","battery-v0.2","","""event"",""trial"",""time""
""fullscreenenter"",""1"",""1772""
","
","
","""event"",""trial"",""time""
""fullscreenenter"",""1"",""1772""
","
","","","78","","","25","16876","6565","&#9761;","elianto","#3366ff99","-1"," ","0","0","[929]","1","0","2","","","","","","","",""
"pit-trial","55","436823","0.0-2.0-11.3-3.3","battery-v0.2","","""event"",""trial"",""time""
""fullscreenenter"",""1"",""1772""
","
","
","""event"",""trial"",""time""
""fullscreenenter"",""1"",""1772""
","
","","","112.00000000005821","","","25","16876","6565","&#9761;","elianto","#3366ff99","-1"," ","0","+10","[963.0000000000582]","1","0","2","","","","","","","",""
"pit-trial","56","439874","0.0-2.0-11.3-4.3","battery-v0.2","","""event"",""trial"",""time""
""fullscreenenter"",""1"",""1772""
","
","
","""event"",""trial"",""time""
""fullscreenenter"",""1"",""1772""
","
","","","197","","","25","16876","6565","&#9761;","elianto","#3366ff99","-1"," ","0","0","[1047]","1","0","2","","","","","","","",""
"call-function","57","439876","0.0-2.0-12.0","battery-v0.2","","""event"",""trial"",""time""
""fullscreenenter"",""1"",""1772""
","
","
","""event"",""trial"",""time""
""fullscreenenter"",""1"",""1772""
","
","","","","","","","","","","","","","","","","","","","","","","","","","","",""
"pit-instructions","58","473270","0.0-2.0-13.0","battery-v0.2","","""event"",""trial"",""time""
""fullscreenenter"",""1"",""1772""
","
","
","""event"",""trial"",""time""
""fullscreenenter"",""1"",""1772""
","
","","[{""page_index"":0,""viewing_time"":6115.000000000058},{""page_index"":1,""viewing_time"":7050.999999999942},{""page_index"":2,""viewing_time"":3950},{""page_index"":3,""viewing_time"":11810},{""page_index"":4,""viewing_time"":4466}]","33392","","","","","","","","","","","","","","","","","","","","","","","",""
"pit-trial","59","478126","0.0-2.0-14.0-0.0","battery-v0.2","","""event"",""trial"",""time""
""fullscreenenter"",""1"",""1772""
","
","
","""event"",""trial"",""time""
""fullscreenenter"",""1"",""1772""
","
","","","-1","","","25","16876","6565","&#9826;","elianto","#f73b6a7A","-1","-1","1","0","[]","0","0","3","","","","","","","",""
"pit-trial","60","481188","0.0-2.0-14.0-1.0","battery-v0.2","","""event"",""trial"",""time""
""fullscreenenter"",""1"",""1772""
","
","
","""event"",""trial"",""time""
""fullscreenenter"",""1"",""1772""
","
","","","208","","","25","16876","6565","&#9826;","elianto","#f73b6a7A","-1"," ","0","-10","[1060]","1","0","3","","","","","","","",""
"pit-trial","61","485683","0.0-2.0-14.0-2.0","battery-v0.2","","""event"",""trial"",""time""
""fullscreenenter"",""1"",""1772""
","
","
","""event"",""trial"",""time""
""fullscreenenter"",""1"",""1772""
","
","","","1642","","","25","16876","6565","&#9826;","elianto","#f73b6a7A","-1"," ","0","-10","[2491.999999999942]","1","0","3","","","","","","","",""
"pit-trial","62","490538","0.0-2.0-14.0-3.0","battery-v0.2","","""event"",""trial"",""time""
""fullscreenenter"",""1"",""1772""
","
","
","""event"",""trial"",""time""
""fullscreenenter"",""1"",""1772""
","
","","","-1","","","25","16876","6565","&#9826;","elianto","#f73b6a7A","-1","-1","1","-10","[]","0","0","3","","","","","","","",""
"pit-trial","63","495392","0.0-2.0-14.0-4.0","battery-v0.2","","""event"",""trial"",""time""
""fullscreenenter"",""1"",""1772""
","
","
","""event"",""trial"",""time""
""fullscreenenter"",""1"",""1772""
","
","","","-1","","","25","16876","6565","&#9826;","elianto","#f73b6a7A","-1","-1","1","0","[]","0","0","3","","","","","","","",""
"pit-trial","64","500248","0.0-2.0-14.1-0.1","battery-v0.2","","""event"",""trial"",""time""
""fullscreenenter"",""1"",""1772""
","
","
","""event"",""trial"",""time""
""fullscreenenter"",""1"",""1772""
","
","","","-1","","","25","16876","6565","&#9826;","elianto","#f73b6a7A","-1","-1","1","0","[]","0","0","3","","","","","","","",""
"pit-trial","65","505102","0.0-2.0-14.1-1.1","battery-v0.2","","""event"",""trial"",""time""
""fullscreenenter"",""1"",""1772""
","
","
","""event"",""trial"",""time""
""fullscreenenter"",""1"",""1772""
","
","","","-1","","","25","16876","6565","&#9826;","elianto","#f73b6a7A","-1","-1","1","0","[]","0","0","3","","","","","","","",""
"pit-trial","66","509956","0.0-2.0-14.1-2.1","battery-v0.2","","""event"",""trial"",""time""
""fullscreenenter"",""1"",""1772""
","
","
","""event"",""trial"",""time""
""fullscreenenter"",""1"",""1772""
","
","","","-1","","","25","16876","6565","&#9826;","elianto","#f73b6a7A","-1","-1","1","0","[]","0","0","3","","","","","","","",""
"pit-trial","67","514811","0.0-2.0-14.1-3.1","battery-v0.2","","""event"",""trial"",""time""
""fullscreenenter"",""1"",""1772""
","
","
","""event"",""trial"",""time""
""fullscreenenter"",""1"",""1772""
","
","","","-1","","","25","16876","6565","&#9826;","elianto","#f73b6a7A","-1","-1","1","-10","[]","0","0","3","","","","","","","",""
"pit-trial","68","519665","0.0-2.0-14.1-4.1","battery-v0.2","","""event"",""trial"",""time""
""fullscreenenter"",""1"",""1772""
","
","
","""event"",""trial"",""time""
""fullscreenenter"",""1"",""1772""
","
","","","-1","","","25","16876","6565","&#9826;","elianto","#f73b6a7A","-1","-1","1","0","[]","0","0","3","","","","","","","",""
"pit-trial","69","524520","0.0-2.0-14.2-0.2","battery-v0.2","","""event"",""trial"",""time""
""fullscreenenter"",""1"",""1772""
","
","
","""event"",""trial"",""time""
""fullscreenenter"",""1"",""1772""
","
","","","-1","","","25","16876","6565","&#9826;","elianto","#f73b6a7A","-1","-1","1","0","[]","0","0","3","","","","","","","",""
"pit-trial","70","529375","0.0-2.0-14.2-1.2","battery-v0.2","","""event"",""trial"",""time""
""fullscreenenter"",""1"",""1772""
","
","
","""event"",""trial"",""time""
""fullscreenenter"",""1"",""1772""
","
","","","-1","","","25","16876","6565","&#9826;","elianto","#f73b6a7A","-1","-1","1","0","[]","0","0","3","","","","","","","",""
"pit-trial","71","534229","0.0-2.0-14.2-2.2","battery-v0.2","","""event"",""trial"",""time""
""fullscreenenter"",""1"",""1772""
","
","
","""event"",""trial"",""time""
""fullscreenenter"",""1"",""1772""
","
","","","-1","","","25","16876","6565","&#9826;","elianto","#f73b6a7A","-1","-1","1","0","[]","0","0","3","","","","","","","",""
"pit-trial","72","539084","0.0-2.0-14.2-3.2","battery-v0.2","","""event"",""trial"",""time""
""fullscreenenter"",""1"",""1772""
","
","
","""event"",""trial"",""time""
""fullscreenenter"",""1"",""1772""
","
","","","-1","","","25","16876","6565","&#9826;","elianto","#f73b6a7A","-1","-1","1","-10","[]","0","0","3","","","","","","","",""
"pit-trial","73","543937","0.0-2.0-14.2-4.2","battery-v0.2","","""event"",""trial"",""time""
""fullscreenenter"",""1"",""1772""
","
","
","""event"",""trial"",""time""
""fullscreenenter"",""1"",""1772""
","
","","","-1","","","25","16876","6565","&#9826;","elianto","#f73b6a7A","-1","-1","1","0","[]","0","0","3","","","","","","","",""
"pit-trial","74","548792","0.0-2.0-14.3-0.3","battery-v0.2","","""event"",""trial"",""time""
""fullscreenenter"",""1"",""1772""
","
","
","""event"",""trial"",""time""
""fullscreenenter"",""1"",""1772""
","
","","","-1","","","25","16876","6565","&#9826;","elianto","#f73b6a7A","-1","-1","1","0","[]","0","0","3","","","","","","","",""
"pit-trial","75","553645","0.0-2.0-14.3-1.3","battery-v0.2","","""event"",""trial"",""time""
""fullscreenenter"",""1"",""1772""
","
","
","""event"",""trial"",""time""
""fullscreenenter"",""1"",""1772""
","
","","","-1","","","25","16876","6565","&#9826;","elianto","#f73b6a7A","-1","-1","1","0","[]","0","0","3","","","","","","","",""
"pit-trial","76","558499","0.0-2.0-14.3-2.3","battery-v0.2","","""event"",""trial"",""time""
""fullscreenenter"",""1"",""1772""
","
","
","""event"",""trial"",""time""
""fullscreenenter"",""1"",""1772""
","
","","","-1","","","25","16876","6565","&#9826;","elianto","#f73b6a7A","-1","-1","1","0","[]","0","0","3","","","","","","","",""
"pit-trial","77","563353","0.0-2.0-14.3-3.3","battery-v0.2","","""event"",""trial"",""time""
""fullscreenenter"",""1"",""1772""
","
","
","""event"",""trial"",""time""
""fullscreenenter"",""1"",""1772""
","
","","","-1","","","25","16876","6565","&#9826;","elianto","#f73b6a7A","-1","-1","1","-10","[]","0","0","3","","","","","","","",""
"pit-trial","78","568208","0.0-2.0-14.3-4.3","battery-v0.2","","""event"",""trial"",""time""
""fullscreenenter"",""1"",""1772""
","
","
","""event"",""trial"",""time""
""fullscreenenter"",""1"",""1772""
","
","","","-1","","","25","16876","6565","&#9826;","elianto","#f73b6a7A","-1","-1","1","0","[]","0","0","3","","","","","","","",""
"call-function","79","568210","0.0-2.0-15.0","battery-v0.2","","""event"",""trial"",""time""
""fullscreenenter"",""1"",""1772""
","
","
","""event"",""trial"",""time""
""fullscreenenter"",""1"",""1772""
","
","","","","","","","","","","","","","","","","","","","","","","","","","","",""
"pit-instructions","80","593831","0.0-2.0-16.0","battery-v0.2","","""event"",""trial"",""time""
""fullscreenenter"",""1"",""1772""
","
","
","""event"",""trial"",""time""
""fullscreenenter"",""1"",""1772""
","
","","[{""page_index"":0,""viewing_time"":6808},{""page_index"":1,""viewing_time"":9222},{""page_index"":2,""viewing_time"":4479},{""page_index"":3,""viewing_time"":5111}]","25620","","","","","","","","","","","","","","","","","","","","","","","",""
"pit-trial","81","598686","0.0-2.0-17.0-0.0","battery-v0.2","","""event"",""trial"",""time""
""fullscreenenter"",""1"",""1772""
","
","
","""event"",""trial"",""time""
""fullscreenenter"",""1"",""1772""
","
","","","-1","","","25","16876","6565","&#9789;","elianto","#f73b6a7A"," ","-1","0","-10","[]","0","0","4","","","","","","","",""
"pit-trial","82","603541","0.0-2.0-17.0-1.0","battery-v0.2","","""event"",""trial"",""time""
""fullscreenenter"",""1"",""1772""
","
","
","""event"",""trial"",""time""
""fullscreenenter"",""1"",""1772""
","
","","","-1","","","25","16876","6565","&#9789;","elianto","#f73b6a7A"," ","-1","0","-10","[]","0","0","4","","","","","","","",""
"pit-trial","83","608396","0.0-2.0-17.0-2.0","battery-v0.2","","""event"",""trial"",""time""
""fullscreenenter"",""1"",""1772""
","
","
","""event"",""trial"",""time""
""fullscreenenter"",""1"",""1772""
","
","","","-1","","","25","16876","6565","&#9789;","elianto","#f73b6a7A"," ","-1","0","-10","[]","0","0","4","","","","","","","",""
"pit-trial","84","613250","0.0-2.0-17.0-3.0","battery-v0.2","","""event"",""trial"",""time""
""fullscreenenter"",""1"",""1772""
","
","
","""event"",""trial"",""time""
""fullscreenenter"",""1"",""1772""
","
","","","-1","","","25","16876","6565","&#9789;","elianto","#f73b6a7A"," ","-1","0","0","[]","0","0","4","","","","","","","",""
"pit-trial","85","618104","0.0-2.0-17.0-4.0","battery-v0.2","","""event"",""trial"",""time""
""fullscreenenter"",""1"",""1772""
","
","
","""event"",""trial"",""time""
""fullscreenenter"",""1"",""1772""
","
","","","-1","","","25","16876","6565","&#9789;","elianto","#f73b6a7A"," ","-1","0","-10","[]","0","0","4","","","","","","","",""
"pit-trial","86","622959","0.0-2.0-17.1-0.1","battery-v0.2","","""event"",""trial"",""time""
""fullscreenenter"",""1"",""1772""
","
","
","""event"",""trial"",""time""
""fullscreenenter"",""1"",""1772""
","
","","","-1","","","25","16876","6565","&#9789;","elianto","#f73b6a7A"," ","-1","0","-10","[]","0","0","4","","","","","","","",""
"pit-trial","87","627814","0.0-2.0-17.1-1.1","battery-v0.2","","""event"",""trial"",""time""
""fullscreenenter"",""1"",""1772""
","
","
","""event"",""trial"",""time""
""fullscreenenter"",""1"",""1772""
","
","","","-1","","","25","16876","6565","&#9789;","elianto","#f73b6a7A"," ","-1","0","-10","[]","0","0","4","","","","","","","",""
"pit-trial","88","632669","0.0-2.0-17.1-2.1","battery-v0.2","","""event"",""trial"",""time""
""fullscreenenter"",""1"",""1772""
","
","
","""event"",""trial"",""time""
""fullscreenenter"",""1"",""1772""
","
","","","-1","","","25","16876","6565","&#9789;","elianto","#f73b6a7A"," ","-1","0","-10","[]","0","0","4","","","","","","","",""
"pit-trial","89","637523","0.0-2.0-17.1-3.1","battery-v0.2","","""event"",""trial"",""time""
""fullscreenenter"",""1"",""1772""
","
","
","""event"",""trial"",""time""
""fullscreenenter"",""1"",""1772""
","
","","","-1","","","25","16876","6565","&#9789;","elianto","#f73b6a7A"," ","-1","0","0","[]","0","0","4","","","","","","","",""
"pit-trial","90","642378","0.0-2.0-17.1-4.1","battery-v0.2","","""event"",""trial"",""time""
""fullscreenenter"",""1"",""1772""
","
","
","""event"",""trial"",""time""
""fullscreenenter"",""1"",""1772""
","
","","","-1","","","25","16876","6565","&#9789;","elianto","#f73b6a7A"," ","-1","0","-10","[]","0","0","4","","","","","","","",""
"pit-trial","91","647232","0.0-2.0-17.2-0.2","battery-v0.2","","""event"",""trial"",""time""
""fullscreenenter"",""1"",""1772""
","
","
","""event"",""trial"",""time""
""fullscreenenter"",""1"",""1772""
","
","","","-1","","","25","16876","6565","&#9789;","elianto","#f73b6a7A"," ","-1","0","-10","[]","0","0","4","","","","","","","",""
"pit-trial","92","652087","0.0-2.0-17.2-1.2","battery-v0.2","","""event"",""trial"",""time""
""fullscreenenter"",""1"",""1772""
","
","
","""event"",""trial"",""time""
""fullscreenenter"",""1"",""1772""
","
","","","-1","","","25","16876","6565","&#9789;","elianto","#f73b6a7A"," ","-1","0","-10","[]","0","0","4","","","","","","","",""
"pit-trial","93","656941","0.0-2.0-17.2-2.2","battery-v0.2","","""event"",""trial"",""time""
""fullscreenenter"",""1"",""1772""
","
","
","""event"",""trial"",""time""
""fullscreenenter"",""1"",""1772""
","
","","","-1","","","25","16876","6565","&#9789;","elianto","#f73b6a7A"," ","-1","0","-10","[]","0","0","4","","","","","","","",""
"pit-trial","94","661795","0.0-2.0-17.2-3.2","battery-v0.2","","""event"",""trial"",""time""
""fullscreenenter"",""1"",""1772""
","
","
","""event"",""trial"",""time""
""fullscreenenter"",""1"",""1772""
","
","","","-1","","","25","16876","6565","&#9789;","elianto","#f73b6a7A"," ","-1","0","0","[]","0","0","4","","","","","","","",""
"pit-trial","95","666650","0.0-2.0-17.2-4.2","battery-v0.2","","""event"",""trial"",""time""
""fullscreenenter"",""1"",""1772""
","
","
","""event"",""trial"",""time""
""fullscreenenter"",""1"",""1772""
","
","","","-1","","","25","16876","6565","&#9789;","elianto","#f73b6a7A"," ","-1","0","-10","[]","0","0","4","","","","","","","",""
"pit-trial","96","671504","0.0-2.0-17.3-0.3","battery-v0.2","","""event"",""trial"",""time""
""fullscreenenter"",""1"",""1772""
","
","
","""event"",""trial"",""time""
""fullscreenenter"",""1"",""1772""
","
","","","-1","","","25","16876","6565","&#9789;","elianto","#f73b6a7A"," ","-1","0","-10","[]","0","0","4","","","","","","","",""
"pit-trial","97","676358","0.0-2.0-17.3-1.3","battery-v0.2","","""event"",""trial"",""time""
""fullscreenenter"",""1"",""1772""
","
","
","""event"",""trial"",""time""
""fullscreenenter"",""1"",""1772""
","
","","","-1","","","25","16876","6565","&#9789;","elianto","#f73b6a7A"," ","-1","0","-10","[]","0","0","4","","","","","","","",""
"pit-trial","98","681213","0.0-2.0-17.3-2.3","battery-v0.2","","""event"",""trial"",""time""
""fullscreenenter"",""1"",""1772""
","
","
","""event"",""trial"",""time""
""fullscreenenter"",""1"",""1772""
","
","","","-1","","","25","16876","6565","&#9789;","elianto","#f73b6a7A"," ","-1","0","-10","[]","0","0","4","","","","","","","",""
"pit-trial","99","686068","0.0-2.0-17.3-3.3","battery-v0.2","","""event"",""trial"",""time""
""fullscreenenter"",""1"",""1772""
","
","
","""event"",""trial"",""time""
""fullscreenenter"",""1"",""1772""
","
","","","-1","","","25","16876","6565","&#9789;","elianto","#f73b6a7A"," ","-1","0","0","[]","0","0","4","","","","","","","",""
"pit-trial","100","690923","0.0-2.0-17.3-4.3","battery-v0.2","","""event"",""trial"",""time""
""fullscreenenter"",""1"",""1772""
","
","
","""event"",""trial"",""time""
""fullscreenenter"",""1"",""1772""
","
","","","-1","","","25","16876","6565","&#9789;","elianto","#f73b6a7A"," ","-1","0","-10","[]","0","0","4","","","","","","","",""
"call-function","101","690924","0.0-2.0-18.0","battery-v0.2","","""event"",""trial"",""time""
""fullscreenenter"",""1"",""1772""
","
","
","""event"",""trial"",""time""
""fullscreenenter"",""1"",""1772""
","
","","","","","","","","","","","","","","","","","","","","","","","","","","",""
"pit-instructions","102","759726","0.0-2.0-19.0","battery-v0.2","","""event"",""trial"",""time""
""fullscreenenter"",""1"",""1772""
","
","
","""event"",""trial"",""time""
""fullscreenenter"",""1"",""1772""
","
","","[{""page_index"":0,""viewing_time"":8530},{""page_index"":1,""viewing_time"":5701},{""page_index"":2,""viewing_time"":10534},{""page_index"":3,""viewing_time"":7359},{""page_index"":4,""viewing_time"":8373},{""page_index"":5,""viewing_time"":8485},{""page_index"":6,""viewing_time"":8695},{""page_index"":7,""viewing_time"":6608},{""page_index"":8,""viewing_time"":4513}]","68799","","","","","","","","","","","","","","","","","","","","","","","",""
"pit-comprehension","103","765067","0.0-2.0-20.0-0.0","battery-v0.2","","""event"",""trial"",""time""
""fullscreenenter"",""1"",""1772""
","
","
","""event"",""trial"",""time""
""fullscreenenter"",""1"",""1772""
","
","","","5337.999999999884","[""SPACE""]","0","25","16876","6565","","","","","","","","","","","","","","","","","","",""
"pit-instructions","104","768002","0.0-2.0-20.0-1.0","battery-v0.2","","""event"",""trial"",""time""
""fullscreenenter"",""1"",""1772""
","
","
","""event"",""trial"",""time""
""fullscreenenter"",""1"",""1772""
","
","","[{""page_index"":0,""viewing_time"":2844.9999999998836}]","2844.9999999998836","","","","","","","","","","","","","","","","","","","","","","","",""
"pit-comprehension","105","774234","0.0-2.0-21.0-0.0","battery-v0.2","","""event"",""trial"",""time""
""fullscreenenter"",""1"",""1772""
","
","
","""event"",""trial"",""time""
""fullscreenenter"",""1"",""1772""
","
","","","6228","[""10""]","0","25","16876","6565","","","","","","","","","","","","","","","","","","",""
"pit-instructions","106","776641","0.0-2.0-21.0-1.0","battery-v0.2","","""event"",""trial"",""time""
""fullscreenenter"",""1"",""1772""
","
","
","""event"",""trial"",""time""
""fullscreenenter"",""1"",""1772""
","
","","[{""page_index"":0,""viewing_time"":2320}]","2320","","","","","","","","","","","","","","","","","","","","","","","",""
"pit-comprehension","107","785984","0.0-2.0-22.0-0.0","battery-v0.2","","""event"",""trial"",""time""
""fullscreenenter"",""1"",""1772""
","
","
","""event"",""trial"",""time""
""fullscreenenter"",""1"",""1772""
","
","","","9337","[""-10""]","1","25","16876","6565","","","","","","","","","","","","","","","","","","",""
"pit-instructions","108","792350","0.0-2.0-22.0-1.0","battery-v0.2","","""event"",""trial"",""time""
""fullscreenenter"",""1"",""1772""
","
","
","""event"",""trial"",""time""
""fullscreenenter"",""1"",""1772""
","
","","[{""page_index"":0,""viewing_time"":6276.000000000116}]","6276.000000000116","","","","","","","","","","","","","","","","","","","","","","","",""
"pit-instructions","109","793194","0.0-2.0-22.0-2.0-0.0","battery-v0.2","","""event"",""trial"",""time""
""fullscreenenter"",""1"",""1772""
","
","
","""event"",""trial"",""time""
""fullscreenenter"",""1"",""1772""
","
","","[{""page_index"":0,""viewing_time"":841}]","842","","","","","","","","","","","","","","","","","","","","","","","",""
"pit-comprehension","110","799694","0.0-2.0-22.1-0.1","battery-v0.2","","""event"",""trial"",""time""
""fullscreenenter"",""1"",""1772""
","
","
","""event"",""trial"",""time""
""fullscreenenter"",""1"",""1772""
","
","","","6497","[""0""]","0","25","16876","6565","","","","","","","","","","","","","","","","","","",""
"pit-instructions","111","801655","0.0-2.0-22.1-1.1","battery-v0.2","","""event"",""trial"",""time""
""fullscreenenter"",""1"",""1772""
","
","
","""event"",""trial"",""time""
""fullscreenenter"",""1"",""1772""
","
","","[{""page_index"":0,""viewing_time"":1870}]","1871","","","","","","","","","","","","","","","","","","","","","","","",""
"pit-comprehension","112","817176","0.0-2.0-23.0-0.0","battery-v0.2","","""event"",""trial"",""time""
""fullscreenenter"",""1"",""1772""
","
","
","""event"",""trial"",""time""
""fullscreenenter"",""1"",""1772""
","
","","","15517","[""False""]","1","25","16876","6565","","","","","","","","","","","","","","","","","","",""
"pit-instructions","113","821955","0.0-2.0-23.0-1.0","battery-v0.2","","""event"",""trial"",""time""
""fullscreenenter"",""1"",""1772""
","
","
","""event"",""trial"",""time""
""fullscreenenter"",""1"",""1772""
","
","","[{""page_index"":0,""viewing_time"":4684}]","4685","","","","","","","","","","","","","","","","","","","","","","","",""
"pit-instructions","114","823558","0.0-2.0-23.0-2.0-0.0","battery-v0.2","","""event"",""trial"",""time""
""fullscreenenter"",""1"",""1772""
","
","
","""event"",""trial"",""time""
""fullscreenenter"",""1"",""1772""
","
","","[{""page_index"":0,""viewing_time"":1597.0000000001164}]","1597.0000000001164","","","","","","","","","","","","","","","","","","","","","","","",""
"pit-comprehension","115","832045","0.0-2.0-23.1-0.1","battery-v0.2","","""event"",""trial"",""time""
""fullscreenenter"",""1"",""1772""
","
","
","""event"",""trial"",""time""
""fullscreenenter"",""1"",""1772""
","
","","","8483","[""True""]","0","25","16876","6565","","","","","","","","","","","","","","","","","","",""
"pit-instructions","116","833873","0.0-2.0-23.1-1.1","battery-v0.2","","""event"",""trial"",""time""
""fullscreenenter"",""1"",""1772""
","
","
","""event"",""trial"",""time""
""fullscreenenter"",""1"",""1772""
","
","","[{""page_index"":0,""viewing_time"":1736}]","1737","","","","","","","","","","","","","","","","","","","","","","","",""
"pit-comprehension","117","841310","0.0-2.0-24.0-0.0","battery-v0.2","","""event"",""trial"",""time""
""fullscreenenter"",""1"",""1772""
","
","
","""event"",""trial"",""time""
""fullscreenenter"",""1"",""1772""
","
","","","7433","[""True""]","0","25","16876","6565","","","","","","","","","","","","","","","","","","",""
"pit-instructions","118","844995","0.0-2.0-24.0-1.0","battery-v0.2","","""event"",""trial"",""time""
""fullscreenenter"",""1"",""1772""
","
","
","""event"",""trial"",""time""
""fullscreenenter"",""1"",""1772""
","
","","[{""page_index"":0,""viewing_time"":3589}]","3590.0000000001164","","","","","","","","","","","","","","","","","","","","","","","",""
"pit-comprehension","119","851679","0.0-2.0-25.0-0.0","battery-v0.2","","""event"",""trial"",""time""
""fullscreenenter"",""1"",""1772""
","
","
","""event"",""trial"",""time""
""fullscreenenter"",""1"",""1772""
","
","","","6679.000000000116","[""True""]","0","25","16876","6565","","","","","","","","","","","","","","","","","","",""
"pit-instructions","120","853964","0.0-2.0-25.0-1.0","battery-v0.2","","""event"",""trial"",""time""
""fullscreenenter"",""1"",""1772""
","
","
","""event"",""trial"",""time""
""fullscreenenter"",""1"",""1772""
","
","","[{""page_index"":0,""viewing_time"":2188.9999999998836}]","2189.9999999998836","","","","","","","","","","","","","","","","","","","","","","","",""
"pit-comprehension","121","859469","0.0-2.0-26.0-0.0","battery-v0.2","","""event"",""trial"",""time""
""fullscreenenter"",""1"",""1772""
","
","
","""event"",""trial"",""time""
""fullscreenenter"",""1"",""1772""
","
","","","5498","[""False""]","0","25","16876","6565","","","","","","","","","","","","","","","","","","",""
"pit-instructions","122","861424","0.0-2.0-26.0-1.0","battery-v0.2","","""event"",""trial"",""time""
""fullscreenenter"",""1"",""1772""
","
","
","""event"",""trial"",""time""
""fullscreenenter"",""1"",""1772""
","
","","[{""page_index"":0,""viewing_time"":1851}]","1851.9999999998836","","","","","","","","","","","","","","","","","","","","","","","",""
"pit-instructions","123","879891","0.0-3.0","battery-v0.2","","""event"",""trial"",""time""
""fullscreenenter"",""1"",""1772""
","
","
","""event"",""trial"",""time""
""fullscreenenter"",""1"",""1772""
","
","","[{""page_index"":0,""viewing_time"":3902},{""page_index"":1,""viewing_time"":7122},{""page_index"":2,""viewing_time"":7439}]","18463","","","","","","","","","","","","","","","","","","","","","","","",""
"pit-trial","124","884749","0.0-4.0","battery-v0.2","","""event"",""trial"",""time""
""fullscreenenter"",""1"",""1772""
","
","
","""event"",""trial"",""time""
""fullscreenenter"",""1"",""1772""
","
","","","-1","","","25","16876","6565","&#9728;","elianto","#f73b6a7A","-1","-1","1","0","[]","0","1","","","16876","1","0","4","lose","no-go","0"
"pit-trial","125","888167","0.0-5.0","battery-v0.2","","""event"",""trial"",""time""
""fullscreenenter"",""1"",""1772""
","
","
","""event"",""trial"",""time""
""fullscreenenter"",""1"",""1772""
","
","","","565","","","25","16876","6565","&#9733;","elianto","#3366ff99","-1"," ","0","0","[1414.9999999998836]","1","1","","","16876","2","2","2","win","no-go","0"
"pit-trial","126","891758","0.0-6.0","battery-v0.2","","""event"",""trial"",""time""
""fullscreenenter"",""1"",""1772""
","
","
","""event"",""trial"",""time""
""fullscreenenter"",""1"",""1772""
","
","","","734.0000000001164","","","25","16876","6565","&#9752;","elianto","#f73b6a7A"," "," ","1","-10","[1587]","1","1","","","16876","3","3","3","lose","go","1"
"pit-trial","127","895194","0.0-7.0","battery-v0.2","","""event"",""trial"",""time""
""fullscreenenter"",""1"",""1772""
","
","
","""event"",""trial"",""time""
""fullscreenenter"",""1"",""1772""
","
","","","581","","","25","16876","6565","&#9730;","elianto","#3366ff99"," "," ","1","+10","[1431]","1","1","","","16876","4","1","1","win","go","0"
"pit-trial","128","900049","0.0-8.0","battery-v0.2","","""event"",""trial"",""time""
""fullscreenenter"",""1"",""1772""
","
","
","""event"",""trial"",""time""
""fullscreenenter"",""1"",""1772""
","
","","","-1","","","25","16876","6565","&#9752;","elianto","#f73b6a7A"," ","-1","0","0","[]","0","1","","","16876","5","3","3","lose","go","1"
"pit-trial","129","904452","0.0-9.0","battery-v0.2","","""event"",""trial"",""time""
""fullscreenenter"",""1"",""1772""
","
","
","""event"",""trial"",""time""
""fullscreenenter"",""1"",""1772""
","
","","","1548","","","25","16876","6565","&#9728;","elianto","#f73b6a7A","-1"," ","0","-10","[2398]","1","1","","","16876","6","0","4","lose","no-go","0"
"pit-trial","130","907850","0.0-10.0","battery-v0.2","","""event"",""trial"",""time""
""fullscreenenter"",""1"",""1772""
","
","
","""event"",""trial"",""time""
""fullscreenenter"",""1"",""1772""
","
","","","543","","","25","16876","6565","&#9733;","elianto","#3366ff99","-1"," ","0","0","[1393]","1","1","","","16876","7","2","2","win","no-go","0"
"pit-trial","131","911365","0.0-11.0","battery-v0.2","","""event"",""trial"",""time""
""fullscreenenter"",""1"",""1772""
","
","
","""event"",""trial"",""time""
""fullscreenenter"",""1"",""1772""
","
","","","659","","","25","16876","6565","&#9730;","elianto","#3366ff99"," "," ","1","+10","[1511]","1","1","","","16876","8","1","1","win","go","0"
"pit-trial","132","916221","0.0-12.0","battery-v0.2","","""event"",""trial"",""time""
""fullscreenenter"",""1"",""1772""
","
","
","""event"",""trial"",""time""
""fullscreenenter"",""1"",""1772""
","
","","","-1","","","25","16876","6565","&#9752;","elianto","#f73b6a7A"," ","-1","0","-10","[]","0","1","","","16876","9","3","3","lose","go","0"
"pit-trial","133","919996","0.0-13.0","battery-v0.2","","""event"",""trial"",""time""
""fullscreenenter"",""1"",""1772""
","
","
","""event"",""trial"",""time""
""fullscreenenter"",""1"",""1772""
","
","","","920","","","25","16876","6565","&#9733;","elianto","#3366ff99","-1"," ","0","0","[1771]","1","1","","","16876","10","2","2","win","no-go","0"
"pit-trial","134","923510","0.0-14.0","battery-v0.2","","""event"",""trial"",""time""
""fullscreenenter"",""1"",""1772""
","
","
","""event"",""trial"",""time""
""fullscreenenter"",""1"",""1772""
","
","","","658","","","25","16876","6565","&#9730;","elianto","#3366ff99"," "," ","1","0","[1508]","1","1","","","16876","11","1","1","win","go","1"
"pit-trial","135","928366","0.0-15.0","battery-v0.2","","""event"",""trial"",""time""
""fullscreenenter"",""1"",""1772""
","
","
","""event"",""trial"",""time""
""fullscreenenter"",""1"",""1772""
","
","","","-1","","","25","16876","6565","&#9728;","elianto","#f73b6a7A","-1","-1","1","-10","[]","0","1","","","16876","12","0","4","lose","no-go","1"
"pit-trial","136","932525","0.0-16.0","battery-v0.2","","""event"",""trial"",""time""
""fullscreenenter"",""1"",""1772""
","
","
","""event"",""trial"",""time""
""fullscreenenter"",""1"",""1772""
","
","","","1304","","","25","16876","6565","&#9733;","elianto","#3366ff99","-1"," ","0","0","[2154]","1","1","","","16876","13","2","2","win","no-go","0"
"pit-trial","137","936147","0.0-17.0","battery-v0.2","","""event"",""trial"",""time""
""fullscreenenter"",""1"",""1772""
","
","
","""event"",""trial"",""time""
""fullscreenenter"",""1"",""1772""
","
","","","767","","","25","16876","6565","&#9730;","elianto","#3366ff99"," "," ","1","+10","[1617]","1","1","","","16876","14","1","1","win","go","0"
"pit-trial","138","941003","0.0-18.0","battery-v0.2","","""event"",""trial"",""time""
""fullscreenenter"",""1"",""1772""
","
","
","""event"",""trial"",""time""
""fullscreenenter"",""1"",""1772""
","
","","","-1","","","25","16876","6565","&#9728;","elianto","#f73b6a7A","-1","-1","1","0","[]","0","1","","","16876","15","0","4","lose","no-go","0"
"pit-trial","139","945860","0.0-19.0","battery-v0.2","","""event"",""trial"",""time""
""fullscreenenter"",""1"",""1772""
","
","
","""event"",""trial"",""time""
""fullscreenenter"",""1"",""1772""
","
","","","-1","","","25","16876","6565","&#9752;","elianto","#f73b6a7A"," ","-1","0","0","[]","0","1","","","16876","16","3","3","lose","go","1"
"pit-trial","140","949246","0.0-20.0","battery-v0.2","","""event"",""trial"",""time""
""fullscreenenter"",""1"",""1772""
","
","
","""event"",""trial"",""time""
""fullscreenenter"",""1"",""1772""
","
","","","530","","","25","16876","6565","&#9733;","elianto","#3366ff99","-1"," ","0","+10","[1381]","1","1","","","16876","17","2","2","win","no-go","1"
"pit-trial","141","954101","0.0-21.0","battery-v0.2","","""event"",""trial"",""time""
""fullscreenenter"",""1"",""1772""
","
","
","""event"",""trial"",""time""
""fullscreenenter"",""1"",""1772""
","
","","","-1","","","25","16876","6565","&#9752;","elianto","#f73b6a7A"," ","-1","0","-10","[]","0","1","","","16876","18","3","3","lose","go","0"
"pit-trial","142","958957","0.0-22.0","battery-v0.2","","""event"",""trial"",""time""
""fullscreenenter"",""1"",""1772""
","
","
","""event"",""trial"",""time""
""fullscreenenter"",""1"",""1772""
","
","","","-1","","","25","16876","6565","&#9728;","elianto","#f73b6a7A","-1","-1","1","0","[]","0","1","","","16876","19","0","4","lose","no-go","0"
"pit-trial","143","962471","0.0-23.0","battery-v0.2","","""event"",""trial"",""time""
""fullscreenenter"",""1"",""1772""
","
","
","""event"",""trial"",""time""
""fullscreenenter"",""1"",""1772""
","
","","","656.9999999998836","","","25","16876","6565","&#9730;","elianto","#3366ff99"," "," ","1","0","[1507.9999999998836]","1","1","","","16876","20","1","1","win","go","1"
"pit-instructions","144","975137","0.0-24.0","battery-v0.2","","""event"",""trial"",""time""
""fullscreenenter"",""1"",""1772""
","
","
","""event"",""trial"",""time""
""fullscreenenter"",""1"",""1772""
","
","","[{""page_index"":0,""viewing_time"":6101},{""page_index"":1,""viewing_time"":6562}]","12663","","","","","","","","","","","","","","","","","","","","","","","",""
"pit-trial","145","979994","0.0-25.0","battery-v0.2","","""event"",""trial"",""time""
""fullscreenenter"",""1"",""1772""
","
","
","""event"",""trial"",""time""
""fullscreenenter"",""1"",""1772""
","
","","","-1","","","25","16876","6565","a","elianto","#f73b6a7A","-1","-1","1","0","[]","0","2","","","16876","21","2","4","lose","no-go","0"
"pit-trial","146","983681","0.0-26.0","battery-v0.2","","""event"",""trial"",""time""
""fullscreenenter"",""1"",""1772""
","
","
","""event"",""trial"",""time""
""fullscreenenter"",""1"",""1772""
","
","","","831","","","25","16876","6565","l","elianto","#3366ff99"," "," ","1","+10","[1682]","1","2","","","16876","22","1","1","win","go","0"
"pit-trial","147","988537","0.0-27.0","battery-v0.2","","""event"",""trial"",""time""
""fullscreenenter"",""1"",""1772""
","
","
","""event"",""trial"",""time""
""fullscreenenter"",""1"",""1772""
","
","","","-1","","","25","16876","6565","g","elianto","#f73b6a7A"," ","-1","0","-10","[]","0","2","","","16876","23","3","3","lose","go","0"
"pit-trial","148","992647","0.0-28.0","battery-v0.2","","""event"",""trial"",""time""
""fullscreenenter"",""1"",""1772""
","
","
","""event"",""trial"",""time""
""fullscreenenter"",""1"",""1772""
","
","","","1255","","","25","16876","6565","u","elianto","#f73b6a7A","-1"," ","0","0","[2105]","1","2","","","16876","24","0","4","lose","no-go","1"
"pit-trial","149","997502","0.0-29.0","battery-v0.2","","""event"",""trial"",""time""
""fullscreenenter"",""1"",""1772""
","
","
","""event"",""trial"",""time""
""fullscreenenter"",""1"",""1772""
","
","","","-1","","","25","16876","6565","u","elianto","#f73b6a7A","-1","-1","1","-10","[]","0","2","","","16876","25","0","4","lose","no-go","1"
"pit-trial","150","1000968","0.0-30.0","battery-v0.2","","""event"",""trial"",""time""
""fullscreenenter"",""1"",""1772""
","
","
","""event"",""trial"",""time""
""fullscreenenter"",""1"",""1772""
","
","","","610","","","25","16876","6565","l","elianto","#3366ff99"," "," ","1","0","[1461]","1","2","","","16876","26","1","1","win","go","1"
"pit-trial","151","1005824","0.0-31.0","battery-v0.2","","""event"",""trial"",""time""
""fullscreenenter"",""1"",""1772""
","
","
","""event"",""trial"",""time""
""fullscreenenter"",""1"",""1772""
","
","","","-1","","","25","16876","6565","a","elianto","#f73b6a7A","-1","-1","1","-10","[]","0","2","","","16876","27","2","4","lose","no-go","1"
"pit-trial","152","1010680","0.0-32.0","battery-v0.2","","""event"",""trial"",""time""
""fullscreenenter"",""1"",""1772""
","
","
","""event"",""trial"",""time""
""fullscreenenter"",""1"",""1772""
","
","","","-1","","","25","16876","6565","g","elianto","#f73b6a7A"," ","-1","0","-10","[]","0","2","","","16876","28","3","3","lose","go","0"
"pit-trial","153","1014117","0.0-33.0","battery-v0.2","","""event"",""trial"",""time""
""fullscreenenter"",""1"",""1772""
","
","
","""event"",""trial"",""time""
""fullscreenenter"",""1"",""1772""
","
","","","580.9999999998836","","","25","16876","6565","l","elianto","#3366ff99"," "," ","1","+10","[1431.9999999998836]","1","2","","","16876","29","1","1","win","go","0"
"pit-trial","154","1018972","0.0-34.0","battery-v0.2","","""event"",""trial"",""time""
""fullscreenenter"",""1"",""1772""
","
","
","""event"",""trial"",""time""
""fullscreenenter"",""1"",""1772""
","
","","","-1","","","25","16876","6565","g","elianto","#f73b6a7A"," ","-1","0","-10","[]","0","2","","","16876","30","3","3","lose","go","0"
"pit-trial","155","1023828","0.0-35.0","battery-v0.2","","""event"",""trial"",""time""
""fullscreenenter"",""1"",""1772""
","
","
","""event"",""trial"",""time""
""fullscreenenter"",""1"",""1772""
","
","","","-1","","","25","16876","6565","u","elianto","#f73b6a7A","-1","-1","1","0","[]","0","2","","","16876","31","0","4","lose","no-go","0"
"pit-trial","156","1028685","0.0-36.0","battery-v0.2","","""event"",""trial"",""time""
""fullscreenenter"",""1"",""1772""
","
","
","""event"",""trial"",""time""
""fullscreenenter"",""1"",""1772""
","
","","","-1","","","25","16876","6565","a","elianto","#f73b6a7A","-1","-1","1","0","[]","0","2","","","16876","32","2","4","lose","no-go","0"
"pit-trial","157","1033542","0.0-37.0","battery-v0.2","","""event"",""trial"",""time""
""fullscreenenter"",""1"",""1772""
","
","
","""event"",""trial"",""time""
""fullscreenenter"",""1"",""1772""
","
","","","-1","","","25","16876","6565","g","elianto","#f73b6a7A"," ","-1","0","-10","[]","0","2","","","16876","33","3","3","lose","go","0"
"pit-trial","158","1037131","0.0-38.0","battery-v0.2","","""event"",""trial"",""time""
""fullscreenenter"",""1"",""1772""
","
","
","""event"",""trial"",""time""
""fullscreenenter"",""1"",""1772""
","
","","","732.0000000002328","","","25","16876","6565","l","elianto","#3366ff99"," "," ","1","+10","[1582.0000000001164]","1","2","","","16876","34","1","1","win","go","0"
"pit-trial","159","1041985","0.0-39.0","battery-v0.2","","""event"",""trial"",""time""
""fullscreenenter"",""1"",""1772""
","
","
","""event"",""trial"",""time""
""fullscreenenter"",""1"",""1772""
","
","","","-1","","","25","16876","6565","u","elianto","#f73b6a7A","-1","-1","1","0","[]","0","2","","","16876","35","0","4","lose","no-go","0"
"pit-trial","160","1045760","0.0-40.0","battery-v0.2","","""event"",""trial"",""time""
""fullscreenenter"",""1"",""1772""
","
","
","""event"",""trial"",""time""
""fullscreenenter"",""1"",""1772""
","
","","","918.9999999998836","","","25","16876","6565","a","elianto","#f73b6a7A","-1"," ","0","0","[1771]","1","2","","","16876","36","2","4","lose","no-go","1"
"pit-trial","161","1050616","0.0-41.0","battery-v0.2","","""event"",""trial"",""time""
""fullscreenenter"",""1"",""1772""
","
","
","""event"",""trial"",""time""
""fullscreenenter"",""1"",""1772""
","
","","","-1","","","25","16876","6565","g","elianto","#f73b6a7A"," ","-1","0","0","[]","0","2","","","16876","37","3","3","lose","go","1"
"pit-trial","162","1054121","0.0-42.0","battery-v0.2","","""event"",""trial"",""time""
""fullscreenenter"",""1"",""1772""
","
","
","""event"",""trial"",""time""
""fullscreenenter"",""1"",""1772""
","
","","","650","","","25","16876","6565","l","elianto","#3366ff99"," "," ","1","+10","[1500.9999999997672]","1","2","","","16876","38","1","1","win","go","0"
"pit-trial","163","1058978","0.0-43.0","battery-v0.2","","""event"",""trial"",""time""
""fullscreenenter"",""1"",""1772""
","
","
","""event"",""trial"",""time""
""fullscreenenter"",""1"",""1772""
","
","","","-1","","","25","16876","6565","a","elianto","#f73b6a7A","-1","-1","1","0","[]","0","2","","","16876","39","2","4","lose","no-go","0"
"pit-trial","164","1063834","0.0-44.0","battery-v0.2","","""event"",""trial"",""time""
""fullscreenenter"",""1"",""1772""
","
","
","""event"",""trial"",""time""
""fullscreenenter"",""1"",""1772""
","
","","","-1","","","25","16876","6565","u","elianto","#f73b6a7A","-1","-1","1","0","[]","0","2","","","16876","40","0","4","lose","no-go","0"
"pit-trial","165","1067260","0.0-45.0","battery-v0.2","","""event"",""trial"",""time""
""fullscreenenter"",""1"",""1772""
","
","
","""event"",""trial"",""time""
""fullscreenenter"",""1"",""1772""
","
","","","572","","","25","16876","6565","l","elianto","#3366ff99"," "," ","1","+10","[1423]","1","2","","","16876","41","1","1","win","go","0"
"pit-trial","166","1072117","0.0-46.0","battery-v0.2","","""event"",""trial"",""time""
""fullscreenenter"",""1"",""1772""
","
","
","""event"",""trial"",""time""
""fullscreenenter"",""1"",""1772""
","
","","","-1","","","25","16876","6565","g","elianto","#f73b6a7A"," ","-1","0","-10","[]","0","2","","","16876","42","3","3","lose","go","0"
"pit-trial","167","1076973","0.0-47.0","battery-v0.2","","""event"",""trial"",""time""
""fullscreenenter"",""1"",""1772""
","
","
","""event"",""trial"",""time""
""fullscreenenter"",""1"",""1772""
","
","","","-1","","","25","16876","6565","u","elianto","#f73b6a7A","-1","-1","1","-10","[]","0","2","","","16876","43","0","4","lose","no-go","1"
"pit-trial","168","1081829","0.0-48.0","battery-v0.2","","""event"",""trial"",""time""
""fullscreenenter"",""1"",""1772""
","
","
","""event"",""trial"",""time""
""fullscreenenter"",""1"",""1772""
","
","","","-1","","","25","16876","6565","a","elianto","#f73b6a7A","-1","-1","1","0","[]","0","2","","","16876","44","2","4","lose","no-go","0"
"pit-trial","169","1086685","0.0-49.0","battery-v0.2","","""event"",""trial"",""time""
""fullscreenenter"",""1"",""1772""
","
","
","""event"",""trial"",""time""
""fullscreenenter"",""1"",""1772""
","
","","","-1","","","25","16876","6565","u","elianto","#f73b6a7A","-1","-1","1","0","[]","0","2","","","16876","45","0","4","lose","no-go","0"
"pit-trial","170","1090194","0.0-50.0","battery-v0.2","","""event"",""trial"",""time""
""fullscreenenter"",""1"",""1772""
","
","
","""event"",""trial"",""time""
""fullscreenenter"",""1"",""1772""
","
","","","654","","","25","16876","6565","p","elianto","#3366ff99","-1"," ","0","+10","[1505]","1","2","","","16876","46","4","2","win","no-go","1"
"pit-trial","171","1095051","0.0-51.0","battery-v0.2","","""event"",""trial"",""time""
""fullscreenenter"",""1"",""1772""
","
","
","""event"",""trial"",""time""
""fullscreenenter"",""1"",""1772""
","
","","","-1","","","25","16876","6565","a","elianto","#f73b6a7A","-1","-1","1","-10","[]","0","2","","","16876","47","2","4","lose","no-go","1"
"pit-trial","172","1099906","0.0-52.0","battery-v0.2","","""event"",""trial"",""time""
""fullscreenenter"",""1"",""1772""
","
","
","""event"",""trial"",""time""
""fullscreenenter"",""1"",""1772""
","
","","","-1","","","25","16876","6565","g","elianto","#f73b6a7A"," ","-1","0","-10","[]","0","2","","","16876","48","3","3","lose","go","0"
"pit-trial","173","1103541","0.0-53.0","battery-v0.2","","""event"",""trial"",""time""
""fullscreenenter"",""1"",""1772""
","
","
","""event"",""trial"",""time""
""fullscreenenter"",""1"",""1772""
","
","","","780","","","25","16876","6565","l","elianto","#3366ff99"," "," ","1","+10","[1630]","1","2","","","16876","49","1","1","win","go","0"
"pit-trial","174","1108396","0.0-54.0","battery-v0.2","","""event"",""trial"",""time""
""fullscreenenter"",""1"",""1772""
","
","
","""event"",""trial"",""time""
""fullscreenenter"",""1"",""1772""
","
","","","-1","","","25","16876","6565","g","elianto","#f73b6a7A"," ","-1","0","-10","[]","0","2","","","16876","50","3","3","lose","go","0"
"pit-trial","175","1113252","0.0-55.0","battery-v0.2","","""event"",""trial"",""time""
""fullscreenenter"",""1"",""1772""
","
","
","""event"",""trial"",""time""
""fullscreenenter"",""1"",""1772""
","
","","","-1","","","25","16876","6565","u","elianto","#f73b6a7A","-1","-1","1","0","[]","0","2","","","16876","51","0","4","lose","no-go","0"
"pit-trial","176","1116928","0.0-56.0","battery-v0.2","","""event"",""trial"",""time""
""fullscreenenter"",""1"",""1772""
","
","
","""event"",""trial"",""time""
""fullscreenenter"",""1"",""1772""
","
","","","819","","","25","16876","6565","p","elianto","#3366ff99","-1"," ","0","0","[1670]","1","2","","","16876","52","4","2","win","no-go","0"
"pit-trial","177","1121785","0.0-57.0","battery-v0.2","","""event"",""trial"",""time""
""fullscreenenter"",""1"",""1772""
","
","
","""event"",""trial"",""time""
""fullscreenenter"",""1"",""1772""
","
","","","-1","","","25","16876","6565","a","elianto","#f73b6a7A","-1","-1","1","0","[]","0","2","","","16876","53","2","4","lose","no-go","0"
"pit-trial","178","1125230","0.0-58.0","battery-v0.2","","""event"",""trial"",""time""
""fullscreenenter"",""1"",""1772""
","
","
","""event"",""trial"",""time""
""fullscreenenter"",""1"",""1772""
","
","","","589","","","25","16876","6565","l","elianto","#3366ff99"," "," ","1","+10","[1440]","1","2","","","16876","54","1","1","win","go","0"
"pit-trial","179","1130086","0.0-59.0","battery-v0.2","","""event"",""trial"",""time""
""fullscreenenter"",""1"",""1772""
","
","
","""event"",""trial"",""time""
""fullscreenenter"",""1"",""1772""
","
","","","-1","","","25","16876","6565","u","elianto","#f73b6a7A","-1","-1","1","0","[]","0","2","","","16876","55","0","4","lose","no-go","0"
"pit-trial","180","1133733","0.0-60.0","battery-v0.2","","""event"",""trial"",""time""
""fullscreenenter"",""1"",""1772""
","
","
","""event"",""trial"",""time""
""fullscreenenter"",""1"",""1772""
","
","","","791","","","25","16876","6565","p","elianto","#3366ff99","-1"," ","0","0","[1642]","1","2","","","16876","56","4","2","win","no-go","0"
"pit-trial","181","1137432","0.0-61.0","battery-v0.2","","""event"",""trial"",""time""
""fullscreenenter"",""1"",""1772""
","
","
","""event"",""trial"",""time""
""fullscreenenter"",""1"",""1772""
","
","","","842","","","25","16876","6565","p","elianto","#3366ff99","-1"," ","0","+10","[1692.9999999997672]","1","2","","","16876","57","4","2","win","no-go","1"
"pit-trial","182","1141983","0.0-62.0","battery-v0.2","","""event"",""trial"",""time""
""fullscreenenter"",""1"",""1772""
","
","
","""event"",""trial"",""time""
""fullscreenenter"",""1"",""1772""
","
","","","1696","","","25","16876","6565","u","elianto","#f73b6a7A","-1"," ","0","-10","[2547]","1","2","","","16876","58","0","4","lose","no-go","0"
"pit-trial","183","1146289","0.0-63.0","battery-v0.2","","""event"",""trial"",""time""
""fullscreenenter"",""1"",""1772""
","
","
","""event"",""trial"",""time""
""fullscreenenter"",""1"",""1772""
","
","","","1451","","","25","16876","6565","g","elianto","#f73b6a7A"," "," ","1","-10","[2301]","1","2","","","16876","59","3","3","lose","go","1"
"pit-trial","184","1149691","0.0-64.0","battery-v0.2","","""event"",""trial"",""time""
""fullscreenenter"",""1"",""1772""
","
","
","""event"",""trial"",""time""
""fullscreenenter"",""1"",""1772""
","
","","","546.0000000002328","","","25","16876","6565","l","elianto","#3366ff99"," "," ","1","+10","[1397.0000000002328]","1","2","","","16876","60","1","1","win","go","0"
"pit-trial","185","1154547","0.0-65.0","battery-v0.2","","""event"",""trial"",""time""
""fullscreenenter"",""1"",""1772""
","
","
","""event"",""trial"",""time""
""fullscreenenter"",""1"",""1772""
","
","","","-1","","","25","16876","6565","a","elianto","#f73b6a7A","-1","-1","1","0","[]","0","2","","","16876","61","2","4","lose","no-go","0"
"pit-trial","186","1157988","0.0-66.0","battery-v0.2","","""event"",""trial"",""time""
""fullscreenenter"",""1"",""1772""
","
","
","""event"",""trial"",""time""
""fullscreenenter"",""1"",""1772""
","
","","","586.9999999997672","","","25","16876","6565","l","elianto","#3366ff99"," "," ","1","+10","[1438]","1","2","","","16876","62","1","1","win","go","0"
"pit-trial","187","1161845","0.0-67.0","battery-v0.2","","""event"",""trial"",""time""
""fullscreenenter"",""1"",""1772""
","
","
","""event"",""trial"",""time""
""fullscreenenter"",""1"",""1772""
","
","","","1000","","","25","16876","6565","p","elianto","#3366ff99","-1"," ","0","0","[1851]","1","2","","","16876","63","4","2","win","no-go","0"
"pit-trial","188","1166701","0.0-68.0","battery-v0.2","","""event"",""trial"",""time""
""fullscreenenter"",""1"",""1772""
","
","
","""event"",""trial"",""time""
""fullscreenenter"",""1"",""1772""
","
","","","-1","","","25","16876","6565","g","elianto","#f73b6a7A"," ","-1","0","-10","[]","0","2","","","16876","64","3","3","lose","go","0"
"pit-trial","189","1171556","0.0-69.0","battery-v0.2","","""event"",""trial"",""time""
""fullscreenenter"",""1"",""1772""
","
","
","""event"",""trial"",""time""
""fullscreenenter"",""1"",""1772""
","
","","","-1","","","25","16876","6565","g","elianto","#f73b6a7A"," ","-1","0","-10","[]","0","2","","","16876","65","3","3","lose","go","0"
"pit-trial","190","1175000","0.0-70.0","battery-v0.2","","""event"",""trial"",""time""
""fullscreenenter"",""1"",""1772""
","
","
","""event"",""trial"",""time""
""fullscreenenter"",""1"",""1772""
","
","","","588.0000000002328","","","25","16876","6565","l","elianto","#3366ff99"," "," ","1","+10","[1438.0000000002328]","1","2","","","16876","66","1","1","win","go","0"
"pit-trial","191","1179856","0.0-71.0","battery-v0.2","","""event"",""trial"",""time""
""fullscreenenter"",""1"",""1772""
","
","
","""event"",""trial"",""time""
""fullscreenenter"",""1"",""1772""
","
","","","-1","","","25","16876","6565","a","elianto","#f73b6a7A","-1","-1","1","0","[]","0","2","","","16876","67","2","4","lose","no-go","0"
"pit-trial","192","1183314","0.0-72.0","battery-v0.2","","""event"",""trial"",""time""
""fullscreenenter"",""1"",""1772""
","
","
","""event"",""trial"",""time""
""fullscreenenter"",""1"",""1772""
","
","","","602","","","25","16876","6565","p","elianto","#3366ff99","-1"," ","0","0","[1453]","1","2","","","16876","68","4","2","win","no-go","0"
"pit-trial","193","1186962","0.0-73.0","battery-v0.2","","""event"",""trial"",""time""
""fullscreenenter"",""1"",""1772""
","
","
","""event"",""trial"",""time""
""fullscreenenter"",""1"",""1772""
","
","","","793","","","25","16876","6565","s","elianto","#3366ff99"," "," ","1","+10","[1643]","1","2","","","16876","69","5","1","win","go","0"
"pit-trial","194","1190571","0.0-74.0","battery-v0.2","","""event"",""trial"",""time""
""fullscreenenter"",""1"",""1772""
","
","
","""event"",""trial"",""time""
""fullscreenenter"",""1"",""1772""
","
","","","753","","","25","16876","6565","l","elianto","#3366ff99"," "," ","1","0","[1604]","1","2","","","16876","70","1","1","win","go","1"
"pit-trial","195","1194220","0.0-75.0","battery-v0.2","","""event"",""trial"",""time""
""fullscreenenter"",""1"",""1772""
","
","
","""event"",""trial"",""time""
""fullscreenenter"",""1"",""1772""
","
","","","793","","","25","16876","6565","p","elianto","#3366ff99","-1"," ","0","0","[1644]","1","2","","","16876","71","4","2","win","no-go","0"
"pit-trial","196","1199076","0.0-76.0","battery-v0.2","","""event"",""trial"",""time""
""fullscreenenter"",""1"",""1772""
","
","
","""event"",""trial"",""time""
""fullscreenenter"",""1"",""1772""
","
","","","-1","","","25","16876","6565","g","elianto","#f73b6a7A"," ","-1","0","0","[]","0","2","","","16876","72","3","3","lose","go","1"
"pit-trial","197","1202491","0.0-77.0","battery-v0.2","","""event"",""trial"",""time""
""fullscreenenter"",""1"",""1772""
","
","
","""event"",""trial"",""time""
""fullscreenenter"",""1"",""1772""
","
","","","560","","","25","16876","6565","s","elianto","#3366ff99"," "," ","1","+10","[1410]","1","2","","","16876","73","5","1","win","go","0"
"pit-trial","198","1207347","0.0-78.0","battery-v0.2","","""event"",""trial"",""time""
""fullscreenenter"",""1"",""1772""
","
","
","""event"",""trial"",""time""
""fullscreenenter"",""1"",""1772""
","
","","","-1","","","25","16876","6565","g","elianto","#f73b6a7A"," ","-1","0","-10","[]","0","2","","","16876","74","3","3","lose","go","0"
"pit-trial","199","1210696","0.0-79.0","battery-v0.2","","""event"",""trial"",""time""
""fullscreenenter"",""1"",""1772""
","
","
","""event"",""trial"",""time""
""fullscreenenter"",""1"",""1772""
","
","","","492","","","25","16876","6565","l","elianto","#3366ff99"," "," ","1","+10","[1343]","1","2","","","16876","75","1","1","win","go","0"
"pit-trial","200","1215551","0.0-80.0","battery-v0.2","","""event"",""trial"",""time""
""fullscreenenter"",""1"",""1772""
","
","
","""event"",""trial"",""time""
""fullscreenenter"",""1"",""1772""
","
","","","-1","","","25","16876","6565","p","elianto","#3366ff99","-1","-1","1","+10","[]","0","2","","","16876","76","4","2","win","no-go","0"
"pit-trial","201","1219339","0.0-81.0","battery-v0.2","","""event"",""trial"",""time""
""fullscreenenter"",""1"",""1772""
","
","
","""event"",""trial"",""time""
""fullscreenenter"",""1"",""1772""
","
","","","931","","","25","16876","6565","s","elianto","#3366ff99"," "," ","1","+10","[1782]","1","2","","","16876","77","5","1","win","go","0"
"pit-trial","202","1224194","0.0-82.0","battery-v0.2","","""event"",""trial"",""time""
""fullscreenenter"",""1"",""1772""
","
","
","""event"",""trial"",""time""
""fullscreenenter"",""1"",""1772""
","
","","","-1","","","25","16876","6565","g","elianto","#f73b6a7A"," ","-1","0","0","[]","0","2","","","16876","78","3","3","lose","go","1"
"pit-trial","203","1227619","0.0-83.0","battery-v0.2","","""event"",""trial"",""time""
""fullscreenenter"",""1"",""1772""
","
","
","""event"",""trial"",""time""
""fullscreenenter"",""1"",""1772""
","
","","","569","","","25","16876","6565","p","elianto","#3366ff99","-1"," ","0","0","[1420]","1","2","","","16876","79","4","2","win","no-go","0"
"pit-trial","204","1232475","0.0-84.0","battery-v0.2","","""event"",""trial"",""time""
""fullscreenenter"",""1"",""1772""
","
","
","""event"",""trial"",""time""
""fullscreenenter"",""1"",""1772""
","
","","","-1","","","25","16876","6565","w","elianto","#f73b6a7A","-1","-1","1","0","[]","0","2","","","16876","80","6","4","lose","no-go","0"
"pit-trial","205","1237331","0.0-85.0","battery-v0.2","","""event"",""trial"",""time""
""fullscreenenter"",""1"",""1772""
","
","
","""event"",""trial"",""time""
""fullscreenenter"",""1"",""1772""
","
","","","-1","","","25","16876","6565","w","elianto","#f73b6a7A","-1","-1","1","0","[]","0","2","","","16876","81","6","4","lose","no-go","0"
"pit-trial","206","1240974","0.0-86.0","battery-v0.2","","""event"",""trial"",""time""
""fullscreenenter"",""1"",""1772""
","
","
","""event"",""trial"",""time""
""fullscreenenter"",""1"",""1772""
","
","","","788","","","25","16876","6565","p","elianto","#3366ff99","-1"," ","0","0","[1639]","1","2","","","16876","82","4","2","win","no-go","0"
"pit-trial","207","1244815","0.0-87.0","battery-v0.2","","""event"",""trial"",""time""
""fullscreenenter"",""1"",""1772""
","
","
","""event"",""trial"",""time""
""fullscreenenter"",""1"",""1772""
","
","","","985","","","25","16876","6565","s","elianto","#3366ff99"," "," ","1","+10","[1835]","1","2","","","16876","83","5","1","win","go","0"
"pit-trial","208","1249670","0.0-88.0","battery-v0.2","","""event"",""trial"",""time""
""fullscreenenter"",""1"",""1772""
","
","
","""event"",""trial"",""time""
""fullscreenenter"",""1"",""1772""
","
","","","-1","","","25","16876","6565","e","elianto","#f73b6a7A"," ","-1","0","0","[]","0","2","","","16876","84","7","3","lose","go","1"
"pit-trial","209","1254526","0.0-89.0","battery-v0.2","","""event"",""trial"",""time""
""fullscreenenter"",""1"",""1772""
","
","
","""event"",""trial"",""time""
""fullscreenenter"",""1"",""1772""
","
","","","-1","","","25","16876","6565","e","elianto","#f73b6a7A"," ","-1","0","-10","[]","0","2","","","16876","85","7","3","lose","go","0"
"pit-trial","210","1258770","0.0-90.0","battery-v0.2","","""event"",""trial"",""time""
""fullscreenenter"",""1"",""1772""
","
","
","""event"",""trial"",""time""
""fullscreenenter"",""1"",""1772""
","
","","","1390.0000000002328","","","25","16876","6565","p","elianto","#3366ff99","-1"," ","0","0","[2240]","1","2","","","16876","86","4","2","win","no-go","0"
"pit-trial","211","1263090","0.0-91.0","battery-v0.2","","""event"",""trial"",""time""
""fullscreenenter"",""1"",""1772""
","
","
","""event"",""trial"",""time""
""fullscreenenter"",""1"",""1772""
","
","","","1465","","","25","16876","6565","s","elianto","#3366ff99"," "," ","1","+10","[2316]","1","2","","","16876","87","5","1","win","go","0"
"pit-trial","212","1267946","0.0-92.0","battery-v0.2","","""event"",""trial"",""time""
""fullscreenenter"",""1"",""1772""
","
","
","""event"",""trial"",""time""
""fullscreenenter"",""1"",""1772""
","
","","","-1","","","25","16876","6565","w","elianto","#f73b6a7A","-1","-1","1","0","[]","0","2","","","16876","88","6","4","lose","no-go","0"
"pit-trial","213","1271970","0.0-93.0","battery-v0.2","","""event"",""trial"",""time""
""fullscreenenter"",""1"",""1772""
","
","
","""event"",""trial"",""time""
""fullscreenenter"",""1"",""1772""
","
","","","1169","","","25","16876","6565","s","elianto","#3366ff99"," "," ","1","+10","[2019]","1","2","","","16876","89","5","1","win","go","0"
"pit-trial","214","1275875","0.0-94.0","battery-v0.2","","""event"",""trial"",""time""
""fullscreenenter"",""1"",""1772""
","
","
","""event"",""trial"",""time""
""fullscreenenter"",""1"",""1772""
","
","","","1048","","","25","16876","6565","e","elianto","#f73b6a7A"," "," ","1","-10","[1899]","1","2","","","16876","90","7","3","lose","go","1"
"pit-trial","215","1279307","0.0-95.0","battery-v0.2","","""event"",""trial"",""time""
""fullscreenenter"",""1"",""1772""
","
","
","""event"",""trial"",""time""
""fullscreenenter"",""1"",""1772""
","
","","","577","","","25","16876","6565","p","elianto","#3366ff99","-1"," ","0","+10","[1428]","1","2","","","16876","91","4","2","win","no-go","1"
"pit-trial","216","1284163","0.0-96.0","battery-v0.2","","""event"",""trial"",""time""
""fullscreenenter"",""1"",""1772""
","
","
","""event"",""trial"",""time""
""fullscreenenter"",""1"",""1772""
","
","","","-1","","","25","16876","6565","w","elianto","#f73b6a7A","-1","-1","1","0","[]","0","2","","","16876","92","6","4","lose","no-go","0"
"pit-trial","217","1287637","0.0-97.0","battery-v0.2","","""event"",""trial"",""time""
""fullscreenenter"",""1"",""1772""
","
","
","""event"",""trial"",""time""
""fullscreenenter"",""1"",""1772""
","
","","","620","","","25","16876","6565","w","elianto","#f73b6a7A","-1"," ","0","-10","[1470]","1","2","","","16876","93","6","4","lose","no-go","0"
"pit-trial","218","1291107","0.0-98.0","battery-v0.2","","""event"",""trial"",""time""
""fullscreenenter"",""1"",""1772""
","
","
","""event"",""trial"",""time""
""fullscreenenter"",""1"",""1772""
","
","","","613","","","25","16876","6565","d","elianto","#3366ff99","-1"," ","0","0","[1465]","1","2","","","16876","94","8","2","win","no-go","0"
"pit-trial","219","1295962","0.0-99.0","battery-v0.2","","""event"",""trial"",""time""
""fullscreenenter"",""1"",""1772""
","
","
","""event"",""trial"",""time""
""fullscreenenter"",""1"",""1772""
","
","","","-1","","","25","16876","6565","e","elianto","#f73b6a7A"," ","-1","0","-10","[]","0","2","","","16876","95","7","3","lose","go","0"
"pit-trial","220","1299670","0.0-100.0","battery-v0.2","","""event"",""trial"",""time""
""fullscreenenter"",""1"",""1772""
","
","
","""event"",""trial"",""time""
""fullscreenenter"",""1"",""1772""
","
","","","853","","","25","16876","6565","s","elianto","#3366ff99"," "," ","1","+10","[1703]","1","2","","","16876","96","5","1","win","go","0"
"pit-trial","221","1304526","0.0-101.0","battery-v0.2","","""event"",""trial"",""time""
""fullscreenenter"",""1"",""1772""
","
","
","""event"",""trial"",""time""
""fullscreenenter"",""1"",""1772""
","
","","","-1","","","25","16876","6565","w","elianto","#f73b6a7A","-1","-1","1","0","[]","0","2","","","16876","97","6","4","lose","no-go","0"
"pit-trial","222","1308329","0.0-102.0","battery-v0.2","","""event"",""trial"",""time""
""fullscreenenter"",""1"",""1772""
","
","
","""event"",""trial"",""time""
""fullscreenenter"",""1"",""1772""
","
","","","948","","","25","16876","6565","s","elianto","#3366ff99"," "," ","1","+10","[1798]","1","2","","","16876","98","5","1","win","go","0"
"pit-trial","223","1313185","0.0-103.0","battery-v0.2","","""event"",""trial"",""time""
""fullscreenenter"",""1"",""1772""
","
","
","""event"",""trial"",""time""
""fullscreenenter"",""1"",""1772""
","
","","","-1","","","25","16876","6565","e","elianto","#f73b6a7A"," ","-1","0","-10","[]","0","2","","","16876","99","7","3","lose","go","0"
"pit-trial","224","1316975","0.0-104.0","battery-v0.2","","""event"",""trial"",""time""
""fullscreenenter"",""1"",""1772""
","
","
","""event"",""trial"",""time""
""fullscreenenter"",""1"",""1772""
","
","","","934.0000000002328","","","25","16876","6565","d","elianto","#3366ff99","-1"," ","0","0","[1785.0000000002328]","1","2","","","16876","100","8","2","win","no-go","0"
"pit-trial","225","1320550","0.0-105.0","battery-v0.2","","""event"",""trial"",""time""
""fullscreenenter"",""1"",""1772""
","
","
","""event"",""trial"",""time""
""fullscreenenter"",""1"",""1772""
","
","","","718.9999999997672","","","25","16876","6565","w","elianto","#f73b6a7A","-1"," ","0","-10","[1570]","1","2","","","16876","101","6","4","lose","no-go","0"
"pit-trial","226","1324121","0.0-106.0","battery-v0.2","","""event"",""trial"",""time""
""fullscreenenter"",""1"",""1772""
","
","
","""event"",""trial"",""time""
""fullscreenenter"",""1"",""1772""
","
","","","716","","","25","16876","6565","d","elianto","#3366ff99","-1"," ","0","0","[1567]","1","2","","","16876","102","8","2","win","no-go","0"
"pit-trial","227","1327849","0.0-107.0","battery-v0.2","","""event"",""trial"",""time""
""fullscreenenter"",""1"",""1772""
","
","
","""event"",""trial"",""time""
""fullscreenenter"",""1"",""1772""
","
","","","872","","","25","16876","6565","s","elianto","#3366ff99"," "," ","1","+10","[1723]","1","2","","","16876","103","5","1","win","go","0"
"pit-trial","228","1331395","0.0-108.0","battery-v0.2","","""event"",""trial"",""time""
""fullscreenenter"",""1"",""1772""
","
","
","""event"",""trial"",""time""
""fullscreenenter"",""1"",""1772""
","
","","","692","","","25","16876","6565","j","elianto","#3366ff99","-1"," ","0","+10","[1542]","1","2","","","16876","104","9","2","win","no-go","1"
"pit-trial","229","1334886","0.0-109.0","battery-v0.2","","""event"",""trial"",""time""
""fullscreenenter"",""1"",""1772""
","
","
","""event"",""trial"",""time""
""fullscreenenter"",""1"",""1772""
","
","","","636","","","25","16876","6565","s","elianto","#3366ff99"," "," ","1","+10","[1486]","1","2","","","16876","105","5","1","win","go","0"
"pit-trial","230","1338485","0.0-110.0","battery-v0.2","","""event"",""trial"",""time""
""fullscreenenter"",""1"",""1772""
","
","
","""event"",""trial"",""time""
""fullscreenenter"",""1"",""1772""
","
","","","744.0000000002328","","","25","16876","6565","d","elianto","#3366ff99","-1"," ","0","+10","[1593]","1","2","","","16876","106","8","2","win","no-go","1"
"pit-trial","231","1341926","0.0-111.0","battery-v0.2","","""event"",""trial"",""time""
""fullscreenenter"",""1"",""1772""
","
","
","""event"",""trial"",""time""
""fullscreenenter"",""1"",""1772""
","
","","","585.9999999997672","","","25","16876","6565","j","elianto","#3366ff99","-1"," ","0","0","[1437]","1","2","","","16876","107","9","2","win","no-go","0"
"pit-trial","232","1346782","0.0-112.0","battery-v0.2","","""event"",""trial"",""time""
""fullscreenenter"",""1"",""1772""
","
","
","""event"",""trial"",""time""
""fullscreenenter"",""1"",""1772""
","
","","","-1","","","25","16876","6565","w","elianto","#f73b6a7A","-1","-1","1","0","[]","0","2","","","16876","108","6","4","lose","no-go","0"
"pit-trial","233","1350330","0.0-113.0","battery-v0.2","","""event"",""trial"",""time""
""fullscreenenter"",""1"",""1772""
","
","
","""event"",""trial"",""time""
""fullscreenenter"",""1"",""1772""
","
","","","692","","","25","16876","6565","j","elianto","#3366ff99","-1"," ","0","0","[1543]","1","2","","","16876","109","9","2","win","no-go","0"
"pit-trial","234","1354317","0.0-114.0","battery-v0.2","","""event"",""trial"",""time""
""fullscreenenter"",""1"",""1772""
","
","
","""event"",""trial"",""time""
""fullscreenenter"",""1"",""1772""
","
","","","1132","","","25","16876","6565","d","elianto","#3366ff99","-1"," ","0","+10","[1983]","1","2","","","16876","110","8","2","win","no-go","1"
"pit-trial","235","1358026","0.0-115.0","battery-v0.2","","""event"",""trial"",""time""
""fullscreenenter"",""1"",""1772""
","
","
","""event"",""trial"",""time""
""fullscreenenter"",""1"",""1772""
","
","","","853","","","25","16876","6565","s","elianto","#3366ff99"," "," ","1","+10","[1703.9999999997672]","1","2","","","16876","111","5","1","win","go","0"
"pit-trial","236","1362881","0.0-116.0","battery-v0.2","","""event"",""trial"",""time""
""fullscreenenter"",""1"",""1772""
","
","
","""event"",""trial"",""time""
""fullscreenenter"",""1"",""1772""
","
","","","-1","","","25","16876","6565","w","elianto","#f73b6a7A","-1","-1","1","0","[]","0","2","","","16876","112","6","4","lose","no-go","0"
"pit-trial","237","1366589","0.0-117.0","battery-v0.2","","""event"",""trial"",""time""
""fullscreenenter"",""1"",""1772""
","
","
","""event"",""trial"",""time""
""fullscreenenter"",""1"",""1772""
","
","","","852","","","25","16876","6565","j","elianto","#3366ff99","-1"," ","0","0","[1703]","1","2","","","16876","113","9","2","win","no-go","0"
"pit-trial","238","1371445","0.0-118.0","battery-v0.2","","""event"",""trial"",""time""
""fullscreenenter"",""1"",""1772""
","
","
","""event"",""trial"",""time""
""fullscreenenter"",""1"",""1772""
","
","","","-1","","","25","16876","6565","e","elianto","#f73b6a7A"," ","-1","0","-10","[]","0","2","","","16876","114","7","3","lose","go","0"
"pit-trial","239","1374851","0.0-119.0","battery-v0.2","","""event"",""trial"",""time""
""fullscreenenter"",""1"",""1772""
","
","
","""event"",""trial"",""time""
""fullscreenenter"",""1"",""1772""
","
","","","550","","","25","16876","6565","d","elianto","#3366ff99","-1"," ","0","0","[1400]","1","2","","","16876","115","8","2","win","no-go","0"
"pit-trial","240","1378445","0.0-120.0","battery-v0.2","","""event"",""trial"",""time""
""fullscreenenter"",""1"",""1772""
","
","
","""event"",""trial"",""time""
""fullscreenenter"",""1"",""1772""
","
","","","739","","","25","16876","6565","s","elianto","#3366ff99"," "," ","1","+10","[1589]","1","2","","","16876","116","5","1","win","go","0"
"pit-trial","241","1382142","0.0-121.0","battery-v0.2","","""event"",""trial"",""time""
""fullscreenenter"",""1"",""1772""
","
","
","""event"",""trial"",""time""
""fullscreenenter"",""1"",""1772""
","
","","","841","","","25","16876","6565","s","elianto","#3366ff99"," "," ","1","+10","[1691]","1","2","","","16876","117","5","1","win","go","0"
"pit-trial","242","1385725","0.0-122.0","battery-v0.2","","""event"",""trial"",""time""
""fullscreenenter"",""1"",""1772""
","
","
","""event"",""trial"",""time""
""fullscreenenter"",""1"",""1772""
","
","","","726","","","25","16876","6565","j","elianto","#3366ff99","-1"," ","0","+10","[1578]","1","2","","","16876","118","9","2","win","no-go","1"
"pit-trial","243","1389211","0.0-123.0","battery-v0.2","","""event"",""trial"",""time""
""fullscreenenter"",""1"",""1772""
","
","
","""event"",""trial"",""time""
""fullscreenenter"",""1"",""1772""
","
","","","630","","","25","16876","6565","d","elianto","#3366ff99","-1"," ","0","0","[1482]","1","2","","","16876","119","8","2","win","no-go","0"
"pit-trial","244","1394067","0.0-124.0","battery-v0.2","","""event"",""trial"",""time""
""fullscreenenter"",""1"",""1772""
","
","
","""event"",""trial"",""time""
""fullscreenenter"",""1"",""1772""
","
","","","-1","","","25","16876","6565","w","elianto","#f73b6a7A","-1","-1","1","-10","[]","0","2","","","16876","120","6","4","lose","no-go","1"
"pit-trial","245","1397526","0.0-125.0","battery-v0.2","","""event"",""trial"",""time""
""fullscreenenter"",""1"",""1772""
","
","
","""event"",""trial"",""time""
""fullscreenenter"",""1"",""1772""
","
","","","605","","","25","16876","6565","s","elianto","#3366ff99"," "," ","1","0","[1455]","1","2","","","16876","121","5","1","win","go","1"
"pit-trial","246","1401115","0.0-126.0","battery-v0.2","","""event"",""trial"",""time""
""fullscreenenter"",""1"",""1772""
","
","
","""event"",""trial"",""time""
""fullscreenenter"",""1"",""1772""
","
","","","732","","","25","16876","6565","e","elianto","#f73b6a7A"," "," ","1","0","[1583]","1","2","","","16876","122","7","3","lose","go","0"
"pit-trial","247","1404657","0.0-127.0","battery-v0.2","","""event"",""trial"",""time""
""fullscreenenter"",""1"",""1772""
","
","
","""event"",""trial"",""time""
""fullscreenenter"",""1"",""1772""
","
","","","686","","","25","16876","6565","d","elianto","#3366ff99","-1"," ","0","0","[1537]","1","2","","","16876","123","8","2","win","no-go","0"
"pit-trial","248","1408092","0.0-128.0","battery-v0.2","","""event"",""trial"",""time""
""fullscreenenter"",""1"",""1772""
","
","
","""event"",""trial"",""time""
""fullscreenenter"",""1"",""1772""
","
","","","578","","","25","16876","6565","j","elianto","#3366ff99","-1"," ","0","+10","[1429]","1","2","","","16876","124","9","2","win","no-go","1"
"pit-trial","249","1412946","0.0-129.0","battery-v0.2","","""event"",""trial"",""time""
""fullscreenenter"",""1"",""1772""
","
","
","""event"",""trial"",""time""
""fullscreenenter"",""1"",""1772""
","
","","","-1","","","25","16876","6565","w","elianto","#f73b6a7A","-1","-1","1","-10","[]","0","2","","","16876","125","6","4","lose","no-go","1"
"pit-trial","250","1417802","0.0-130.0","battery-v0.2","","""event"",""trial"",""time""
""fullscreenenter"",""1"",""1772""
","
","
","""event"",""trial"",""time""
""fullscreenenter"",""1"",""1772""
","
","","","-1","","","25","16876","6565","e","elianto","#f73b6a7A"," ","-1","0","0","[]","0","2","","","16876","126","7","3","lose","go","1"
"pit-trial","251","1421263","0.0-131.0","battery-v0.2","","""event"",""trial"",""time""
""fullscreenenter"",""1"",""1772""
","
","
","""event"",""trial"",""time""
""fullscreenenter"",""1"",""1772""
","
","","","606","","","25","16876","6565","d","elianto","#3366ff99","-1"," ","0","+10","[1457]","1","2","","","16876","127","8","2","win","no-go","1"
"pit-trial","252","1424813","0.0-132.0","battery-v0.2","","""event"",""trial"",""time""
""fullscreenenter"",""1"",""1772""
","
","
","""event"",""trial"",""time""
""fullscreenenter"",""1"",""1772""
","
","","","694","","","25","16876","6565","j","elianto","#3366ff99","-1"," ","0","0","[1544]","1","2","","","16876","128","9","2","win","no-go","0"
"pit-trial","253","1428329","0.0-133.0","battery-v0.2","","""event"",""trial"",""time""
""fullscreenenter"",""1"",""1772""
","
","
","""event"",""trial"",""time""
""fullscreenenter"",""1"",""1772""
","
","","","662","","","25","16876","6565","d","elianto","#3366ff99","-1"," ","0","0","[1512]","1","2","","","16876","129","8","2","win","no-go","0"
"pit-trial","254","1431831","0.0-134.0","battery-v0.2","","""event"",""trial"",""time""
""fullscreenenter"",""1"",""1772""
","
","
","""event"",""trial"",""time""
""fullscreenenter"",""1"",""1772""
","
","","","646","","","25","16876","6565","j","elianto","#3366ff99","-1"," ","0","0","[1495.9999999997672]","1","2","","","16876","130","9","2","win","no-go","0"
"pit-trial","255","1436686","0.0-135.0","battery-v0.2","","""event"",""trial"",""time""
""fullscreenenter"",""1"",""1772""
","
","
","""event"",""trial"",""time""
""fullscreenenter"",""1"",""1772""
","
","","","-1","","","25","16876","6565","w","elianto","#f73b6a7A","-1","-1","1","0","[]","0","2","","","16876","131","6","4","lose","no-go","0"
"pit-trial","256","1441542","0.0-136.0","battery-v0.2","","""event"",""trial"",""time""
""fullscreenenter"",""1"",""1772""
","
","
","""event"",""trial"",""time""
""fullscreenenter"",""1"",""1772""
","
","","","-1","","","25","16876","6565","e","elianto","#f73b6a7A"," ","-1","0","0","[]","0","2","","","16876","132","7","3","lose","go","1"
"pit-trial","257","1446398","0.0-137.0","battery-v0.2","","""event"",""trial"",""time""
""fullscreenenter"",""1"",""1772""
","
","
","""event"",""trial"",""time""
""fullscreenenter"",""1"",""1772""
","
","","","-1","","","25","16876","6565","e","elianto","#f73b6a7A"," ","-1","0","-10","[]","0","2","","","16876","133","7","3","lose","go","0"
"pit-trial","258","1449832","0.0-138.0","battery-v0.2","","""event"",""trial"",""time""
""fullscreenenter"",""1"",""1772""
","
","
","""event"",""trial"",""time""
""fullscreenenter"",""1"",""1772""
","
","","","578","","","25","16876","6565","d","elianto","#3366ff99","-1"," ","0","0","[1428]","1","2","","","16876","134","8","2","win","no-go","0"
"pit-trial","259","1454688","0.0-139.0","battery-v0.2","","""event"",""trial"",""time""
""fullscreenenter"",""1"",""1772""
","
","
","""event"",""trial"",""time""
""fullscreenenter"",""1"",""1772""
","
","","","-1","","","25","16876","6565","w","elianto","#f73b6a7A","-1","-1","1","0","[]","0","2","","","16876","135","6","4","lose","no-go","0"
"pit-trial","260","1458135","0.0-140.0","battery-v0.2","","""event"",""trial"",""time""
""fullscreenenter"",""1"",""1772""
","
","
","""event"",""trial"",""time""
""fullscreenenter"",""1"",""1772""
","
","","","593","","","25","16876","6565","j","elianto","#3366ff99","-1"," ","0","0","[1443]","1","2","","","16876","136","9","2","win","no-go","0"
"pit-trial","261","1462991","0.0-141.0","battery-v0.2","","""event"",""trial"",""time""
""fullscreenenter"",""1"",""1772""
","
","
","""event"",""trial"",""time""
""fullscreenenter"",""1"",""1772""
","
","","","-1","","","25","16876","6565","w","elianto","#f73b6a7A","-1","-1","1","-10","[]","0","2","","","16876","137","6","4","lose","no-go","1"
"pit-trial","262","1466720","0.0-142.0","battery-v0.2","","""event"",""trial"",""time""
""fullscreenenter"",""1"",""1772""
","
","
","""event"",""trial"",""time""
""fullscreenenter"",""1"",""1772""
","
","","","874","","","25","16876","6565","e","elianto","#f73b6a7A"," "," ","1","0","[1725]","1","2","","","16876","138","7","3","lose","go","0"
"pit-trial","263","1470182","0.0-143.0","battery-v0.2","","""event"",""trial"",""time""
""fullscreenenter"",""1"",""1772""
","
","
","""event"",""trial"",""time""
""fullscreenenter"",""1"",""1772""
","
","","","606.9999999997672","","","25","16876","6565","j","elianto","#3366ff99","-1"," ","0","0","[1457]","1","2","","","16876","139","9","2","win","no-go","0"
"pit-trial","264","1473571","0.0-144.0","battery-v0.2","","""event"",""trial"",""time""
""fullscreenenter"",""1"",""1772""
","
","
","""event"",""trial"",""time""
""fullscreenenter"",""1"",""1772""
","
","","","534.9999999997672","","","25","16876","6565","d","elianto","#3366ff99","-1"," ","0","0","[1385]","1","2","","","16876","140","8","2","win","no-go","0"
"pit-instructions","265","1501496","0.0-145.0","battery-v0.2","","""event"",""trial"",""time""
""fullscreenenter"",""1"",""1772""
","
","
","""event"",""trial"",""time""
""fullscreenenter"",""1"",""1772""
","
","","[{""page_index"":0,""viewing_time"":15190},{""page_index"":1,""viewing_time"":12730}]","27920","","","","","","","","","","","","","","","","","","","","","","","",""
"pit-trial","266","1506354","0.0-146.0","battery-v0.2","","""event"",""trial"",""time""
""fullscreenenter"",""1"",""1772""
","
","
","""event"",""trial"",""time""
""fullscreenenter"",""1"",""1772""
","
","","","-1","","","25","16876","6565","n","elianto","#f73b6a7A"," ","-1","0","-10","[3032]","1","3","","","16876","141","0","3","lose","go","0"
"pit-trial","267","1510483","0.0-147.0","battery-v0.2","","""event"",""trial"",""time""
""fullscreenenter"",""1"",""1772""
","
","
","""event"",""trial"",""time""
""fullscreenenter"",""1"",""1772""
","
","","","1274","","","25","16876","6565","f","elianto","#3366ff99","-1"," ","0","0","[2125]","1","3","","","16876","142","1","2","win","no-go","0"
"pit-trial","268","1514350","0.0-148.0","battery-v0.2","","""event"",""trial"",""time""
""fullscreenenter"",""1"",""1772""
","
","
","""event"",""trial"",""time""
""fullscreenenter"",""1"",""1772""
","
","","","1012","","","25","16876","6565","b","elianto","#f73b6a7A","-1"," ","0","0","[1862]","1","3","","","16876","143","3","4","lose","no-go","1"
"pit-trial","269","1519205","0.0-149.0","battery-v0.2","","""event"",""trial"",""time""
""fullscreenenter"",""1"",""1772""
","
","
","""event"",""trial"",""time""
""fullscreenenter"",""1"",""1772""
","
","","","-1","","","25","16876","6565","t","elianto","#f73b6a7A"," ","-1","0","-10","[]","0","3","","","16876","144","2","3","lose","go","0"
"pit-trial","270","1524061","0.0-150.0","battery-v0.2","","""event"",""trial"",""time""
""fullscreenenter"",""1"",""1772""
","
","
","""event"",""trial"",""time""
""fullscreenenter"",""1"",""1772""
","
","","","-1","","","25","16876","6565","b","elianto","#f73b6a7A","-1","-1","1","0","[]","0","3","","","16876","145","3","4","lose","no-go","0"
"pit-trial","271","1527545","0.0-151.0","battery-v0.2","","""event"",""trial"",""time""
""fullscreenenter"",""1"",""1772""
","
","
","""event"",""trial"",""time""
""fullscreenenter"",""1"",""1772""
","
","","","627","","","25","16876","6565","f","elianto","#3366ff99","-1"," ","0","+10","[1479]","1","3","","","16876","146","1","2","win","no-go","1"
"pit-trial","272","1532402","0.0-152.0","battery-v0.2","","""event"",""trial"",""time""
""fullscreenenter"",""1"",""1772""
","
","
","""event"",""trial"",""time""
""fullscreenenter"",""1"",""1772""
","
","","","-1","","","25","16876","6565","n","elianto","#f73b6a7A"," ","-1","0","-10","[]","0","3","","","16876","147","0","3","lose","go","0"
"pit-trial","273","1537259","0.0-153.0","battery-v0.2","","""event"",""trial"",""time""
""fullscreenenter"",""1"",""1772""
","
","
","""event"",""trial"",""time""
""fullscreenenter"",""1"",""1772""
","
","","","-1","","","25","16876","6565","t","elianto","#f73b6a7A"," ","-1","0","0","[]","0","3","","","16876","148","2","3","lose","go","1"
"pit-trial","274","1542115","0.0-154.0","battery-v0.2","","""event"",""trial"",""time""
""fullscreenenter"",""1"",""1772""
","
","
","""event"",""trial"",""time""
""fullscreenenter"",""1"",""1772""
","
","","","-1","","","25","16876","6565","b","elianto","#f73b6a7A","-1","-1","1","0","[]","0","3","","","16876","149","3","4","lose","no-go","0"
"pit-trial","275","1545538","0.0-155.0","battery-v0.2","","""event"",""trial"",""time""
""fullscreenenter"",""1"",""1772""
","
","
","""event"",""trial"",""time""
""fullscreenenter"",""1"",""1772""
","
