"trial_type","trial_index","time_elapsed","internal_node_id","task_version","subject_id","interactions","blur_events","focus_events","fullscreenenter_events","fullscreenexit_events","success","view_history","rt","responses","num_errors","age","subject","participantId","rune","rune_set","hex","correct","choice","accuracy","outcome","keys","total_keys","block","practice","value","sub","trial","stimulus","robot","valence","action","sham"
"pavlovia","0","6","0.0-0.0","battery-v0.2","","""event"",""trial"",""time""
""fullscreenenter"",""1"",""1512""
","
","
","""event"",""trial"",""time""
""fullscreenenter"",""1"",""1512""
","
","","","","","","","","","","","","","","","","","","","","","","","","","","",""
"fullscreen","1","2505","0.0-1.0","battery-v0.2","","""event"",""trial"",""time""
""fullscreenenter"",""1"",""1512""
","
","
","""event"",""trial"",""time""
""fullscreenenter"",""1"",""1512""
","
","true","","","","","","","","","","","","","","","","","","","","","","","","","",""
"pit-instructions","2","8073","0.0-2.0-0.0","battery-v0.2","","""event"",""trial"",""time""
""fullscreenenter"",""1"",""1512""
","
","
","""event"",""trial"",""time""
""fullscreenenter"",""1"",""1512""
","
","","[{""page_index"":0,""viewing_time"":5565.299999952316}]","5565.799999952316","","","","","","","","","","","","","","","","","","","","","","","",""
"pit-comprehension","3","11339","0.0-2.0-1.0-0.0","battery-v0.2","","""event"",""trial"",""time""
""fullscreenenter"",""1"",""1512""
","
","
","""event"",""trial"",""time""
""fullscreenenter"",""1"",""1512""
","
","","","3262.2000000476837","[""shark""]","0","21","3709","2407","","","","","","","","","","","","","","","","","","",""
"pit-instructions","4","12707","0.0-2.0-1.0-1.0","battery-v0.2","","""event"",""trial"",""time""
""fullscreenenter"",""1"",""1512""
","
","
","""event"",""trial"",""time""
""fullscreenenter"",""1"",""1512""
","
","","[{""page_index"":0,""viewing_time"":1351.9000000953674}]","1352.2000000476837","","","","","","","","","","","","","","","","","","","","","","","",""
"pit-comprehension","5","15997","0.0-2.0-2.0-0.0","battery-v0.2","","""event"",""trial"",""time""
""fullscreenenter"",""1"",""1512""
","
","
","""event"",""trial"",""time""
""fullscreenenter"",""1"",""1512""
","
","","","3286.2000000476837","[""tiger""]","0","21","3709","2407","","","","","","","","","","","","","","","","","","",""
"pit-instructions","6","17129","0.0-2.0-2.0-1.0","battery-v0.2","","""event"",""trial"",""time""
""fullscreenenter"",""1"",""1512""
","
","
","""event"",""trial"",""time""
""fullscreenenter"",""1"",""1512""
","
","","[{""page_index"":0,""viewing_time"":1128.2999999523163}]","1128.5999999046326","","","","","","","","","","","","","","","","","","","","","","","",""
"pit-instructions","7","110512","0.0-2.0-3.0","battery-v0.2","","""event"",""trial"",""time""
""fullscreenenter"",""1"",""1512""
","
","
","""event"",""trial"",""time""
""fullscreenenter"",""1"",""1512""
","
","","[{""page_index"":0,""viewing_time"":7776.299999952316},{""page_index"":1,""viewing_time"":5788.100000143051},{""page_index"":2,""viewing_time"":6177.199999809265},{""page_index"":3,""viewing_time"":5094.800000190735},{""page_index"":4,""viewing_time"":6099.299999952316},{""page_index"":5,""viewing_time"":5873.899999856949},{""page_index"":6,""viewing_time"":6836.800000190735},{""page_index"":7,""viewing_time"":6362},{""page_index"":8,""viewing_time"":6426.599999904633},{""page_index"":9,""viewing_time"":10950.299999952316},{""page_index"":10,""viewing_time"":7204},{""page_index"":11,""viewing_time"":7646.200000047684},{""page_index"":12,""viewing_time"":7067.900000095367},{""page_index"":13,""viewing_time"":4076.2999999523163}]","93380.09999990463","","","","","","","","","","","","","","","","","","","","","","","",""
"pit-trial","8","113949","0.0-2.0-4.0-0.0","battery-v0.2","","""event"",""trial"",""time""
""fullscreenenter"",""1"",""1512""
","
","
","""event"",""trial"",""time""
""fullscreenenter"",""1"",""1512""
","
","","","572.7999999523163","","","21","3709","2407","&#9784;","elianto","#FFFFF080"," "," ","1","&#10004","[1428.7999999523163]","1","0","0","","","","","","","",""
"pit-trial","9","117453","0.0-2.0-4.1-0.1","battery-v0.2","","""event"",""trial"",""time""
""fullscreenenter"",""1"",""1512""
","
","
","""event"",""trial"",""time""
""fullscreenenter"",""1"",""1512""
","
","","","632.3000001907349","","","21","3709","2407","&#9784;","elianto","#FFFFF080"," "," ","1","&#10004","[1487.2999999523163]","1","0","0","","","","","","","",""
"pit-trial","10","120963","0.0-2.0-4.2-0.2","battery-v0.2","","""event"",""trial"",""time""
""fullscreenenter"",""1"",""1512""
","
","
","""event"",""trial"",""time""
""fullscreenenter"",""1"",""1512""
","
","","","637.7000000476837","","","21","3709","2407","&#9784;","elianto","#FFFFF080"," "," ","1","&#10004","[1488.0999999046326]","1","0","0","","","","","","","",""
"pit-trial","11","124379","0.0-2.0-4.3-0.3","battery-v0.2","","""event"",""trial"",""time""
""fullscreenenter"",""1"",""1512""
","
","
","""event"",""trial"",""time""
""fullscreenenter"",""1"",""1512""
","
","","","555.7999999523163","","","21","3709","2407","&#9784;","elianto","#FFFFF080"," "," ","1","&#10004","[1410.3999998569489]","1","0","0","","","","","","","",""
"pit-trial","12","128125","0.0-2.0-4.4-0.4","battery-v0.2","","""event"",""trial"",""time""
""fullscreenenter"",""1"",""1512""
","
","
","""event"",""trial"",""time""
""fullscreenenter"",""1"",""1512""
","
","","","888.2999999523163","","","21","3709","2407","&#9784;","elianto","#FFFFF080"," "," ","1","&#10004","[1738.5]","1","0","0","","","","","","","",""
"pit-instructions","13","148647","0.0-2.0-5.0","battery-v0.2","","""event"",""trial"",""time""
""fullscreenenter"",""1"",""1512""
","
","
","""event"",""trial"",""time""
""fullscreenenter"",""1"",""1512""
","
","","[{""page_index"":0,""viewing_time"":5225.5},{""page_index"":1,""viewing_time"":5020.900000095367},{""page_index"":2,""viewing_time"":5200.099999904633},{""page_index"":3,""viewing_time"":5070.800000190735}]","20517.700000047684","","","","","","","","","","","","","","","","","","","","","","","",""
"pit-trial","14","153524","0.0-2.0-6.0-0.0","battery-v0.2","","""event"",""trial"",""time""
""fullscreenenter"",""1"",""1512""
","
","
","""event"",""trial"",""time""
""fullscreenenter"",""1"",""1512""
","
","","","-1","","","21","3709","2407","&#9854;","elianto","#FFFFF080","-1","-1","1","&#10004","[]","0","0","1","","","","","","","",""
"pit-trial","15","158396","0.0-2.0-6.1-0.1","battery-v0.2","","""event"",""trial"",""time""
""fullscreenenter"",""1"",""1512""
","
","
","""event"",""trial"",""time""
""fullscreenenter"",""1"",""1512""
","
","","","-1","","","21","3709","2407","&#9854;","elianto","#FFFFF080","-1","-1","1","&#10004","[]","0","0","1","","","","","","","",""
"pit-trial","16","163282","0.0-2.0-6.2-0.2","battery-v0.2","","""event"",""trial"",""time""
""fullscreenenter"",""1"",""1512""
","
","
","""event"",""trial"",""time""
""fullscreenenter"",""1"",""1512""
","
","","","-1","","","21","3709","2407","&#9854;","elianto","#FFFFF080","-1","-1","1","&#10004","[]","0","0","1","","","","","","","",""
"pit-trial","17","168162","0.0-2.0-6.3-0.3","battery-v0.2","","""event"",""trial"",""time""
""fullscreenenter"",""1"",""1512""
","
","
","""event"",""trial"",""time""
""fullscreenenter"",""1"",""1512""
","
","","","-1","","","21","3709","2407","&#9854;","elianto","#FFFFF080","-1","-1","1","&#10004","[]","0","0","1","","","","","","","",""
"pit-trial","18","173043","0.0-2.0-6.4-0.4","battery-v0.2","","""event"",""trial"",""time""
""fullscreenenter"",""1"",""1512""
","
","
","""event"",""trial"",""time""
""fullscreenenter"",""1"",""1512""
","
","","","-1","","","21","3709","2407","&#9854;","elianto","#FFFFF080","-1","-1","1","&#10004","[]","0","0","1","","","","","","","",""
"pit-instructions","19","282675","0.0-2.0-7.0","battery-v0.2","","""event"",""trial"",""time""
""fullscreenenter"",""1"",""1512""
","
","
","""event"",""trial"",""time""
""fullscreenenter"",""1"",""1512""
","
","","[{""page_index"":0,""viewing_time"":5665.799999952316},{""page_index"":1,""viewing_time"":6204.200000047684},{""page_index"":2,""viewing_time"":5679.599999904633},{""page_index"":3,""viewing_time"":6344.299999952316},{""page_index"":4,""viewing_time"":6377.800000190735},{""page_index"":5,""viewing_time"":5309},{""page_index"":6,""viewing_time"":4364.199999809265},{""page_index"":7,""viewing_time"":7467.800000190735},{""page_index"":8,""viewing_time"":6150},{""page_index"":9,""viewing_time"":5036},{""page_index"":10,""viewing_time"":6264.099999904633},{""page_index"":11,""viewing_time"":4254},{""page_index"":12,""viewing_time"":6304.900000095367},{""page_index"":13,""viewing_time"":7038.299999952316},{""page_index"":14,""viewing_time"":6883.799999952316},{""page_index"":15,""viewing_time"":7290},{""page_index"":16,""viewing_time"":6581},{""page_index"":17,""viewing_time"":6412.299999952316}]","109627.70000004768","","","","","","","","","","","","","","","","","","","","","","","",""
"pit-trial","20","286159","0.0-2.0-8.0-0.0","battery-v0.2","","""event"",""trial"",""time""
""fullscreenenter"",""1"",""1512""
","
","
","""event"",""trial"",""time""
""fullscreenenter"",""1"",""1512""
","
","","","623.7000000476837","","","21","3709","2407","&#9776;","elianto","#3366ff99"," "," ","1","+10","[1475.5]","1","0","1","","","","","","","",""
"pit-trial","21","289565","0.0-2.0-8.0-1.0","battery-v0.2","","""event"",""trial"",""time""
""fullscreenenter"",""1"",""1512""
","
","
","""event"",""trial"",""time""
""fullscreenenter"",""1"",""1512""
","
","","","548.5","","","21","3709","2407","&#9776;","elianto","#3366ff99"," "," ","1","+10","[1399.5999999046326]","1","0","1","","","","","","","",""
"pit-trial","22","292945","0.0-2.0-8.0-2.0","battery-v0.2","","""event"",""trial"",""time""
""fullscreenenter"",""1"",""1512""
","
","
","""event"",""trial"",""time""
""fullscreenenter"",""1"",""1512""
","
","","","511.5","","","21","3709","2407","&#9776;","elianto","#3366ff99"," "," ","1","+10","[1361.6000001430511]","1","0","1","","","","","","","",""
"pit-trial","23","296231","0.0-2.0-8.0-3.0","battery-v0.2","","""event"",""trial"",""time""
""fullscreenenter"",""1"",""1512""
","
","
","""event"",""trial"",""time""
""fullscreenenter"",""1"",""1512""
","
","","","422.40000009536743","","","21","3709","2407","&#9776;","elianto","#3366ff99"," "," ","1","0","[1277.1000001430511]","1","0","1","","","","","","","",""
"pit-trial","24","299615","0.0-2.0-8.0-4.0","battery-v0.2","","""event"",""trial"",""time""
""fullscreenenter"",""1"",""1512""
","
","
","""event"",""trial"",""time""
""fullscreenenter"",""1"",""1512""
","
","","","520.8999998569489","","","21","3709","2407","&#9776;","elianto","#3366ff99"," "," ","1","+10","[1375.6999998092651]","1","0","1","","","","","","","",""
"pit-trial","25","302692","0.0-2.0-8.1-0.1","battery-v0.2","","""event"",""trial"",""time""
""fullscreenenter"",""1"",""1512""
","
","
","""event"",""trial"",""time""
""fullscreenenter"",""1"",""1512""
","
","","","214.5","","","21","3709","2407","&#9776;","elianto","#3366ff99"," "," ","1","+10","[1070.3000001907349]","1","0","1","","","","","","","",""
"pit-trial","26","306109","0.0-2.0-8.1-1.1","battery-v0.2","","""event"",""trial"",""time""
""fullscreenenter"",""1"",""1512""
","
","
","""event"",""trial"",""time""
""fullscreenenter"",""1"",""1512""
","
","","","552.1999998092651","","","21","3709","2407","&#9776;","elianto","#3366ff99"," "," ","1","+10","[1402.4000000953674]","1","0","1","","","","","","","",""
"pit-trial","27","309431","0.0-2.0-8.1-2.1","battery-v0.2","","""event"",""trial"",""time""
""fullscreenenter"",""1"",""1512""
","
","
","""event"",""trial"",""time""
""fullscreenenter"",""1"",""1512""
","
","","","462.7000000476837","","","21","3709","2407","&#9776;","elianto","#3366ff99"," "," ","1","+10","[1313.9000000953674]","1","0","1","","","","","","","",""
"pit-trial","28","312813","0.0-2.0-8.1-3.1","battery-v0.2","","""event"",""trial"",""time""
""fullscreenenter"",""1"",""1512""
","
","
","""event"",""trial"",""time""
""fullscreenenter"",""1"",""1512""
","
","","","510.40000009536743","","","21","3709","2407","&#9776;","elianto","#3366ff99"," "," ","1","0","[1367.2000000476837]","1","0","1","","","","","","","",""
"pit-trial","29","316245","0.0-2.0-8.1-4.1","battery-v0.2","","""event"",""trial"",""time""
""fullscreenenter"",""1"",""1512""
","
","
","""event"",""trial"",""time""
""fullscreenenter"",""1"",""1512""
","
","","","573.1000001430511","","","21","3709","2407","&#9776;","elianto","#3366ff99"," "," ","1","+10","[464.2000000476837,1424.5]","2","0","1","","","","","","","",""
"pit-trial","30","319788","0.0-2.0-8.2-0.2","battery-v0.2","","""event"",""trial"",""time""
""fullscreenenter"",""1"",""1512""
","
","
","""event"",""trial"",""time""
""fullscreenenter"",""1"",""1512""
","
","","","685.0999999046326","","","21","3709","2407","&#9776;","elianto","#3366ff99"," "," ","1","+10","[1536.5999999046326]","1","0","1","","","","","","","",""
"pit-trial","31","323124","0.0-2.0-8.2-1.2","battery-v0.2","","""event"",""trial"",""time""
""fullscreenenter"",""1"",""1512""
","
","
","""event"",""trial"",""time""
""fullscreenenter"",""1"",""1512""
","
","","","477.5","","","21","3709","2407","&#9776;","elianto","#3366ff99"," "," ","1","+10","[1329.5999999046326]","1","0","1","","","","","","","",""
"pit-trial","32","326452","0.0-2.0-8.2-2.2","battery-v0.2","","""event"",""trial"",""time""
""fullscreenenter"",""1"",""1512""
","
","
","""event"",""trial"",""time""
""fullscreenenter"",""1"",""1512""
","
","","","469.5","","","21","3709","2407","&#9776;","elianto","#3366ff99"," "," ","1","+10","[1322.6000001430511]","1","0","1","","","","","","","",""
"pit-trial","33","329745","0.0-2.0-8.2-3.2","battery-v0.2","","""event"",""trial"",""time""
""fullscreenenter"",""1"",""1512""
","
","
","""event"",""trial"",""time""
""fullscreenenter"",""1"",""1512""
","
","","","420.89999985694885","","","21","3709","2407","&#9776;","elianto","#3366ff99"," "," ","1","0","[1273.8999998569489]","1","0","1","","","","","","","",""
"pit-trial","34","333012","0.0-2.0-8.2-4.2","battery-v0.2","","""event"",""trial"",""time""
""fullscreenenter"",""1"",""1512""
","
","
","""event"",""trial"",""time""
""fullscreenenter"",""1"",""1512""
","
","","","405.2999999523163","","","21","3709","2407","&#9776;","elianto","#3366ff99"," "," ","1","+10","[1260.7999999523163]","1","0","1","","","","","","","",""
"call-function","35","333015","0.0-2.0-9.0","battery-v0.2","","""event"",""trial"",""time""
""fullscreenenter"",""1"",""1512""
","
","
","""event"",""trial"",""time""
""fullscreenenter"",""1"",""1512""
","
","","","","","","","","","","","","","","","","","","","","","","","","","","",""
"pit-instructions","36","374402","0.0-2.0-10.0","battery-v0.2","","""event"",""trial"",""time""
""fullscreenenter"",""1"",""1512""
","
","
","""event"",""trial"",""time""
""fullscreenenter"",""1"",""1512""
","
","","[{""page_index"":0,""viewing_time"":6046.399999856949},{""page_index"":1,""viewing_time"":7061.600000143051},{""page_index"":2,""viewing_time"":9991},{""page_index"":3,""viewing_time"":9767.899999856949},{""page_index"":4,""viewing_time"":8518.700000047684}]","41385.799999952316","","","","","","","","","","","","","","","","","","","","","","","",""
"pit-trial","37","377974","0.0-2.0-11.0-0.0","battery-v0.2","","""event"",""trial"",""time""
""fullscreenenter"",""1"",""1512""
","
","
","""event"",""trial"",""time""
""fullscreenenter"",""1"",""1512""
","
","","","709.0999999046326","","","21","3709","2407","&#9761;","elianto","#3366ff99","-1"," ","0","0","[1564.7999999523163]","1","0","2","","","","","","","",""
"pit-trial","38","381265","0.0-2.0-11.0-1.0","battery-v0.2","","""event"",""trial"",""time""
""fullscreenenter"",""1"",""1512""
","
","
","""event"",""trial"",""time""
""fullscreenenter"",""1"",""1512""
","
","","","429.39999985694885","","","21","3709","2407","&#9761;","elianto","#3366ff99","-1"," ","0","0","[1280.3999998569489]","1","0","2","","","","","","","",""
"pit-trial","39","384565","0.0-2.0-11.0-2.0","battery-v0.2","","""event"",""trial"",""time""
""fullscreenenter"",""1"",""1512""
","
","
","""event"",""trial"",""time""
""fullscreenenter"",""1"",""1512""
","
","","","430.39999985694885","","","21","3709","2407","&#9761;","elianto","#3366ff99","-1"," ","0","0","[1286.0999999046326]","1","0","2","","","","","","","",""
"pit-trial","40","387839","0.0-2.0-11.0-3.0","battery-v0.2","","""event"",""trial"",""time""
""fullscreenenter"",""1"",""1512""
","
","
","""event"",""trial"",""time""
""fullscreenenter"",""1"",""1512""
","
","","","407.09999990463257","","","21","3709","2407","&#9761;","elianto","#3366ff99","-1"," ","0","+10","[1257.2000000476837]","1","0","2","","","","","","","",""
"pit-trial","41","391132","0.0-2.0-11.0-4.0","battery-v0.2","","""event"",""trial"",""time""
""fullscreenenter"",""1"",""1512""
","
","
","""event"",""trial"",""time""
""fullscreenenter"",""1"",""1512""
","
","","","435.7999999523163","","","21","3709","2407","&#9761;","elianto","#3366ff99","-1"," ","0","0","[1287.9000000953674]","1","0","2","","","","","","","",""
"pit-trial","42","394418","0.0-2.0-11.1-0.1","battery-v0.2","","""event"",""trial"",""time""
""fullscreenenter"",""1"",""1512""
","
","
","""event"",""trial"",""time""
""fullscreenenter"",""1"",""1512""
","
","","","413.7999999523163","","","21","3709","2407","&#9761;","elianto","#3366ff99","-1"," ","0","0","[1266.5999999046326]","1","0","2","","","","","","","",""
"pit-trial","43","397714","0.0-2.0-11.1-1.1","battery-v0.2","","""event"",""trial"",""time""
""fullscreenenter"",""1"",""1512""
","
","
","""event"",""trial"",""time""
""fullscreenenter"",""1"",""1512""
","
","","","438.5","","","21","3709","2407","&#9761;","elianto","#3366ff99","-1"," ","0","0","[1292.2999999523163]","1","0","2","","","","","","","",""
"pit-trial","44","402586","0.0-2.0-11.1-2.1","battery-v0.2","","""event"",""trial"",""time""
""fullscreenenter"",""1"",""1512""
","
","
","""event"",""trial"",""time""
""fullscreenenter"",""1"",""1512""
","
","","","-1","","","21","3709","2407","&#9761;","elianto","#3366ff99","-1","-1","1","+10","[]","0","0","2","","","","","","","",""
"pit-trial","45","406756","0.0-2.0-11.1-3.1","battery-v0.2","","""event"",""trial"",""time""
""fullscreenenter"",""1"",""1512""
","
","
","""event"",""trial"",""time""
""fullscreenenter"",""1"",""1512""
","
","","","1309.2999999523163","","","21","3709","2407","&#9761;","elianto","#3366ff99","-1"," ","0","+10","[2164.7999999523163]","1","0","2","","","","","","","",""
"pit-trial","46","411620","0.0-2.0-11.1-4.1","battery-v0.2","","""event"",""trial"",""time""
""fullscreenenter"",""1"",""1512""
","
","
","""event"",""trial"",""time""
""fullscreenenter"",""1"",""1512""
","
","","","-1","","","21","3709","2407","&#9761;","elianto","#3366ff99","-1","-1","1","+10","[]","0","0","2","","","","","","","",""
"pit-trial","47","416485","0.0-2.0-11.2-0.2","battery-v0.2","","""event"",""trial"",""time""
""fullscreenenter"",""1"",""1512""
","
","
","""event"",""trial"",""time""
""fullscreenenter"",""1"",""1512""
","
","","","-1","","","21","3709","2407","&#9761;","elianto","#3366ff99","-1","-1","1","+10","[]","0","0","2","","","","","","","",""
"pit-trial","48","421348","0.0-2.0-11.2-1.2","battery-v0.2","","""event"",""trial"",""time""
""fullscreenenter"",""1"",""1512""
","
","
","""event"",""trial"",""time""
""fullscreenenter"",""1"",""1512""
","
","","","-1","","","21","3709","2407","&#9761;","elianto","#3366ff99","-1","-1","1","+10","[]","0","0","2","","","","","","","",""
"pit-trial","49","426069","0.0-2.0-11.2-2.2","battery-v0.2","","""event"",""trial"",""time""
""fullscreenenter"",""1"",""1512""
","
","
","""event"",""trial"",""time""
""fullscreenenter"",""1"",""1512""
","
","","","1863.2000000476837","","","21","3709","2407","&#9761;","elianto","#3366ff99","-1"," ","0","0","[2714.899999856949]","1","0","2","","","","","","","",""
"pit-trial","50","430933","0.0-2.0-11.2-3.2","battery-v0.2","","""event"",""trial"",""time""
""fullscreenenter"",""1"",""1512""
","
","
","""event"",""trial"",""time""
""fullscreenenter"",""1"",""1512""
","
","","","-1","","","21","3709","2407","&#9761;","elianto","#3366ff99","-1","-1","1","0","[]","0","0","2","","","","","","","",""
"pit-trial","51","435795","0.0-2.0-11.2-4.2","battery-v0.2","","""event"",""trial"",""time""
""fullscreenenter"",""1"",""1512""
","
","
","""event"",""trial"",""time""
""fullscreenenter"",""1"",""1512""
","
","","","-1","","","21","3709","2407","&#9761;","elianto","#3366ff99","-1","-1","1","+10","[]","0","0","2","","","","","","","",""
"pit-trial","52","440659","0.0-2.0-11.3-0.3","battery-v0.2","","""event"",""trial"",""time""
""fullscreenenter"",""1"",""1512""
","
","
","""event"",""trial"",""time""
""fullscreenenter"",""1"",""1512""
","
","","","-1","","","21","3709","2407","&#9761;","elianto","#3366ff99","-1","-1","1","+10","[]","0","0","2","","","","","","","",""
"pit-trial","53","445524","0.0-2.0-11.3-1.3","battery-v0.2","","""event"",""trial"",""time""
""fullscreenenter"",""1"",""1512""
","
","
","""event"",""trial"",""time""
""fullscreenenter"",""1"",""1512""
","
","","","-1","","","21","3709","2407","&#9761;","elianto","#3366ff99","-1","-1","1","+10","[]","0","0","2","","","","","","","",""
"pit-trial","54","449955","0.0-2.0-11.3-2.3","battery-v0.2","","""event"",""trial"",""time""
""fullscreenenter"",""1"",""1512""
","
","
","""event"",""trial"",""time""
""fullscreenenter"",""1"",""1512""
","
","","","1575.5","","","21","3709","2407","&#9761;","elianto","#3366ff99","-1"," ","0","0","[2425.9000000953674]","1","0","2","","","","","","","",""
"pit-trial","55","454819","0.0-2.0-11.3-3.3","battery-v0.2","","""event"",""trial"",""time""
""fullscreenenter"",""1"",""1512""
","
","
","""event"",""trial"",""time""
""fullscreenenter"",""1"",""1512""
","
","","","-1","","","21","3709","2407","&#9761;","elianto","#3366ff99","-1","-1","1","0","[]","0","0","2","","","","","","","",""
"pit-trial","56","459323","0.0-2.0-11.3-4.3","battery-v0.2","","""event"",""trial"",""time""
""fullscreenenter"",""1"",""1512""
","
","
","""event"",""trial"",""time""
""fullscreenenter"",""1"",""1512""
","
","","","1644.7999999523163","","","21","3709","2407","&#9761;","elianto","#3366ff99","-1"," ","0","0","[2499.2999999523163]","1","0","2","","","","","","","",""
"call-function","57","459325","0.0-2.0-12.0","battery-v0.2","","""event"",""trial"",""time""
""fullscreenenter"",""1"",""1512""
","
","
","""event"",""trial"",""time""
""fullscreenenter"",""1"",""1512""
","
","","","","","","","","","","","","","","","","","","","","","","","","","","",""
"pit-instructions","58","495963","0.0-2.0-13.0","battery-v0.2","","""event"",""trial"",""time""
""fullscreenenter"",""1"",""1512""
","
","
","""event"",""trial"",""time""
""fullscreenenter"",""1"",""1512""
","
","","[{""page_index"":0,""viewing_time"":4927.700000047684},{""page_index"":1,""viewing_time"":11018.299999952316},{""page_index"":2,""viewing_time"":4025.2000000476837},{""page_index"":3,""viewing_time"":10141.099999904633},{""page_index"":4,""viewing_time"":6524.400000095367}]","36637","","","","","","","","","","","","","","","","","","","","","","","",""
"pit-trial","59","500824","0.0-2.0-14.0-0.0","battery-v0.2","","""event"",""trial"",""time""
""fullscreenenter"",""1"",""1512""
","
","
","""event"",""trial"",""time""
""fullscreenenter"",""1"",""1512""
","
","","","-1","","","21","3709","2407","&#9826;","elianto","#f73b6a7A","-1","-1","1","0","[]","0","0","3","","","","","","","",""
"pit-trial","60","505716","0.0-2.0-14.0-1.0","battery-v0.2","","""event"",""trial"",""time""
""fullscreenenter"",""1"",""1512""
","
","
","""event"",""trial"",""time""
""fullscreenenter"",""1"",""1512""
","
","","","-1","","","21","3709","2407","&#9826;","elianto","#f73b6a7A","-1","-1","1","0","[]","0","0","3","","","","","","","",""
"pit-trial","61","510588","0.0-2.0-14.0-2.0","battery-v0.2","","""event"",""trial"",""time""
""fullscreenenter"",""1"",""1512""
","
","
","""event"",""trial"",""time""
""fullscreenenter"",""1"",""1512""
","
","","","-1","","","21","3709","2407","&#9826;","elianto","#f73b6a7A","-1","-1","1","0","[]","0","0","3","","","","","","","",""
"pit-trial","62","515459","0.0-2.0-14.0-3.0","battery-v0.2","","""event"",""trial"",""time""
""fullscreenenter"",""1"",""1512""
","
","
","""event"",""trial"",""time""
""fullscreenenter"",""1"",""1512""
","
","","","-1","","","21","3709","2407","&#9826;","elianto","#f73b6a7A","-1","-1","1","-10","[]","0","0","3","","","","","","","",""
"pit-trial","63","520329","0.0-2.0-14.0-4.0","battery-v0.2","","""event"",""trial"",""time""
""fullscreenenter"",""1"",""1512""
","
","
","""event"",""trial"",""time""
""fullscreenenter"",""1"",""1512""
","
","","","-1","","","21","3709","2407","&#9826;","elianto","#f73b6a7A","-1","-1","1","0","[]","0","0","3","","","","","","","",""
"pit-trial","64","525204","0.0-2.0-14.1-0.1","battery-v0.2","","""event"",""trial"",""time""
""fullscreenenter"",""1"",""1512""
","
","
","""event"",""trial"",""time""
""fullscreenenter"",""1"",""1512""
","
","","","-1","","","21","3709","2407","&#9826;","elianto","#f73b6a7A","-1","-1","1","0","[]","0","0","3","","","","","","","",""
"pit-trial","65","530069","0.0-2.0-14.1-1.1","battery-v0.2","","""event"",""trial"",""time""
""fullscreenenter"",""1"",""1512""
","
","
","""event"",""trial"",""time""
""fullscreenenter"",""1"",""1512""
","
","","","-1","","","21","3709","2407","&#9826;","elianto","#f73b6a7A","-1","-1","1","0","[]","0","0","3","","","","","","","",""
"pit-trial","66","534932","0.0-2.0-14.1-2.1","battery-v0.2","","""event"",""trial"",""time""
""fullscreenenter"",""1"",""1512""
","
","
","""event"",""trial"",""time""
""fullscreenenter"",""1"",""1512""
","
","","","-1","","","21","3709","2407","&#9826;","elianto","#f73b6a7A","-1","-1","1","0","[]","0","0","3","","","","","","","",""
"pit-trial","67","539797","0.0-2.0-14.1-3.1","battery-v0.2","","""event"",""trial"",""time""
""fullscreenenter"",""1"",""1512""
","
","
","""event"",""trial"",""time""
""fullscreenenter"",""1"",""1512""
","
","","","-1","","","21","3709","2407","&#9826;","elianto","#f73b6a7A","-1","-1","1","-10","[]","0","0","3","","","","","","","",""
"pit-trial","68","544668","0.0-2.0-14.1-4.1","battery-v0.2","","""event"",""trial"",""time""
""fullscreenenter"",""1"",""1512""
","
","
","""event"",""trial"",""time""
""fullscreenenter"",""1"",""1512""
","
","","","-1","","","21","3709","2407","&#9826;","elianto","#f73b6a7A","-1","-1","1","0","[]","0","0","3","","","","","","","",""
"pit-trial","69","549533","0.0-2.0-14.2-0.2","battery-v0.2","","""event"",""trial"",""time""
""fullscreenenter"",""1"",""1512""
","
","
","""event"",""trial"",""time""
""fullscreenenter"",""1"",""1512""
","
","","","-1","","","21","3709","2407","&#9826;","elianto","#f73b6a7A","-1","-1","1","0","[]","0","0","3","","","","","","","",""
"pit-trial","70","554403","0.0-2.0-14.2-1.2","battery-v0.2","","""event"",""trial"",""time""
""fullscreenenter"",""1"",""1512""
","
","
","""event"",""trial"",""time""
""fullscreenenter"",""1"",""1512""
","
","","","-1","","","21","3709","2407","&#9826;","elianto","#f73b6a7A","-1","-1","1","0","[]","0","0","3","","","","","","","",""
"pit-trial","71","559268","0.0-2.0-14.2-2.2","battery-v0.2","","""event"",""trial"",""time""
""fullscreenenter"",""1"",""1512""
","
","
","""event"",""trial"",""time""
""fullscreenenter"",""1"",""1512""
","
","","","-1","","","21","3709","2407","&#9826;","elianto","#f73b6a7A","-1","-1","1","0","[]","0","0","3","","","","","","","",""
"pit-trial","72","562860","0.0-2.0-14.2-3.2","battery-v0.2","","""event"",""trial"",""time""
""fullscreenenter"",""1"",""1512""
","
","
","""event"",""trial"",""time""
""fullscreenenter"",""1"",""1512""
","
","","","733.7000000476837","","","21","3709","2407","&#9826;","elianto","#f73b6a7A","-1"," ","0","0","[1586.6000001430511]","1","0","3","","","","","","","",""
"pit-trial","73","567724","0.0-2.0-14.2-4.2","battery-v0.2","","""event"",""trial"",""time""
""fullscreenenter"",""1"",""1512""
","
","
","""event"",""trial"",""time""
""fullscreenenter"",""1"",""1512""
","
","","","-1","","","21","3709","2407","&#9826;","elianto","#f73b6a7A","-1","-1","1","0","[]","0","0","3","","","","","","","",""
"pit-trial","74","572588","0.0-2.0-14.3-0.3","battery-v0.2","","""event"",""trial"",""time""
""fullscreenenter"",""1"",""1512""
","
","
","""event"",""trial"",""time""
""fullscreenenter"",""1"",""1512""
","
","","","-1","","","21","3709","2407","&#9826;","elianto","#f73b6a7A","-1","-1","1","0","[]","0","0","3","","","","","","","",""
"pit-trial","75","577461","0.0-2.0-14.3-1.3","battery-v0.2","","""event"",""trial"",""time""
""fullscreenenter"",""1"",""1512""
","
","
","""event"",""trial"",""time""
""fullscreenenter"",""1"",""1512""
","
","","","-1","","","21","3709","2407","&#9826;","elianto","#f73b6a7A","-1","-1","1","0","[]","0","0","3","","","","","","","",""
"pit-trial","76","582332","0.0-2.0-14.3-2.3","battery-v0.2","","""event"",""trial"",""time""
""fullscreenenter"",""1"",""1512""
","
","
","""event"",""trial"",""time""
""fullscreenenter"",""1"",""1512""
","
","","","-1","","","21","3709","2407","&#9826;","elianto","#f73b6a7A","-1","-1","1","0","[]","0","0","3","","","","","","","",""
"pit-trial","77","587188","0.0-2.0-14.3-3.3","battery-v0.2","","""event"",""trial"",""time""
""fullscreenenter"",""1"",""1512""
","
","
","""event"",""trial"",""time""
""fullscreenenter"",""1"",""1512""
","
","","","-1","","","21","3709","2407","&#9826;","elianto","#f73b6a7A","-1","-1","1","-10","[]","0","0","3","","","","","","","",""
"pit-trial","78","592052","0.0-2.0-14.3-4.3","battery-v0.2","","""event"",""trial"",""time""
""fullscreenenter"",""1"",""1512""
","
","
","""event"",""trial"",""time""
""fullscreenenter"",""1"",""1512""
","
","","","-1","","","21","3709","2407","&#9826;","elianto","#f73b6a7A","-1","-1","1","0","[]","0","0","3","","","","","","","",""
"call-function","79","592055","0.0-2.0-15.0","battery-v0.2","","""event"",""trial"",""time""
""fullscreenenter"",""1"",""1512""
","
","
","""event"",""trial"",""time""
""fullscreenenter"",""1"",""1512""
","
","","","","","","","","","","","","","","","","","","","","","","","","","","",""
"pit-instructions","80","654708","0.0-2.0-16.0","battery-v0.2","","""event"",""trial"",""time""
""fullscreenenter"",""1"",""1512""
","
","
","""event"",""trial"",""time""
""fullscreenenter"",""1"",""1512""
","
","","[{""page_index"":0,""viewing_time"":42693.799999952316},{""page_index"":1,""viewing_time"":8305},{""page_index"":2,""viewing_time"":6351.100000143051},{""page_index"":3,""viewing_time"":5302}]","62652.299999952316","","","","","","","","","","","","","","","","","","","","","","","",""
"pit-trial","81","659200","0.0-2.0-17.0-0.0","battery-v0.2","","""event"",""trial"",""time""
""fullscreenenter"",""1"",""1512""
","
","
","""event"",""trial"",""time""
""fullscreenenter"",""1"",""1512""
","
","","","1632.5","","","21","3709","2407","&#9789;","elianto","#f73b6a7A"," "," ","1","0","[2482.5]","1","0","4","","","","","","","",""
"pit-trial","82","662488","0.0-2.0-17.0-1.0","battery-v0.2","","""event"",""trial"",""time""
""fullscreenenter"",""1"",""1512""
","
","
","""event"",""trial"",""time""
""fullscreenenter"",""1"",""1512""
","
","","","421.10000014305115","","","21","3709","2407","&#9789;","elianto","#f73b6a7A"," "," ","1","0","[1278.4000000953674]","1","0","4","","","","","","","",""
"pit-trial","83","665740","0.0-2.0-17.0-2.0","battery-v0.2","","""event"",""trial"",""time""
""fullscreenenter"",""1"",""1512""
","
","
","""event"",""trial"",""time""
""fullscreenenter"",""1"",""1512""
","
","","","391.2000000476837","","","21","3709","2407","&#9789;","elianto","#f73b6a7A"," "," ","1","0","[1246.6000001430511]","1","0","4","","","","","","","",""
"pit-trial","84","669036","0.0-2.0-17.0-3.0","battery-v0.2","","""event"",""trial"",""time""
""fullscreenenter"",""1"",""1512""
","
","
","""event"",""trial"",""time""
""fullscreenenter"",""1"",""1512""
","
","","","434.40000009536743","","","21","3709","2407","&#9789;","elianto","#f73b6a7A"," "," ","1","-10","[1289.9000000953674]","1","0","4","","","","","","","",""
"pit-trial","85","672300","0.0-2.0-17.0-4.0","battery-v0.2","","""event"",""trial"",""time""
""fullscreenenter"",""1"",""1512""
","
","
","""event"",""trial"",""time""
""fullscreenenter"",""1"",""1512""
","
","","","406.2000000476837","","","21","3709","2407","&#9789;","elianto","#f73b6a7A"," "," ","1","0","[1259.4000000953674]","1","0","4","","","","","","","",""
"pit-trial","86","675560","0.0-2.0-17.1-0.1","battery-v0.2","","""event"",""trial"",""time""
""fullscreenenter"",""1"",""1512""
","
","
","""event"",""trial"",""time""
""fullscreenenter"",""1"",""1512""
","
","","","399.2999999523163","","","21","3709","2407","&#9789;","elianto","#f73b6a7A"," "," ","1","0","[1250.6000001430511]","1","0","4","","","","","","","",""
"pit-trial","87","678833","0.0-2.0-17.1-1.1","battery-v0.2","","""event"",""trial"",""time""
""fullscreenenter"",""1"",""1512""
","
","
","""event"",""trial"",""time""
""fullscreenenter"",""1"",""1512""
","
","","","402","","","21","3709","2407","&#9789;","elianto","#f73b6a7A"," "," ","1","0","[1254]","1","0","4","","","","","","","",""
"pit-trial","88","682099","0.0-2.0-17.1-2.1","battery-v0.2","","""event"",""trial"",""time""
""fullscreenenter"",""1"",""1512""
","
","
","""event"",""trial"",""time""
""fullscreenenter"",""1"",""1512""
","
","","","396.7000000476837","","","21","3709","2407","&#9789;","elianto","#f73b6a7A"," "," ","1","0","[1253.2999999523163]","1","0","4","","","","","","","",""
"pit-trial","89","685333","0.0-2.0-17.1-3.1","battery-v0.2","","""event"",""trial"",""time""
""fullscreenenter"",""1"",""1512""
","
","
","""event"",""trial"",""time""
""fullscreenenter"",""1"",""1512""
","
","","","376.2999999523163","","","21","3709","2407","&#9789;","elianto","#f73b6a7A"," "," ","1","-10","[1228.1999998092651]","1","0","4","","","","","","","",""
"pit-trial","90","688604","0.0-2.0-17.1-4.1","battery-v0.2","","""event"",""trial"",""time""
""fullscreenenter"",""1"",""1512""
","
","
","""event"",""trial"",""time""
""fullscreenenter"",""1"",""1512""
","
","","","414.5","","","21","3709","2407","&#9789;","elianto","#f73b6a7A"," "," ","1","0","[1267.2000000476837]","1","0","4","","","","","","","",""
"pit-trial","91","691996","0.0-2.0-17.2-0.2","battery-v0.2","","""event"",""trial"",""time""
""fullscreenenter"",""1"",""1512""
","
","
","""event"",""trial"",""time""
""fullscreenenter"",""1"",""1512""
","
","","","535.2999999523163","","","21","3709","2407","&#9789;","elianto","#f73b6a7A"," "," ","1","0","[1387]","1","0","4","","","","","","","",""
"pit-trial","92","695284","0.0-2.0-17.2-1.2","battery-v0.2","","""event"",""trial"",""time""
""fullscreenenter"",""1"",""1512""
","
","
","""event"",""trial"",""time""
""fullscreenenter"",""1"",""1512""
","
","","","429.10000014305115","","","21","3709","2407","&#9789;","elianto","#f73b6a7A"," "," ","1","0","[1282.5]","1","0","4","","","","","","","",""
"pit-trial","93","698260","0.0-2.0-17.2-2.2","battery-v0.2","","""event"",""trial"",""time""
""fullscreenenter"",""1"",""1512""
","
","
","""event"",""trial"",""time""
""fullscreenenter"",""1"",""1512""
","
","","","118.5","","","21","3709","2407","&#9789;","elianto","#f73b6a7A"," "," ","1","0","[969.7999999523163]","1","0","4","","","","","","","",""
"pit-trial","94","703124","0.0-2.0-17.2-3.2","battery-v0.2","","""event"",""trial"",""time""
""fullscreenenter"",""1"",""1512""
","
","
","""event"",""trial"",""time""
""fullscreenenter"",""1"",""1512""
","
","","","-1","","","21","3709","2407","&#9789;","elianto","#f73b6a7A"," ","-1","0","0","[]","0","0","4","","","","","","","",""
"pit-trial","95","707476","0.0-2.0-17.2-4.2","battery-v0.2","","""event"",""trial"",""time""
""fullscreenenter"",""1"",""1512""
","
","
","""event"",""trial"",""time""
""fullscreenenter"",""1"",""1512""
","
","","","1493.2000000476837","","","21","3709","2407","&#9789;","elianto","#f73b6a7A"," "," ","1","0","[2345.7000000476837]","1","0","4","","","","","","","",""
"pit-trial","96","710860","0.0-2.0-17.3-0.3","battery-v0.2","","""event"",""trial"",""time""
""fullscreenenter"",""1"",""1512""
","
","
","""event"",""trial"",""time""
""fullscreenenter"",""1"",""1512""
","
","","","525.9000000953674","","","21","3709","2407","&#9789;","elianto","#f73b6a7A"," "," ","1","0","[1378.4000000953674]","1","0","4","","","","","","","",""
"pit-trial","97","714443","0.0-2.0-17.3-1.3","battery-v0.2","","""event"",""trial"",""time""
""fullscreenenter"",""1"",""1512""
","
","
","""event"",""trial"",""time""
""fullscreenenter"",""1"",""1512""
","
","","","724.9000000953674","","","21","3709","2407","&#9789;","elianto","#f73b6a7A"," "," ","1","0","[1578.2000000476837]","1","0","4","","","","","","","",""
"pit-trial","98","717679","0.0-2.0-17.3-2.3","battery-v0.2","","""event"",""trial"",""time""
""fullscreenenter"",""1"",""1512""
","
","
","""event"",""trial"",""time""
""fullscreenenter"",""1"",""1512""
","
","","","368.7999999523163","","","21","3709","2407","&#9789;","elianto","#f73b6a7A"," "," ","1","0","[1219.2000000476837]","1","0","4","","","","","","","",""
"pit-trial","99","720835","0.0-2.0-17.3-3.3","battery-v0.2","","""event"",""trial"",""time""
""fullscreenenter"",""1"",""1512""
","
","
","""event"",""trial"",""time""
""fullscreenenter"",""1"",""1512""
","
","","","300.7000000476837","","","21","3709","2407","&#9789;","elianto","#f73b6a7A"," "," ","1","-10","[1151]","1","0","4","","","","","","","",""
"pit-trial","100","724115","0.0-2.0-17.3-4.3","battery-v0.2","","""event"",""trial"",""time""
""fullscreenenter"",""1"",""1512""
","
","
","""event"",""trial"",""time""
""fullscreenenter"",""1"",""1512""
","
","","","421.2999999523163","","","21","3709","2407","&#9789;","elianto","#f73b6a7A"," "," ","1","0","[1274.6000001430511]","1","0","4","","","","","","","",""
"call-function","101","724117","0.0-2.0-18.0","battery-v0.2","","""event"",""trial"",""time""
""fullscreenenter"",""1"",""1512""
","
","
","""event"",""trial"",""time""
""fullscreenenter"",""1"",""1512""
","
","","","","","","","","","","","","","","","","","","","","","","","","","","",""
"pit-instructions","102","790393","0.0-2.0-19.0","battery-v0.2","","""event"",""trial"",""time""
""fullscreenenter"",""1"",""1512""
","
","
","""event"",""trial"",""time""
""fullscreenenter"",""1"",""1512""
","
","","[{""page_index"":0,""viewing_time"":6619.599999904633},{""page_index"":1,""viewing_time"":5924.200000047684},{""page_index"":2,""viewing_time"":13078.799999952316},{""page_index"":3,""viewing_time"":5501.400000095367},{""page_index"":4,""viewing_time"":9470.599999904633},{""page_index"":5,""viewing_time"":8725.100000143051},{""page_index"":6,""viewing_time"":7292.099999904633},{""page_index"":7,""viewing_time"":6159.5},{""page_index"":8,""viewing_time"":3504.4000000953674}]","66276","","","","","","","","","","","","","","","","","","","","","","","",""
"pit-comprehension","103","795008","0.0-2.0-20.0-0.0","battery-v0.2","","""event"",""trial"",""time""
""fullscreenenter"",""1"",""1512""
","
","
","""event"",""trial"",""time""
""fullscreenenter"",""1"",""1512""
","
","","","4610.700000047684","[""SPACE""]","0","21","3709","2407","","","","","","","","","","","","","","","","","","",""
"pit-instructions","104","800649","0.0-2.0-20.0-1.0","battery-v0.2","","""event"",""trial"",""time""
""fullscreenenter"",""1"",""1512""
","
","
","""event"",""trial"",""time""
""fullscreenenter"",""1"",""1512""
","
","","[{""page_index"":0,""viewing_time"":5613.400000095367}]","5613.700000047684","","","","","","","","","","","","","","","","","","","","","","","",""
"pit-comprehension","105","805840","0.0-2.0-21.0-0.0","battery-v0.2","","""event"",""trial"",""time""
""fullscreenenter"",""1"",""1512""
","
","
","""event"",""trial"",""time""
""fullscreenenter"",""1"",""1512""
","
","","","5187.299999952316","[""10""]","0","21","3709","2407","","","","","","","","","","","","","","","","","","",""
"pit-instructions","106","807468","0.0-2.0-21.0-1.0","battery-v0.2","","""event"",""trial"",""time""
""fullscreenenter"",""1"",""1512""
","
","
","""event"",""trial"",""time""
""fullscreenenter"",""1"",""1512""
","
","","[{""page_index"":0,""viewing_time"":1602.7999999523163}]","1603.0999999046326","","","","","","","","","","","","","","","","","","","","","","","",""
"pit-comprehension","107","814299","0.0-2.0-22.0-0.0","battery-v0.2","","""event"",""trial"",""time""
""fullscreenenter"",""1"",""1512""
","
","
","""event"",""trial"",""time""
""fullscreenenter"",""1"",""1512""
","
","","","6828.100000143051","[""-10""]","1","21","3709","2407","","","","","","","","","","","","","","","","","","",""
"pit-instructions","108","819073","0.0-2.0-22.0-1.0","battery-v0.2","","""event"",""trial"",""time""
""fullscreenenter"",""1"",""1512""
","
","
","""event"",""trial"",""time""
""fullscreenenter"",""1"",""1512""
","
","","[{""page_index"":0,""viewing_time"":4748.100000143051}]","4748.300000190735","","","","","","","","","","","","","","","","","","","","","","","",""
"pit-instructions","109","820169","0.0-2.0-22.0-2.0-0.0","battery-v0.2","","""event"",""trial"",""time""
""fullscreenenter"",""1"",""1512""
","
","
","""event"",""trial"",""time""
""fullscreenenter"",""1"",""1512""
","
","","[{""page_index"":0,""viewing_time"":1092.5999999046326}]","1092.7999999523163","","","","","","","","","","","","","","","","","","","","","","","",""
"pit-comprehension","110","826523","0.0-2.0-22.1-0.1","battery-v0.2","","""event"",""trial"",""time""
""fullscreenenter"",""1"",""1512""
","
","
","""event"",""trial"",""time""
""fullscreenenter"",""1"",""1512""
","
","","","6351.399999856949","[""0""]","0","21","3709","2407","","","","","","","","","","","","","","","","","","",""
"pit-instructions","111","828169","0.0-2.0-22.1-1.1","battery-v0.2","","""event"",""trial"",""time""
""fullscreenenter"",""1"",""1512""
","
","
","""event"",""trial"",""time""
""fullscreenenter"",""1"",""1512""
","
","","[{""page_index"":0,""viewing_time"":1619.8999998569489}]","1620.2999999523163","","","","","","","","","","","","","","","","","","","","","","","",""
"pit-comprehension","112","836675","0.0-2.0-23.0-0.0","battery-v0.2","","""event"",""trial"",""time""
""fullscreenenter"",""1"",""1512""
","
","
","""event"",""trial"",""time""
""fullscreenenter"",""1"",""1512""
","
","","","8502.900000095367","[""True""]","0","21","3709","2407","","","","","","","","","","","","","","","","","","",""
"pit-instructions","113","838110","0.0-2.0-23.0-1.0","battery-v0.2","","""event"",""trial"",""time""
""fullscreenenter"",""1"",""1512""
","
","
","""event"",""trial"",""time""
""fullscreenenter"",""1"",""1512""
","
","","[{""page_index"":0,""viewing_time"":1407.5}]","1407.7999999523163","","","","","","","","","","","","","","","","","","","","","","","",""
"pit-comprehension","114","845251","0.0-2.0-24.0-0.0","battery-v0.2","","""event"",""trial"",""time""
""fullscreenenter"",""1"",""1512""
","
","
","""event"",""trial"",""time""
""fullscreenenter"",""1"",""1512""
","
","","","7138.600000143051","[""True""]","0","21","3709","2407","","","","","","","","","","","","","","","","","","",""
"pit-instructions","115","848392","0.0-2.0-24.0-1.0","battery-v0.2","","""event"",""trial"",""time""
""fullscreenenter"",""1"",""1512""
","
","
","""event"",""trial"",""time""
""fullscreenenter"",""1"",""1512""
","
","","[{""page_index"":0,""viewing_time"":3114.7000000476837}]","3114.9000000953674","","","","","","","","","","","","","","","","","","","","","","","",""
"pit-comprehension","116","854758","0.0-2.0-25.0-0.0","battery-v0.2","","""event"",""trial"",""time""
""fullscreenenter"",""1"",""1512""
","
","
","""event"",""trial"",""time""
""fullscreenenter"",""1"",""1512""
","
","","","6362.099999904633","[""True""]","0","21","3709","2407","","","","","","","","","","","","","","","","","","",""
"pit-instructions","117","856389","0.0-2.0-25.0-1.0","battery-v0.2","","""event"",""trial"",""time""
""fullscreenenter"",""1"",""1512""
","
","
","""event"",""trial"",""time""
""fullscreenenter"",""1"",""1512""
","
","","[{""page_index"":0,""viewing_time"":1602.2000000476837}]","1602.5","","","","","","","","","","","","","","","","","","","","","","","",""
"pit-comprehension","118","860894","0.0-2.0-26.0-0.0","battery-v0.2","","""event"",""trial"",""time""
""fullscreenenter"",""1"",""1512""
","
","
","""event"",""trial"",""time""
""fullscreenenter"",""1"",""1512""
","
","","","4501.599999904633","[""False""]","0","21","3709","2407","","","","","","","","","","","","","","","","","","",""
"pit-instructions","119","862534","0.0-2.0-26.0-1.0","battery-v0.2","","""event"",""trial"",""time""
""fullscreenenter"",""1"",""1512""
","
","
","""event"",""trial"",""time""
""fullscreenenter"",""1"",""1512""
","
","","[{""page_index"":0,""viewing_time"":1612.5}]","1612.7999999523163","","","","","","","","","","","","","","","","","","","","","","","",""
"pit-instructions","120","879037","0.0-3.0","battery-v0.2","","""event"",""trial"",""time""
""fullscreenenter"",""1"",""1512""
","
","
","""event"",""trial"",""time""
""fullscreenenter"",""1"",""1512""
","
","","[{""page_index"":0,""viewing_time"":3996.199999809265},{""page_index"":1,""viewing_time"":5908.200000047684},{""page_index"":2,""viewing_time"":6595.100000143051}]","16499.799999952316","","","","","","","","","","","","","","","","","","","","","","","",""
"pit-trial","121","883920","0.0-4.0","battery-v0.2","","""event"",""trial"",""time""
""fullscreenenter"",""1"",""1512""
","
","
","""event"",""trial"",""time""
""fullscreenenter"",""1"",""1512""
","
","","","-1","","","21","3709","2407","&#9728;","elianto","#f73b6a7A","-1","-1","1","0","[]","0","1","","","3709","1","0","4","lose","no-go","0"
"pit-trial","122","887572","0.0-5.0","battery-v0.2","","""event"",""trial"",""time""
""fullscreenenter"",""1"",""1512""
","
","
","""event"",""trial"",""time""
""fullscreenenter"",""1"",""1512""
","
","","","795.2999999523163","","","21","3709","2407","&#9730;","elianto","#3366ff99"," "," ","1","0","[1646.2000000476837]","1","1","","","3709","2","1","1","win","go","1"
"pit-trial","123","891124","0.0-6.0","battery-v0.2","","""event"",""trial"",""time""
""fullscreenenter"",""1"",""1512""
","
","
","""event"",""trial"",""time""
""fullscreenenter"",""1"",""1512""
","
","","","695.2000000476837","","","21","3709","2407","&#9733;","elianto","#3366ff99","-1"," ","0","0","[1546.7000000476837]","1","1","","","3709","3","2","2","win","no-go","0"
"pit-trial","124","895995","0.0-7.0","battery-v0.2","","""event"",""trial"",""time""
""fullscreenenter"",""1"",""1512""
","
","
","""event"",""trial"",""time""
""fullscreenenter"",""1"",""1512""
","
","","","-1","","","21","3709","2407","&#9752;","elianto","#f73b6a7A"," ","-1","0","-10","[]","0","1","","","3709","4","3","3","lose","go","0"
"pit-trial","125","899528","0.0-8.0","battery-v0.2","","""event"",""trial"",""time""
""fullscreenenter"",""1"",""1512""
","
","
","""event"",""trial"",""time""
""fullscreenenter"",""1"",""1512""
","
","","","660.5","","","21","3709","2407","&#9730;","elianto","#3366ff99"," "," ","1","0","[1515.3999998569489]","1","1","","","3709","5","1","1","win","go","1"
"pit-trial","126","904403","0.0-9.0","battery-v0.2","","""event"",""trial"",""time""
""fullscreenenter"",""1"",""1512""
","
","
","""event"",""trial"",""time""
""fullscreenenter"",""1"",""1512""
","
","","","-1","","","21","3709","2407","&#9752;","elianto","#f73b6a7A"," ","-1","0","-10","[]","0","1","","","3709","6","3","3","lose","go","0"
"pit-trial","127","907916","0.0-10.0","battery-v0.2","","""event"",""trial"",""time""
""fullscreenenter"",""1"",""1512""
","
","
","""event"",""trial"",""time""
""fullscreenenter"",""1"",""1512""
","
","","","658","","","21","3709","2407","&#9728;","elianto","#f73b6a7A","-1"," ","0","-10","[1508.2000000476837]","1","1","","","3709","7","0","4","lose","no-go","0"
"pit-trial","128","911301","0.0-11.0","battery-v0.2","","""event"",""trial"",""time""
""fullscreenenter"",""1"",""1512""
","
","
","""event"",""trial"",""time""
""fullscreenenter"",""1"",""1512""
","
","","","523.6999998092651","","","21","3709","2407","&#9733;","elianto","#3366ff99","-1"," ","0","0","[1378.8999998569489]","1","1","","","3709","8","2","2","win","no-go","0"
"pit-trial","129","914660","0.0-12.0","battery-v0.2","","""event"",""trial"",""time""
""fullscreenenter"",""1"",""1512""
","
","
","""event"",""trial"",""time""
""fullscreenenter"",""1"",""1512""
","
","","","502.2000000476837","","","21","3709","2407","&#9730;","elianto","#3366ff99"," "," ","1","+10","[1354.5]","1","1","","","3709","9","1","1","win","go","0"
"pit-trial","130","918748","0.0-13.0","battery-v0.2","","""event"",""trial"",""time""
""fullscreenenter"",""1"",""1512""
","
","
","""event"",""trial"",""time""
""fullscreenenter"",""1"",""1512""
","
","","","1232.5999999046326","","","21","3709","2407","&#9752;","elianto","#f73b6a7A"," "," ","1","-10","[2082.7999999523163]","1","1","","","3709","10","3","3","lose","go","1"
"pit-trial","131","922341","0.0-14.0","battery-v0.2","","""event"",""trial"",""time""
""fullscreenenter"",""1"",""1512""
","
","
","""event"",""trial"",""time""
""fullscreenenter"",""1"",""1512""
","
","","","733.6999998092651","","","21","3709","2407","&#9733;","elianto","#3366ff99","-1"," ","0","0","[1587.3999998569489]","1","1","","","3709","11","2","2","win","no-go","0"
"pit-trial","132","926068","0.0-15.0","battery-v0.2","","""event"",""trial"",""time""
""fullscreenenter"",""1"",""1512""
","
","
","""event"",""trial"",""time""
""fullscreenenter"",""1"",""1512""
","
","","","870","","","21","3709","2407","&#9728;","elianto","#f73b6a7A","-1"," ","0","-10","[1723]","1","1","","","3709","12","0","4","lose","no-go","0"
"pit-trial","133","930932","0.0-16.0","battery-v0.2","","""event"",""trial"",""time""
""fullscreenenter"",""1"",""1512""
","
","
","""event"",""trial"",""time""
""fullscreenenter"",""1"",""1512""
","
","","","-1","","","21","3709","2407","&#9752;","elianto","#f73b6a7A"," ","-1","0","-10","[]","0","1","","","3709","13","3","3","lose","go","0"
"pit-trial","134","935810","0.0-17.0","battery-v0.2","","""event"",""trial"",""time""
""fullscreenenter"",""1"",""1512""
","
","
","""event"",""trial"",""time""
""fullscreenenter"",""1"",""1512""
","
","","","-1","","","21","3709","2407","&#9728;","elianto","#f73b6a7A","-1","-1","1","-10","[]","0","1","","","3709","14","0","4","lose","no-go","1"
"pit-trial","135","939236","0.0-18.0","battery-v0.2","","""event"",""trial"",""time""
""fullscreenenter"",""1"",""1512""
","
","
","""event"",""trial"",""time""
""fullscreenenter"",""1"",""1512""
","
","","","567.5","","","21","3709","2407","&#9730;","elianto","#3366ff99"," "," ","1","0","[1421.8999998569489]","1","1","","","3709","15","1","1","win","go","1"
"pit-trial","136","944100","0.0-19.0","battery-v0.2","","""event"",""trial"",""time""
""fullscreenenter"",""1"",""1512""
","
","
","""event"",""trial"",""time""
""fullscreenenter"",""1"",""1512""
","
","","","-1","","","21","3709","2407","&#9733;","elianto","#3366ff99","-1","-1","1","+10","[]","0","1","","","3709","16","2","2","win","no-go","0"
"pit-trial","137","948964","0.0-20.0","battery-v0.2","","""event"",""trial"",""time""
""fullscreenenter"",""1"",""1512""
","
","
","""event"",""trial"",""time""
""fullscreenenter"",""1"",""1512""
","
","","","-1","","","21","3709","2407","&#9728;","elianto","#f73b6a7A","-1","-1","1","-10","[]","0","1","","","3709","17","0","4","lose","no-go","1"
"pit-trial","138","953827","0.0-21.0","battery-v0.2","","""event"",""trial"",""time""
""fullscreenenter"",""1"",""1512""
","
","
","""event"",""trial"",""time""
""fullscreenenter"",""1"",""1512""
","
","","","-1","","","21","3709","2407","&#9752;","elianto","#f73b6a7A"," ","-1","0","0","[]","0","1","","","3709","18","3","3","lose","go","1"
"pit-trial","139","958692","0.0-22.0","battery-v0.2","","""event"",""trial"",""time""
""fullscreenenter"",""1"",""1512""
","
","
","""event"",""trial"",""time""
""fullscreenenter"",""1"",""1512""
","
","","","-1","","","21","3709","2407","&#9733;","elianto","#3366ff99","-1","-1","1","0","[]","0","1","","","3709","19","2","2","win","no-go","1"
"pit-trial","140","963556","0.0-23.0","battery-v0.2","","""event"",""trial"",""time""
""fullscreenenter"",""1"",""1512""
","
","
","""event"",""trial"",""time""
""fullscreenenter"",""1"",""1512""
","
","","","-1","","","21","3709","2407","&#9730;","elianto","#3366ff99"," ","-1","0","+10","[]","0","1","","","3709","20","1","1","win","go","1"
"pit-instructions","141","975564","0.0-24.0","battery-v0.2","","""event"",""trial"",""time""
""fullscreenenter"",""1"",""1512""
","
","
","""event"",""trial"",""time""
""fullscreenenter"",""1"",""1512""
","
","","[{""page_index"":0,""viewing_time"":5623},{""page_index"":1,""viewing_time"":6382.599999904633}]","12006.099999904633","","","","","","","","","","","","","","","","","","","","","","","",""
"pit-trial","142","980420","0.0-25.0","battery-v0.2","","""event"",""trial"",""time""
""fullscreenenter"",""1"",""1512""
","
","
","""event"",""trial"",""time""
""fullscreenenter"",""1"",""1512""
","
","","","-1","","","21","3709","2407","e","elianto","#f73b6a7A","-1","-1","1","0","[]","0","2","","","3709","21","2","4","lose","no-go","0"
"pit-trial","143","985301","0.0-26.0","battery-v0.2","","""event"",""trial"",""time""
""fullscreenenter"",""1"",""1512""
","
","
","""event"",""trial"",""time""
""fullscreenenter"",""1"",""1512""
","
","","","-1","","","21","3709","2407","j","elianto","#f73b6a7A","-1","-1","1","0","[]","0","2","","","3709","22","0","4","lose","no-go","0"
"pit-trial","144","989219","0.0-27.0","battery-v0.2","","""event"",""trial"",""time""
""fullscreenenter"",""1"",""1512""
","
","
","""event"",""trial"",""time""
""fullscreenenter"",""1"",""1512""
","
","","","1047.5","","","21","3709","2407","w","elianto","#f73b6a7A"," "," ","1","-10","[1898.5]","1","2","","","3709","23","3","3","lose","go","1"
"pit-trial","145","993164","0.0-28.0","battery-v0.2","","""event"",""trial"",""time""
""fullscreenenter"",""1"",""1512""
","
","
","""event"",""trial"",""time""
""fullscreenenter"",""1"",""1512""
","
","","","1089.0999999046326","","","21","3709","2407","d","elianto","#3366ff99"," "," ","1","0","[1940]","1","2","","","3709","24","1","1","win","go","1"
"pit-trial","146","998035","0.0-29.0","battery-v0.2","","""event"",""trial"",""time""
""fullscreenenter"",""1"",""1512""
","
","
","""event"",""trial"",""time""
""fullscreenenter"",""1"",""1512""
","
","","","-1","","","21","3709","2407","j","elianto","#f73b6a7A","-1","-1","1","0","[]","0","2","","","3709","25","0","4","lose","no-go","0"
"pit-trial","147","1002922","0.0-30.0","battery-v0.2","","""event"",""trial"",""time""
""fullscreenenter"",""1"",""1512""
","
","
","""event"",""trial"",""time""
""fullscreenenter"",""1"",""1512""
","
","","","-1","","","21","3709","2407","d","elianto","#3366ff99"," ","-1","0","0","[]","0","2","","","3709","26","1","1","win","go","0"
"pit-trial","148","1007796","0.0-31.0","battery-v0.2","","""event"",""trial"",""time""
""fullscreenenter"",""1"",""1512""
","
","
","""event"",""trial"",""time""
""fullscreenenter"",""1"",""1512""
","
","","","-1","","","21","3709","2407","e","elianto","#f73b6a7A","-1","-1","1","0","[]","0","2","","","3709","27","2","4","lose","no-go","0"
"pit-trial","149","1011716","0.0-32.0","battery-v0.2","","""event"",""trial"",""time""
""fullscreenenter"",""1"",""1512""
","
","
","""event"",""trial"",""time""
""fullscreenenter"",""1"",""1512""
","
","","","1064.2000000476837","","","21","3709","2407","w","elianto","#f73b6a7A"," "," ","1","0","[1914.9000000953674]","1","2","","","3709","28","3","3","lose","go","0"
"pit-trial","150","1016589","0.0-33.0","battery-v0.2","","""event"",""trial"",""time""
""fullscreenenter"",""1"",""1512""
","
","
","""event"",""trial"",""time""
""fullscreenenter"",""1"",""1512""
","
","","","-1","","","21","3709","2407","j","elianto","#f73b6a7A","-1","-1","1","0","[]","0","2","","","3709","29","0","4","lose","no-go","0"
"pit-trial","151","1021452","0.0-34.0","battery-v0.2","","""event"",""trial"",""time""
""fullscreenenter"",""1"",""1512""
","
","
","""event"",""trial"",""time""
""fullscreenenter"",""1"",""1512""
","
","","","-1","","","21","3709","2407","e","elianto","#f73b6a7A","-1","-1","1","0","[]","0","2","","","3709","30","2","4","lose","no-go","0"
"pit-trial","152","1026315","0.0-35.0","battery-v0.2","","""event"",""trial"",""time""
""fullscreenenter"",""1"",""1512""
","
","
","""event"",""trial"",""time""
""fullscreenenter"",""1"",""1512""
","
","","","-1","","","21","3709","2407","d","elianto","#3366ff99"," ","-1","0","0","[]","0","2","","","3709","31","1","1","win","go","0"
"pit-trial","153","1030572","0.0-36.0","battery-v0.2","","""event"",""trial"",""time""
""fullscreenenter"",""1"",""1512""
","
","
","""event"",""trial"",""time""
""fullscreenenter"",""1"",""1512""
","
","","","1397.5999999046326","","","21","3709","2407","w","elianto","#f73b6a7A"," "," ","1","-10","[2251.5]","1","2","","","3709","32","3","3","lose","go","1"
"pit-trial","154","1035163","0.0-37.0","battery-v0.2","","""event"",""trial"",""time""
""fullscreenenter"",""1"",""1512""
","
","
","""event"",""trial"",""time""
""fullscreenenter"",""1"",""1512""
","
","","","1735.5","","","21","3709","2407","e","elianto","#f73b6a7A","-1"," ","0","-10","[2586.199999809265]","1","2","","","3709","33","2","4","lose","no-go","0"
"pit-trial","155","1040028","0.0-38.0","battery-v0.2","","""event"",""trial"",""time""
""fullscreenenter"",""1"",""1512""
","
","
","""event"",""trial"",""time""
""fullscreenenter"",""1"",""1512""
","
","","","-1","","","21","3709","2407","j","elianto","#f73b6a7A","-1","-1","1","0","[]","0","2","","","3709","34","0","4","lose","no-go","0"
"pit-trial","156","1043780","0.0-39.0","battery-v0.2","","""event"",""trial"",""time""
""fullscreenenter"",""1"",""1512""
","
","
","""event"",""trial"",""time""
""fullscreenenter"",""1"",""1512""
","
","","","894","","","21","3709","2407","d","elianto","#3366ff99"," "," ","1","+10","[1745.7999999523163]","1","2","","","3709","35","1","1","win","go","0"
"pit-trial","157","1048085","0.0-40.0","battery-v0.2","","""event"",""trial"",""time""
""fullscreenenter"",""1"",""1512""
","
","
","""event"",""trial"",""time""
""fullscreenenter"",""1"",""1512""
","
","","","1438.0999999046326","","","21","3709","2407","w","elianto","#f73b6a7A"," "," ","1","0","[2290.399999856949]","1","2","","","3709","36","3","3","lose","go","0"
"pit-trial","158","1051796","0.0-41.0","battery-v0.2","","""event"",""trial"",""time""
""fullscreenenter"",""1"",""1512""
","
","
","""event"",""trial"",""time""
""fullscreenenter"",""1"",""1512""
","
","","","853.4000000953674","","","21","3709","2407","d","elianto","#3366ff99"," "," ","1","+10","[1705.6000001430511]","1","2","","","3709","37","1","1","win","go","0"
"pit-trial","159","1056660","0.0-42.0","battery-v0.2","","""event"",""trial"",""time""
""fullscreenenter"",""1"",""1512""
","
","
","""event"",""trial"",""time""
""fullscreenenter"",""1"",""1512""
","
","","","-1","","","21","3709","2407","j","elianto","#f73b6a7A","-1","-1","1","0","[]","0","2","","","3709","38","0","4","lose","no-go","0"
"pit-trial","160","1061525","0.0-43.0","battery-v0.2","","""event"",""trial"",""time""
""fullscreenenter"",""1"",""1512""
","
","
","""event"",""trial"",""time""
""fullscreenenter"",""1"",""1512""
","
","","","-1","","","21","3709","2407","e","elianto","#f73b6a7A","-1","-1","1","0","[]","0","2","","","3709","39","2","4","lose","no-go","0"
"pit-trial","161","1065124","0.0-44.0","battery-v0.2","","""event"",""trial"",""time""
""fullscreenenter"",""1"",""1512""
","
","
","""event"",""trial"",""time""
""fullscreenenter"",""1"",""1512""
","
","","","742.6999998092651","","","21","3709","2407","w","elianto","#f73b6a7A"," "," ","1","0","[1594.5]","1","2","","","3709","40","3","3","lose","go","0"
"pit-trial","162","1069988","0.0-45.0","battery-v0.2","","""event"",""trial"",""time""
""fullscreenenter"",""1"",""1512""
","
","
","""event"",""trial"",""time""
""fullscreenenter"",""1"",""1512""
","
","","","-1","","","21","3709","2407","j","elianto","#f73b6a7A","-1","-1","1","0","[]","0","2","","","3709","41","0","4","lose","no-go","0"
"pit-trial","163","1074852","0.0-46.0","battery-v0.2","","""event"",""trial"",""time""
""fullscreenenter"",""1"",""1512""
","
","
","""event"",""trial"",""time""
""fullscreenenter"",""1"",""1512""
","
","","","-1","","","21","3709","2407","e","elianto","#f73b6a7A","-1","-1","1","0","[]","0","2","","","3709","42","2","4","lose","no-go","0"
"pit-trial","164","1078387","0.0-47.0","battery-v0.2","","""event"",""trial"",""time""
""fullscreenenter"",""1"",""1512""
","
","
","""event"",""trial"",""time""
""fullscreenenter"",""1"",""1512""
","
","","","679.5999999046326","","","21","3709","2407","w","elianto","#f73b6a7A"," "," ","1","0","[1531.1999998092651]","1","2","","","3709","43","3","3","lose","go","0"
"pit-trial","165","1081796","0.0-48.0","battery-v0.2","","""event"",""trial"",""time""
""fullscreenenter"",""1"",""1512""
","
","
","""event"",""trial"",""time""
""fullscreenenter"",""1"",""1512""
","
","","","552.1000001430511","","","21","3709","2407","d","elianto","#3366ff99"," "," ","1","+10","[1403]","1","2","","","3709","44","1","1","win","go","0"
"pit-trial","166","1086660","0.0-49.0","battery-v0.2","","""event"",""trial"",""time""
""fullscreenenter"",""1"",""1512""
","
","
","""event"",""trial"",""time""
""fullscreenenter"",""1"",""1512""
","
","","","-1","","","21","3709","2407","j","elianto","#f73b6a7A","-1","-1","1","0","[]","0","2","","","3709","45","0","4","lose","no-go","0"
"pit-trial","167","1090685","0.0-50.0","battery-v0.2","","""event"",""trial"",""time""
""fullscreenenter"",""1"",""1512""
","
","
","""event"",""trial"",""time""
""fullscreenenter"",""1"",""1512""
","
","","","1165.2999999523163","","","21","3709","2407","s","elianto","#3366ff99","-1"," ","0","0","[2019.2999999523163]","1","2","","","3709","46","4","2","win","no-go","0"
"pit-trial","168","1095548","0.0-51.0","battery-v0.2","","""event"",""trial"",""time""
""fullscreenenter"",""1"",""1512""
","
","
","""event"",""trial"",""time""
""fullscreenenter"",""1"",""1512""
","
","","","-1","","","21","3709","2407","e","elianto","#f73b6a7A","-1","-1","1","0","[]","0","2","","","3709","47","2","4","lose","no-go","0"
"pit-trial","169","1099548","0.0-52.0","battery-v0.2","","""event"",""trial"",""time""
""fullscreenenter"",""1"",""1512""
","
","
","""event"",""trial"",""time""
""fullscreenenter"",""1"",""1512""
","
","","","1142.7999999523163","","","21","3709","2407","w","elianto","#f73b6a7A"," "," ","1","-10","[1995.2999999523163]","1","2","","","3709","48","3","3","lose","go","1"
"pit-trial","170","1103661","0.0-53.0","battery-v0.2","","""event"",""trial"",""time""
""fullscreenenter"",""1"",""1512""
","
","
","""event"",""trial"",""time""
""fullscreenenter"",""1"",""1512""
","
","","","1253.7999999523163","","","21","3709","2407","s","elianto","#3366ff99","-1"," ","0","0","[2107.199999809265]","1","2","","","3709","49","4","2","win","no-go","0"
"pit-trial","171","1108524","0.0-54.0","battery-v0.2","","""event"",""trial"",""time""
""fullscreenenter"",""1"",""1512""
","
","
","""event"",""trial"",""time""
""fullscreenenter"",""1"",""1512""
","
","","","-1","","","21","3709","2407","j","elianto","#f73b6a7A","-1","-1","1","0","[]","0","2","","","3709","50","0","4","lose","no-go","0"
"pit-trial","172","1112461","0.0-55.0","battery-v0.2","","""event"",""trial"",""time""
""fullscreenenter"",""1"",""1512""
","
","
","""event"",""trial"",""time""
""fullscreenenter"",""1"",""1512""
","
","","","1077.6000001430511","","","21","3709","2407","w","elianto","#f73b6a7A"," "," ","1","0","[1930.7999999523163]","1","2","","","3709","51","3","3","lose","go","0"
"pit-trial","173","1116125","0.0-56.0","battery-v0.2","","""event"",""trial"",""time""
""fullscreenenter"",""1"",""1512""
","
","
","""event"",""trial"",""time""
""fullscreenenter"",""1"",""1512""
","
","","","806.5999999046326","","","21","3709","2407","d","elianto","#3366ff99"," "," ","1","+10","[1658.1999998092651]","1","2","","","3709","52","1","1","win","go","0"
"pit-trial","174","1120988","0.0-57.0","battery-v0.2","","""event"",""trial"",""time""
""fullscreenenter"",""1"",""1512""
","
","
","""event"",""trial"",""time""
""fullscreenenter"",""1"",""1512""
","
","","","-1","","","21","3709","2407","j","elianto","#f73b6a7A","-1","-1","1","0","[]","0","2","","","3709","53","0","4","lose","no-go","0"
"pit-trial","175","1124908","0.0-58.0","battery-v0.2","","""event"",""trial"",""time""
""fullscreenenter"",""1"",""1512""
","
","
","""event"",""trial"",""time""
""fullscreenenter"",""1"",""1512""
","
","","","1063.8999998569489","","","21","3709","2407","d","elianto","#3366ff99"," "," ","1","+10","[1914.5]","1","2","","","3709","54","1","1","win","go","0"
"pit-trial","176","1129772","0.0-59.0","battery-v0.2","","""event"",""trial"",""time""
""fullscreenenter"",""1"",""1512""
","
","
","""event"",""trial"",""time""
""fullscreenenter"",""1"",""1512""
","
","","","-1","","","21","3709","2407","s","elianto","#3366ff99","-1","-1","1","+10","[]","0","2","","","3709","55","4","2","win","no-go","0"
"pit-trial","177","1134630","0.0-60.0","battery-v0.2","","""event"",""trial"",""time""
""fullscreenenter"",""1"",""1512""
","
","
","""event"",""trial"",""time""
""fullscreenenter"",""1"",""1512""
","
","","","-1","","","21","3709","2407","e","elianto","#f73b6a7A","-1","-1","1","0","[]","0","2","","","3709","56","2","4","lose","no-go","0"
"pit-trial","178","1138444","0.0-61.0","battery-v0.2","","""event"",""trial"",""time""
""fullscreenenter"",""1"",""1512""
","
","
","""event"",""trial"",""time""
""fullscreenenter"",""1"",""1512""
","
","","","958","","","21","3709","2407","d","elianto","#3366ff99"," "," ","1","0","[1808.5]","1","2","","","3709","57","1","1","win","go","1"
"pit-trial","179","1143308","0.0-62.0","battery-v0.2","","""event"",""trial"",""time""
""fullscreenenter"",""1"",""1512""
","
","
","""event"",""trial"",""time""
""fullscreenenter"",""1"",""1512""
","
","","","-1","","","21","3709","2407","s","elianto","#3366ff99","-1","-1","1","+10","[]","0","2","","","3709","58","4","2","win","no-go","0"
"pit-trial","180","1148172","0.0-63.0","battery-v0.2","","""event"",""trial"",""time""
""fullscreenenter"",""1"",""1512""
","
","
","""event"",""trial"",""time""
""fullscreenenter"",""1"",""1512""
","
","","","-1","","","21","3709","2407","w","elianto","#f73b6a7A"," ","-1","0","-10","[]","0","2","","","3709","59","3","3","lose","go","0"
"pit-trial","181","1153053","0.0-64.0","battery-v0.2","","""event"",""trial"",""time""
""fullscreenenter"",""1"",""1512""
","
","
","""event"",""trial"",""time""
""fullscreenenter"",""1"",""1512""
","
","","","-1","","","21","3709","2407","j","elianto","#f73b6a7A","-1","-1","1","0","[]","0","2","","","3709","60","0","4","lose","no-go","0"
"pit-trial","182","1157915","0.0-65.0","battery-v0.2","","""event"",""trial"",""time""
""fullscreenenter"",""1"",""1512""
","
","
","""event"",""trial"",""time""
""fullscreenenter"",""1"",""1512""
","
","","","-1","","","21","3709","2407","s","elianto","#3366ff99","-1","-1","1","+10","[]","0","2","","","3709","61","4","2","win","no-go","0"
"pit-trial","183","1162403","0.0-66.0","battery-v0.2","","""event"",""trial"",""time""
""fullscreenenter"",""1"",""1512""
","
","
","""event"",""trial"",""time""
""fullscreenenter"",""1"",""1512""
","
","","","1633.7999999523163","","","21","3709","2407","w","elianto","#f73b6a7A"," "," ","1","0","[2484]","1","2","","","3709","62","3","3","lose","go","0"
"pit-trial","184","1166196","0.0-67.0","battery-v0.2","","""event"",""trial"",""time""
""fullscreenenter"",""1"",""1512""
","
","
","""event"",""trial"",""time""
""fullscreenenter"",""1"",""1512""
","
","","","933.4000000953674","","","21","3709","2407","d","elianto","#3366ff99"," "," ","1","0","[1787]","1","2","","","3709","63","1","1","win","go","1"
"pit-trial","185","1171060","0.0-68.0","battery-v0.2","","""event"",""trial"",""time""
""fullscreenenter"",""1"",""1512""
","
","
","""event"",""trial"",""time""
""fullscreenenter"",""1"",""1512""
","
","","","-1","","","21","3709","2407","e","elianto","#f73b6a7A","-1","-1","1","0","[]","0","2","","","3709","64","2","4","lose","no-go","0"
"pit-trial","186","1175924","0.0-69.0","battery-v0.2","","""event"",""trial"",""time""
""fullscreenenter"",""1"",""1512""
","
","
","""event"",""trial"",""time""
""fullscreenenter"",""1"",""1512""
","
","","","-1","","","21","3709","2407","e","elianto","#f73b6a7A","-1","-1","1","0","[]","0","2","","","3709","65","2","4","lose","no-go","0"
"pit-trial","187","1179715","0.0-70.0","battery-v0.2","","""event"",""trial"",""time""
""fullscreenenter"",""1"",""1512""
","
","
","""event"",""trial"",""time""
""fullscreenenter"",""1"",""1512""
","
","","","935.1000001430511","","","21","3709","2407","w","elianto","#f73b6a7A"," "," ","1","0","[1787.1000001430511]","1","2","","","3709","66","3","3","lose","go","0"
"pit-trial","188","1183372","0.0-71.0","battery-v0.2","","""event"",""trial"",""time""
""fullscreenenter"",""1"",""1512""
","
","
","""event"",""trial"",""time""
""fullscreenenter"",""1"",""1512""
","
","","","797.5","","","21","3709","2407","d","elianto","#3366ff99"," "," ","1","+10","[1650.8000001907349]","1","2","","","3709","67","1","1","win","go","0"
"pit-trial","189","1188235","0.0-72.0","battery-v0.2","","""event"",""trial"",""time""
""fullscreenenter"",""1"",""1512""
","
","
","""event"",""trial"",""time""
""fullscreenenter"",""1"",""1512""
","
","","","-1","","","21","3709","2407","s","elianto","#3366ff99","-1","-1","1","+10","[]","0","2","","","3709","68","4","2","win","no-go","0"
"pit-trial","190","1192268","0.0-73.0","battery-v0.2","","""event"",""trial"",""time""
""fullscreenenter"",""1"",""1512""
","
","
","""event"",""trial"",""time""
""fullscreenenter"",""1"",""1512""
","
","","","1175.6999998092651","","","21","3709","2407","p","elianto","#3366ff99"," "," ","1","0","[2027.3999998569489]","1","2","","","3709","69","5","1","win","go","1"
"pit-trial","191","1196133","0.0-74.0","battery-v0.2","","""event"",""trial"",""time""
""fullscreenenter"",""1"",""1512""
","
","
","""event"",""trial"",""time""
""fullscreenenter"",""1"",""1512""
","
","","","998.1000001430511","","","21","3709","2407","d","elianto","#3366ff99"," "," ","1","0","[1850.3999998569489]","1","2","","","3709","70","1","1","win","go","1"
"pit-trial","192","1200316","0.0-75.0","battery-v0.2","","""event"",""trial"",""time""
""fullscreenenter"",""1"",""1512""
","
","
","""event"",""trial"",""time""
""fullscreenenter"",""1"",""1512""
","
","","","1325.5","","","21","3709","2407","w","elianto","#f73b6a7A"," "," ","1","0","[2177.5999999046326]","1","2","","","3709","71","3","3","lose","go","0"
"pit-trial","193","1205180","0.0-76.0","battery-v0.2","","""event"",""trial"",""time""
""fullscreenenter"",""1"",""1512""
","
","
","""event"",""trial"",""time""
""fullscreenenter"",""1"",""1512""
","
","","","-1","","","21","3709","2407","s","elianto","#3366ff99","-1","-1","1","+10","[]","0","2","","","3709","72","4","2","win","no-go","0"
"pit-trial","194","1209123","0.0-77.0","battery-v0.2","","""event"",""trial"",""time""
""fullscreenenter"",""1"",""1512""
","
","
","""event"",""trial"",""time""
""fullscreenenter"",""1"",""1512""
","
","","","1086.2000000476837","","","21","3709","2407","d","elianto","#3366ff99"," "," ","1","+10","[1938.8999998569489]","1","2","","","3709","73","1","1","win","go","0"
"pit-trial","195","1213995","0.0-78.0","battery-v0.2","","""event"",""trial"",""time""
""fullscreenenter"",""1"",""1512""
","
","
","""event"",""trial"",""time""
""fullscreenenter"",""1"",""1512""
","
","","","-1","","","21","3709","2407","p","elianto","#3366ff99"," ","-1","0","+10","[]","0","2","","","3709","74","5","1","win","go","1"
"pit-trial","196","1218004","0.0-79.0","battery-v0.2","","""event"",""trial"",""time""
""fullscreenenter"",""1"",""1512""
","
","
","""event"",""trial"",""time""
""fullscreenenter"",""1"",""1512""
","
","","","1149","","","21","3709","2407","w","elianto","#f73b6a7A"," "," ","1","0","[2002.7000000476837]","1","2","","","3709","75","3","3","lose","go","0"
"pit-trial","197","1222867","0.0-80.0","battery-v0.2","","""event"",""trial"",""time""
""fullscreenenter"",""1"",""1512""
","
","
","""event"",""trial"",""time""
""fullscreenenter"",""1"",""1512""
","
","","","-1","","","21","3709","2407","s","elianto","#3366ff99","-1","-1","1","0","[]","0","2","","","3709","76","4","2","win","no-go","1"
"pit-trial","198","1227740","0.0-81.0","battery-v0.2","","""event"",""trial"",""time""
""fullscreenenter"",""1"",""1512""
","
","
","""event"",""trial"",""time""
""fullscreenenter"",""1"",""1512""
","
","","","-1","","","21","3709","2407","s","elianto","#3366ff99","-1","-1","1","0","[]","0","2","","","3709","77","4","2","win","no-go","1"
"pit-trial","199","1232604","0.0-82.0","battery-v0.2","","""event"",""trial"",""time""
""fullscreenenter"",""1"",""1512""
","
","
","""event"",""trial"",""time""
""fullscreenenter"",""1"",""1512""
","
","","","-1","","","21","3709","2407","p","elianto","#3366ff99"," ","-1","0","0","[]","0","2","","","3709","78","5","1","win","go","0"
"pit-trial","200","1236380","0.0-83.0","battery-v0.2","","""event"",""trial"",""time""
""fullscreenenter"",""1"",""1512""
","
","
","""event"",""trial"",""time""
""fullscreenenter"",""1"",""1512""
","
","","","917.9000000953674","","","21","3709","2407","w","elianto","#f73b6a7A"," "," ","1","0","[1771.4000000953674]","1","2","","","3709","79","3","3","lose","go","0"
"pit-trial","201","1240587","0.0-84.0","battery-v0.2","","""event"",""trial"",""time""
""fullscreenenter"",""1"",""1512""
","
","
","""event"",""trial"",""time""
""fullscreenenter"",""1"",""1512""
","
","","","1349.5999999046326","","","21","3709","2407","g","elianto","#f73b6a7A","-1"," ","0","-10","[2202.0999999046326]","1","2","","","3709","80","6","4","lose","no-go","0"
"pit-trial","202","1245452","0.0-85.0","battery-v0.2","","""event"",""trial"",""time""
""fullscreenenter"",""1"",""1512""
","
","
","""event"",""trial"",""time""
""fullscreenenter"",""1"",""1512""
","
","","","-1","","","21","3709","2407","p","elianto","#3366ff99"," ","-1","0","0","[]","0","2","","","3709","81","5","1","win","go","0"
"pit-trial","203","1250316","0.0-86.0","battery-v0.2","","""event"",""trial"",""time""
""fullscreenenter"",""1"",""1512""
","
","
","""event"",""trial"",""time""
""fullscreenenter"",""1"",""1512""
","
","","","-1","","","21","3709","2407","s","elianto","#3366ff99","-1","-1","1","0","[]","0","2","","","3709","82","4","2","win","no-go","1"
"pit-trial","204","1255179","0.0-87.0","battery-v0.2","","""event"",""trial"",""time""
""fullscreenenter"",""1"",""1512""
","
","
","""event"",""trial"",""time""
""fullscreenenter"",""1"",""1512""
","
","","","-1","","","21","3709","2407","g","elianto","#f73b6a7A","-1","-1","1","0","[]","0","2","","","3709","83","6","4","lose","no-go","0"
"pit-trial","205","1259036","0.0-88.0","battery-v0.2","","""event"",""trial"",""time""
""fullscreenenter"",""1"",""1512""
","
","
","""event"",""trial"",""time""
""fullscreenenter"",""1"",""1512""
","
","","","1001.8999998569489","","","21","3709","2407","a","elianto","#f73b6a7A"," "," ","1","0","[1852.1000001430511]","1","2","","","3709","84","7","3","lose","go","0"
"pit-trial","206","1263900","0.0-89.0","battery-v0.2","","""event"",""trial"",""time""
""fullscreenenter"",""1"",""1512""
","
","
","""event"",""trial"",""time""
""fullscreenenter"",""1"",""1512""
","
","","","-1","","","21","3709","2407","g","elianto","#f73b6a7A","-1","-1","1","0","[]","0","2","","","3709","85","6","4","lose","no-go","0"
"pit-trial","207","1268763","0.0-90.0","battery-v0.2","","""event"",""trial"",""time""
""fullscreenenter"",""1"",""1512""
","
","
","""event"",""trial"",""time""
""fullscreenenter"",""1"",""1512""
","
","","","-1","","","21","3709","2407","p","elianto","#3366ff99"," ","-1","0","0","[]","0","2","","","3709","86","5","1","win","go","0"
"pit-trial","208","1272956","0.0-91.0","battery-v0.2","","""event"",""trial"",""time""
""fullscreenenter"",""1"",""1512""
","
","
","""event"",""trial"",""time""
""fullscreenenter"",""1"",""1512""
","
","","","1334.2999999523163","","","21","3709","2407","a","elianto","#f73b6a7A"," "," ","1","0","[2187.2999999523163]","1","2","","","3709","87","7","3","lose","go","0"
"pit-trial","209","1277828","0.0-92.0","battery-v0.2","","""event"",""trial"",""time""
""fullscreenenter"",""1"",""1512""
","
","
","""event"",""trial"",""time""
""fullscreenenter"",""1"",""1512""
","
","","","-1","","","21","3709","2407","s","elianto","#3366ff99","-1","-1","1","+10","[]","0","2","","","3709","88","4","2","win","no-go","0"
"pit-trial","210","1282691","0.0-93.0","battery-v0.2","","""event"",""trial"",""time""
""fullscreenenter"",""1"",""1512""
","
","
","""event"",""trial"",""time""
""fullscreenenter"",""1"",""1512""
","
","","","-1","","","21","3709","2407","p","elianto","#3366ff99"," ","-1","0","0","[]","0","2","","","3709","89","5","1","win","go","0"
"pit-trial","211","1287556","0.0-94.0","battery-v0.2","","""event"",""trial"",""time""
""fullscreenenter"",""1"",""1512""
","
","
","""event"",""trial"",""time""
""fullscreenenter"",""1"",""1512""
","
","","","-1","","","21","3709","2407","g","elianto","#f73b6a7A","-1","-1","1","0","[]","0","2","","","3709","90","6","4","lose","no-go","0"
"pit-trial","212","1292420","0.0-95.0","battery-v0.2","","""event"",""trial"",""time""
""fullscreenenter"",""1"",""1512""
","
","
","""event"",""trial"",""time""
""fullscreenenter"",""1"",""1512""
","
","","","-1","","","21","3709","2407","s","elianto","#3366ff99","-1","-1","1","+10","[]","0","2","","","3709","91","4","2","win","no-go","0"
"pit-trial","213","1296339","0.0-96.0","battery-v0.2","","""event"",""trial"",""time""
""fullscreenenter"",""1"",""1512""
","
","
","""event"",""trial"",""time""
""fullscreenenter"",""1"",""1512""
","
","","","1063.7000000476837","","","21","3709","2407","a","elianto","#f73b6a7A"," "," ","1","-10","[1915]","1","2","","","3709","92","7","3","lose","go","1"
"pit-trial","214","1300667","0.0-97.0","battery-v0.2","","""event"",""trial"",""time""
""fullscreenenter"",""1"",""1512""
","
","
","""event"",""trial"",""time""
""fullscreenenter"",""1"",""1512""
","
","","","1473.1999998092651","","","21","3709","2407","a","elianto","#f73b6a7A"," "," ","1","0","[2323.2999999523163]","1","2","","","3709","93","7","3","lose","go","0"
"pit-trial","215","1304747","0.0-98.0","battery-v0.2","","""event"",""trial"",""time""
""fullscreenenter"",""1"",""1512""
","
","
","""event"",""trial"",""time""
""fullscreenenter"",""1"",""1512""
","
","","","1222.0999999046326","","","21","3709","2407","l","elianto","#3366ff99","-1"," ","0","0","[2075.5]","1","2","","","3709","94","8","2","win","no-go","0"
"pit-trial","216","1309610","0.0-99.0","battery-v0.2","","""event"",""trial"",""time""
""fullscreenenter"",""1"",""1512""
","
","
","""event"",""trial"",""time""
""fullscreenenter"",""1"",""1512""
","
","","","-1","","","21","3709","2407","p","elianto","#3366ff99"," ","-1","0","0","[]","0","2","","","3709","95","5","1","win","go","0"
"pit-trial","217","1314476","0.0-100.0","battery-v0.2","","""event"",""trial"",""time""
""fullscreenenter"",""1"",""1512""
","
","
","""event"",""trial"",""time""
""fullscreenenter"",""1"",""1512""
","
","","","-1","","","21","3709","2407","g","elianto","#f73b6a7A","-1","-1","1","0","[]","0","2","","","3709","96","6","4","lose","no-go","0"
"pit-trial","218","1319340","0.0-101.0","battery-v0.2","","""event"",""trial"",""time""
""fullscreenenter"",""1"",""1512""
","
","
","""event"",""trial"",""time""
""fullscreenenter"",""1"",""1512""
","
","","","-1","","","21","3709","2407","p","elianto","#3366ff99"," ","-1","0","0","[]","0","2","","","3709","97","5","1","win","go","0"
"pit-trial","219","1324205","0.0-102.0","battery-v0.2","","""event"",""trial"",""time""
""fullscreenenter"",""1"",""1512""
","
","
","""event"",""trial"",""time""
""fullscreenenter"",""1"",""1512""
","
","","","-1","","","21","3709","2407","g","elianto","#f73b6a7A","-1","-1","1","0","[]","0","2","","","3709","98","6","4","lose","no-go","0"
"pit-trial","220","1328084","0.0-103.0","battery-v0.2","","""event"",""trial"",""time""
""fullscreenenter"",""1"",""1512""
","
","
","""event"",""trial"",""time""
""fullscreenenter"",""1"",""1512""
","
","","","1022.6000001430511","","","21","3709","2407","l","elianto","#3366ff99","-1"," ","0","0","[1873.6000001430511]","1","2","","","3709","99","8","2","win","no-go","0"
"pit-trial","221","1332051","0.0-104.0","battery-v0.2","","""event"",""trial"",""time""
""fullscreenenter"",""1"",""1512""
","
","
","""event"",""trial"",""time""
""fullscreenenter"",""1"",""1512""
","
","","","1111.9000000953674","","","21","3709","2407","a","elianto","#f73b6a7A"," "," ","1","-10","[1962.2000000476837]","1","2","","","3709","100","7","3","lose","go","1"
"pit-trial","222","1336684","0.0-105.0","battery-v0.2","","""event"",""trial"",""time""
""fullscreenenter"",""1"",""1512""
","
","
","""event"",""trial"",""time""
""fullscreenenter"",""1"",""1512""
","
","","","1776.7000000476837","","","21","3709","2407","u","elianto","#3366ff99","-1"," ","0","0","[2626.7000000476837]","1","2","","","3709","101","9","2","win","no-go","0"
"pit-trial","223","1341547","0.0-106.0","battery-v0.2","","""event"",""trial"",""time""
""fullscreenenter"",""1"",""1512""
","
","
","""event"",""trial"",""time""
""fullscreenenter"",""1"",""1512""
","
","","","-1","","","21","3709","2407","g","elianto","#f73b6a7A","-1","-1","1","0","[]","0","2","","","3709","102","6","4","lose","no-go","0"
"pit-trial","224","1346412","0.0-107.0","battery-v0.2","","""event"",""trial"",""time""
""fullscreenenter"",""1"",""1512""
","
","
","""event"",""trial"",""time""
""fullscreenenter"",""1"",""1512""
","
","","","-1","","","21","3709","2407","l","elianto","#3366ff99","-1","-1","1","0","[]","0","2","","","3709","103","8","2","win","no-go","1"
"pit-trial","225","1351276","0.0-108.0","battery-v0.2","","""event"",""trial"",""time""
""fullscreenenter"",""1"",""1512""
","
","
","""event"",""trial"",""time""
""fullscreenenter"",""1"",""1512""
","
","","","-1","","","21","3709","2407","p","elianto","#3366ff99"," ","-1","0","0","[]","0","2","","","3709","104","5","1","win","go","0"
"pit-trial","226","1356140","0.0-109.0","battery-v0.2","","""event"",""trial"",""time""
""fullscreenenter"",""1"",""1512""
","
","
","""event"",""trial"",""time""
""fullscreenenter"",""1"",""1512""
","
","","","-1","","","21","3709","2407","g","elianto","#f73b6a7A","-1","-1","1","0","[]","0","2","","","3709","105","6","4","lose","no-go","0"
"pit-trial","227","1360485","0.0-110.0","battery-v0.2","","""event"",""trial"",""time""
""fullscreenenter"",""1"",""1512""
","
","
","""event"",""trial"",""time""
""fullscreenenter"",""1"",""1512""
","
","","","1487","","","21","3709","2407","p","elianto","#3366ff99"," "," ","1","+10","[2340]","1","2","","","3709","106","5","1","win","go","0"
"pit-trial","228","1364435","0.0-111.0","battery-v0.2","","""event"",""trial"",""time""
""fullscreenenter"",""1"",""1512""
","
","
","""event"",""trial"",""time""
""fullscreenenter"",""1"",""1512""
","
","","","1094.2000000476837","","","21","3709","2407","u","elianto","#3366ff99","-1"," ","0","0","[1945]","1","2","","","3709","107","9","2","win","no-go","0"
"pit-trial","229","1368588","0.0-112.0","battery-v0.2","","""event"",""trial"",""time""
""fullscreenenter"",""1"",""1512""
","
","
","""event"",""trial"",""time""
""fullscreenenter"",""1"",""1512""
","
","","","1296.5","","","21","3709","2407","l","elianto","#3366ff99","-1"," ","0","0","[2147.5999999046326]","1","2","","","3709","108","8","2","win","no-go","0"
"pit-trial","230","1373451","0.0-113.0","battery-v0.2","","""event"",""trial"",""time""
""fullscreenenter"",""1"",""1512""
","
","
","""event"",""trial"",""time""
""fullscreenenter"",""1"",""1512""
","
","","","-1","","","21","3709","2407","g","elianto","#f73b6a7A","-1","-1","1","-10","[]","0","2","","","3709","109","6","4","lose","no-go","1"
"pit-trial","231","1377500","0.0-114.0","battery-v0.2","","""event"",""trial"",""time""
""fullscreenenter"",""1"",""1512""
","
","
","""event"",""trial"",""time""
""fullscreenenter"",""1"",""1512""
","
","","","1191.2000000476837","","","21","3709","2407","p","elianto","#3366ff99"," "," ","1","0","[2043.6000001430511]","1","2","","","3709","110","5","1","win","go","1"
"pit-trial","232","1381132","0.0-115.0","battery-v0.2","","""event"",""trial"",""time""
""fullscreenenter"",""1"",""1512""
","
","
","""event"",""trial"",""time""
""fullscreenenter"",""1"",""1512""
","
","","","774.5","","","21","3709","2407","l","elianto","#3366ff99","-1"," ","0","0","[1627.4000000953674]","1","2","","","3709","111","8","2","win","no-go","0"
"pit-trial","233","1384892","0.0-116.0","battery-v0.2","","""event"",""trial"",""time""
""fullscreenenter"",""1"",""1512""
","
","
","""event"",""trial"",""time""
""fullscreenenter"",""1"",""1512""
","
","","","904.7999999523163","","","21","3709","2407","u","elianto","#3366ff99","-1"," ","0","+10","[1755.2999999523163]","1","2","","","3709","112","9","2","win","no-go","1"
"pit-trial","234","1389236","0.0-117.0","battery-v0.2","","""event"",""trial"",""time""
""fullscreenenter"",""1"",""1512""
","
","
","""event"",""trial"",""time""
""fullscreenenter"",""1"",""1512""
","
","","","1488.8999998569489","","","21","3709","2407","u","elianto","#3366ff99","-1"," ","0","+10","[2339.399999856949]","1","2","","","3709","113","9","2","win","no-go","1"
"pit-trial","235","1393571","0.0-118.0","battery-v0.2","","""event"",""trial"",""time""
""fullscreenenter"",""1"",""1512""
","
","
","""event"",""trial"",""time""
""fullscreenenter"",""1"",""1512""
","
","","","1478.2999999523163","","","21","3709","2407","a","elianto","#f73b6a7A"," "," ","1","-10","[2330.4000000953674]","1","2","","","3709","114","7","3","lose","go","1"
"pit-trial","236","1398003","0.0-119.0","battery-v0.2","","""event"",""trial"",""time""
""fullscreenenter"",""1"",""1512""
","
","
","""event"",""trial"",""time""
""fullscreenenter"",""1"",""1512""
","
","","","1573.0999999046326","","","21","3709","2407","p","elianto","#3366ff99"," "," ","1","0","[2427]","1","2","","","3709","115","5","1","win","go","1"
"pit-trial","237","1402876","0.0-120.0","battery-v0.2","","""event"",""trial"",""time""
""fullscreenenter"",""1"",""1512""
","
","
","""event"",""trial"",""time""
""fullscreenenter"",""1"",""1512""
","
","","","-1","","","21","3709","2407","l","elianto","#3366ff99","-1","-1","1","+10","[]","0","2","","","3709","116","8","2","win","no-go","0"
"pit-trial","238","1407739","0.0-121.0","battery-v0.2","","""event"",""trial"",""time""
""fullscreenenter"",""1"",""1512""
","
","
","""event"",""trial"",""time""
""fullscreenenter"",""1"",""1512""
","
","","","-1","","","21","3709","2407","g","elianto","#f73b6a7A","-1","-1","1","-10","[]","0","2","","","3709","117","6","4","lose","no-go","1"
"pit-trial","239","1412201","0.0-122.0","battery-v0.2","","""event"",""trial"",""time""
""fullscreenenter"",""1"",""1512""
","
","
","""event"",""trial"",""time""
""fullscreenenter"",""1"",""1512""
","
","","","1589.9000000953674","","","21","3709","2407","p","elianto","#3366ff99"," "," ","1","+10","[2444.2000000476837]","1","2","","","3709","118","5","1","win","go","0"
"pit-trial","240","1417068","0.0-123.0","battery-v0.2","","""event"",""trial"",""time""
""fullscreenenter"",""1"",""1512""
","
","
","""event"",""trial"",""time""
""fullscreenenter"",""1"",""1512""
","
","","","-1","","","21","3709","2407","u","elianto","#3366ff99","-1","-1","1","+10","[]","0","2","","","3709","119","9","2","win","no-go","0"
"pit-trial","241","1421932","0.0-124.0","battery-v0.2","","""event"",""trial"",""time""
""fullscreenenter"",""1"",""1512""
","
","
","""event"",""trial"",""time""
""fullscreenenter"",""1"",""1512""
","
","","","-1","","","21","3709","2407","l","elianto","#3366ff99","-1","-1","1","0","[]","0","2","","","3709","120","8","2","win","no-go","1"
"pit-trial","242","1425825","0.0-125.0","battery-v0.2","","""event"",""trial"",""time""
""fullscreenenter"",""1"",""1512""
","
","
","""event"",""trial"",""time""
""fullscreenenter"",""1"",""1512""
","
","","","1022.4000000953674","","","21","3709","2407","p","elianto","#3366ff99"," "," ","1","+10","[1875.2000000476837]","1","2","","","3709","121","5","1","win","go","0"
"pit-trial","243","1429404","0.0-126.0","battery-v0.2","","""event"",""trial"",""time""
""fullscreenenter"",""1"",""1512""
","
","
","""event"",""trial"",""time""
""fullscreenenter"",""1"",""1512""
","
","","","720.5","","","21","3709","2407","u","elianto","#3366ff99","-1"," ","0","0","[1573.6000001430511]","1","2","","","3709","122","9","2","win","no-go","0"
"pit-trial","244","1434269","0.0-127.0","battery-v0.2","","""event"",""trial"",""time""
""fullscreenenter"",""1"",""1512""
","
","
","""event"",""trial"",""time""
""fullscreenenter"",""1"",""1512""
","
","","","-1","","","21","3709","2407","a","elianto","#f73b6a7A"," ","-1","0","0","[]","0","2","","","3709","123","7","3","lose","go","1"
"pit-trial","245","1438316","0.0-128.0","battery-v0.2","","""event"",""trial"",""time""
""fullscreenenter"",""1"",""1512""
","
","
","""event"",""trial"",""time""
""fullscreenenter"",""1"",""1512""
","
","","","1189.2000000476837","","","21","3709","2407","l","elianto","#3366ff99","-1"," ","0","0","[2041.5]","1","2","","","3709","124","8","2","win","no-go","0"
"pit-trial","246","1442331","0.0-129.0","battery-v0.2","","""event"",""trial"",""time""
""fullscreenenter"",""1"",""1512""
","
","
","""event"",""trial"",""time""
""fullscreenenter"",""1"",""1512""
","
","","","1160.7000000476837","","","21","3709","2407","a","elianto","#f73b6a7A"," "," ","1","0","[2011]","1","2","","","3709","125","7","3","lose","go","0"
"pit-trial","247","1446933","0.0-130.0","battery-v0.2","","""event"",""trial"",""time""
""fullscreenenter"",""1"",""1512""
","
","
","""event"",""trial"",""time""
""fullscreenenter"",""1"",""1512""
","
","","","1743.5999999046326","","","21","3709","2407","l","elianto","#3366ff99","-1"," ","0","0","[2595]","1","2","","","3709","126","8","2","win","no-go","0"
"pit-trial","248","1451804","0.0-131.0","battery-v0.2","","""event"",""trial"",""time""
""fullscreenenter"",""1"",""1512""
","
","
","""event"",""trial"",""time""
""fullscreenenter"",""1"",""1512""
","
","","","-1","","","21","3709","2407","u","elianto","#3366ff99","-1","-1","1","+10","[]","0","2","","","3709","127","9","2","win","no-go","0"
"pit-trial","249","1456668","0.0-132.0","battery-v0.2","","""event"",""trial"",""time""
""fullscreenenter"",""1"",""1512""
","
","
","""event"",""trial"",""time""
""fullscreenenter"",""1"",""1512""
","
","","","-1","","","21","3709","2407","g","elianto","#f73b6a7A","-1","-1","1","0","[]","0","2","","","3709","128","6","4","lose","no-go","0"
"pit-trial","250","1461533","0.0-133.0","battery-v0.2","","""event"",""trial"",""time""
""fullscreenenter"",""1"",""1512""
","
","
","""event"",""trial"",""time""
""fullscreenenter"",""1"",""1512""
","
","","","-1","","","21","3709","2407","a","elianto","#f73b6a7A"," ","-1","0","-10","[]","0","2","","","3709","129","7","3","lose","go","0"
"pit-trial","251","1466396","0.0-134.0","battery-v0.2","","""event"",""trial"",""time""
""fullscreenenter"",""1"",""1512""
","
","
","""event"",""trial"",""time""
""fullscreenenter"",""1"",""1512""
","
","","","-1","","","21","3709","2407","g","elianto","#f73b6a7A","-1","-1","1","0","[]","0","2","","","3709","130","6","4","lose","no-go","0"
"pit-trial","252","1470318","0.0-135.0","battery-v0.2","","""event"",""trial"",""time""
""fullscreenenter"",""1"",""1512""
","
","
","""event"",""trial"",""time""
""fullscreenenter"",""1"",""1512""
","
","","","1053.9000000953674","","","21","3709","2407","u","elianto","#3366ff99","-1"," ","0","0","[1907.2000000476837]","1","2","","","3709","131","9","2","win","no-go","0"
"pit-trial","253","1474243","0.0-136.0","battery-v0.2","","""event"",""trial"",""time""
""fullscreenenter"",""1"",""1512""
","
","
","""event"",""trial"",""time""
""fullscreenenter"",""1"",""1512""
","
","","","1070.4000000953674","","","21","3709","2407","l","elianto","#3366ff99","-1"," ","0","0","[1921.1000001430511]","1","2","","","3709","132","8","2","win","no-go","0"
"pit-trial","254","1477969","0.0-137.0","battery-v0.2","","""event"",""trial"",""time""
""fullscreenenter"",""1"",""1512""
","
","
","""event"",""trial"",""time""
""fullscreenenter"",""1"",""1512""
","
","","","856.7999999523163","","","21","3709","2407","l","elianto","#3366ff99","-1"," ","0","0","[1707.2000000476837]","1","2","","","3709","133","8","2","win","no-go","0"
"pit-trial","255","1482525","0.0-138.0","battery-v0.2","","""event"",""trial"",""time""
""fullscreenenter"",""1"",""1512""
","
","
","""event"",""trial"",""time""
""fullscreenenter"",""1"",""1512""
","
","","","1698.2000000476837","","","21","3709","2407","u","elianto","#3366ff99","-1"," ","0","+10","[2549.9000000953674]","1","2","","","3709","134","9","2","win","no-go","1"
"pit-trial","256","1487388","0.0-139.0","battery-v0.2","","""event"",""trial"",""time""
""fullscreenenter"",""1"",""1512""
","
","
","""event"",""trial"",""time""
""fullscreenenter"",""1"",""1512""
","
","","","-1","","","21","3709","2407","g","elianto","#f73b6a7A","-1","-1","1","-10","[]","0","2","","","3709","135","6","4","lose","no-go","1"
"pit-trial","257","1491181","0.0-140.0","battery-v0.2","","""event"",""trial"",""time""
""fullscreenenter"",""1"",""1512""
","
","
","""event"",""trial"",""time""
""fullscreenenter"",""1"",""1512""
","
","","","936.9000000953674","","","21","3709","2407","a","elianto","#f73b6a7A"," "," ","1","0","[1787.3000001907349]","1","2","","","3709","136","7","3","lose","go","0"
"pit-trial","258","1495099","0.0-141.0","battery-v0.2","","""event"",""trial"",""time""
""fullscreenenter"",""1"",""1512""
","
","
","""event"",""trial"",""time""
""fullscreenenter"",""1"",""1512""
","
","","","1064.3999998569489","","","21","3709","2407","a","elianto","#f73b6a7A"," "," ","1","-10","[1915.0999999046326]","1","2","","","3709","137","7","3","lose","go","1"
"pit-trial","259","1499165","0.0-142.0","battery-v0.2","","""event"",""trial"",""time""
""fullscreenenter"",""1"",""1512""
","
","
","""event"",""trial"",""time""
""fullscreenenter"",""1"",""1512""
","
","","","1209","","","21","3709","2407","u","elianto","#3366ff99","-1"," ","0","0","[2059.7000000476837]","1","2","","","3709","138","9","2","win","no-go","0"
"pit-trial","260","1503540","0.0-143.0","battery-v0.2","","""event"",""trial"",""time""
""fullscreenenter"",""1"",""1512""
","
","
","""event"",""trial"",""time""
""fullscreenenter"",""1"",""1512""
","
","","","1517.8999998569489","","","21","3709","2407","l","elianto","#3366ff99","-1"," ","0","0","[2370.2999999523163]","1","2","","","3709","139","8","2","win","no-go","0"
"pit-trial","261","1508405","0.0-144.0","battery-v0.2","","""event"",""trial"",""time""
""fullscreenenter"",""1"",""1512""
","
","
","""event"",""trial"",""time""
""fullscreenenter"",""1"",""1512""
","
","","","-1","","","21","3709","2407","g","elianto","#f73b6a7A","-1","-1","1","0","[]","0","2","","","3709","140","6","4","lose","no-go","0"
"pit-instructions","262","1522631","0.0-145.0","battery-v0.2","","""event"",""trial"",""time""
""fullscreenenter"",""1"",""1512""
","
","
","""event"",""trial"",""time""
""fullscreenenter"",""1"",""1512""
","
","","[{""page_index"":0,""viewing_time"":5741.399999856949},{""page_index"":1,""viewing_time"":8482.100000143051}]","14223.799999952316","","","","","","","","","","","","","","","","","","","","","","","",""
"pit-trial","263","1527503","0.0-146.0","battery-v0.2","","""event"",""trial"",""time""
""fullscreenenter"",""1"",""1512""
","
","
","""event"",""trial"",""time""
""fullscreenenter"",""1"",""1512""
","
","","","-1","","","21","3709","2407","m","elianto","#f73b6a7A"," ","-1","0","-10","[]","0","3","","","3709","141","0","3","lose","go","0"
"pit-trial","264","1532372","0.0-147.0","battery-v0.2","","""event"",""trial"",""time""
""fullscreenenter"",""1"",""1512""
","
","
","""event"",""trial"",""time""
""fullscreenenter"",""1"",""1512""
","
","","","-1","","","21","3709","2407","y","elianto","#f73b6a7A"," ","-1","0","-10","[]","0","3","","","3709","142","2","3","lose","go","0"
"pit-trial","265","1536273","0.0-148.0","battery-v0.2","","""event"",""trial"",""time""
""fullscreenenter"",""1"",""1512""
","
","
","""event"",""trial"",""time""
""fullscreenenter"",""1"",""1512""
","
","","","1029.8999998569489","","","21","3709","2407","r","elianto","#3366ff99","-1"," ","0","+10","[290.7999999523163,1883.2000000476837]","2","3","","","3709","143","1","2","win","no-go","1"
"pit-trial","266","1541147","0.0-149.0","battery-v0.2","","""event"",""trial"",""time""
""fullscreenenter"",""1"",""1512""
","
","
","""event"",""trial"",""time""
""fullscreenenter"",""1"",""1512""
","
","","","-1","","","21","3709","2407","h","elianto","#f73b6a7A","-1","-1","1","0","[]","0","3","","","3709","144","3","4","lose","no-go","0"
"pit-trial","267","1546022","0.0-150.0","battery-v0.2","","""event"",""trial"",""time""
""fullscreenenter"",""1"",""1512""
","
","
","""event"",""trial"",""time""
""fullscreenenter"",""1"",""1512""
","
","","","2005.6000001430511","","","21","3709","2407","m","elianto","#f73b6a7A"," "," ","1","0","[2860.5]","1","3","","","3709","145","0","3","lose","go","0"
"pit-trial","268","1550904","0.0-151.0","battery-v0.2","","""event"",""trial"",""time""
