"trial_type","trial_index","time_elapsed","internal_node_id","task_version","subject_id","interactions","blur_events","focus_events","fullscreenenter_events","fullscreenexit_events","success","view_history","rt","responses","num_errors","age","subject","participantId","rune","rune_set","hex","correct","choice","accuracy","outcome","keys","total_keys","block","practice","value","sub","trial","stimulus","robot","valence","action","sham"
"pavlovia","0","6","0.0-0.0","battery-v0.2","","""event"",""trial"",""time""
""fullscreenenter"",""1"",""2970""
","
","
","""event"",""trial"",""time""
""fullscreenenter"",""1"",""2970""
","
","","","","","","","","","","","","","","","","","","","","","","","","","","",""
"fullscreen","1","3970","0.0-1.0","battery-v0.2","","""event"",""trial"",""time""
""fullscreenenter"",""1"",""2970""
""fullscreenexit"",""2"",""3989""
","
","
","""event"",""trial"",""time""
""fullscreenenter"",""1"",""2970""
","""event"",""trial"",""time""
""fullscreenexit"",""2"",""3989""
","true","","","","","","","","","","","","","","","","","","","","","","","","","",""
"pit-instructions","2","8663","0.0-2.0-0.0","battery-v0.2","","""event"",""trial"",""time""
""fullscreenenter"",""1"",""2970""
""fullscreenexit"",""2"",""3989""
","
","
","""event"",""trial"",""time""
""fullscreenenter"",""1"",""2970""
","""event"",""trial"",""time""
""fullscreenexit"",""2"",""3989""
","","[{""page_index"":0,""viewing_time"":4689.5}]","4689.600000023842","","","","","","","","","","","","","","","","","","","","","","","",""
"pit-comprehension","3","22480","0.0-2.0-1.0-0.0","battery-v0.2","","""event"",""trial"",""time""
""fullscreenenter"",""1"",""2970""
""fullscreenexit"",""2"",""3989""
","
","
","""event"",""trial"",""time""
""fullscreenenter"",""1"",""2970""
","""event"",""trial"",""time""
""fullscreenexit"",""2"",""3989""
","","","13813.399999976158","[""shark""]","0","11","5964","3456","","","","","","","","","","","","","","","","","","",""
"pit-instructions","4","25992","0.0-2.0-1.0-1.0","battery-v0.2","","""event"",""trial"",""time""
""fullscreenenter"",""1"",""2970""
""fullscreenexit"",""2"",""3989""
","
","
","""event"",""trial"",""time""
""fullscreenenter"",""1"",""2970""
","""event"",""trial"",""time""
""fullscreenexit"",""2"",""3989""
","","[{""page_index"":0,""viewing_time"":3501.2999999523163}]","3501.5","","","","","","","","","","","","","","","","","","","","","","","",""
"pit-comprehension","5","30760","0.0-2.0-2.0-0.0","battery-v0.2","","""event"",""trial"",""time""
""fullscreenenter"",""1"",""2970""
""fullscreenexit"",""2"",""3989""
","
","
","""event"",""trial"",""time""
""fullscreenenter"",""1"",""2970""
","""event"",""trial"",""time""
""fullscreenexit"",""2"",""3989""
","","","4765.100000023842","[""tiger""]","0","11","5964","3456","","","","","","","","","","","","","","","","","","",""
"pit-instructions","6","32528","0.0-2.0-2.0-1.0","battery-v0.2","","""event"",""trial"",""time""
""fullscreenenter"",""1"",""2970""
""fullscreenexit"",""2"",""3989""
","
","
","""event"",""trial"",""time""
""fullscreenenter"",""1"",""2970""
","""event"",""trial"",""time""
""fullscreenexit"",""2"",""3989""
","","[{""page_index"":0,""viewing_time"":1763.8999999761581}]","1764.1000000238419","","","","","","","","","","","","","","","","","","","","","","","",""
"pit-instructions","7","135292","0.0-2.0-3.0","battery-v0.2","","""event"",""trial"",""time""
""fullscreenenter"",""1"",""2970""
""fullscreenexit"",""2"",""3989""
","
","
","""event"",""trial"",""time""
""fullscreenenter"",""1"",""2970""
","""event"",""trial"",""time""
""fullscreenexit"",""2"",""3989""
","","[{""page_index"":0,""viewing_time"":9533.399999976158},{""page_index"":1,""viewing_time"":7104.200000047684},{""page_index"":2,""viewing_time"":6184.399999976158},{""page_index"":3,""viewing_time"":5624},{""page_index"":4,""viewing_time"":6392.200000047684},{""page_index"":5,""viewing_time"":5952.299999952316},{""page_index"":6,""viewing_time"":7840.300000071526},{""page_index"":7,""viewing_time"":7368.199999928474},{""page_index"":8,""viewing_time"":6120.200000047684},{""page_index"":9,""viewing_time"":9192.299999952316},{""page_index"":10,""viewing_time"":8888.300000071526},{""page_index"":11,""viewing_time"":9408.299999952316},{""page_index"":12,""viewing_time"":6480.299999952316},{""page_index"":13,""viewing_time"":6672.100000023842}]","102760.80000007153","","","","","","","","","","","","","","","","","","","","","","","",""
"pit-trial","8","139216","0.0-2.0-4.0-0.0","battery-v0.2","","""event"",""trial"",""time""
""fullscreenenter"",""1"",""2970""
""fullscreenexit"",""2"",""3989""
","
","
","""event"",""trial"",""time""
""fullscreenenter"",""1"",""2970""
","""event"",""trial"",""time""
""fullscreenexit"",""2"",""3989""
","","","1054.1000000238419","","","11","5964","3456","&#9784;","elianto","#FFFFF080"," "," ","1","&#10004","[1904.2999999523163]","1","0","0","","","","","","","",""
"pit-trial","9","142956","0.0-2.0-4.1-0.1","battery-v0.2","","""event"",""trial"",""time""
""fullscreenenter"",""1"",""2970""
""fullscreenexit"",""2"",""3989""
","
","
","""event"",""trial"",""time""
""fullscreenenter"",""1"",""2970""
","""event"",""trial"",""time""
""fullscreenexit"",""2"",""3989""
","","","863.8999999761581","","","11","5964","3456","&#9784;","elianto","#FFFFF080"," "," ","1","&#10004","[1716.6000000238419]","1","0","0","","","","","","","",""
"pit-trial","10","146617","0.0-2.0-4.2-0.2","battery-v0.2","","""event"",""trial"",""time""
""fullscreenenter"",""1"",""2970""
""fullscreenexit"",""2"",""3989""
","
","
","""event"",""trial"",""time""
""fullscreenenter"",""1"",""2970""
","""event"",""trial"",""time""
""fullscreenexit"",""2"",""3989""
","","","782.9000000953674","","","11","5964","3456","&#9784;","elianto","#FFFFF080"," "," ","1","&#10004","[1639]","1","0","0","","","","","","","",""
"pit-trial","11","150616","0.0-2.0-4.3-0.3","battery-v0.2","","""event"",""trial"",""time""
""fullscreenenter"",""1"",""2970""
""fullscreenexit"",""2"",""3989""
","
","
","""event"",""trial"",""time""
""fullscreenenter"",""1"",""2970""
","""event"",""trial"",""time""
""fullscreenexit"",""2"",""3989""
","","","1115.8000000715256","","","11","5964","3456","&#9784;","elianto","#FFFFF080"," "," ","1","&#10004","[1979.7000000476837]","1","0","0","","","","","","","",""
"pit-trial","12","154447","0.0-2.0-4.4-0.4","battery-v0.2","","""event"",""trial"",""time""
""fullscreenenter"",""1"",""2970""
""fullscreenexit"",""2"",""3989""
","
","
","""event"",""trial"",""time""
""fullscreenenter"",""1"",""2970""
","""event"",""trial"",""time""
""fullscreenexit"",""2"",""3989""
","","","944.3999999761581","","","11","5964","3456","&#9784;","elianto","#FFFFF080"," "," ","1","&#10004","[1803.3999999761581]","1","0","0","","","","","","","",""
"pit-instructions","13","177548","0.0-2.0-5.0","battery-v0.2","","""event"",""trial"",""time""
""fullscreenenter"",""1"",""2970""
""fullscreenexit"",""2"",""3989""
","
","
","""event"",""trial"",""time""
""fullscreenenter"",""1"",""2970""
","""event"",""trial"",""time""
""fullscreenexit"",""2"",""3989""
","","[{""page_index"":0,""viewing_time"":5383},{""page_index"":1,""viewing_time"":5664.100000023842},{""page_index"":2,""viewing_time"":6512.399999976158},{""page_index"":3,""viewing_time"":5535.900000095367}]","23095.600000023842","","","","","","","","","","","","","","","","","","","","","","","",""
"pit-trial","14","182447","0.0-2.0-6.0-0.0","battery-v0.2","","""event"",""trial"",""time""
""fullscreenenter"",""1"",""2970""
""fullscreenexit"",""2"",""3989""
","
","
","""event"",""trial"",""time""
""fullscreenenter"",""1"",""2970""
","""event"",""trial"",""time""
""fullscreenexit"",""2"",""3989""
","","","-1","","","11","5964","3456","&#9854;","elianto","#FFFFF080","-1","-1","1","&#10004","[]","0","0","1","","","","","","","",""
"pit-trial","15","187337","0.0-2.0-6.1-0.1","battery-v0.2","","""event"",""trial"",""time""
""fullscreenenter"",""1"",""2970""
""fullscreenexit"",""2"",""3989""
","
","
","""event"",""trial"",""time""
""fullscreenenter"",""1"",""2970""
","""event"",""trial"",""time""
""fullscreenexit"",""2"",""3989""
","","","-1","","","11","5964","3456","&#9854;","elianto","#FFFFF080","-1","-1","1","&#10004","[]","0","0","1","","","","","","","",""
"pit-trial","16","192228","0.0-2.0-6.2-0.2","battery-v0.2","","""event"",""trial"",""time""
""fullscreenenter"",""1"",""2970""
""fullscreenexit"",""2"",""3989""
","
","
","""event"",""trial"",""time""
""fullscreenenter"",""1"",""2970""
","""event"",""trial"",""time""
""fullscreenexit"",""2"",""3989""
","","","-1","","","11","5964","3456","&#9854;","elianto","#FFFFF080","-1","-1","1","&#10004","[]","0","0","1","","","","","","","",""
"pit-trial","17","197127","0.0-2.0-6.3-0.3","battery-v0.2","","""event"",""trial"",""time""
""fullscreenenter"",""1"",""2970""
""fullscreenexit"",""2"",""3989""
","
","
","""event"",""trial"",""time""
""fullscreenenter"",""1"",""2970""
","""event"",""trial"",""time""
""fullscreenexit"",""2"",""3989""
","","","-1","","","11","5964","3456","&#9854;","elianto","#FFFFF080","-1","-1","1","&#10004","[]","0","0","1","","","","","","","",""
"pit-trial","18","202017","0.0-2.0-6.4-0.4","battery-v0.2","","""event"",""trial"",""time""
""fullscreenenter"",""1"",""2970""
""fullscreenexit"",""2"",""3989""
","
","
","""event"",""trial"",""time""
""fullscreenenter"",""1"",""2970""
","""event"",""trial"",""time""
""fullscreenexit"",""2"",""3989""
","","","-1","","","11","5964","3456","&#9854;","elianto","#FFFFF080","-1","-1","1","&#10004","[]","0","0","1","","","","","","","",""
"pit-instructions","19","325005","0.0-2.0-7.0","battery-v0.2","","""event"",""trial"",""time""
""fullscreenenter"",""1"",""2970""
""fullscreenexit"",""2"",""3989""
","
","
","""event"",""trial"",""time""
""fullscreenenter"",""1"",""2970""
","""event"",""trial"",""time""
""fullscreenexit"",""2"",""3989""
","","[{""page_index"":0,""viewing_time"":6640.299999952316},{""page_index"":1,""viewing_time"":7096.200000047684},{""page_index"":2,""viewing_time"":6696.299999952316},{""page_index"":3,""viewing_time"":6792},{""page_index"":4,""viewing_time"":5296.200000047684},{""page_index"":5,""viewing_time"":5992.299999952316},{""page_index"":6,""viewing_time"":5456.100000023842},{""page_index"":7,""viewing_time"":9296.399999976158},{""page_index"":8,""viewing_time"":6760.399999976158},{""page_index"":9,""viewing_time"":6416.100000023842},{""page_index"":10,""viewing_time"":6944.399999976158},{""page_index"":11,""viewing_time"":4600},{""page_index"":12,""viewing_time"":7021.800000071526},{""page_index"":13,""viewing_time"":7439.399999976158},{""page_index"":14,""viewing_time"":7640},{""page_index"":15,""viewing_time"":7737.399999976158},{""page_index"":16,""viewing_time"":6968.200000047684},{""page_index"":17,""viewing_time"":8192.299999952316}]","122986.5","","","","","","","","","","","","","","","","","","","","","","","",""
"pit-trial","20","328750","0.0-2.0-8.0-0.0","battery-v0.2","","""event"",""trial"",""time""
""fullscreenenter"",""1"",""2970""
""fullscreenexit"",""2"",""3989""
","
","
","""event"",""trial"",""time""
""fullscreenenter"",""1"",""2970""
","""event"",""trial"",""time""
""fullscreenexit"",""2"",""3989""
","","","867.3000000715256","","","11","5964","3456","&#9776;","elianto","#3366ff99"," "," ","1","+10","[1724.7000000476837]","1","0","1","","","","","","","",""
"pit-trial","21","332329","0.0-2.0-8.0-1.0","battery-v0.2","","""event"",""trial"",""time""
""fullscreenenter"",""1"",""2970""
""fullscreenexit"",""2"",""3989""
","
","
","""event"",""trial"",""time""
""fullscreenenter"",""1"",""2970""
","""event"",""trial"",""time""
""fullscreenexit"",""2"",""3989""
","","","713.1999999284744","","","11","5964","3456","&#9776;","elianto","#3366ff99"," "," ","1","+10","[1567.2999999523163]","1","0","1","","","","","","","",""
"pit-trial","22","335800","0.0-2.0-8.0-2.0","battery-v0.2","","""event"",""trial"",""time""
""fullscreenenter"",""1"",""2970""
""fullscreenexit"",""2"",""3989""
","
","
","""event"",""trial"",""time""
""fullscreenenter"",""1"",""2970""
","""event"",""trial"",""time""
""fullscreenexit"",""2"",""3989""
","","","597.1999999284744","","","11","5964","3456","&#9776;","elianto","#3366ff99"," "," ","1","+10","[1449]","1","0","1","","","","","","","",""
"pit-trial","23","339510","0.0-2.0-8.0-3.0","battery-v0.2","","""event"",""trial"",""time""
""fullscreenenter"",""1"",""2970""
""fullscreenexit"",""2"",""3989""
","
","
","""event"",""trial"",""time""
""fullscreenenter"",""1"",""2970""
","""event"",""trial"",""time""
""fullscreenexit"",""2"",""3989""
","","","818.2999999523163","","","11","5964","3456","&#9776;","elianto","#3366ff99"," "," ","1","0","[1687]","1","0","1","","","","","","","",""
"pit-trial","24","343290","0.0-2.0-8.0-4.0","battery-v0.2","","""event"",""trial"",""time""
""fullscreenenter"",""1"",""2970""
""fullscreenexit"",""2"",""3989""
","
","
","""event"",""trial"",""time""
""fullscreenenter"",""1"",""2970""
","""event"",""trial"",""time""
""fullscreenexit"",""2"",""3989""
","","","894","","","11","5964","3456","&#9776;","elianto","#3366ff99"," "," ","1","+10","[1753]","1","0","1","","","","","","","",""
"pit-trial","25","346910","0.0-2.0-8.1-0.1","battery-v0.2","","""event"",""trial"",""time""
""fullscreenenter"",""1"",""2970""
""fullscreenexit"",""2"",""3989""
","
","
","""event"",""trial"",""time""
""fullscreenenter"",""1"",""2970""
","""event"",""trial"",""time""
""fullscreenexit"",""2"",""3989""
","","","734.8999999761581","","","11","5964","3456","&#9776;","elianto","#3366ff99"," "," ","1","+10","[1597.2000000476837]","1","0","1","","","","","","","",""
"pit-trial","26","350493","0.0-2.0-8.1-1.1","battery-v0.2","","""event"",""trial"",""time""
""fullscreenenter"",""1"",""2970""
""fullscreenexit"",""2"",""3989""
","
","
","""event"",""trial"",""time""
""fullscreenenter"",""1"",""2970""
","""event"",""trial"",""time""
""fullscreenexit"",""2"",""3989""
","","","702.4000000953674","","","11","5964","3456","&#9776;","elianto","#3366ff99"," "," ","1","+10","[1554.4000000953674]","1","0","1","","","","","","","",""
"pit-trial","27","353970","0.0-2.0-8.1-2.1","battery-v0.2","","""event"",""trial"",""time""
""fullscreenenter"",""1"",""2970""
""fullscreenexit"",""2"",""3989""
","
","
","""event"",""trial"",""time""
""fullscreenenter"",""1"",""2970""
","""event"",""trial"",""time""
""fullscreenexit"",""2"",""3989""
","","","603.5999999046326","","","11","5964","3456","&#9776;","elianto","#3366ff99"," "," ","1","+10","[1468]","1","0","1","","","","","","","",""
"pit-trial","28","357634","0.0-2.0-8.1-3.1","battery-v0.2","","""event"",""trial"",""time""
""fullscreenenter"",""1"",""2970""
""fullscreenexit"",""2"",""3989""
","
","
","""event"",""trial"",""time""
""fullscreenenter"",""1"",""2970""
","""event"",""trial"",""time""
""fullscreenexit"",""2"",""3989""
","","","798.1999999284744","","","11","5964","3456","&#9776;","elianto","#3366ff99"," "," ","1","0","[1656.6000000238419]","1","0","1","","","","","","","",""
"pit-trial","29","361225","0.0-2.0-8.1-4.1","battery-v0.2","","""event"",""trial"",""time""
""fullscreenenter"",""1"",""2970""
""fullscreenexit"",""2"",""3989""
","
","
","""event"",""trial"",""time""
""fullscreenenter"",""1"",""2970""
","""event"",""trial"",""time""
""fullscreenexit"",""2"",""3989""
","","","727.0999999046326","","","11","5964","3456","&#9776;","elianto","#3366ff99"," "," ","1","+10","[1584.2000000476837]","1","0","1","","","","","","","",""
"pit-trial","30","364754","0.0-2.0-8.2-0.2","battery-v0.2","","""event"",""trial"",""time""
""fullscreenenter"",""1"",""2970""
""fullscreenexit"",""2"",""3989""
","
","
","""event"",""trial"",""time""
""fullscreenenter"",""1"",""2970""
","""event"",""trial"",""time""
""fullscreenexit"",""2"",""3989""
","","","662.2000000476837","","","11","5964","3456","&#9776;","elianto","#3366ff99"," "," ","1","+10","[1518.2000000476837]","1","0","1","","","","","","","",""
"pit-trial","31","368185","0.0-2.0-8.2-1.2","battery-v0.2","","""event"",""trial"",""time""
""fullscreenenter"",""1"",""2970""
""fullscreenexit"",""2"",""3989""
","
","
","""event"",""trial"",""time""
""fullscreenenter"",""1"",""2970""
","""event"",""trial"",""time""
""fullscreenexit"",""2"",""3989""
","","","567.6000000238419","","","11","5964","3456","&#9776;","elianto","#3366ff99"," "," ","1","+10","[1424.8999999761581]","1","0","1","","","","","","","",""
"pit-trial","32","371978","0.0-2.0-8.2-2.2","battery-v0.2","","""event"",""trial"",""time""
""fullscreenenter"",""1"",""2970""
""fullscreenexit"",""2"",""3989""
","
","
","""event"",""trial"",""time""
""fullscreenenter"",""1"",""2970""
","""event"",""trial"",""time""
""fullscreenexit"",""2"",""3989""
","","","919.3999999761581","","","11","5964","3456","&#9776;","elianto","#3366ff99"," "," ","1","+10","[1777.6999999284744]","1","0","1","","","","","","","",""
"pit-trial","33","376058","0.0-2.0-8.2-3.2","battery-v0.2","","""event"",""trial"",""time""
""fullscreenenter"",""1"",""2970""
""fullscreenexit"",""2"",""3989""
","
","
","""event"",""trial"",""time""
""fullscreenenter"",""1"",""2970""
","""event"",""trial"",""time""
""fullscreenexit"",""2"",""3989""
","","","1207.1999999284744","","","11","5964","3456","&#9776;","elianto","#3366ff99"," "," ","1","0","[2064.399999976158]","1","0","1","","","","","","","",""
"pit-trial","34","379890","0.0-2.0-8.2-4.2","battery-v0.2","","""event"",""trial"",""time""
""fullscreenenter"",""1"",""2970""
""fullscreenexit"",""2"",""3989""
","
","
","""event"",""trial"",""time""
""fullscreenenter"",""1"",""2970""
","""event"",""trial"",""time""
""fullscreenexit"",""2"",""3989""
","","","959.6000000238419","","","11","5964","3456","&#9776;","elianto","#3366ff99"," "," ","1","+10","[1812.6000000238419]","1","0","1","","","","","","","",""
"call-function","35","379897","0.0-2.0-9.0","battery-v0.2","","""event"",""trial"",""time""
""fullscreenenter"",""1"",""2970""
""fullscreenexit"",""2"",""3989""
","
","
","""event"",""trial"",""time""
""fullscreenenter"",""1"",""2970""
","""event"",""trial"",""time""
""fullscreenexit"",""2"",""3989""
","","","","","","","","","","","","","","","","","","","","","","","","","","",""
"pit-instructions","36","425021","0.0-2.0-10.0","battery-v0.2","","""event"",""trial"",""time""
""fullscreenenter"",""1"",""2970""
""fullscreenexit"",""2"",""3989""
","
","
","""event"",""trial"",""time""
""fullscreenenter"",""1"",""2970""
","""event"",""trial"",""time""
""fullscreenexit"",""2"",""3989""
","","[{""page_index"":0,""viewing_time"":10562.399999976158},{""page_index"":1,""viewing_time"":7176.299999952316},{""page_index"":2,""viewing_time"":9872.300000071526},{""page_index"":3,""viewing_time"":9808.199999928474},{""page_index"":4,""viewing_time"":7704.300000071526}]","45123.59999990463","","","","","","","","","","","","","","","","","","","","","","","",""
"pit-trial","37","428597","0.0-2.0-11.0-0.0","battery-v0.2","","""event"",""trial"",""time""
""fullscreenenter"",""1"",""2970""
""fullscreenexit"",""2"",""3989""
","
","
","""event"",""trial"",""time""
""fullscreenenter"",""1"",""2970""
","""event"",""trial"",""time""
""fullscreenexit"",""2"",""3989""
","","","698.7000000476837","","","11","5964","3456","&#9761;","elianto","#3366ff99","-1"," ","0","0","[1555.1000000238419]","1","0","2","","","","","","","",""
"pit-trial","38","432208","0.0-2.0-11.0-1.0","battery-v0.2","","""event"",""trial"",""time""
""fullscreenenter"",""1"",""2970""
""fullscreenexit"",""2"",""3989""
","
","
","""event"",""trial"",""time""
""fullscreenenter"",""1"",""2970""
","""event"",""trial"",""time""
""fullscreenexit"",""2"",""3989""
","","","737.3999999761581","","","11","5964","3456","&#9761;","elianto","#3366ff99","-1"," ","0","0","[1588.1000000238419]","1","0","2","","","","","","","",""
"pit-trial","39","437088","0.0-2.0-11.0-2.0","battery-v0.2","","""event"",""trial"",""time""
""fullscreenenter"",""1"",""2970""
""fullscreenexit"",""2"",""3989""
","
","
","""event"",""trial"",""time""
""fullscreenenter"",""1"",""2970""
","""event"",""trial"",""time""
""fullscreenexit"",""2"",""3989""
","","","-1","","","11","5964","3456","&#9761;","elianto","#3366ff99","-1","-1","1","+10","[]","0","0","2","","","","","","","",""
"pit-trial","40","441968","0.0-2.0-11.0-3.0","battery-v0.2","","""event"",""trial"",""time""
""fullscreenenter"",""1"",""2970""
""fullscreenexit"",""2"",""3989""
","
","
","""event"",""trial"",""time""
""fullscreenenter"",""1"",""2970""
","""event"",""trial"",""time""
""fullscreenexit"",""2"",""3989""
","","","-1","","","11","5964","3456","&#9761;","elianto","#3366ff99","-1","-1","1","0","[]","0","0","2","","","","","","","",""
"pit-trial","41","445349","0.0-2.0-11.0-4.0","battery-v0.2","","""event"",""trial"",""time""
""fullscreenenter"",""1"",""2970""
""fullscreenexit"",""2"",""3989""
","
","
","""event"",""trial"",""time""
""fullscreenenter"",""1"",""2970""
","""event"",""trial"",""time""
""fullscreenexit"",""2"",""3989""
","","","500.5","","","11","5964","3456","&#9761;","elianto","#3366ff99","-1"," ","0","0","[1357.8999999761581]","1","0","2","","","","","","","",""
"pit-trial","42","450238","0.0-2.0-11.1-0.1","battery-v0.2","","""event"",""trial"",""time""
""fullscreenenter"",""1"",""2970""
""fullscreenexit"",""2"",""3989""
","
","
","""event"",""trial"",""time""
""fullscreenenter"",""1"",""2970""
","""event"",""trial"",""time""
""fullscreenexit"",""2"",""3989""
","","","-1","","","11","5964","3456","&#9761;","elianto","#3366ff99","-1","-1","1","+10","[]","0","0","2","","","","","","","",""
"pit-trial","43","455114","0.0-2.0-11.1-1.1","battery-v0.2","","""event"",""trial"",""time""
""fullscreenenter"",""1"",""2970""
""fullscreenexit"",""2"",""3989""
","
","
","""event"",""trial"",""time""
""fullscreenenter"",""1"",""2970""
","""event"",""trial"",""time""
""fullscreenexit"",""2"",""3989""
","","","-1","","","11","5964","3456","&#9761;","elianto","#3366ff99","-1","-1","1","+10","[]","0","0","2","","","","","","","",""
"pit-trial","44","459985","0.0-2.0-11.1-2.1","battery-v0.2","","""event"",""trial"",""time""
""fullscreenenter"",""1"",""2970""
""fullscreenexit"",""2"",""3989""
","
","
","""event"",""trial"",""time""
""fullscreenenter"",""1"",""2970""
","""event"",""trial"",""time""
""fullscreenexit"",""2"",""3989""
","","","-1","","","11","5964","3456","&#9761;","elianto","#3366ff99","-1","-1","1","+10","[]","0","0","2","","","","","","","",""
"pit-trial","45","464857","0.0-2.0-11.1-3.1","battery-v0.2","","""event"",""trial"",""time""
""fullscreenenter"",""1"",""2970""
""fullscreenexit"",""2"",""3989""
","
","
","""event"",""trial"",""time""
""fullscreenenter"",""1"",""2970""
","""event"",""trial"",""time""
""fullscreenexit"",""2"",""3989""
","","","-1","","","11","5964","3456","&#9761;","elianto","#3366ff99","-1","-1","1","0","[]","0","0","2","","","","","","","",""
"pit-trial","46","468346","0.0-2.0-11.1-4.1","battery-v0.2","","""event"",""trial"",""time""
""fullscreenenter"",""1"",""2970""
""fullscreenexit"",""2"",""3989""
","
","
","""event"",""trial"",""time""
""fullscreenenter"",""1"",""2970""
","""event"",""trial"",""time""
""fullscreenexit"",""2"",""3989""
","","","618.8999999761581","","","11","5964","3456","&#9761;","elianto","#3366ff99","-1"," ","0","0","[1476.7000000476837]","1","0","2","","","","","","","",""
"pit-trial","47","473217","0.0-2.0-11.2-0.2","battery-v0.2","","""event"",""trial"",""time""
""fullscreenenter"",""1"",""2970""
""fullscreenexit"",""2"",""3989""
","
","
","""event"",""trial"",""time""
""fullscreenenter"",""1"",""2970""
","""event"",""trial"",""time""
""fullscreenexit"",""2"",""3989""
","","","-1","","","11","5964","3456","&#9761;","elianto","#3366ff99","-1","-1","1","+10","[]","0","0","2","","","","","","","",""
"pit-trial","48","478082","0.0-2.0-11.2-1.2","battery-v0.2","","""event"",""trial"",""time""
""fullscreenenter"",""1"",""2970""
""fullscreenexit"",""2"",""3989""
","
","
","""event"",""trial"",""time""
""fullscreenenter"",""1"",""2970""
","""event"",""trial"",""time""
""fullscreenexit"",""2"",""3989""
","","","-1","","","11","5964","3456","&#9761;","elianto","#3366ff99","-1","-1","1","+10","[]","0","0","2","","","","","","","",""
"pit-trial","49","482946","0.0-2.0-11.2-2.2","battery-v0.2","","""event"",""trial"",""time""
""fullscreenenter"",""1"",""2970""
""fullscreenexit"",""2"",""3989""
","
","
","""event"",""trial"",""time""
""fullscreenenter"",""1"",""2970""
","""event"",""trial"",""time""
""fullscreenexit"",""2"",""3989""
","","","-1","","","11","5964","3456","&#9761;","elianto","#3366ff99","-1","-1","1","+10","[]","0","0","2","","","","","","","",""
"pit-trial","50","487826","0.0-2.0-11.2-3.2","battery-v0.2","","""event"",""trial"",""time""
""fullscreenenter"",""1"",""2970""
""fullscreenexit"",""2"",""3989""
","
","
","""event"",""trial"",""time""
""fullscreenenter"",""1"",""2970""
","""event"",""trial"",""time""
""fullscreenexit"",""2"",""3989""
","","","-1","","","11","5964","3456","&#9761;","elianto","#3366ff99","-1","-1","1","0","[]","0","0","2","","","","","","","",""
"pit-trial","51","492698","0.0-2.0-11.2-4.2","battery-v0.2","","""event"",""trial"",""time""
""fullscreenenter"",""1"",""2970""
""fullscreenexit"",""2"",""3989""
","
","
","""event"",""trial"",""time""
""fullscreenenter"",""1"",""2970""
","""event"",""trial"",""time""
""fullscreenexit"",""2"",""3989""
","","","-1","","","11","5964","3456","&#9761;","elianto","#3366ff99","-1","-1","1","+10","[]","0","0","2","","","","","","","",""
"pit-trial","52","497570","0.0-2.0-11.3-0.3","battery-v0.2","","""event"",""trial"",""time""
""fullscreenenter"",""1"",""2970""
""fullscreenexit"",""2"",""3989""
","
","
","""event"",""trial"",""time""
""fullscreenenter"",""1"",""2970""
","""event"",""trial"",""time""
""fullscreenexit"",""2"",""3989""
","","","-1","","","11","5964","3456","&#9761;","elianto","#3366ff99","-1","-1","1","+10","[]","0","0","2","","","","","","","",""
"pit-trial","53","502434","0.0-2.0-11.3-1.3","battery-v0.2","","""event"",""trial"",""time""
""fullscreenenter"",""1"",""2970""
""fullscreenexit"",""2"",""3989""
","
","
","""event"",""trial"",""time""
""fullscreenenter"",""1"",""2970""
","""event"",""trial"",""time""
""fullscreenexit"",""2"",""3989""
","","","-1","","","11","5964","3456","&#9761;","elianto","#3366ff99","-1","-1","1","+10","[]","0","0","2","","","","","","","",""
"pit-trial","54","507298","0.0-2.0-11.3-2.3","battery-v0.2","","""event"",""trial"",""time""
""fullscreenenter"",""1"",""2970""
""fullscreenexit"",""2"",""3989""
","
","
","""event"",""trial"",""time""
""fullscreenenter"",""1"",""2970""
","""event"",""trial"",""time""
""fullscreenexit"",""2"",""3989""
","","","-1","","","11","5964","3456","&#9761;","elianto","#3366ff99","-1","-1","1","+10","[]","0","0","2","","","","","","","",""
"pit-trial","55","512170","0.0-2.0-11.3-3.3","battery-v0.2","","""event"",""trial"",""time""
""fullscreenenter"",""1"",""2970""
""fullscreenexit"",""2"",""3989""
","
","
","""event"",""trial"",""time""
""fullscreenenter"",""1"",""2970""
","""event"",""trial"",""time""
""fullscreenexit"",""2"",""3989""
","","","-1","","","11","5964","3456","&#9761;","elianto","#3366ff99","-1","-1","1","0","[]","0","0","2","","","","","","","",""
"pit-trial","56","517050","0.0-2.0-11.3-4.3","battery-v0.2","","""event"",""trial"",""time""
""fullscreenenter"",""1"",""2970""
""fullscreenexit"",""2"",""3989""
","
","
","""event"",""trial"",""time""
""fullscreenenter"",""1"",""2970""
","""event"",""trial"",""time""
""fullscreenexit"",""2"",""3989""
","","","-1","","","11","5964","3456","&#9761;","elianto","#3366ff99","-1","-1","1","+10","[]","0","0","2","","","","","","","",""
"call-function","57","517055","0.0-2.0-12.0","battery-v0.2","","""event"",""trial"",""time""
""fullscreenenter"",""1"",""2970""
""fullscreenexit"",""2"",""3989""
","
","
","""event"",""trial"",""time""
""fullscreenenter"",""1"",""2970""
","""event"",""trial"",""time""
""fullscreenexit"",""2"",""3989""
","","","","","","","","","","","","","","","","","","","","","","","","","","",""
"pit-instructions","58","556376","0.0-2.0-13.0","battery-v0.2","","""event"",""trial"",""time""
""fullscreenenter"",""1"",""2970""
""fullscreenexit"",""2"",""3989""
","
","
","""event"",""trial"",""time""
""fullscreenenter"",""1"",""2970""
","""event"",""trial"",""time""
""fullscreenexit"",""2"",""3989""
","","[{""page_index"":0,""viewing_time"":7456.800000071526},{""page_index"":1,""viewing_time"":10000.299999952316},{""page_index"":2,""viewing_time"":5112.200000047684},{""page_index"":3,""viewing_time"":11517.799999952316},{""page_index"":4,""viewing_time"":5232.200000047684}]","39320.10000002384","","","","","","","","","","","","","","","","","","","","","","","",""
"pit-trial","59","560007","0.0-2.0-14.0-0.0","battery-v0.2","","""event"",""trial"",""time""
""fullscreenenter"",""1"",""2970""
""fullscreenexit"",""2"",""3989""
","
","
","""event"",""trial"",""time""
""fullscreenenter"",""1"",""2970""
","""event"",""trial"",""time""
""fullscreenexit"",""2"",""3989""
","","","752.3000000715256","","","11","5964","3456","&#9826;","elianto","#f73b6a7A","-1"," ","0","-10","[1618]","1","0","3","","","","","","","",""
"pit-trial","60","564896","0.0-2.0-14.0-1.0","battery-v0.2","","""event"",""trial"",""time""
""fullscreenenter"",""1"",""2970""
""fullscreenexit"",""2"",""3989""
","
","
","""event"",""trial"",""time""
""fullscreenenter"",""1"",""2970""
","""event"",""trial"",""time""
""fullscreenexit"",""2"",""3989""
","","","-1","","","11","5964","3456","&#9826;","elianto","#f73b6a7A","-1","-1","1","0","[]","0","0","3","","","","","","","",""
"pit-trial","61","569777","0.0-2.0-14.0-2.0","battery-v0.2","","""event"",""trial"",""time""
""fullscreenenter"",""1"",""2970""
""fullscreenexit"",""2"",""3989""
","
","
","""event"",""trial"",""time""
""fullscreenenter"",""1"",""2970""
","""event"",""trial"",""time""
""fullscreenexit"",""2"",""3989""
","","","-1","","","11","5964","3456","&#9826;","elianto","#f73b6a7A","-1","-1","1","0","[]","0","0","3","","","","","","","",""
"pit-trial","62","574677","0.0-2.0-14.0-3.0","battery-v0.2","","""event"",""trial"",""time""
""fullscreenenter"",""1"",""2970""
""fullscreenexit"",""2"",""3989""
","
","
","""event"",""trial"",""time""
""fullscreenenter"",""1"",""2970""
","""event"",""trial"",""time""
""fullscreenexit"",""2"",""3989""
","","","-1","","","11","5964","3456","&#9826;","elianto","#f73b6a7A","-1","-1","1","-10","[]","0","0","3","","","","","","","",""
"pit-trial","63","579567","0.0-2.0-14.0-4.0","battery-v0.2","","""event"",""trial"",""time""
""fullscreenenter"",""1"",""2970""
""fullscreenexit"",""2"",""3989""
","
","
","""event"",""trial"",""time""
""fullscreenenter"",""1"",""2970""
","""event"",""trial"",""time""
""fullscreenexit"",""2"",""3989""
","","","-1","","","11","5964","3456","&#9826;","elianto","#f73b6a7A","-1","-1","1","0","[]","0","0","3","","","","","","","",""
"pit-trial","64","584448","0.0-2.0-14.1-0.1","battery-v0.2","","""event"",""trial"",""time""
""fullscreenenter"",""1"",""2970""
""fullscreenexit"",""2"",""3989""
","
","
","""event"",""trial"",""time""
""fullscreenenter"",""1"",""2970""
","""event"",""trial"",""time""
""fullscreenexit"",""2"",""3989""
","","","-1","","","11","5964","3456","&#9826;","elianto","#f73b6a7A","-1","-1","1","0","[]","0","0","3","","","","","","","",""
"pit-trial","65","589314","0.0-2.0-14.1-1.1","battery-v0.2","","""event"",""trial"",""time""
""fullscreenenter"",""1"",""2970""
""fullscreenexit"",""2"",""3989""
","
","
","""event"",""trial"",""time""
""fullscreenenter"",""1"",""2970""
","""event"",""trial"",""time""
""fullscreenexit"",""2"",""3989""
","","","-1","","","11","5964","3456","&#9826;","elianto","#f73b6a7A","-1","-1","1","0","[]","0","0","3","","","","","","","",""
"pit-trial","66","594186","0.0-2.0-14.1-2.1","battery-v0.2","","""event"",""trial"",""time""
""fullscreenenter"",""1"",""2970""
""fullscreenexit"",""2"",""3989""
","
","
","""event"",""trial"",""time""
""fullscreenenter"",""1"",""2970""
","""event"",""trial"",""time""
""fullscreenexit"",""2"",""3989""
","","","-1","","","11","5964","3456","&#9826;","elianto","#f73b6a7A","-1","-1","1","0","[]","0","0","3","","","","","","","",""
"pit-trial","67","599057","0.0-2.0-14.1-3.1","battery-v0.2","","""event"",""trial"",""time""
""fullscreenenter"",""1"",""2970""
""fullscreenexit"",""2"",""3989""
","
","
","""event"",""trial"",""time""
""fullscreenenter"",""1"",""2970""
","""event"",""trial"",""time""
""fullscreenexit"",""2"",""3989""
","","","-1","","","11","5964","3456","&#9826;","elianto","#f73b6a7A","-1","-1","1","-10","[]","0","0","3","","","","","","","",""
"pit-trial","68","603921","0.0-2.0-14.1-4.1","battery-v0.2","","""event"",""trial"",""time""
""fullscreenenter"",""1"",""2970""
""fullscreenexit"",""2"",""3989""
","
","
","""event"",""trial"",""time""
""fullscreenenter"",""1"",""2970""
","""event"",""trial"",""time""
""fullscreenexit"",""2"",""3989""
","","","-1","","","11","5964","3456","&#9826;","elianto","#f73b6a7A","-1","-1","1","0","[]","0","0","3","","","","","","","",""
"pit-trial","69","608793","0.0-2.0-14.2-0.2","battery-v0.2","","""event"",""trial"",""time""
""fullscreenenter"",""1"",""2970""
""fullscreenexit"",""2"",""3989""
","
","
","""event"",""trial"",""time""
""fullscreenenter"",""1"",""2970""
","""event"",""trial"",""time""
""fullscreenexit"",""2"",""3989""
","","","-1","","","11","5964","3456","&#9826;","elianto","#f73b6a7A","-1","-1","1","0","[]","0","0","3","","","","","","","",""
"pit-trial","70","613658","0.0-2.0-14.2-1.2","battery-v0.2","","""event"",""trial"",""time""
""fullscreenenter"",""1"",""2970""
""fullscreenexit"",""2"",""3989""
","
","
","""event"",""trial"",""time""
""fullscreenenter"",""1"",""2970""
","""event"",""trial"",""time""
""fullscreenexit"",""2"",""3989""
","","","-1","","","11","5964","3456","&#9826;","elianto","#f73b6a7A","-1","-1","1","0","[]","0","0","3","","","","","","","",""
"pit-trial","71","618529","0.0-2.0-14.2-2.2","battery-v0.2","","""event"",""trial"",""time""
""fullscreenenter"",""1"",""2970""
""fullscreenexit"",""2"",""3989""
","
","
","""event"",""trial"",""time""
""fullscreenenter"",""1"",""2970""
","""event"",""trial"",""time""
""fullscreenexit"",""2"",""3989""
","","","-1","","","11","5964","3456","&#9826;","elianto","#f73b6a7A","-1","-1","1","0","[]","0","0","3","","","","","","","",""
"pit-trial","72","623393","0.0-2.0-14.2-3.2","battery-v0.2","","""event"",""trial"",""time""
""fullscreenenter"",""1"",""2970""
""fullscreenexit"",""2"",""3989""
","
","
","""event"",""trial"",""time""
""fullscreenenter"",""1"",""2970""
","""event"",""trial"",""time""
""fullscreenexit"",""2"",""3989""
","","","-1","","","11","5964","3456","&#9826;","elianto","#f73b6a7A","-1","-1","1","-10","[]","0","0","3","","","","","","","",""
"pit-trial","73","628258","0.0-2.0-14.2-4.2","battery-v0.2","","""event"",""trial"",""time""
""fullscreenenter"",""1"",""2970""
""fullscreenexit"",""2"",""3989""
","
","
","""event"",""trial"",""time""
""fullscreenenter"",""1"",""2970""
","""event"",""trial"",""time""
""fullscreenexit"",""2"",""3989""
","","","-1","","","11","5964","3456","&#9826;","elianto","#f73b6a7A","-1","-1","1","0","[]","0","0","3","","","","","","","",""
"pit-trial","74","633129","0.0-2.0-14.3-0.3","battery-v0.2","","""event"",""trial"",""time""
""fullscreenenter"",""1"",""2970""
""fullscreenexit"",""2"",""3989""
","
","
","""event"",""trial"",""time""
""fullscreenenter"",""1"",""2970""
","""event"",""trial"",""time""
""fullscreenexit"",""2"",""3989""
","","","-1","","","11","5964","3456","&#9826;","elianto","#f73b6a7A","-1","-1","1","0","[]","0","0","3","","","","","","","",""
"pit-trial","75","638001","0.0-2.0-14.3-1.3","battery-v0.2","","""event"",""trial"",""time""
""fullscreenenter"",""1"",""2970""
""fullscreenexit"",""2"",""3989""
","
","
","""event"",""trial"",""time""
""fullscreenenter"",""1"",""2970""
","""event"",""trial"",""time""
""fullscreenexit"",""2"",""3989""
","","","-1","","","11","5964","3456","&#9826;","elianto","#f73b6a7A","-1","-1","1","0","[]","0","0","3","","","","","","","",""
"pit-trial","76","642866","0.0-2.0-14.3-2.3","battery-v0.2","","""event"",""trial"",""time""
""fullscreenenter"",""1"",""2970""
""fullscreenexit"",""2"",""3989""
","
","
","""event"",""trial"",""time""
""fullscreenenter"",""1"",""2970""
","""event"",""trial"",""time""
""fullscreenexit"",""2"",""3989""
","","","-1","","","11","5964","3456","&#9826;","elianto","#f73b6a7A","-1","-1","1","0","[]","0","0","3","","","","","","","",""
"pit-trial","77","647737","0.0-2.0-14.3-3.3","battery-v0.2","","""event"",""trial"",""time""
""fullscreenenter"",""1"",""2970""
""fullscreenexit"",""2"",""3989""
","
","
","""event"",""trial"",""time""
""fullscreenenter"",""1"",""2970""
","""event"",""trial"",""time""
""fullscreenexit"",""2"",""3989""
","","","-1","","","11","5964","3456","&#9826;","elianto","#f73b6a7A","-1","-1","1","-10","[]","0","0","3","","","","","","","",""
"pit-trial","78","652609","0.0-2.0-14.3-4.3","battery-v0.2","","""event"",""trial"",""time""
""fullscreenenter"",""1"",""2970""
""fullscreenexit"",""2"",""3989""
","
","
","""event"",""trial"",""time""
""fullscreenenter"",""1"",""2970""
","""event"",""trial"",""time""
""fullscreenexit"",""2"",""3989""
","","","-1","","","11","5964","3456","&#9826;","elianto","#f73b6a7A","-1","-1","1","0","[]","0","0","3","","","","","","","",""
"call-function","79","652615","0.0-2.0-15.0","battery-v0.2","","""event"",""trial"",""time""
""fullscreenenter"",""1"",""2970""
""fullscreenexit"",""2"",""3989""
","
","
","""event"",""trial"",""time""
""fullscreenenter"",""1"",""2970""
","""event"",""trial"",""time""
""fullscreenexit"",""2"",""3989""
","","","","","","","","","","","","","","","","","","","","","","","","","","",""
"pit-instructions","80","712674","0.0-2.0-16.0","battery-v0.2","","""event"",""trial"",""time""
""fullscreenenter"",""1"",""2970""
""fullscreenexit"",""2"",""3989""
","
","
","""event"",""trial"",""time""
""fullscreenenter"",""1"",""2970""
","""event"",""trial"",""time""
""fullscreenexit"",""2"",""3989""
","","[{""page_index"":0,""viewing_time"":39934.299999952316},{""page_index"":1,""viewing_time"":8598},{""page_index"":2,""viewing_time"":5742.600000023842},{""page_index"":3,""viewing_time"":5785.699999928474}]","60061.199999928474","","","","","","","","","","","","","","","","","","","","","","","",""
"pit-trial","81","717560","0.0-2.0-17.0-0.0","battery-v0.2","","""event"",""trial"",""time""
""fullscreenenter"",""1"",""2970""
""fullscreenexit"",""2"",""3989""
","
","
","""event"",""trial"",""time""
""fullscreenenter"",""1"",""2970""
","""event"",""trial"",""time""
""fullscreenexit"",""2"",""3989""
","","","-1","","","11","5964","3456","&#9789;","elianto","#f73b6a7A"," ","-1","0","-10","[]","0","0","4","","","","","","","",""
"pit-trial","82","720981","0.0-2.0-17.0-1.0","battery-v0.2","","""event"",""trial"",""time""
""fullscreenenter"",""1"",""2970""
""fullscreenexit"",""2"",""3989""
","
","
","""event"",""trial"",""time""
""fullscreenenter"",""1"",""2970""
","""event"",""trial"",""time""
""fullscreenexit"",""2"",""3989""
","","","545.1000000238419","","","11","5964","3456","&#9789;","elianto","#f73b6a7A"," "," ","1","0","[1397.5999999046326]","1","0","4","","","","","","","",""
"pit-trial","83","724421","0.0-2.0-17.0-2.0","battery-v0.2","","""event"",""trial"",""time""
""fullscreenenter"",""1"",""2970""
""fullscreenexit"",""2"",""3989""
","
","
","""event"",""trial"",""time""
""fullscreenenter"",""1"",""2970""
","""event"",""trial"",""time""
""fullscreenexit"",""2"",""3989""
","","","548.3999999761581","","","11","5964","3456","&#9789;","elianto","#f73b6a7A"," "," ","1","0","[1410.5]","1","0","4","","","","","","","",""
"pit-trial","84","728021","0.0-2.0-17.0-3.0","battery-v0.2","","""event"",""trial"",""time""
""fullscreenenter"",""1"",""2970""
""fullscreenexit"",""2"",""3989""
","
","
","""event"",""trial"",""time""
""fullscreenenter"",""1"",""2970""
","""event"",""trial"",""time""
""fullscreenexit"",""2"",""3989""
","","","721.7000000476837","","","11","5964","3456","&#9789;","elianto","#f73b6a7A"," "," ","1","-10","[1575.6000000238419]","1","0","4","","","","","","","",""
"pit-trial","85","731801","0.0-2.0-17.0-4.0","battery-v0.2","","""event"",""trial"",""time""
""fullscreenenter"",""1"",""2970""
""fullscreenexit"",""2"",""3989""
","
","
","""event"",""trial"",""time""
""fullscreenenter"",""1"",""2970""
","""event"",""trial"",""time""
""fullscreenexit"",""2"",""3989""
","","","897.1000000238419","","","11","5964","3456","&#9789;","elianto","#f73b6a7A"," "," ","1","0","[1751.1000000238419]","1","0","4","","","","","","","",""
"pit-trial","86","735310","0.0-2.0-17.1-0.1","battery-v0.2","","""event"",""trial"",""time""
""fullscreenenter"",""1"",""2970""
""fullscreenexit"",""2"",""3989""
","
","
","""event"",""trial"",""time""
""fullscreenenter"",""1"",""2970""
","""event"",""trial"",""time""
""fullscreenexit"",""2"",""3989""
","","","625.1999999284744","","","11","5964","3456","&#9789;","elianto","#f73b6a7A"," "," ","1","0","[1482.1999999284744]","1","0","4","","","","","","","",""
"pit-trial","87","738662","0.0-2.0-17.1-1.1","battery-v0.2","","""event"",""trial"",""time""
""fullscreenenter"",""1"",""2970""
""fullscreenexit"",""2"",""3989""
","
","
","""event"",""trial"",""time""
""fullscreenenter"",""1"",""2970""
","""event"",""trial"",""time""
""fullscreenexit"",""2"",""3989""
","","","478.60000002384186","","","11","5964","3456","&#9789;","elianto","#f73b6a7A"," "," ","1","0","[1330.2000000476837]","1","0","4","","","","","","","",""
"pit-trial","88","742095","0.0-2.0-17.1-2.1","battery-v0.2","","""event"",""trial"",""time""
""fullscreenenter"",""1"",""2970""
""fullscreenexit"",""2"",""3989""
","
","
","""event"",""trial"",""time""
""fullscreenenter"",""1"",""2970""
","""event"",""trial"",""time""
""fullscreenexit"",""2"",""3989""
","","","563.8999999761581","","","11","5964","3456","&#9789;","elianto","#f73b6a7A"," "," ","1","0","[1422.7000000476837]","1","0","4","","","","","","","",""
"pit-trial","89","745399","0.0-2.0-17.1-3.1","battery-v0.2","","""event"",""trial"",""time""
""fullscreenenter"",""1"",""2970""
""fullscreenexit"",""2"",""3989""
","
","
","""event"",""trial"",""time""
""fullscreenenter"",""1"",""2970""
","""event"",""trial"",""time""
""fullscreenexit"",""2"",""3989""
","","","442.90000009536743","","","11","5964","3456","&#9789;","elianto","#f73b6a7A"," "," ","1","-10","[1296.8000000715256]","1","0","4","","","","","","","",""
"pit-trial","90","748839","0.0-2.0-17.1-4.1","battery-v0.2","","""event"",""trial"",""time""
""fullscreenenter"",""1"",""2970""
""fullscreenexit"",""2"",""3989""
","
","
","""event"",""trial"",""time""
""fullscreenenter"",""1"",""2970""
","""event"",""trial"",""time""
""fullscreenexit"",""2"",""3989""
","","","572.3000000715256","","","11","5964","3456","&#9789;","elianto","#f73b6a7A"," "," ","1","0","[1429.5]","1","0","4","","","","","","","",""
"pit-trial","91","752167","0.0-2.0-17.2-0.2","battery-v0.2","","""event"",""trial"",""time""
""fullscreenenter"",""1"",""2970""
""fullscreenexit"",""2"",""3989""
","
","
","""event"",""trial"",""time""
""fullscreenenter"",""1"",""2970""
","""event"",""trial"",""time""
""fullscreenexit"",""2"",""3989""
","","","459.5","","","11","5964","3456","&#9789;","elianto","#f73b6a7A"," "," ","1","0","[1317.7999999523163]","1","0","4","","","","","","","",""
"pit-trial","92","755487","0.0-2.0-17.2-1.2","battery-v0.2","","""event"",""trial"",""time""
""fullscreenenter"",""1"",""2970""
""fullscreenexit"",""2"",""3989""
","
","
","""event"",""trial"",""time""
""fullscreenenter"",""1"",""2970""
","""event"",""trial"",""time""
""fullscreenexit"",""2"",""3989""
","","","459","","","11","5964","3456","&#9789;","elianto","#f73b6a7A"," "," ","1","0","[1309.8999999761581]","1","0","4","","","","","","","",""
"pit-trial","93","758712","0.0-2.0-17.2-2.2","battery-v0.2","","""event"",""trial"",""time""
""fullscreenenter"",""1"",""2970""
""fullscreenexit"",""2"",""3989""
","
","
","""event"",""trial"",""time""
""fullscreenenter"",""1"",""2970""
","""event"",""trial"",""time""
""fullscreenexit"",""2"",""3989""
","","","356.2000000476837","","","11","5964","3456","&#9789;","elianto","#f73b6a7A"," "," ","1","0","[1213.3000000715256]","1","0","4","","","","","","","",""
"pit-trial","94","762023","0.0-2.0-17.2-3.2","battery-v0.2","","""event"",""trial"",""time""
""fullscreenenter"",""1"",""2970""
""fullscreenexit"",""2"",""3989""
","
","
","""event"",""trial"",""time""
""fullscreenenter"",""1"",""2970""
","""event"",""trial"",""time""
""fullscreenexit"",""2"",""3989""
","","","444.2000000476837","","","11","5964","3456","&#9789;","elianto","#f73b6a7A"," "," ","1","-10","[1296.8999999761581]","1","0","4","","","","","","","",""
"pit-trial","95","765495","0.0-2.0-17.2-4.2","battery-v0.2","","""event"",""trial"",""time""
""fullscreenenter"",""1"",""2970""
""fullscreenexit"",""2"",""3989""
","
","
","""event"",""trial"",""time""
""fullscreenenter"",""1"",""2970""
","""event"",""trial"",""time""
""fullscreenexit"",""2"",""3989""
","","","604.6999999284744","","","11","5964","3456","&#9789;","elianto","#f73b6a7A"," "," ","1","0","[1461.5999999046326]","1","0","4","","","","","","","",""
"pit-trial","96","768839","0.0-2.0-17.3-0.3","battery-v0.2","","""event"",""trial"",""time""
""fullscreenenter"",""1"",""2970""
""fullscreenexit"",""2"",""3989""
","
","
","""event"",""trial"",""time""
""fullscreenenter"",""1"",""2970""
","""event"",""trial"",""time""
""fullscreenexit"",""2"",""3989""
","","","474.7999999523163","","","11","5964","3456","&#9789;","elianto","#f73b6a7A"," "," ","1","0","[1333.5]","1","0","4","","","","","","","",""
"pit-trial","97","772167","0.0-2.0-17.3-1.3","battery-v0.2","","""event"",""trial"",""time""
""fullscreenenter"",""1"",""2970""
""fullscreenexit"",""2"",""3989""
","
","
","""event"",""trial"",""time""
""fullscreenenter"",""1"",""2970""
","""event"",""trial"",""time""
""fullscreenexit"",""2"",""3989""
","","","460.89999997615814","","","11","5964","3456","&#9789;","elianto","#f73b6a7A"," "," ","1","0","[1318.1999999284744]","1","0","4","","","","","","","",""
"pit-trial","98","775537","0.0-2.0-17.3-2.3","battery-v0.2","","""event"",""trial"",""time""
""fullscreenenter"",""1"",""2970""
""fullscreenexit"",""2"",""3989""
","
","
","""event"",""trial"",""time""
""fullscreenenter"",""1"",""2970""
","""event"",""trial"",""time""
""fullscreenexit"",""2"",""3989""
","","","499.5","","","11","5964","3456","&#9789;","elianto","#f73b6a7A"," "," ","1","0","[1357.5]","1","0","4","","","","","","","",""
"pit-trial","99","778937","0.0-2.0-17.3-3.3","battery-v0.2","","""event"",""trial"",""time""
""fullscreenenter"",""1"",""2970""
""fullscreenexit"",""2"",""3989""
","
","
","""event"",""trial"",""time""
""fullscreenenter"",""1"",""2970""
","""event"",""trial"",""time""
""fullscreenexit"",""2"",""3989""
","","","540.8999999761581","","","11","5964","3456","&#9789;","elianto","#f73b6a7A"," "," ","1","-10","[1392.5]","1","0","4","","","","","","","",""
"pit-trial","100","782210","0.0-2.0-17.3-4.3","battery-v0.2","","""event"",""trial"",""time""
""fullscreenenter"",""1"",""2970""
""fullscreenexit"",""2"",""3989""
","
","
","""event"",""trial"",""time""
""fullscreenenter"",""1"",""2970""
","""event"",""trial"",""time""
""fullscreenexit"",""2"",""3989""
","","","405","","","11","5964","3456","&#9789;","elianto","#f73b6a7A"," "," ","1","0","[1263.5]","1","0","4","","","","","","","",""
"call-function","101","782216","0.0-2.0-18.0","battery-v0.2","","""event"",""trial"",""time""
""fullscreenenter"",""1"",""2970""
""fullscreenexit"",""2"",""3989""
","
","
","""event"",""trial"",""time""
""fullscreenenter"",""1"",""2970""
","""event"",""trial"",""time""
""fullscreenexit"",""2"",""3989""
","","","","","","","","","","","","","","","","","","","","","","","","","","",""
"pit-instructions","102","886291","0.0-2.0-19.0","battery-v0.2","","""event"",""trial"",""time""
""fullscreenenter"",""1"",""2970""
""fullscreenexit"",""2"",""3989""
","
","
","""event"",""trial"",""time""
""fullscreenenter"",""1"",""2970""
","""event"",""trial"",""time""
""fullscreenexit"",""2"",""3989""
","","[{""page_index"":0,""viewing_time"":11080.899999976158},{""page_index"":1,""viewing_time"":5952.200000047684},{""page_index"":2,""viewing_time"":2279.899999976158},{""page_index"":1,""viewing_time"":9528.600000023842},{""page_index"":2,""viewing_time"":13784.399999976158},{""page_index"":3,""viewing_time"":8360.299999952316},{""page_index"":4,""viewing_time"":6581.600000023842},{""page_index"":5,""viewing_time"":6466.600000023842},{""page_index"":4,""viewing_time"":8184.399999976158},{""page_index"":5,""viewing_time"":9392.299999952316},{""page_index"":6,""viewing_time"":9856.400000095367},{""page_index"":7,""viewing_time"":8160.299999952316},{""page_index"":8,""viewing_time"":4448}]","104076.10000002384","","","","","","","","","","","","","","","","","","","","","","","",""
"pit-comprehension","103","893891","0.0-2.0-20.0-0.0","battery-v0.2","","""event"",""trial"",""time""
""fullscreenenter"",""1"",""2970""
""fullscreenexit"",""2"",""3989""
","
","
","""event"",""trial"",""time""
""fullscreenenter"",""1"",""2970""
","""event"",""trial"",""time""
""fullscreenexit"",""2"",""3989""
","","","7597.100000023842","[""SPACE""]","0","11","5964","3456","","","","","","","","","","","","","","","","","","",""
"pit-instructions","104","897051","0.0-2.0-20.0-1.0","battery-v0.2","","""event"",""trial"",""time""
""fullscreenenter"",""1"",""2970""
""fullscreenexit"",""2"",""3989""
","
","
","""event"",""trial"",""time""
""fullscreenenter"",""1"",""2970""
","""event"",""trial"",""time""
""fullscreenexit"",""2"",""3989""
","","[{""page_index"":0,""viewing_time"":3129}]","3129.100000023842","","","","","","","","","","","","","","","","","","","","","","","",""
"pit-comprehension","105","905795","0.0-2.0-21.0-0.0","battery-v0.2","","""event"",""trial"",""time""
""fullscreenenter"",""1"",""2970""
""fullscreenexit"",""2"",""3989""
","
","
","""event"",""trial"",""time""
""fullscreenenter"",""1"",""2970""
","""event"",""trial"",""time""
""fullscreenexit"",""2"",""3989""
","","","8741.399999976158","[""10""]","0","11","5964","3456","","","","","","","","","","","","","","","","","","",""
"pit-instructions","106","908027","0.0-2.0-21.0-1.0","battery-v0.2","","""event"",""trial"",""time""
""fullscreenenter"",""1"",""2970""
""fullscreenexit"",""2"",""3989""
","
","
","""event"",""trial"",""time""
""fullscreenenter"",""1"",""2970""
","""event"",""trial"",""time""
""fullscreenexit"",""2"",""3989""
","","[{""page_index"":0,""viewing_time"":2202.1999999284744}]","2202.2999999523163","","","","","","","","","","","","","","","","","","","","","","","",""
"pit-comprehension","107","917044","0.0-2.0-22.0-0.0","battery-v0.2","","""event"",""trial"",""time""
""fullscreenenter"",""1"",""2970""
""fullscreenexit"",""2"",""3989""
","
","
","""event"",""trial"",""time""
""fullscreenenter"",""1"",""2970""
","""event"",""trial"",""time""
""fullscreenexit"",""2"",""3989""
","","","9013.599999904633","[""0""]","0","11","5964","3456","","","","","","","","","","","","","","","","","","",""
"pit-instructions","108","918731","0.0-2.0-22.0-1.0","battery-v0.2","","""event"",""trial"",""time""
""fullscreenenter"",""1"",""2970""
""fullscreenexit"",""2"",""3989""
","
","
","""event"",""trial"",""time""
""fullscreenenter"",""1"",""2970""
","""event"",""trial"",""time""
""fullscreenexit"",""2"",""3989""
","","[{""page_index"":0,""viewing_time"":1657}]","1657.1000000238419","","","","","","","","","","","","","","","","","","","","","","","",""
"pit-comprehension","109","934780","0.0-2.0-23.0-0.0","battery-v0.2","","""event"",""trial"",""time""
""fullscreenenter"",""1"",""2970""
""fullscreenexit"",""2"",""3989""
","
","
","""event"",""trial"",""time""
""fullscreenenter"",""1"",""2970""
","""event"",""trial"",""time""
""fullscreenexit"",""2"",""3989""
","","","16045.899999976158","[""True""]","0","11","5964","3456","","","","","","","","","","","","","","","","","","",""
"pit-instructions","110","937204","0.0-2.0-23.0-1.0","battery-v0.2","","""event"",""trial"",""time""
""fullscreenenter"",""1"",""2970""
""fullscreenexit"",""2"",""3989""
","
","
","""event"",""trial"",""time""
""fullscreenenter"",""1"",""2970""
","""event"",""trial"",""time""
""fullscreenexit"",""2"",""3989""
","","[{""page_index"":0,""viewing_time"":2392.8000000715256}]","2393","","","","","","","","","","","","","","","","","","","","","","","",""
"pit-comprehension","111","944933","0.0-2.0-24.0-0.0","battery-v0.2","","""event"",""trial"",""time""
""fullscreenenter"",""1"",""2970""
""fullscreenexit"",""2"",""3989""
","
","
","""event"",""trial"",""time""
""fullscreenenter"",""1"",""2970""
","""event"",""trial"",""time""
""fullscreenexit"",""2"",""3989""
","","","7725.700000047684","[""True""]","0","11","5964","3456","","","","","","","","","","","","","","","","","","",""
"pit-instructions","112","946668","0.0-2.0-24.0-1.0","battery-v0.2","","""event"",""trial"",""time""
""fullscreenenter"",""1"",""2970""
""fullscreenexit"",""2"",""3989""
","
","
","""event"",""trial"",""time""
""fullscreenenter"",""1"",""2970""
","""event"",""trial"",""time""
""fullscreenexit"",""2"",""3989""
","","[{""page_index"":0,""viewing_time"":1704.2999999523163}]","1704.3999999761581","","","","","","","","","","","","","","","","","","","","","","","",""
"pit-comprehension","113","953557","0.0-2.0-25.0-0.0","battery-v0.2","","""event"",""trial"",""time""
""fullscreenenter"",""1"",""2970""
""fullscreenexit"",""2"",""3989""
","
","
","""event"",""trial"",""time""
""fullscreenenter"",""1"",""2970""
","""event"",""trial"",""time""
""fullscreenexit"",""2"",""3989""
","","","6885.799999952316","[""True""]","0","11","5964","3456","","","","","","","","","","","","","","","","","","",""
"pit-instructions","114","955244","0.0-2.0-25.0-1.0","battery-v0.2","","""event"",""trial"",""time""
""fullscreenenter"",""1"",""2970""
""fullscreenexit"",""2"",""3989""
","
","
","""event"",""trial"",""time""
""fullscreenenter"",""1"",""2970""
","""event"",""trial"",""time""
""fullscreenexit"",""2"",""3989""
","","[{""page_index"":0,""viewing_time"":1657.0999999046326}]","1657.1999999284744","","","","","","","","","","","","","","","","","","","","","","","",""
"pit-comprehension","115","961333","0.0-2.0-26.0-0.0","battery-v0.2","","""event"",""trial"",""time""
""fullscreenenter"",""1"",""2970""
""fullscreenexit"",""2"",""3989""
","
","
","""event"",""trial"",""time""
""fullscreenenter"",""1"",""2970""
","""event"",""trial"",""time""
""fullscreenexit"",""2"",""3989""
","","","6085.700000047684","[""False""]","0","11","5964","3456","","","","","","","","","","","","","","","","","","",""
"pit-instructions","116","963205","0.0-2.0-26.0-1.0","battery-v0.2","","""event"",""trial"",""time""
""fullscreenenter"",""1"",""2970""
""fullscreenexit"",""2"",""3989""
","
","
","""event"",""trial"",""time""
""fullscreenenter"",""1"",""2970""
","""event"",""trial"",""time""
""fullscreenexit"",""2"",""3989""
","","[{""page_index"":0,""viewing_time"":1840}]","1840.1000000238419","","","","","","","","","","","","","","","","","","","","","","","",""
"pit-instructions","117","993422","0.0-3.0","battery-v0.2","","""event"",""trial"",""time""
""fullscreenenter"",""1"",""2970""
""fullscreenexit"",""2"",""3989""
","
","
","""event"",""trial"",""time""
""fullscreenenter"",""1"",""2970""
","""event"",""trial"",""time""
""fullscreenexit"",""2"",""3989""
","","[{""page_index"":0,""viewing_time"":15197.700000047684},{""page_index"":1,""viewing_time"":6096.199999928474},{""page_index"":2,""viewing_time"":8920.300000071526}]","30214.300000071526","","","","","","","","","","","","","","","","","","","","","","","",""
"pit-trial","118","997171","0.0-4.0","battery-v0.2","","""event"",""trial"",""time""
""fullscreenenter"",""1"",""2970""
""fullscreenexit"",""2"",""3989""
","
","
","""event"",""trial"",""time""
""fullscreenenter"",""1"",""2970""
","""event"",""trial"",""time""
""fullscreenexit"",""2"",""3989""
","","","886.7000000476837","","","11","5964","3456","&#9733;","elianto","#3366ff99","-1"," ","0","0","[1737.8999999761581]","1","1","","","5964","1","2","2","win","no-go","0"
"pit-trial","119","1000991","0.0-5.0","battery-v0.2","","""event"",""trial"",""time""
""fullscreenenter"",""1"",""2970""
""fullscreenexit"",""2"",""3989""
","
","
","""event"",""trial"",""time""
""fullscreenenter"",""1"",""2970""
","""event"",""trial"",""time""
""fullscreenexit"",""2"",""3989""
","","","936.5","","","11","5964","3456","&#9730;","elianto","#3366ff99"," "," ","1","+10","[1797.5]","1","1","","","5964","2","1","1","win","go","0"
"pit-trial","120","1005892","0.0-6.0","battery-v0.2","","""event"",""trial"",""time""
""fullscreenenter"",""1"",""2970""
""fullscreenexit"",""2"",""3989""
","
","
","""event"",""trial"",""time""
""fullscreenenter"",""1"",""2970""
","""event"",""trial"",""time""
""fullscreenexit"",""2"",""3989""
","","","-1","","","11","5964","3456","&#9752;","elianto","#f73b6a7A"," ","-1","0","-10","[]","0","1","","","5964","3","3","3","lose","go","0"
"pit-trial","121","1010791","0.0-7.0","battery-v0.2","","""event"",""trial"",""time""
""fullscreenenter"",""1"",""2970""
""fullscreenexit"",""2"",""3989""
","
","
","""event"",""trial"",""time""
""fullscreenenter"",""1"",""2970""
","""event"",""trial"",""time""
""fullscreenexit"",""2"",""3989""
","","","-1","","","11","5964","3456","&#9728;","elianto","#f73b6a7A","-1","-1","1","0","[2970.1999999284744]","1","1","","","5964","4","0","4","lose","no-go","0"
"pit-trial","122","1015154","0.0-8.0","battery-v0.2","","""event"",""trial"",""time""
""fullscreenenter"",""1"",""2970""
""fullscreenexit"",""2"",""3989""
","
","
","""event"",""trial"",""time""
""fullscreenenter"",""1"",""2970""
","""event"",""trial"",""time""
""fullscreenexit"",""2"",""3989""
","","","1475","","","11","5964","3456","&#9733;","elianto","#3366ff99","-1"," ","0","+10","[2337.9000000953674]","1","1","","","5964","5","2","2","win","no-go","1"
"pit-trial","123","1019734","0.0-9.0","battery-v0.2","","""event"",""trial"",""time""
""fullscreenenter"",""1"",""2970""
""fullscreenexit"",""2"",""3989""
","
","
","""event"",""trial"",""time""
""fullscreenenter"",""1"",""2970""
","""event"",""trial"",""time""
""fullscreenexit"",""2"",""3989""
","","","1695.8999999761581","","","11","5964","3456","&#9728;","elianto","#f73b6a7A","-1"," ","0","-10","[2566.0999999046326]","1","1","","","5964","6","0","4","lose","no-go","0"
"pit-trial","124","1024602","0.0-10.0","battery-v0.2","","""event"",""trial"",""time""
""fullscreenenter"",""1"",""2970""
""fullscreenexit"",""2"",""3989""
","
","
","""event"",""trial"",""time""
""fullscreenenter"",""1"",""2970""
","""event"",""trial"",""time""
""fullscreenexit"",""2"",""3989""
","","","-1","","","11","5964","3456","&#9752;","elianto","#f73b6a7A"," ","-1","0","-10","[]","0","1","","","5964","7","3","3","lose","go","0"
"pit-trial","125","1028606","0.0-11.0","battery-v0.2","","""event"",""trial"",""time""
""fullscreenenter"",""1"",""2970""
""fullscreenexit"",""2"",""3989""
","
","
","""event"",""trial"",""time""
""fullscreenenter"",""1"",""2970""
","""event"",""trial"",""time""
""fullscreenexit"",""2"",""3989""
","","","1133.3999999761581","","","11","5964","3456","&#9730;","elianto","#3366ff99"," "," ","1","+10","[1990.6999999284744]","1","1","","","5964","8","1","1","win","go","0"
"pit-trial","126","1032873","0.0-12.0","battery-v0.2","","""event"",""trial"",""time""
""fullscreenenter"",""1"",""2970""
""fullscreenexit"",""2"",""3989""
","
","
","""event"",""trial"",""time""
""fullscreenenter"",""1"",""2970""
","""event"",""trial"",""time""
""fullscreenexit"",""2"",""3989""
","","","1404.8000000715256","","","11","5964","3456","&#9752;","elianto","#f73b6a7A"," "," ","1","0","[2257]","1","1","","","5964","9","3","3","lose","go","0"
"pit-trial","127","1037057","0.0-13.0","battery-v0.2","","""event"",""trial"",""time""
""fullscreenenter"",""1"",""2970""
""fullscreenexit"",""2"",""3989""
","
","
","""event"",""trial"",""time""
""fullscreenenter"",""1"",""2970""
","""event"",""trial"",""time""
""fullscreenexit"",""2"",""3989""
","","","1325.3000000715256","","","11","5964","3456","&#9728;","elianto","#f73b6a7A","-1"," ","0","0","[2176]","1","1","","","5964","10","0","4","lose","no-go","1"
"pit-trial","128","1040834","0.0-14.0","battery-v0.2","","""event"",""trial"",""time""
""fullscreenenter"",""1"",""2970""
""fullscreenexit"",""2"",""3989""
","
","
","""event"",""trial"",""time""
""fullscreenenter"",""1"",""2970""
","""event"",""trial"",""time""
""fullscreenexit"",""2"",""3989""
","","","917.7000000476837","","","11","5964","3456","&#9730;","elianto","#3366ff99"," "," ","1","+10","[1771.1999999284744]","1","1","","","5964","11","1","1","win","go","0"
"pit-trial","129","1044785","0.0-15.0","battery-v0.2","","""event"",""trial"",""time""
""fullscreenenter"",""1"",""2970""
""fullscreenexit"",""2"",""3989""
","
","
","""event"",""trial"",""time""
""fullscreenenter"",""1"",""2970""
","""event"",""trial"",""time""
""fullscreenexit"",""2"",""3989""
","","","1092.6000000238419","","","11","5964","3456","&#9733;","elianto","#3366ff99","-1"," ","0","0","[1942.9000000953674]","1","1","","","5964","12","2","2","win","no-go","0"
"pit-trial","130","1049649","0.0-16.0","battery-v0.2","","""event"",""trial"",""time""
""fullscreenenter"",""1"",""2970""
""fullscreenexit"",""2"",""3989""
","
","
","""event"",""trial"",""time""
""fullscreenenter"",""1"",""2970""
","""event"",""trial"",""time""
""fullscreenexit"",""2"",""3989""
","","","-1","","","11","5964","3456","&#9733;","elianto","#3366ff99","-1","-1","1","+10","[]","0","1","","","5964","13","2","2","win","no-go","0"
"pit-trial","131","1053722","0.0-17.0","battery-v0.2","","""event"",""trial"",""time""
""fullscreenenter"",""1"",""2970""
""fullscreenexit"",""2"",""3989""
","
","
","""event"",""trial"",""time""
""fullscreenenter"",""1"",""2970""
","""event"",""trial"",""time""
""fullscreenexit"",""2"",""3989""
","","","1204.3999999761581","","","11","5964","3456","&#9730;","elianto","#3366ff99"," "," ","1","+10","[714,2063.0999999046326]","2","1","","","5964","14","1","1","win","go","0"
"pit-trial","132","1058586","0.0-18.0","battery-v0.2","","""event"",""trial"",""time""
""fullscreenenter"",""1"",""2970""
""fullscreenexit"",""2"",""3989""
","
","
","""event"",""trial"",""time""
""fullscreenenter"",""1"",""2970""
","""event"",""trial"",""time""
""fullscreenexit"",""2"",""3989""
","","","-1","","","11","5964","3456","&#9728;","elianto","#f73b6a7A","-1","-1","1","0","[]","0","1","","","5964","15","0","4","lose","no-go","0"
"pit-trial","133","1062882","0.0-19.0","battery-v0.2","","""event"",""trial"",""time""
""fullscreenenter"",""1"",""2970""
""fullscreenexit"",""2"",""3989""
","
","
","""event"",""trial"",""time""
""fullscreenenter"",""1"",""2970""
","""event"",""trial"",""time""
""fullscreenexit"",""2"",""3989""
","","","1437.6000000238419","","","11","5964","3456","&#9752;","elianto","#f73b6a7A"," "," ","1","0","[2288.5]","1","1","","","5964","16","3","3","lose","go","0"
"pit-trial","134","1067753","0.0-20.0","battery-v0.2","","""event"",""trial"",""time""
""fullscreenenter"",""1"",""2970""
""fullscreenexit"",""2"",""3989""
","
","
","""event"",""trial"",""time""
""fullscreenenter"",""1"",""2970""
","""event"",""trial"",""time""
""fullscreenexit"",""2"",""3989""
","","","-1","","","11","5964","3456","&#9728;","elianto","#f73b6a7A","-1","-1","1","0","[]","0","1","","","5964","17","0","4","lose","no-go","0"
"pit-trial","135","1071626","0.0-21.0","battery-v0.2","","""event"",""trial"",""time""
""fullscreenenter"",""1"",""2970""
""fullscreenexit"",""2"",""3989""
","
","
","""event"",""trial"",""time""
""fullscreenenter"",""1"",""2970""
","""event"",""trial"",""time""
""fullscreenexit"",""2"",""3989""
","","","1006.5","","","11","5964","3456","&#9730;","elianto","#3366ff99"," "," ","1","+10","[1864]","1","1","","","5964","18","1","1","win","go","0"
"pit-trial","136","1075594","0.0-22.0","battery-v0.2","","""event"",""trial"",""time""
""fullscreenenter"",""1"",""2970""
""fullscreenexit"",""2"",""3989""
","
","
","""event"",""trial"",""time""
""fullscreenenter"",""1"",""2970""
","""event"",""trial"",""time""
""fullscreenexit"",""2"",""3989""
","","","1102.9000000953674","","","11","5964","3456","&#9752;","elianto","#f73b6a7A"," "," ","1","-10","[1955.3000000715256]","1","1","","","5964","19","3","3","lose","go","1"
"pit-trial","137","1080459","0.0-23.0","battery-v0.2","","""event"",""trial"",""time""
""fullscreenenter"",""1"",""2970""
""fullscreenexit"",""2"",""3989""
","
","
","""event"",""trial"",""time""
""fullscreenenter"",""1"",""2970""
","""event"",""trial"",""time""
""fullscreenexit"",""2"",""3989""
","","","-1","","","11","5964","3456","&#9733;","elianto","#3366ff99","-1","-1","1","+10","[]","0","1","","","5964","20","2","2","win","no-go","0"
"pit-instructions","138","1098348","0.0-24.0","battery-v0.2","","""event"",""trial"",""time""
""fullscreenenter"",""1"",""2970""
""fullscreenexit"",""2"",""3989""
","
","
","""event"",""trial"",""time""
""fullscreenenter"",""1"",""2970""
","""event"",""trial"",""time""
""fullscreenexit"",""2"",""3989""
","","[{""page_index"":0,""viewing_time"":6995},{""page_index"":1,""viewing_time"":10888.200000047684}]","17883.400000095367","","","","","","","","","","","","","","","","","","","","","","","",""
"pit-trial","139","1102038","0.0-25.0","battery-v0.2","","""event"",""trial"",""time""
""fullscreenenter"",""1"",""2970""
""fullscreenexit"",""2"",""3989""
","
","
","""event"",""trial"",""time""
""fullscreenenter"",""1"",""2970""
","""event"",""trial"",""time""
""fullscreenexit"",""2"",""3989""
","","","823","","","11","5964","3456","l","elianto","#3366ff99","-1"," ","0","0","[1674.5]","1","2","","","5964","21","1","2","win","no-go","0"
"pit-trial","140","1106258","0.0-26.0","battery-v0.2","","""event"",""trial"",""time""
""fullscreenenter"",""1"",""2970""
""fullscreenexit"",""2"",""3989""
","
","
","""event"",""trial"",""time""
""fullscreenenter"",""1"",""2970""
","""event"",""trial"",""time""
""fullscreenexit"",""2"",""3989""
","","","1332.5","","","11","5964","3456","u","elianto","#f73b6a7A"," "," ","1","0","[2196.399999976158]","1","2","","","5964","22","0","3","lose","go","0"
"pit-trial","141","1110297","0.0-27.0","battery-v0.2","","""event"",""trial"",""time""
""fullscreenenter"",""1"",""2970""
""fullscreenexit"",""2"",""3989""
","
","
","""event"",""trial"",""time""
""fullscreenenter"",""1"",""2970""
","""event"",""trial"",""time""
""fullscreenexit"",""2"",""3989""
","","","1148","","","11","5964","3456","g","elianto","#f73b6a7A","-1"," ","0","-10","[2010.1000000238419]","1","2","","","5964","23","3","4","lose","no-go","0"
"pit-trial","142","1114108","0.0-28.0","battery-v0.2","","""event"",""trial"",""time""
""fullscreenenter"",""1"",""2970""
""fullscreenexit"",""2"",""3989""
","
","
","""event"",""trial"",""time""
""fullscreenenter"",""1"",""2970""
","""event"",""trial"",""time""
""fullscreenexit"",""2"",""3989""
","","","926.2999999523163","","","11","5964","3456","a","elianto","#f73b6a7A"," "," ","1","0","[1786.5]","1","2","","","5964","24","2","3","lose","go","0"
"pit-trial","143","1118998","0.0-29.0","battery-v0.2","","""event"",""trial"",""time""
""fullscreenenter"",""1"",""2970""
""fullscreenexit"",""2"",""3989""
","
","
","""event"",""trial"",""time""
""fullscreenenter"",""1"",""2970""
","""event"",""trial"",""time""
""fullscreenexit"",""2"",""3989""
","","","-1","","","11","5964","3456","u","elianto","#f73b6a7A"," ","-1","0","-10","[]","0","2","","","5964","25","0","3","lose","go","0"
"pit-trial","144","1122988","0.0-30.0","battery-v0.2","","""event"",""trial"",""time""
""fullscreenenter"",""1"",""2970""
""fullscreenexit"",""2"",""3989""
","
","
","""event"",""trial"",""time""
""fullscreenenter"",""1"",""2970""
","""event"",""trial"",""time""
""fullscreenexit"",""2"",""3989""
","","","1104.3999999761581","","","11","5964","3456","l","elianto","#3366ff99","-1"," ","0","0","[1957.8999999761581]","1","2","","","5964","26","1","2","win","no-go","0"
"pit-trial","145","1127859","0.0-31.0","battery-v0.2","","""event"",""trial"",""time""
""fullscreenenter"",""1"",""2970""
""fullscreenexit"",""2"",""3989""
","
","
","""event"",""trial"",""time""
""fullscreenenter"",""1"",""2970""
","""event"",""trial"",""time""
""fullscreenexit"",""2"",""3989""
","","","-1","","","11","5964","3456","g","elianto","#f73b6a7A","-1","-1","1","0","[]","0","2","","","5964","27","3","4","lose","no-go","0"
"pit-trial","146","1132732","0.0-32.0","battery-v0.2","","""event"",""trial"",""time""
""fullscreenenter"",""1"",""2970""
""fullscreenexit"",""2"",""3989""
","
","
","""event"",""trial"",""time""
""fullscreenenter"",""1"",""2970""
","""event"",""trial"",""time""
""fullscreenexit"",""2"",""3989""
","","","-1","","","11","5964","3456","a","elianto","#f73b6a7A"," ","-1","0","-10","[]","0","2","","","5964","28","2","3","lose","go","0"
"pit-trial","147","1137161","0.0-33.0","battery-v0.2","","""event"",""trial"",""time""
""fullscreenenter"",""1"",""2970""
""fullscreenexit"",""2"",""3989""
","
","
","""event"",""trial"",""time""
""fullscreenenter"",""1"",""2970""
","""event"",""trial"",""time""
""fullscreenexit"",""2"",""3989""
","","","1565.2999999523163","","","11","5964","3456","u","elianto","#f73b6a7A"," "," ","1","0","[2416.2999999523163]","1","2","","","5964","29","0","3","lose","go","0"
"pit-trial","148","1141714","0.0-34.0","battery-v0.2","","""event"",""trial"",""time""
""fullscreenenter"",""1"",""2970""
""fullscreenexit"",""2"",""3989""
","
","
","""event"",""trial"",""time""
""fullscreenenter"",""1"",""2970""
","""event"",""trial"",""time""
""fullscreenexit"",""2"",""3989""
","","","1681.5","","","11","5964","3456","a","elianto","#f73b6a7A"," "," ","1","0","[2534.3000000715256]","1","2","","","5964","30","2","3","lose","go","0"
"pit-trial","149","1146145","0.0-35.0","battery-v0.2","","""event"",""trial"",""time""
""fullscreenenter"",""1"",""2970""
""fullscreenexit"",""2"",""3989""
","
","
","""event"",""trial"",""time""
""fullscreenenter"",""1"",""2970""
","""event"",""trial"",""time""
""fullscreenexit"",""2"",""3989""
","","","1559.1000000238419","","","11","5964","3456","l","elianto","#3366ff99","-1"," ","0","0","[2417.899999976158]","1","2","","","5964","31","1","2","win","no-go","0"
"pit-trial","150","1151009","0.0-36.0","battery-v0.2","","""event"",""trial"",""time""
""fullscreenenter"",""1"",""2970""
""fullscreenexit"",""2"",""3989""
","
","
","""event"",""trial"",""time""
""fullscreenenter"",""1"",""2970""
","""event"",""trial"",""time""
""fullscreenexit"",""2"",""3989""
","","","-1","","","11","5964","3456","g","elianto","#f73b6a7A","-1","-1","1","0","[]","0","2","","","5964","32","3","4","lose","no-go","0"
"pit-trial","151","1154858","0.0-37.0","battery-v0.2","","""event"",""trial"",""time""
""fullscreenenter"",""1"",""2970""
""fullscreenexit"",""2"",""3989""
","
","
","""event"",""trial"",""time""
""fullscreenenter"",""1"",""2970""
","""event"",""trial"",""time""
""fullscreenexit"",""2"",""3989""
","","","978.6000000238419","","","11","5964","3456","l","elianto","#3366ff99","-1"," ","0","+10","[1835]","1","2","","","5964","33","1","2","win","no-go","1"
"pit-trial","152","1158594","0.0-38.0","battery-v0.2","","""event"",""trial"",""time""
""fullscreenenter"",""1"",""2970""
""fullscreenexit"",""2"",""3989""
","
","
","""event"",""trial"",""time""
""fullscreenenter"",""1"",""2970""
","""event"",""trial"",""time""
""fullscreenexit"",""2"",""3989""
","","","864.8999999761581","","","11","5964","3456","u","elianto","#f73b6a7A"," "," ","1","0","[1721.8999999761581]","1","2","","","5964","34","0","3","lose","go","0"
"pit-trial","153","1163465","0.0-39.0","battery-v0.2","","""event"",""trial"",""time""
""fullscreenenter"",""1"",""2970""
""fullscreenexit"",""2"",""3989""
","
","
","""event"",""trial"",""time""
""fullscreenenter"",""1"",""2970""
","""event"",""trial"",""time""
""fullscreenexit"",""2"",""3989""
","","","-1","","","11","5964","3456","g","elianto","#f73b6a7A","-1","-1","1","0","[]","0","2","","","5964","35","3","4","lose","no-go","0"
"pit-trial","154","1167899","0.0-40.0","battery-v0.2","","""event"",""trial"",""time""
""fullscreenenter"",""1"",""2970""
""fullscreenexit"",""2"",""3989""
","
","
","""event"",""trial"",""time""
""fullscreenenter"",""1"",""2970""
","""event"",""trial"",""time""
""fullscreenexit"",""2"",""3989""
","","","1559.3000000715256","","","11","5964","3456","a","elianto","#f73b6a7A"," "," ","1","0","[2409.600000023842]","1","2","","","5964","36","2","3","lose","go","0"
"pit-trial","155","1171698","0.0-41.0","battery-v0.2","","""event"",""trial"",""time""
""fullscreenenter"",""1"",""2970""
""fullscreenexit"",""2"",""3989""
","
","
","""event"",""trial"",""time""
""fullscreenenter"",""1"",""2970""
","""event"",""trial"",""time""
""fullscreenexit"",""2"",""3989""
","","","934.6999999284744","","","11","5964","3456","l","elianto","#3366ff99","-1"," ","0","0","[1786.0999999046326]","1","2","","","5964","37","1","2","win","no-go","0"
"pit-trial","156","1175449","0.0-42.0","battery-v0.2","","""event"",""trial"",""time""
""fullscreenenter"",""1"",""2970""
""fullscreenexit"",""2"",""3989""
","
","
","""event"",""trial"",""time""
""fullscreenenter"",""1"",""2970""
","""event"",""trial"",""time""
""fullscreenexit"",""2"",""3989""
","","","882.8999999761581","","","11","5964","3456","u","elianto","#f73b6a7A"," "," ","1","0","[1739.1999999284744]","1","2","","","5964","38","0","3","lose","go","0"
"pit-trial","157","1180322","0.0-43.0","battery-v0.2","","""event"",""trial"",""time""
""fullscreenenter"",""1"",""2970""
""fullscreenexit"",""2"",""3989""
","
","
","""event"",""trial"",""time""
""fullscreenenter"",""1"",""2970""
","""event"",""trial"",""time""
""fullscreenexit"",""2"",""3989""
","","","-1","","","11","5964","3456","g","elianto","#f73b6a7A","-1","-1","1","0","[]","0","2","","","5964","39","3","4","lose","no-go","0"
"pit-trial","158","1184322","0.0-44.0","battery-v0.2","","""event"",""trial"",""time""
""fullscreenenter"",""1"",""2970""
""fullscreenexit"",""2"",""3989""
","
","
","""event"",""trial"",""time""
""fullscreenenter"",""1"",""2970""
","""event"",""trial"",""time""
""fullscreenexit"",""2"",""3989""
","","","1129.3999999761581","","","11","5964","3456","a","elianto","#f73b6a7A"," "," ","1","0","[1984]","1","2","","","5964","40","2","3","lose","go","0"
"pit-trial","159","1189193","0.0-45.0","battery-v0.2","","""event"",""trial"",""time""
""fullscreenenter"",""1"",""2970""
""fullscreenexit"",""2"",""3989""
","
","
","""event"",""trial"",""time""
""fullscreenenter"",""1"",""2970""
","""event"",""trial"",""time""
""fullscreenexit"",""2"",""3989""
","","","-1","","","11","5964","3456","g","elianto","#f73b6a7A","-1","-1","1","-10","[]","0","2","","","5964","41","3","4","lose","no-go","1"
"pit-trial","160","1193074","0.0-46.0","battery-v0.2","","""event"",""trial"",""time""
""fullscreenenter"",""1"",""2970""
""fullscreenexit"",""2"",""3989""
","
","
","""event"",""trial"",""time""
""fullscreenenter"",""1"",""2970""
","""event"",""trial"",""time""
""fullscreenexit"",""2"",""3989""
","","","1020.1999999284744","","","11","5964","3456","a","elianto","#f73b6a7A"," "," ","1","0","[1872.1000000238419]","1","2","","","5964","42","2","3","lose","go","0"
"pit-trial","161","1197065","0.0-47.0","battery-v0.2","","""event"",""trial"",""time""
""fullscreenenter"",""1"",""2970""
""fullscreenexit"",""2"",""3989""
","
","
","""event"",""trial"",""time""
""fullscreenenter"",""1"",""2970""
","""event"",""trial"",""time""
""fullscreenexit"",""2"",""3989""
","","","1122.2000000476837","","","11","5964","3456","u","elianto","#f73b6a7A"," "," ","1","0","[1980.6000000238419]","1","2","","","5964","43","0","3","lose","go","0"
"pit-trial","162","1200810","0.0-48.0","battery-v0.2","","""event"",""trial"",""time""
""fullscreenenter"",""1"",""2970""
""fullscreenexit"",""2"",""3989""
","
","
","""event"",""trial"",""time""
""fullscreenenter"",""1"",""2970""
","""event"",""trial"",""time""
""fullscreenexit"",""2"",""3989""
","","","881.2999999523163","","","11","5964","3456","l","elianto","#3366ff99","-1"," ","0","0","[1733.1999999284744]","1","2","","","5964","44","1","2","win","no-go","0"
"pit-trial","163","1205682","0.0-49.0","battery-v0.2","","""event"",""trial"",""time""
""fullscreenenter"",""1"",""2970""
""fullscreenexit"",""2"",""3989""
","
","
","""event"",""trial"",""time""
""fullscreenenter"",""1"",""2970""
","""event"",""trial"",""time""
""fullscreenexit"",""2"",""3989""
","","","-1","","","11","5964","3456","g","elianto","#f73b6a7A","-1","-1","1","0","[]","0","2","","","5964","45","3","4","lose","no-go","0"
"pit-trial","164","1209330","0.0-50.0","battery-v0.2","","""event"",""trial"",""time""
""fullscreenenter"",""1"",""2970""
""fullscreenexit"",""2"",""3989""
","
","
","""event"",""trial"",""time""
""fullscreenenter"",""1"",""2970""
","""event"",""trial"",""time""
""fullscreenexit"",""2"",""3989""
","","","779.6000000238419","","","11","5964","3456","a","elianto","#f73b6a7A"," "," ","1","0","[1632.8999999761581]","1","2","","","5964","46","2","3","lose","go","0"
"pit-trial","165","1214194","0.0-51.0","battery-v0.2","","""event"",""trial"",""time""
""fullscreenenter"",""1"",""2970""
""fullscreenexit"",""2"",""3989""
","
","
","""event"",""trial"",""time""
""fullscreenenter"",""1"",""2970""
","""event"",""trial"",""time""
""fullscreenexit"",""2"",""3989""
","","","-1","","","11","5964","3456","l","elianto","#3366ff99","-1","-1","1","0","[]","0","2","","","5964","47","1","2","win","no-go","1"
"pit-trial","166","1218234","0.0-52.0","battery-v0.2","","""event"",""trial"",""time""
""fullscreenenter"",""1"",""2970""
""fullscreenexit"",""2"",""3989""
","
","
","""event"",""trial"",""time""
""fullscreenenter"",""1"",""2970""
","""event"",""trial"",""time""
""fullscreenexit"",""2"",""3989""
","","","1171.2999999523163","","","11","5964","3456","u","elianto","#f73b6a7A"," "," ","1","-10","[2027.0999999046326]","1","2","","","5964","48","0","3","lose","go","1"
"pit-trial","167","1222163","0.0-53.0","battery-v0.2","","""event"",""trial"",""time""
""fullscreenenter"",""1"",""2970""
""fullscreenexit"",""2"",""3989""
","
","
","""event"",""trial"",""time""
""fullscreenenter"",""1"",""2970""
","""event"",""trial"",""time""
""fullscreenexit"",""2"",""3989""
","","","1058.2000000476837","","","11","5964","3456","a","elianto","#f73b6a7A"," "," ","1","0","[1917.1000000238419]","1","2","","","5964","49","2","3","lose","go","0"
"pit-trial","168","1227034","0.0-54.0","battery-v0.2","","""event"",""trial"",""time""
""fullscreenenter"",""1"",""2970""
""fullscreenexit"",""2"",""3989""
","
","
","""event"",""trial"",""time""
""fullscreenenter"",""1"",""2970""
","""event"",""trial"",""time""
""fullscreenexit"",""2"",""3989""
","","","-1","","","11","5964","3456","g","elianto","#f73b6a7A","-1","-1","1","0","[]","0","2","","","5964","50","3","4","lose","no-go","0"
"pit-trial","169","1231083","0.0-55.0","battery-v0.2","","""event"",""trial"",""time""
""fullscreenenter"",""1"",""2970""
""fullscreenexit"",""2"",""3989""
","
","
","""event"",""trial"",""time""
""fullscreenenter"",""1"",""2970""
","""event"",""trial"",""time""
""fullscreenexit"",""2"",""3989""
","","","1180.6000000238419","","","11","5964","3456","l","elianto","#3366ff99","-1"," ","0","+10","[2037.7999999523163]","1","2","","","5964","51","1","2","win","no-go","1"
"pit-trial","170","1234939","0.0-56.0","battery-v0.2","","""event"",""trial"",""time""
""fullscreenenter"",""1"",""2970""
""fullscreenexit"",""2"",""3989""
","
","
","""event"",""trial"",""time""
""fullscreenenter"",""1"",""2970""
","""event"",""trial"",""time""
""fullscreenexit"",""2"",""3989""
","","","988","","","11","5964","3456","u","elianto","#f73b6a7A"," "," ","1","0","[1844.7999999523163]","1","2","","","5964","52","0","3","lose","go","0"
"pit-trial","171","1238578","0.0-57.0","battery-v0.2","","""event"",""trial"",""time""
""fullscreenenter"",""1"",""2970""
""fullscreenexit"",""2"",""3989""
","
","
","""event"",""trial"",""time""
""fullscreenenter"",""1"",""2970""
","""event"",""trial"",""time""
""fullscreenexit"",""2"",""3989""
","","","776.3999999761581","","","11","5964","3456","u","elianto","#f73b6a7A"," "," ","1","0","[1627.5]","1","2","","","5964","53","0","3","lose","go","0"
"pit-trial","172","1242243","0.0-58.0","battery-v0.2","","""event"",""trial"",""time""
""fullscreenenter"",""1"",""2970""
""fullscreenexit"",""2"",""3989""
","
","
","""event"",""trial"",""time""
""fullscreenenter"",""1"",""2970""
","""event"",""trial"",""time""
""fullscreenexit"",""2"",""3989""
","","","803.2000000476837","","","11","5964","3456","a","elianto","#f73b6a7A"," "," ","1","0","[1653.3999999761581]","1","2","","","5964","54","2","3","lose","go","0"
"pit-trial","173","1247114","0.0-59.0","battery-v0.2","","""event"",""trial"",""time""
""fullscreenenter"",""1"",""2970""
""fullscreenexit"",""2"",""3989""
","
","
","""event"",""trial"",""time""
""fullscreenenter"",""1"",""2970""
","""event"",""trial"",""time""
""fullscreenexit"",""2"",""3989""
","","","-1","","","11","5964","3456","g","elianto","#f73b6a7A","-1","-1","1","0","[]","0","2","","","5964","55","3","4","lose","no-go","0"
"pit-trial","174","1250963","0.0-60.0","battery-v0.2","","""event"",""trial"",""time""
""fullscreenenter"",""1"",""2970""
""fullscreenexit"",""2"",""3989""
","
","
","""event"",""trial"",""time""
""fullscreenenter"",""1"",""2970""
","""event"",""trial"",""time""
""fullscreenexit"",""2"",""3989""
","","","985.3999999761581","","","11","5964","3456","l","elianto","#3366ff99","-1"," ","0","0","[1838.2999999523163]","1","2","","","5964","56","1","2","win","no-go","0"
"pit-trial","175","1254738","0.0-61.0","battery-v0.2","","""event"",""trial"",""time""
""fullscreenenter"",""1"",""2970""
""fullscreenexit"",""2"",""3989""
","
","
","""event"",""trial"",""time""
""fullscreenenter"",""1"",""2970""
","""event"",""trial"",""time""
""fullscreenexit"",""2"",""3989""
","","","909.0999999046326","","","11","5964","3456","u","elianto","#f73b6a7A"," "," ","1","0","[1765.1000000238419]","1","2","","","5964","57","0","3","lose","go","0"
"pit-trial","176","1258666","0.0-62.0","battery-v0.2","","""event"",""trial"",""time""
""fullscreenenter"",""1"",""2970""
""fullscreenexit"",""2"",""3989""
","
","
","""event"",""trial"",""time""
""fullscreenenter"",""1"",""2970""
","""event"",""trial"",""time""
""fullscreenexit"",""2"",""3989""
","","","1060.9000000953674","","","11","5964","3456","p","elianto","#3366ff99"," "," ","1","0","[1918.1000000238419]","1","2","","","5964","58","4","1","win","go","1"
"pit-trial","177","1263537","0.0-63.0","battery-v0.2","","""event"",""trial"",""time""
""fullscreenenter"",""1"",""2970""
""fullscreenexit"",""2"",""3989""
","
","
","""event"",""trial"",""time""
""fullscreenenter"",""1"",""2970""
","""event"",""trial"",""time""
""fullscreenexit"",""2"",""3989""
","","","-1","","","11","5964","3456","g","elianto","#f73b6a7A","-1","-1","1","-10","[]","0","2","","","5964","59","3","4","lose","no-go","1"
"pit-trial","178","1267570","0.0-64.0","battery-v0.2","","""event"",""trial"",""time""
""fullscreenenter"",""1"",""2970""
""fullscreenexit"",""2"",""3989""
","
","
","""event"",""trial"",""time""
""fullscreenenter"",""1"",""2970""
","""event"",""trial"",""time""
""fullscreenexit"",""2"",""3989""
","","","1174.0999999046326","","","11","5964","3456","a","elianto","#f73b6a7A"," "," ","1","0","[2026.3000000715256]","1","2","","","5964","60","2","3","lose","go","0"
"pit-trial","179","1272434","0.0-65.0","battery-v0.2","","""event"",""trial"",""time""
""fullscreenenter"",""1"",""2970""
""fullscreenexit"",""2"",""3989""
","
","
","""event"",""trial"",""time""
""fullscreenenter"",""1"",""2970""
","""event"",""trial"",""time""
""fullscreenexit"",""2"",""3989""
","","","-1","","","11","5964","3456","g","elianto","#f73b6a7A","-1","-1","1","0","[]","0","2","","","5964","61","3","4","lose","no-go","0"
"pit-trial","180","1276297","0.0-66.0","battery-v0.2","","""event"",""trial"",""time""
""fullscreenenter"",""1"",""2970""
""fullscreenexit"",""2"",""3989""
","
","
","""event"",""trial"",""time""
""fullscreenenter"",""1"",""2970""
","""event"",""trial"",""time""
""fullscreenexit"",""2"",""3989""
","","","997.1000000238419","","","11","5964","3456","a","elianto","#f73b6a7A"," "," ","1","0","[1853.7000000476837]","1","2","","","5964","62","2","3","lose","go","0"
"pit-trial","181","1280130","0.0-67.0","battery-v0.2","","""event"",""trial"",""time""
""fullscreenenter"",""1"",""2970""
""fullscreenexit"",""2"",""3989""
","
","
","""event"",""trial"",""time""
""fullscreenenter"",""1"",""2970""
","""event"",""trial"",""time""
""fullscreenexit"",""2"",""3989""
","","","966.2999999523163","","","11","5964","3456","p","elianto","#3366ff99"," "," ","1","+10","[1824.2999999523163]","1","2","","","5964","63","4","1","win","go","0"
"pit-trial","182","1283979","0.0-68.0","battery-v0.2","","""event"",""trial"",""time""
""fullscreenenter"",""1"",""2970""
""fullscreenexit"",""2"",""3989""
","
","
","""event"",""trial"",""time""
""fullscreenenter"",""1"",""2970""
","""event"",""trial"",""time""
""fullscreenexit"",""2"",""3989""
","","","980","","","11","5964","3456","l","elianto","#3366ff99","-1"," ","0","0","[1837.8999999761581]","1","2","","","5964","64","1","2","win","no-go","0"
"pit-trial","183","1287714","0.0-69.0","battery-v0.2","","""event"",""trial"",""time""
""fullscreenenter"",""1"",""2970""
""fullscreenexit"",""2"",""3989""
","
","
","""event"",""trial"",""time""
""fullscreenenter"",""1"",""2970""
","""event"",""trial"",""time""
""fullscreenexit"",""2"",""3989""
","","","869.8000000715256","","","11","5964","3456","s","elianto","#3366ff99","-1"," ","0","+10","[1726]","1","2","","","5964","65","5","2","win","no-go","1"
"pit-trial","184","1291346","0.0-70.0","battery-v0.2","","""event"",""trial"",""time""
""fullscreenenter"",""1"",""2970""
""fullscreenexit"",""2"",""3989""
","
","
","""event"",""trial"",""time""
""fullscreenenter"",""1"",""2970""
","""event"",""trial"",""time""
""fullscreenexit"",""2"",""3989""
","","","774.3000000715256","","","11","5964","3456","p","elianto","#3366ff99"," "," ","1","0","[1626.3999999761581]","1","2","","","5964","66","4","1","win","go","1"
"pit-trial","185","1295035","0.0-71.0","battery-v0.2","","""event"",""trial"",""time""
""fullscreenenter"",""1"",""2970""
""fullscreenexit"",""2"",""3989""
","
","
","""event"",""trial"",""time""
""fullscreenenter"",""1"",""2970""
","""event"",""trial"",""time""
""fullscreenexit"",""2"",""3989""
","","","822.1999999284744","","","11","5964","3456","l","elianto","#3366ff99","-1"," ","0","0","[1679.3999999761581]","1","2","","","5964","67","1","2","win","no-go","0"
"pit-trial","186","1299905","0.0-72.0","battery-v0.2","","""event"",""trial"",""time""
""fullscreenenter"",""1"",""2970""
""fullscreenexit"",""2"",""3989""
","
","
","""event"",""trial"",""time""
""fullscreenenter"",""1"",""2970""
","""event"",""trial"",""time""
""fullscreenexit"",""2"",""3989""
","","","-1","","","11","5964","3456","g","elianto","#f73b6a7A","-1","-1","1","0","[]","0","2","","","5964","68","3","4","lose","no-go","0"
"pit-trial","187","1303570","0.0-73.0","battery-v0.2","","""event"",""trial"",""time""
""fullscreenenter"",""1"",""2970""
""fullscreenexit"",""2"",""3989""
","
","
","""event"",""trial"",""time""
""fullscreenenter"",""1"",""2970""
","""event"",""trial"",""time""
""fullscreenexit"",""2"",""3989""
","","","802.7000000476837","","","11","5964","3456","p","elianto","#3366ff99"," "," ","1","+10","[1654.7000000476837]","1","2","","","5964","69","4","1","win","go","0"
"pit-trial","188","1307457","0.0-74.0","battery-v0.2","","""event"",""trial"",""time""
""fullscreenenter"",""1"",""2970""
""fullscreenexit"",""2"",""3989""
","
","
","""event"",""trial"",""time""
""fullscreenenter"",""1"",""2970""
","""event"",""trial"",""time""
""fullscreenexit"",""2"",""3989""
","","","1028.1000000238419","","","11","5964","3456","a","elianto","#f73b6a7A"," "," ","1","0","[1880.6000000238419]","1","2","","","5964","70","2","3","lose","go","0"
"pit-trial","189","1311242","0.0-75.0","battery-v0.2","","""event"",""trial"",""time""
""fullscreenenter"",""1"",""2970""
""fullscreenexit"",""2"",""3989""
","
","
","""event"",""trial"",""time""
""fullscreenenter"",""1"",""2970""
","""event"",""trial"",""time""
""fullscreenexit"",""2"",""3989""
","","","918","","","11","5964","3456","l","elianto","#3366ff99","-1"," ","0","0","[1772.2999999523163]","1","2","","","5964","71","1","2","win","no-go","0"
"pit-trial","190","1314993","0.0-76.0","battery-v0.2","","""event"",""trial"",""time""
""fullscreenenter"",""1"",""2970""
""fullscreenexit"",""2"",""3989""
","
","
","""event"",""trial"",""time""
""fullscreenenter"",""1"",""2970""
","""event"",""trial"",""time""
""fullscreenexit"",""2"",""3989""
","","","886.1000000238419","","","11","5964","3456","s","elianto","#3366ff99","-1"," ","0","0","[1743.2000000476837]","1","2","","","5964","72","5","2","win","no-go","0"
"pit-trial","191","1318762","0.0-77.0","battery-v0.2","","""event"",""trial"",""time""
""fullscreenenter"",""1"",""2970""
""fullscreenexit"",""2"",""3989""
","
","
","""event"",""trial"",""time""
""fullscreenenter"",""1"",""2970""
","""event"",""trial"",""time""
""fullscreenexit"",""2"",""3989""
","","","902.7999999523163","","","11","5964","3456","g","elianto","#f73b6a7A","-1"," ","0","-10","[1761.1999999284744]","1","2","","","5964","73","3","4","lose","no-go","0"
"pit-trial","192","1322657","0.0-78.0","battery-v0.2","","""event"",""trial"",""time""
""fullscreenenter"",""1"",""2970""
""fullscreenexit"",""2"",""3989""
","
","
","""event"",""trial"",""time""
""fullscreenenter"",""1"",""2970""
","""event"",""trial"",""time""
""fullscreenexit"",""2"",""3989""
","","","1037.2999999523163","","","11","5964","3456","s","elianto","#3366ff99","-1"," ","0","0","[1888.2999999523163]","1","2","","","5964","74","5","2","win","no-go","0"
"pit-trial","193","1326394","0.0-79.0","battery-v0.2","","""event"",""trial"",""time""
""fullscreenenter"",""1"",""2970""
""fullscreenexit"",""2"",""3989""
","
","
","""event"",""trial"",""time""
""fullscreenenter"",""1"",""2970""
","""event"",""trial"",""time""
""fullscreenexit"",""2"",""3989""
","","","874.1999999284744","","","11","5964","3456","l","elianto","#3366ff99","-1"," ","0","+10","[1728.7000000476837]","1","2","","","5964","75","1","2","win","no-go","1"
"pit-trial","194","1330161","0.0-80.0","battery-v0.2","","""event"",""trial"",""time""
""fullscreenenter"",""1"",""2970""
""fullscreenexit"",""2"",""3989""
","
","
","""event"",""trial"",""time""
""fullscreenenter"",""1"",""2970""
","""event"",""trial"",""time""
""fullscreenexit"",""2"",""3989""
","","","904.7000000476837","","","11","5964","3456","p","elianto","#3366ff99"," "," ","1","+10","[1760.5]","1","2","","","5964","76","4","1","win","go","0"
"pit-trial","195","1333738","0.0-81.0","battery-v0.2","","""event"",""trial"",""time""
""fullscreenenter"",""1"",""2970""
""fullscreenexit"",""2"",""3989""
","
","
","""event"",""trial"",""time""
""fullscreenenter"",""1"",""2970""
","""event"",""trial"",""time""
""fullscreenexit"",""2"",""3989""
","","","710.4000000953674","","","11","5964","3456","p","elianto","#3366ff99"," "," ","1","0","[1568.7000000476837]","1","2","","","5964","77","4","1","win","go","1"
"pit-trial","196","1337258","0.0-82.0","battery-v0.2","","""event"",""trial"",""time""
""fullscreenenter"",""1"",""2970""
""fullscreenexit"",""2"",""3989""
","
","
","""event"",""trial"",""time""
""fullscreenenter"",""1"",""2970""
","""event"",""trial"",""time""
""fullscreenexit"",""2"",""3989""
","","","652.2000000476837","","","11","5964","3456","p","elianto","#3366ff99"," "," ","1","+10","[1504.8999999761581]","1","2","","","5964","78","4","1","win","go","0"
"pit-trial","197","1340793","0.0-83.0","battery-v0.2","","""event"",""trial"",""time""
""fullscreenenter"",""1"",""2970""
""fullscreenexit"",""2"",""3989""
","
","
","""event"",""trial"",""time""
""fullscreenenter"",""1"",""2970""
","""event"",""trial"",""time""
""fullscreenexit"",""2"",""3989""
","","","663","","","11","5964","3456","g","elianto","#f73b6a7A","-1"," ","0","0","[1520.7999999523163]","1","2","","","5964","79","3","4","lose","no-go","1"
"pit-trial","198","1344531","0.0-84.0","battery-v0.2","","""event"",""trial"",""time""
""fullscreenenter"",""1"",""2970""
""fullscreenexit"",""2"",""3989""
","
","
","""event"",""trial"",""time""
""fullscreenenter"",""1"",""2970""
","""event"",""trial"",""time""
""fullscreenexit"",""2"",""3989""
","","","870.2000000476837","","","11","5964","3456","s","elianto","#3366ff99","-1"," ","0","+10","[1727.6000000238419]","1","2","","","5964","80","5","2","win","no-go","1"
"pit-trial","199","1348338","0.0-85.0","battery-v0.2","","""event"",""trial"",""time""
""fullscreenenter"",""1"",""2970""
""fullscreenexit"",""2"",""3989""
","
","
","""event"",""trial"",""time""
""fullscreenenter"",""1"",""2970""
","""event"",""trial"",""time""
""fullscreenexit"",""2"",""3989""
","","","943.9000000953674","","","11","5964","3456","g","elianto","#f73b6a7A","-1"," ","0","-10","[1796.2999999523163]","1","2","","","5964","81","3","4","lose","no-go","0"
"pit-trial","200","1352026","0.0-86.0","battery-v0.2","","""event"",""trial"",""time""
""fullscreenenter"",""1"",""2970""
""fullscreenexit"",""2"",""3989""
","
","
","""event"",""trial"",""time""
""fullscreenenter"",""1"",""2970""
","""event"",""trial"",""time""
""fullscreenexit"",""2"",""3989""
","","","822","","","11","5964","3456","e","elianto","#f73b6a7A","-1"," ","0","0","[1679.8999999761581]","1","2","","","5964","82","7","4","lose","no-go","1"
"pit-trial","201","1355835","0.0-87.0","battery-v0.2","","""event"",""trial"",""time""
""fullscreenenter"",""1"",""2970""
""fullscreenexit"",""2"",""3989""
","
","
","""event"",""trial"",""time""
""fullscreenenter"",""1"",""2970""
","""event"",""trial"",""time""
""fullscreenexit"",""2"",""3989""
","","","941.5","","","11","5964","3456","p","elianto","#3366ff99"," "," ","1","+10","[1796]","1","2","","","5964","83","4","1","win","go","0"
"pit-trial","202","1359569","0.0-88.0","battery-v0.2","","""event"",""trial"",""time""
""fullscreenenter"",""1"",""2970""
""fullscreenexit"",""2"",""3989""
","
","
","""event"",""trial"",""time""
""fullscreenenter"",""1"",""2970""
","""event"",""trial"",""time""
""fullscreenexit"",""2"",""3989""
","","","871.1999999284744","","","11","5964","3456","s","elianto","#3366ff99","-1"," ","0","0","[1727.5]","1","2","","","5964","84","5","2","win","no-go","0"
"pit-trial","203","1364433","0.0-89.0","battery-v0.2","","""event"",""trial"",""time""
""fullscreenenter"",""1"",""2970""
""fullscreenexit"",""2"",""3989""
","
","
","""event"",""trial"",""time""
""fullscreenenter"",""1"",""2970""
","""event"",""trial"",""time""
""fullscreenexit"",""2"",""3989""
","","","-1","","","11","5964","3456","e","elianto","#f73b6a7A","-1","-1","1","0","[]","0","2","","","5964","85","7","4","lose","no-go","0"
"pit-trial","204","1368113","0.0-90.0","battery-v0.2","","""event"",""trial"",""time""
""fullscreenenter"",""1"",""2970""
""fullscreenexit"",""2"",""3989""
","
","
","""event"",""trial"",""time""
""fullscreenenter"",""1"",""2970""
","""event"",""trial"",""time""
""fullscreenexit"",""2"",""3989""
","","","810.3999999761581","","","11","5964","3456","s","elianto","#3366ff99","-1"," ","0","0","[1665.8999999761581]","1","2","","","5964","86","5","2","win","no-go","0"
"pit-trial","205","1371738","0.0-91.0","battery-v0.2","","""event"",""trial"",""time""
""fullscreenenter"",""1"",""2970""
""fullscreenexit"",""2"",""3989""
","
","
","""event"",""trial"",""time""
""fullscreenenter"",""1"",""2970""
","""event"",""trial"",""time""
""fullscreenexit"",""2"",""3989""
","","","752.9000000953674","","","11","5964","3456","p","elianto","#3366ff99"," "," ","1","+10","[1606.5]","1","2","","","5964","87","4","1","win","go","0"
"pit-trial","206","1376610","0.0-92.0","battery-v0.2","","""event"",""trial"",""time""
""fullscreenenter"",""1"",""2970""
""fullscreenexit"",""2"",""3989""
","
","
","""event"",""trial"",""time""
""fullscreenenter"",""1"",""2970""
","""event"",""trial"",""time""
""fullscreenexit"",""2"",""3989""
","","","-1","","","11","5964","3456","w","elianto","#f73b6a7A"," ","-1","0","0","[]","0","2","","","5964","88","6","3","lose","go","1"
"pit-trial","207","1381481","0.0-93.0","battery-v0.2","","""event"",""trial"",""time""
""fullscreenenter"",""1"",""2970""
""fullscreenexit"",""2"",""3989""
","
","
","""event"",""trial"",""time""
""fullscreenenter"",""1"",""2970""
","""event"",""trial"",""time""
""fullscreenexit"",""2"",""3989""
","","","-1","","","11","5964","3456","e","elianto","#f73b6a7A","-1","-1","1","0","[]","0","2","","","5964","89","7","4","lose","no-go","0"
"pit-trial","208","1385167","0.0-94.0","battery-v0.2","","""event"",""trial"",""time""
""fullscreenenter"",""1"",""2970""
""fullscreenexit"",""2"",""3989""
","
","
","""event"",""trial"",""time""
""fullscreenenter"",""1"",""2970""
","""event"",""trial"",""time""
""fullscreenexit"",""2"",""3989""
","","","800.1999999284744","","","11","5964","3456","p","elianto","#3366ff99"," "," ","1","+10","[1658.7000000476837]","1","2","","","5964","90","4","1","win","go","0"
"pit-trial","209","1388834","0.0-95.0","battery-v0.2","","""event"",""trial"",""time""
""fullscreenenter"",""1"",""2970""
""fullscreenexit"",""2"",""3989""
","
","
","""event"",""trial"",""time""
""fullscreenenter"",""1"",""2970""
","""event"",""trial"",""time""
""fullscreenexit"",""2"",""3989""
","","","800.5","","","11","5964","3456","s","elianto","#3366ff99","-1"," ","0","0","[1652.3999999761581]","1","2","","","5964","91","5","2","win","no-go","0"
