"trial_type","trial_index","time_elapsed","internal_node_id","task_version","subject_id","interactions","blur_events","focus_events","fullscreenenter_events","fullscreenexit_events","success","view_history","rt","responses","num_errors","age","subject","participantId","rune","rune_set","hex","correct","choice","accuracy","outcome","keys","total_keys","block","practice","value","sub","trial","stimulus","robot","valence","action","sham"
"pavlovia","0","7","0.0-0.0","battery-v0.2","","""event"",""trial"",""time""
""fullscreenenter"",""1"",""2356""
","
","
","""event"",""trial"",""time""
""fullscreenenter"",""1"",""2356""
","
","","","","","","","","","","","","","","","","","","","","","","","","","","",""
"fullscreen","1","3347","0.0-1.0","battery-v0.2","","""event"",""trial"",""time""
""fullscreenenter"",""1"",""2356""
","
","
","""event"",""trial"",""time""
""fullscreenenter"",""1"",""2356""
","
","true","","","","","","","","","","","","","","","","","","","","","","","","","",""
"pit-instructions","2","11587","0.0-2.0-0.0","battery-v0.2","","""event"",""trial"",""time""
""fullscreenenter"",""1"",""2356""
","
","
","""event"",""trial"",""time""
""fullscreenenter"",""1"",""2356""
","
","","[{""page_index"":0,""viewing_time"":8235.600000023842}]","8235.899999976158","","","","","","","","","","","","","","","","","","","","","","","",""
"pit-comprehension","3","28361","0.0-2.0-1.0-0.0","battery-v0.2","","""event"",""trial"",""time""
""fullscreenenter"",""1"",""2356""
","
","
","""event"",""trial"",""time""
""fullscreenenter"",""1"",""2356""
","
","","","16768.699999928474","[""shark""]","0","10","10573","4983","","","","","","","","","","","","","","","","","","",""
"pit-instructions","4","50786","0.0-2.0-1.0-1.0","battery-v0.2","","""event"",""trial"",""time""
""fullscreenenter"",""1"",""2356""
","
","
","""event"",""trial"",""time""
""fullscreenenter"",""1"",""2356""
","
","","[{""page_index"":0,""viewing_time"":22415.899999976158}]","22416.199999928474","","","","","","","","","","","","","","","","","","","","","","","",""
"pit-comprehension","5","55665","0.0-2.0-2.0-0.0","battery-v0.2","","""event"",""trial"",""time""
""fullscreenenter"",""1"",""2356""
","
","
","""event"",""trial"",""time""
""fullscreenenter"",""1"",""2356""
","
","","","4873.899999976158","[""tiger""]","0","10","10573","4983","","","","","","","","","","","","","","","","","","",""
"pit-instructions","6","56799","0.0-2.0-2.0-1.0","battery-v0.2","","""event"",""trial"",""time""
""fullscreenenter"",""1"",""2356""
","
","
","""event"",""trial"",""time""
""fullscreenenter"",""1"",""2356""
","
","","[{""page_index"":0,""viewing_time"":1128.3999999761581}]","1128.8000000715256","","","","","","","","","","","","","","","","","","","","","","","",""
"pit-instructions","7","158607","0.0-2.0-3.0","battery-v0.2","","""event"",""trial"",""time""
""fullscreenenter"",""1"",""2356""
","
","
","""event"",""trial"",""time""
""fullscreenenter"",""1"",""2356""
","
","","[{""page_index"":0,""viewing_time"":8363.800000071526},{""page_index"":1,""viewing_time"":6659.799999952316},{""page_index"":2,""viewing_time"":6085},{""page_index"":3,""viewing_time"":5359.399999976158},{""page_index"":4,""viewing_time"":6729.900000095367},{""page_index"":5,""viewing_time"":5810.299999952316},{""page_index"":6,""viewing_time"":7944.200000047684},{""page_index"":7,""viewing_time"":8574.299999952316},{""page_index"":8,""viewing_time"":8575.799999952316},{""page_index"":9,""viewing_time"":8576},{""page_index"":10,""viewing_time"":9293},{""page_index"":11,""viewing_time"":7197.600000023842},{""page_index"":12,""viewing_time"":6756.399999976158},{""page_index"":13,""viewing_time"":5876.800000071526}]","101802.80000007153","","","","","","","","","","","","","","","","","","","","","","","",""
"pit-trial","8","162077","0.0-2.0-4.0-0.0","battery-v0.2","","""event"",""trial"",""time""
""fullscreenenter"",""1"",""2356""
","
","
","""event"",""trial"",""time""
""fullscreenenter"",""1"",""2356""
","
","","","609.8999999761581","","","10","10573","4983","&#9784;","elianto","#FFFFF080"," "," ","1","&#10004","[1460]","1","0","0","","","","","","","",""
"pit-trial","9","165653","0.0-2.0-4.1-0.1","battery-v0.2","","""event"",""trial"",""time""
""fullscreenenter"",""1"",""2356""
","
","
","""event"",""trial"",""time""
""fullscreenenter"",""1"",""2356""
","
","","","705.2999999523163","","","10","10573","4983","&#9784;","elianto","#FFFFF080"," "," ","1","&#10004","[1562]","1","0","0","","","","","","","",""
"pit-trial","10","168980","0.0-2.0-4.2-0.2","battery-v0.2","","""event"",""trial"",""time""
""fullscreenenter"",""1"",""2356""
","
","
","""event"",""trial"",""time""
""fullscreenenter"",""1"",""2356""
","
","","","463.2000000476837","","","10","10573","4983","&#9784;","elianto","#FFFFF080"," "," ","1","&#10004","[1313.4000000953674]","1","0","0","","","","","","","",""
"pit-trial","11","172381","0.0-2.0-4.3-0.3","battery-v0.2","","""event"",""trial"",""time""
""fullscreenenter"",""1"",""2356""
","
","
","""event"",""trial"",""time""
""fullscreenenter"",""1"",""2356""
","
","","","535.6999999284744","","","10","10573","4983","&#9784;","elianto","#FFFFF080"," "," ","1","&#10004","[1387.1000000238419]","1","0","0","","","","","","","",""
"pit-trial","12","175949","0.0-2.0-4.4-0.4","battery-v0.2","","""event"",""trial"",""time""
""fullscreenenter"",""1"",""2356""
","
","
","""event"",""trial"",""time""
""fullscreenenter"",""1"",""2356""
","
","","","705.6000000238419","","","10","10573","4983","&#9784;","elianto","#FFFFF080"," "," ","1","&#10004","[1557.6000000238419]","1","0","0","","","","","","","",""
"pit-instructions","13","197788","0.0-2.0-5.0","battery-v0.2","","""event"",""trial"",""time""
""fullscreenenter"",""1"",""2356""
","
","
","""event"",""trial"",""time""
""fullscreenenter"",""1"",""2356""
","
","","[{""page_index"":0,""viewing_time"":5095},{""page_index"":1,""viewing_time"":5323.599999904633},{""page_index"":2,""viewing_time"":4873.200000047684},{""page_index"":3,""viewing_time"":6541.600000023842}]","21833.699999928474","","","","","","","","","","","","","","","","","","","","","","","",""
"pit-trial","14","202653","0.0-2.0-6.0-0.0","battery-v0.2","","""event"",""trial"",""time""
""fullscreenenter"",""1"",""2356""
","
","
","""event"",""trial"",""time""
""fullscreenenter"",""1"",""2356""
","
","","","-1","","","10","10573","4983","&#9854;","elianto","#FFFFF080","-1","-1","1","&#10004","[]","0","0","1","","","","","","","",""
"pit-trial","15","207525","0.0-2.0-6.1-0.1","battery-v0.2","","""event"",""trial"",""time""
""fullscreenenter"",""1"",""2356""
","
","
","""event"",""trial"",""time""
""fullscreenenter"",""1"",""2356""
","
","","","-1","","","10","10573","4983","&#9854;","elianto","#FFFFF080","-1","-1","1","&#10004","[]","0","0","1","","","","","","","",""
"pit-trial","16","212389","0.0-2.0-6.2-0.2","battery-v0.2","","""event"",""trial"",""time""
""fullscreenenter"",""1"",""2356""
","
","
","""event"",""trial"",""time""
""fullscreenenter"",""1"",""2356""
","
","","","-1","","","10","10573","4983","&#9854;","elianto","#FFFFF080","-1","-1","1","&#10004","[]","0","0","1","","","","","","","",""
"pit-trial","17","217252","0.0-2.0-6.3-0.3","battery-v0.2","","""event"",""trial"",""time""
""fullscreenenter"",""1"",""2356""
","
","
","""event"",""trial"",""time""
""fullscreenenter"",""1"",""2356""
","
","","","-1","","","10","10573","4983","&#9854;","elianto","#FFFFF080","-1","-1","1","&#10004","[]","0","0","1","","","","","","","",""
"pit-trial","18","222117","0.0-2.0-6.4-0.4","battery-v0.2","","""event"",""trial"",""time""
""fullscreenenter"",""1"",""2356""
","
","
","""event"",""trial"",""time""
""fullscreenenter"",""1"",""2356""
","
","","","-1","","","10","10573","4983","&#9854;","elianto","#FFFFF080","-1","-1","1","&#10004","[]","0","0","1","","","","","","","",""
"pit-instructions","19","337195","0.0-2.0-7.0","battery-v0.2","","""event"",""trial"",""time""
""fullscreenenter"",""1"",""2356""
","
","
","""event"",""trial"",""time""
""fullscreenenter"",""1"",""2356""
","
","","[{""page_index"":0,""viewing_time"":5598.5},{""page_index"":1,""viewing_time"":7190.600000023842},{""page_index"":2,""viewing_time"":6559.099999904633},{""page_index"":3,""viewing_time"":6693.900000095367},{""page_index"":4,""viewing_time"":5476.799999952316},{""page_index"":5,""viewing_time"":5411.899999976158},{""page_index"":6,""viewing_time"":5103.300000071526},{""page_index"":7,""viewing_time"":7642.299999952316},{""page_index"":8,""viewing_time"":6526.899999976158},{""page_index"":9,""viewing_time"":6280.600000023842},{""page_index"":10,""viewing_time"":7030.899999976158},{""page_index"":11,""viewing_time"":4392.200000047684},{""page_index"":12,""viewing_time"":7062.100000023842},{""page_index"":13,""viewing_time"":6945.599999904633},{""page_index"":14,""viewing_time"":6958.5},{""page_index"":15,""viewing_time"":6360.900000095367},{""page_index"":16,""viewing_time"":6395.399999976158},{""page_index"":17,""viewing_time"":7441.5}]","115071.39999997616","","","","","","","","","","","","","","","","","","","","","","","",""
"pit-trial","20","340566","0.0-2.0-8.0-0.0","battery-v0.2","","""event"",""trial"",""time""
""fullscreenenter"",""1"",""2356""
","
","
","""event"",""trial"",""time""
""fullscreenenter"",""1"",""2356""
","
","","","509","","","10","10573","4983","&#9776;","elianto","#3366ff99"," "," ","1","+10","[1365.1000000238419]","1","0","1","","","","","","","",""
"pit-trial","21","343935","0.0-2.0-8.0-1.0","battery-v0.2","","""event"",""trial"",""time""
""fullscreenenter"",""1"",""2356""
","
","
","""event"",""trial"",""time""
""fullscreenenter"",""1"",""2356""
","
","","","503.89999997615814","","","10","10573","4983","&#9776;","elianto","#3366ff99"," "," ","1","+10","[1356.2999999523163]","1","0","1","","","","","","","",""
"pit-trial","22","347311","0.0-2.0-8.0-2.0","battery-v0.2","","""event"",""trial"",""time""
""fullscreenenter"",""1"",""2356""
","
","
","""event"",""trial"",""time""
""fullscreenenter"",""1"",""2356""
","
","","","517.1999999284744","","","10","10573","4983","&#9776;","elianto","#3366ff99"," "," ","1","+10","[1367.7999999523163]","1","0","1","","","","","","","",""
"pit-trial","23","350870","0.0-2.0-8.0-3.0","battery-v0.2","","""event"",""trial"",""time""
""fullscreenenter"",""1"",""2356""
","
","
","""event"",""trial"",""time""
""fullscreenenter"",""1"",""2356""
","
","","","702.8000000715256","","","10","10573","4983","&#9776;","elianto","#3366ff99"," "," ","1","0","[1554.3999999761581]","1","0","1","","","","","","","",""
"pit-trial","24","354374","0.0-2.0-8.0-4.0","battery-v0.2","","""event"",""trial"",""time""
""fullscreenenter"",""1"",""2356""
","
","
","""event"",""trial"",""time""
""fullscreenenter"",""1"",""2356""
","
","","","647.7000000476837","","","10","10573","4983","&#9776;","elianto","#3366ff99"," "," ","1","+10","[1499.3999999761581]","1","0","1","","","","","","","",""
"pit-trial","25","357927","0.0-2.0-8.1-0.1","battery-v0.2","","""event"",""trial"",""time""
""fullscreenenter"",""1"",""2356""
","
","
","""event"",""trial"",""time""
""fullscreenenter"",""1"",""2356""
","
","","","691.2000000476837","","","10","10573","4983","&#9776;","elianto","#3366ff99"," "," ","1","+10","[1542.3999999761581]","1","0","1","","","","","","","",""
"pit-trial","26","361519","0.0-2.0-8.1-1.1","battery-v0.2","","""event"",""trial"",""time""
""fullscreenenter"",""1"",""2356""
","
","
","""event"",""trial"",""time""
""fullscreenenter"",""1"",""2356""
","
","","","730","","","10","10573","4983","&#9776;","elianto","#3366ff99"," "," ","1","+10","[1581.5]","1","0","1","","","","","","","",""
"pit-trial","27","364831","0.0-2.0-8.1-2.1","battery-v0.2","","""event"",""trial"",""time""
""fullscreenenter"",""1"",""2356""
","
","
","""event"",""trial"",""time""
""fullscreenenter"",""1"",""2356""
","
","","","453.89999997615814","","","10","10573","4983","&#9776;","elianto","#3366ff99"," "," ","1","+10","[1304.2000000476837]","1","0","1","","","","","","","",""
"pit-trial","28","368358","0.0-2.0-8.1-3.1","battery-v0.2","","""event"",""trial"",""time""
""fullscreenenter"",""1"",""2356""
","
","
","""event"",""trial"",""time""
""fullscreenenter"",""1"",""2356""
","
","","","666.1000000238419","","","10","10573","4983","&#9776;","elianto","#3366ff99"," "," ","1","0","[1518.8000000715256]","1","0","1","","","","","","","",""
"pit-trial","29","371767","0.0-2.0-8.1-4.1","battery-v0.2","","""event"",""trial"",""time""
""fullscreenenter"",""1"",""2356""
","
","
","""event"",""trial"",""time""
""fullscreenenter"",""1"",""2356""
","
","","","543.7999999523163","","","10","10573","4983","&#9776;","elianto","#3366ff99"," "," ","1","+10","[1396.7999999523163]","1","0","1","","","","","","","",""
"pit-trial","30","375086","0.0-2.0-8.2-0.2","battery-v0.2","","""event"",""trial"",""time""
""fullscreenenter"",""1"",""2356""
","
","
","""event"",""trial"",""time""
""fullscreenenter"",""1"",""2356""
","
","","","457.7000000476837","","","10","10573","4983","&#9776;","elianto","#3366ff99"," "," ","1","+10","[1309.2000000476837]","1","0","1","","","","","","","",""
"pit-trial","31","378727","0.0-2.0-8.2-1.2","battery-v0.2","","""event"",""trial"",""time""
""fullscreenenter"",""1"",""2356""
","
","
","""event"",""trial"",""time""
""fullscreenenter"",""1"",""2356""
","
","","","778.3999999761581","","","10","10573","4983","&#9776;","elianto","#3366ff99"," "," ","1","+10","[1629]","1","0","1","","","","","","","",""
"pit-trial","32","382583","0.0-2.0-8.2-2.2","battery-v0.2","","""event"",""trial"",""time""
""fullscreenenter"",""1"",""2356""
","
","
","""event"",""trial"",""time""
""fullscreenenter"",""1"",""2356""
","
","","","996.3999999761581","","","10","10573","4983","&#9776;","elianto","#3366ff99"," "," ","1","+10","[1848.1000000238419]","1","0","1","","","","","","","",""
"pit-trial","33","386206","0.0-2.0-8.2-3.2","battery-v0.2","","""event"",""trial"",""time""
""fullscreenenter"",""1"",""2356""
","
","
","""event"",""trial"",""time""
""fullscreenenter"",""1"",""2356""
","
","","","766.3999999761581","","","10","10573","4983","&#9776;","elianto","#3366ff99"," "," ","1","0","[1618.2999999523163]","1","0","1","","","","","","","",""
"pit-trial","34","389639","0.0-2.0-8.2-4.2","battery-v0.2","","""event"",""trial"",""time""
""fullscreenenter"",""1"",""2356""
","
","
","""event"",""trial"",""time""
""fullscreenenter"",""1"",""2356""
","
","","","574.7999999523163","","","10","10573","4983","&#9776;","elianto","#3366ff99"," "," ","1","+10","[1426.6999999284744]","1","0","1","","","","","","","",""
"call-function","35","389643","0.0-2.0-9.0","battery-v0.2","","""event"",""trial"",""time""
""fullscreenenter"",""1"",""2356""
","
","
","""event"",""trial"",""time""
""fullscreenenter"",""1"",""2356""
","
","","","","","","","","","","","","","","","","","","","","","","","","","","",""
"pit-instructions","36","428418","0.0-2.0-10.0","battery-v0.2","","""event"",""trial"",""time""
""fullscreenenter"",""1"",""2356""
","
","
","""event"",""trial"",""time""
""fullscreenenter"",""1"",""2356""
","
","","[{""page_index"":0,""viewing_time"":5788.799999952316},{""page_index"":1,""viewing_time"":7090.899999976158},{""page_index"":2,""viewing_time"":9494.600000023842},{""page_index"":3,""viewing_time"":8749.5},{""page_index"":4,""viewing_time"":7650.5}]","38774.59999990463","","","","","","","","","","","","","","","","","","","","","","","",""
"pit-trial","37","431743","0.0-2.0-11.0-0.0","battery-v0.2","","""event"",""trial"",""time""
""fullscreenenter"",""1"",""2356""
","
","
","""event"",""trial"",""time""
""fullscreenenter"",""1"",""2356""
","
","","","459.7999999523163","","","10","10573","4983","&#9761;","elianto","#3366ff99","-1"," ","0","0","[1316.3999999761581]","1","0","2","","","","","","","",""
"pit-trial","38","434999","0.0-2.0-11.0-1.0","battery-v0.2","","""event"",""trial"",""time""
""fullscreenenter"",""1"",""2356""
","
","
","""event"",""trial"",""time""
""fullscreenenter"",""1"",""2356""
","
","","","391.7000000476837","","","10","10573","4983","&#9761;","elianto","#3366ff99","-1"," ","0","0","[1244.2000000476837]","1","0","2","","","","","","","",""
"pit-trial","39","439863","0.0-2.0-11.0-2.0","battery-v0.2","","""event"",""trial"",""time""
""fullscreenenter"",""1"",""2356""
","
","
","""event"",""trial"",""time""
""fullscreenenter"",""1"",""2356""
","
","","","-1","","","10","10573","4983","&#9761;","elianto","#3366ff99","-1","-1","1","+10","[]","0","0","2","","","","","","","",""
"pit-trial","40","444727","0.0-2.0-11.0-3.0","battery-v0.2","","""event"",""trial"",""time""
""fullscreenenter"",""1"",""2356""
","
","
","""event"",""trial"",""time""
""fullscreenenter"",""1"",""2356""
","
","","","-1","","","10","10573","4983","&#9761;","elianto","#3366ff99","-1","-1","1","0","[]","0","0","2","","","","","","","",""
"pit-trial","41","449343","0.0-2.0-11.0-4.0","battery-v0.2","","""event"",""trial"",""time""
""fullscreenenter"",""1"",""2356""
","
","
","""event"",""trial"",""time""
""fullscreenenter"",""1"",""2356""
","
","","","1756.5","","","10","10573","4983","&#9761;","elianto","#3366ff99","-1"," ","0","0","[2607.8000000715256]","1","0","2","","","","","","","",""
"pit-trial","42","454206","0.0-2.0-11.1-0.1","battery-v0.2","","""event"",""trial"",""time""
""fullscreenenter"",""1"",""2356""
","
","
","""event"",""trial"",""time""
""fullscreenenter"",""1"",""2356""
","
","","","-1","","","10","10573","4983","&#9761;","elianto","#3366ff99","-1","-1","1","+10","[]","0","0","2","","","","","","","",""
"pit-trial","43","459071","0.0-2.0-11.1-1.1","battery-v0.2","","""event"",""trial"",""time""
""fullscreenenter"",""1"",""2356""
","
","
","""event"",""trial"",""time""
""fullscreenenter"",""1"",""2356""
","
","","","-1","","","10","10573","4983","&#9761;","elianto","#3366ff99","-1","-1","1","+10","[]","0","0","2","","","","","","","",""
"pit-trial","44","463935","0.0-2.0-11.1-2.1","battery-v0.2","","""event"",""trial"",""time""
""fullscreenenter"",""1"",""2356""
","
","
","""event"",""trial"",""time""
""fullscreenenter"",""1"",""2356""
","
","","","-1","","","10","10573","4983","&#9761;","elianto","#3366ff99","-1","-1","1","+10","[]","0","0","2","","","","","","","",""
"pit-trial","45","468800","0.0-2.0-11.1-3.1","battery-v0.2","","""event"",""trial"",""time""
""fullscreenenter"",""1"",""2356""
","
","
","""event"",""trial"",""time""
""fullscreenenter"",""1"",""2356""
","
","","","-1","","","10","10573","4983","&#9761;","elianto","#3366ff99","-1","-1","1","0","[]","0","0","2","","","","","","","",""
"pit-trial","46","473664","0.0-2.0-11.1-4.1","battery-v0.2","","""event"",""trial"",""time""
""fullscreenenter"",""1"",""2356""
","
","
","""event"",""trial"",""time""
""fullscreenenter"",""1"",""2356""
","
","","","-1","","","10","10573","4983","&#9761;","elianto","#3366ff99","-1","-1","1","+10","[]","0","0","2","","","","","","","",""
"pit-trial","47","478528","0.0-2.0-11.2-0.2","battery-v0.2","","""event"",""trial"",""time""
""fullscreenenter"",""1"",""2356""
","
","
","""event"",""trial"",""time""
""fullscreenenter"",""1"",""2356""
","
","","","-1","","","10","10573","4983","&#9761;","elianto","#3366ff99","-1","-1","1","+10","[]","0","0","2","","","","","","","",""
"pit-trial","48","483392","0.0-2.0-11.2-1.2","battery-v0.2","","""event"",""trial"",""time""
""fullscreenenter"",""1"",""2356""
","
","
","""event"",""trial"",""time""
""fullscreenenter"",""1"",""2356""
","
","","","-1","","","10","10573","4983","&#9761;","elianto","#3366ff99","-1","-1","1","+10","[]","0","0","2","","","","","","","",""
"pit-trial","49","488256","0.0-2.0-11.2-2.2","battery-v0.2","","""event"",""trial"",""time""
""fullscreenenter"",""1"",""2356""
","
","
","""event"",""trial"",""time""
""fullscreenenter"",""1"",""2356""
","
","","","-1","","","10","10573","4983","&#9761;","elianto","#3366ff99","-1","-1","1","+10","[]","0","0","2","","","","","","","",""
"pit-trial","50","493120","0.0-2.0-11.2-3.2","battery-v0.2","","""event"",""trial"",""time""
""fullscreenenter"",""1"",""2356""
","
","
","""event"",""trial"",""time""
""fullscreenenter"",""1"",""2356""
","
","","","-1","","","10","10573","4983","&#9761;","elianto","#3366ff99","-1","-1","1","0","[]","0","0","2","","","","","","","",""
"pit-trial","51","497984","0.0-2.0-11.2-4.2","battery-v0.2","","""event"",""trial"",""time""
""fullscreenenter"",""1"",""2356""
","
","
","""event"",""trial"",""time""
""fullscreenenter"",""1"",""2356""
","
","","","-1","","","10","10573","4983","&#9761;","elianto","#3366ff99","-1","-1","1","+10","[]","0","0","2","","","","","","","",""
"pit-trial","52","502848","0.0-2.0-11.3-0.3","battery-v0.2","","""event"",""trial"",""time""
""fullscreenenter"",""1"",""2356""
","
","
","""event"",""trial"",""time""
""fullscreenenter"",""1"",""2356""
","
","","","-1","","","10","10573","4983","&#9761;","elianto","#3366ff99","-1","-1","1","+10","[]","0","0","2","","","","","","","",""
"pit-trial","53","507712","0.0-2.0-11.3-1.3","battery-v0.2","","""event"",""trial"",""time""
""fullscreenenter"",""1"",""2356""
","
","
","""event"",""trial"",""time""
""fullscreenenter"",""1"",""2356""
","
","","","-1","","","10","10573","4983","&#9761;","elianto","#3366ff99","-1","-1","1","+10","[]","0","0","2","","","","","","","",""
"pit-trial","54","512576","0.0-2.0-11.3-2.3","battery-v0.2","","""event"",""trial"",""time""
""fullscreenenter"",""1"",""2356""
","
","
","""event"",""trial"",""time""
""fullscreenenter"",""1"",""2356""
","
","","","-1","","","10","10573","4983","&#9761;","elianto","#3366ff99","-1","-1","1","+10","[]","0","0","2","","","","","","","",""
"pit-trial","55","517440","0.0-2.0-11.3-3.3","battery-v0.2","","""event"",""trial"",""time""
""fullscreenenter"",""1"",""2356""
","
","
","""event"",""trial"",""time""
""fullscreenenter"",""1"",""2356""
","
","","","-1","","","10","10573","4983","&#9761;","elianto","#3366ff99","-1","-1","1","0","[]","0","0","2","","","","","","","",""
"pit-trial","56","522304","0.0-2.0-11.3-4.3","battery-v0.2","","""event"",""trial"",""time""
""fullscreenenter"",""1"",""2356""
","
","
","""event"",""trial"",""time""
""fullscreenenter"",""1"",""2356""
","
","","","-1","","","10","10573","4983","&#9761;","elianto","#3366ff99","-1","-1","1","+10","[]","0","0","2","","","","","","","",""
"call-function","57","522307","0.0-2.0-12.0","battery-v0.2","","""event"",""trial"",""time""
""fullscreenenter"",""1"",""2356""
","
","
","""event"",""trial"",""time""
""fullscreenenter"",""1"",""2356""
","
","","","","","","","","","","","","","","","","","","","","","","","","","","",""
"pit-instructions","58","553249","0.0-2.0-13.0","battery-v0.2","","""event"",""trial"",""time""
""fullscreenenter"",""1"",""2356""
","
","
","""event"",""trial"",""time""
""fullscreenenter"",""1"",""2356""
","
","","[{""page_index"":0,""viewing_time"":5037.600000023842},{""page_index"":1,""viewing_time"":7278.100000023842},{""page_index"":2,""viewing_time"":3457.600000023842},{""page_index"":3,""viewing_time"":10311.699999928474},{""page_index"":4,""viewing_time"":4854.899999976158}]","30940.200000047684","","","","","","","","","","","","","","","","","","","","","","","",""
"pit-trial","59","556625","0.0-2.0-14.0-0.0","battery-v0.2","","""event"",""trial"",""time""
""fullscreenenter"",""1"",""2356""
","
","
","""event"",""trial"",""time""
""fullscreenenter"",""1"",""2356""
","
","","","514.1000000238419","","","10","10573","4983","&#9826;","elianto","#f73b6a7A","-1"," ","0","-10","[1365.8999999761581]","1","0","3","","","","","","","",""
"pit-trial","60","559953","0.0-2.0-14.0-1.0","battery-v0.2","","""event"",""trial"",""time""
""fullscreenenter"",""1"",""2356""
","
","
","""event"",""trial"",""time""
""fullscreenenter"",""1"",""2356""
","
","","","465.40000009536743","","","10","10573","4983","&#9826;","elianto","#f73b6a7A","-1"," ","0","-10","[1317.4000000953674]","1","0","3","","","","","","","",""
"pit-trial","61","564817","0.0-2.0-14.0-2.0","battery-v0.2","","""event"",""trial"",""time""
""fullscreenenter"",""1"",""2356""
","
","
","""event"",""trial"",""time""
""fullscreenenter"",""1"",""2356""
","
","","","-1","","","10","10573","4983","&#9826;","elianto","#f73b6a7A","-1","-1","1","0","[]","0","0","3","","","","","","","",""
"pit-trial","62","569681","0.0-2.0-14.0-3.0","battery-v0.2","","""event"",""trial"",""time""
""fullscreenenter"",""1"",""2356""
","
","
","""event"",""trial"",""time""
""fullscreenenter"",""1"",""2356""
","
","","","-1","","","10","10573","4983","&#9826;","elianto","#f73b6a7A","-1","-1","1","-10","[]","0","0","3","","","","","","","",""
"pit-trial","63","574545","0.0-2.0-14.0-4.0","battery-v0.2","","""event"",""trial"",""time""
""fullscreenenter"",""1"",""2356""
","
","
","""event"",""trial"",""time""
""fullscreenenter"",""1"",""2356""
","
","","","-1","","","10","10573","4983","&#9826;","elianto","#f73b6a7A","-1","-1","1","0","[]","0","0","3","","","","","","","",""
"pit-trial","64","579408","0.0-2.0-14.1-0.1","battery-v0.2","","""event"",""trial"",""time""
""fullscreenenter"",""1"",""2356""
","
","
","""event"",""trial"",""time""
""fullscreenenter"",""1"",""2356""
","
","","","-1","","","10","10573","4983","&#9826;","elianto","#f73b6a7A","-1","-1","1","0","[]","0","0","3","","","","","","","",""
"pit-trial","65","584273","0.0-2.0-14.1-1.1","battery-v0.2","","""event"",""trial"",""time""
""fullscreenenter"",""1"",""2356""
","
","
","""event"",""trial"",""time""
""fullscreenenter"",""1"",""2356""
","
","","","-1","","","10","10573","4983","&#9826;","elianto","#f73b6a7A","-1","-1","1","0","[]","0","0","3","","","","","","","",""
"pit-trial","66","589136","0.0-2.0-14.1-2.1","battery-v0.2","","""event"",""trial"",""time""
""fullscreenenter"",""1"",""2356""
","
","
","""event"",""trial"",""time""
""fullscreenenter"",""1"",""2356""
","
","","","-1","","","10","10573","4983","&#9826;","elianto","#f73b6a7A","-1","-1","1","0","[]","0","0","3","","","","","","","",""
"pit-trial","67","594001","0.0-2.0-14.1-3.1","battery-v0.2","","""event"",""trial"",""time""
""fullscreenenter"",""1"",""2356""
","
","
","""event"",""trial"",""time""
""fullscreenenter"",""1"",""2356""
","
","","","-1","","","10","10573","4983","&#9826;","elianto","#f73b6a7A","-1","-1","1","-10","[]","0","0","3","","","","","","","",""
"pit-trial","68","598865","0.0-2.0-14.1-4.1","battery-v0.2","","""event"",""trial"",""time""
""fullscreenenter"",""1"",""2356""
","
","
","""event"",""trial"",""time""
""fullscreenenter"",""1"",""2356""
","
","","","-1","","","10","10573","4983","&#9826;","elianto","#f73b6a7A","-1","-1","1","0","[]","0","0","3","","","","","","","",""
"pit-trial","69","603729","0.0-2.0-14.2-0.2","battery-v0.2","","""event"",""trial"",""time""
""fullscreenenter"",""1"",""2356""
","
","
","""event"",""trial"",""time""
""fullscreenenter"",""1"",""2356""
","
","","","-1","","","10","10573","4983","&#9826;","elianto","#f73b6a7A","-1","-1","1","0","[]","0","0","3","","","","","","","",""
"pit-trial","70","608594","0.0-2.0-14.2-1.2","battery-v0.2","","""event"",""trial"",""time""
""fullscreenenter"",""1"",""2356""
","
","
","""event"",""trial"",""time""
""fullscreenenter"",""1"",""2356""
","
","","","-1","","","10","10573","4983","&#9826;","elianto","#f73b6a7A","-1","-1","1","0","[]","0","0","3","","","","","","","",""
"pit-trial","71","613457","0.0-2.0-14.2-2.2","battery-v0.2","","""event"",""trial"",""time""
""fullscreenenter"",""1"",""2356""
","
","
","""event"",""trial"",""time""
""fullscreenenter"",""1"",""2356""
","
","","","-1","","","10","10573","4983","&#9826;","elianto","#f73b6a7A","-1","-1","1","0","[]","0","0","3","","","","","","","",""
"pit-trial","72","618321","0.0-2.0-14.2-3.2","battery-v0.2","","""event"",""trial"",""time""
""fullscreenenter"",""1"",""2356""
","
","
","""event"",""trial"",""time""
""fullscreenenter"",""1"",""2356""
","
","","","-1","","","10","10573","4983","&#9826;","elianto","#f73b6a7A","-1","-1","1","-10","[]","0","0","3","","","","","","","",""
"pit-trial","73","623186","0.0-2.0-14.2-4.2","battery-v0.2","","""event"",""trial"",""time""
""fullscreenenter"",""1"",""2356""
","
","
","""event"",""trial"",""time""
""fullscreenenter"",""1"",""2356""
","
","","","-1","","","10","10573","4983","&#9826;","elianto","#f73b6a7A","-1","-1","1","0","[]","0","0","3","","","","","","","",""
"pit-trial","74","628048","0.0-2.0-14.3-0.3","battery-v0.2","","""event"",""trial"",""time""
""fullscreenenter"",""1"",""2356""
","
","
","""event"",""trial"",""time""
""fullscreenenter"",""1"",""2356""
","
","","","-1","","","10","10573","4983","&#9826;","elianto","#f73b6a7A","-1","-1","1","0","[]","0","0","3","","","","","","","",""
"pit-trial","75","632913","0.0-2.0-14.3-1.3","battery-v0.2","","""event"",""trial"",""time""
""fullscreenenter"",""1"",""2356""
","
","
","""event"",""trial"",""time""
""fullscreenenter"",""1"",""2356""
","
","","","-1","","","10","10573","4983","&#9826;","elianto","#f73b6a7A","-1","-1","1","0","[]","0","0","3","","","","","","","",""
"pit-trial","76","637778","0.0-2.0-14.3-2.3","battery-v0.2","","""event"",""trial"",""time""
""fullscreenenter"",""1"",""2356""
","
","
","""event"",""trial"",""time""
""fullscreenenter"",""1"",""2356""
","
","","","-1","","","10","10573","4983","&#9826;","elianto","#f73b6a7A","-1","-1","1","0","[]","0","0","3","","","","","","","",""
"pit-trial","77","642642","0.0-2.0-14.3-3.3","battery-v0.2","","""event"",""trial"",""time""
""fullscreenenter"",""1"",""2356""
","
","
","""event"",""trial"",""time""
""fullscreenenter"",""1"",""2356""
","
","","","-1","","","10","10573","4983","&#9826;","elianto","#f73b6a7A","-1","-1","1","-10","[]","0","0","3","","","","","","","",""
"pit-trial","78","647505","0.0-2.0-14.3-4.3","battery-v0.2","","""event"",""trial"",""time""
""fullscreenenter"",""1"",""2356""
","
","
","""event"",""trial"",""time""
""fullscreenenter"",""1"",""2356""
","
","","","-1","","","10","10573","4983","&#9826;","elianto","#f73b6a7A","-1","-1","1","0","[]","0","0","3","","","","","","","",""
"call-function","79","647508","0.0-2.0-15.0","battery-v0.2","","""event"",""trial"",""time""
""fullscreenenter"",""1"",""2356""
","
","
","""event"",""trial"",""time""
""fullscreenenter"",""1"",""2356""
","
","","","","","","","","","","","","","","","","","","","","","","","","","","",""
"pit-instructions","80","676028","0.0-2.0-16.0","battery-v0.2","","""event"",""trial"",""time""
""fullscreenenter"",""1"",""2356""
","
","
","""event"",""trial"",""time""
""fullscreenenter"",""1"",""2356""
","
","","[{""page_index"":0,""viewing_time"":6580.600000023842},{""page_index"":1,""viewing_time"":8323.399999976158},{""page_index"":2,""viewing_time"":8457.5},{""page_index"":3,""viewing_time"":5157.399999976158}]","28519.100000023842","","","","","","","","","","","","","","","","","","","","","","","",""
"pit-trial","81","679370","0.0-2.0-17.0-0.0","battery-v0.2","","""event"",""trial"",""time""
""fullscreenenter"",""1"",""2356""
","
","
","""event"",""trial"",""time""
""fullscreenenter"",""1"",""2356""
","
","","","472.39999997615814","","","10","10573","4983","&#9789;","elianto","#f73b6a7A"," "," ","1","0","[1329.3999999761581]","1","0","4","","","","","","","",""
"pit-trial","82","682675","0.0-2.0-17.0-1.0","battery-v0.2","","""event"",""trial"",""time""
""fullscreenenter"",""1"",""2356""
","
","
","""event"",""trial"",""time""
""fullscreenenter"",""1"",""2356""
","
","","","439.39999997615814","","","10","10573","4983","&#9789;","elianto","#f73b6a7A"," "," ","1","0","[1291.1000000238419]","1","0","4","","","","","","","",""
"pit-trial","83","687538","0.0-2.0-17.0-2.0","battery-v0.2","","""event"",""trial"",""time""
""fullscreenenter"",""1"",""2356""
","
","
","""event"",""trial"",""time""
""fullscreenenter"",""1"",""2356""
","
","","","-1","","","10","10573","4983","&#9789;","elianto","#f73b6a7A"," ","-1","0","-10","[]","0","0","4","","","","","","","",""
"pit-trial","84","690826","0.0-2.0-17.0-3.0","battery-v0.2","","""event"",""trial"",""time""
""fullscreenenter"",""1"",""2356""
","
","
","""event"",""trial"",""time""
""fullscreenenter"",""1"",""2356""
","
","","","425.39999997615814","","","10","10573","4983","&#9789;","elianto","#f73b6a7A"," "," ","1","-10","[1277.6999999284744]","1","0","4","","","","","","","",""
"pit-trial","85","694050","0.0-2.0-17.0-4.0","battery-v0.2","","""event"",""trial"",""time""
""fullscreenenter"",""1"",""2356""
","
","
","""event"",""trial"",""time""
""fullscreenenter"",""1"",""2356""
","
","","","359.2000000476837","","","10","10573","4983","&#9789;","elianto","#f73b6a7A"," "," ","1","0","[1212.1000000238419]","1","0","4","","","","","","","",""
"pit-trial","86","697345","0.0-2.0-17.1-0.1","battery-v0.2","","""event"",""trial"",""time""
""fullscreenenter"",""1"",""2356""
","
","
","""event"",""trial"",""time""
""fullscreenenter"",""1"",""2356""
","
","","","435.8000000715256","","","10","10573","4983","&#9789;","elianto","#f73b6a7A"," "," ","1","0","[1289.4000000953674]","1","0","4","","","","","","","",""
"pit-trial","87","700698","0.0-2.0-17.1-1.1","battery-v0.2","","""event"",""trial"",""time""
""fullscreenenter"",""1"",""2356""
","
","
","""event"",""trial"",""time""
""fullscreenenter"",""1"",""2356""
","
","","","492.5","","","10","10573","4983","&#9789;","elianto","#f73b6a7A"," "," ","1","0","[1346.3000000715256]","1","0","4","","","","","","","",""
"pit-trial","88","705283","0.0-2.0-17.1-2.1","battery-v0.2","","""event"",""trial"",""time""
""fullscreenenter"",""1"",""2356""
","
","
","""event"",""trial"",""time""
""fullscreenenter"",""1"",""2356""
","
","","","1721.1000000238419","","","10","10573","4983","&#9789;","elianto","#f73b6a7A"," "," ","1","0","[2573.8000000715256]","1","0","4","","","","","","","",""
"pit-trial","89","709627","0.0-2.0-17.1-3.1","battery-v0.2","","""event"",""trial"",""time""
""fullscreenenter"",""1"",""2356""
","
","
","""event"",""trial"",""time""
""fullscreenenter"",""1"",""2356""
","
","","","1485.5","","","10","10573","4983","&#9789;","elianto","#f73b6a7A"," "," ","1","-10","[2337.7000000476837]","1","0","4","","","","","","","",""
"pit-trial","90","713378","0.0-2.0-17.1-4.1","battery-v0.2","","""event"",""trial"",""time""
""fullscreenenter"",""1"",""2356""
","
","
","""event"",""trial"",""time""
""fullscreenenter"",""1"",""2356""
","
","","","889","","","10","10573","4983","&#9789;","elianto","#f73b6a7A"," "," ","1","0","[1740]","1","0","4","","","","","","","",""
"pit-trial","91","716731","0.0-2.0-17.2-0.2","battery-v0.2","","""event"",""trial"",""time""
""fullscreenenter"",""1"",""2356""
","
","
","""event"",""trial"",""time""
""fullscreenenter"",""1"",""2356""
","
","","","488","","","10","10573","4983","&#9789;","elianto","#f73b6a7A"," "," ","1","0","[1340.0999999046326]","1","0","4","","","","","","","",""
"pit-trial","92","720187","0.0-2.0-17.2-1.2","battery-v0.2","","""event"",""trial"",""time""
""fullscreenenter"",""1"",""2356""
","
","
","""event"",""trial"",""time""
""fullscreenenter"",""1"",""2356""
","
","","","596.3999999761581","","","10","10573","4983","&#9789;","elianto","#f73b6a7A"," "," ","1","0","[1448.5]","1","0","4","","","","","","","",""
"pit-trial","93","723466","0.0-2.0-17.2-2.2","battery-v0.2","","""event"",""trial"",""time""
""fullscreenenter"",""1"",""2356""
","
","
","""event"",""trial"",""time""
""fullscreenenter"",""1"",""2356""
","
","","","417.89999997615814","","","10","10573","4983","&#9789;","elianto","#f73b6a7A"," "," ","1","0","[1268.3999999761581]","1","0","4","","","","","","","",""
"pit-trial","94","726770","0.0-2.0-17.2-3.2","battery-v0.2","","""event"",""trial"",""time""
""fullscreenenter"",""1"",""2356""
","
","
","""event"",""trial"",""time""
""fullscreenenter"",""1"",""2356""
","
","","","443.2000000476837","","","10","10573","4983","&#9789;","elianto","#f73b6a7A"," "," ","1","-10","[1298.2000000476837]","1","0","4","","","","","","","",""
"pit-trial","95","730059","0.0-2.0-17.2-4.2","battery-v0.2","","""event"",""trial"",""time""
""fullscreenenter"",""1"",""2356""
","
","
","""event"",""trial"",""time""
""fullscreenenter"",""1"",""2356""
","
","","","429.39999997615814","","","10","10573","4983","&#9789;","elianto","#f73b6a7A"," "," ","1","0","[1281.6000000238419]","1","0","4","","","","","","","",""
"pit-trial","96","733483","0.0-2.0-17.3-0.3","battery-v0.2","","""event"",""trial"",""time""
""fullscreenenter"",""1"",""2356""
","
","
","""event"",""trial"",""time""
""fullscreenenter"",""1"",""2356""
","
","","","560.3999999761581","","","10","10573","4983","&#9789;","elianto","#f73b6a7A"," "," ","1","0","[1411.3000000715256]","1","0","4","","","","","","","",""
"pit-trial","97","736618","0.0-2.0-17.3-1.3","battery-v0.2","","""event"",""trial"",""time""
""fullscreenenter"",""1"",""2356""
","
","
","""event"",""trial"",""time""
""fullscreenenter"",""1"",""2356""
","
","","","272.6999999284744","","","10","10573","4983","&#9789;","elianto","#f73b6a7A"," "," ","1","0","[1124.8000000715256]","1","0","4","","","","","","","",""
"pit-trial","98","740002","0.0-2.0-17.3-2.3","battery-v0.2","","""event"",""trial"",""time""
""fullscreenenter"",""1"",""2356""
","
","
","""event"",""trial"",""time""
""fullscreenenter"",""1"",""2356""
","
","","","523.6000000238419","","","10","10573","4983","&#9789;","elianto","#f73b6a7A"," "," ","1","0","[1373.3999999761581]","1","0","4","","","","","","","",""
"pit-trial","99","743506","0.0-2.0-17.3-3.3","battery-v0.2","","""event"",""trial"",""time""
""fullscreenenter"",""1"",""2356""
","
","
","""event"",""trial"",""time""
""fullscreenenter"",""1"",""2356""
","
","","","643.2000000476837","","","10","10573","4983","&#9789;","elianto","#f73b6a7A"," "," ","1","-10","[1494.8999999761581]","1","0","4","","","","","","","",""
"pit-trial","100","747114","0.0-2.0-17.3-4.3","battery-v0.2","","""event"",""trial"",""time""
""fullscreenenter"",""1"",""2356""
","
","
","""event"",""trial"",""time""
""fullscreenenter"",""1"",""2356""
","
","","","744.3000000715256","","","10","10573","4983","&#9789;","elianto","#f73b6a7A"," "," ","1","0","[1596.5]","1","0","4","","","","","","","",""
"call-function","101","747118","0.0-2.0-18.0","battery-v0.2","","""event"",""trial"",""time""
""fullscreenenter"",""1"",""2356""
","
","
","""event"",""trial"",""time""
""fullscreenenter"",""1"",""2356""
","
","","","","","","","","","","","","","","","","","","","","","","","","","","",""
"pit-instructions","102","817332","0.0-2.0-19.0","battery-v0.2","","""event"",""trial"",""time""
""fullscreenenter"",""1"",""2356""
","
","
","""event"",""trial"",""time""
""fullscreenenter"",""1"",""2356""
","
","","[{""page_index"":0,""viewing_time"":6835.299999952316},{""page_index"":1,""viewing_time"":6709.600000023842},{""page_index"":2,""viewing_time"":13890.300000071526},{""page_index"":3,""viewing_time"":7477.199999928474},{""page_index"":4,""viewing_time"":8595.800000071526},{""page_index"":5,""viewing_time"":8444.199999928474},{""page_index"":6,""viewing_time"":8274.100000023842},{""page_index"":7,""viewing_time"":6177.600000023842},{""page_index"":8,""viewing_time"":3808.600000023842}]","70213.10000002384","","","","","","","","","","","","","","","","","","","","","","","",""
"pit-comprehension","103","823468","0.0-2.0-20.0-0.0","battery-v0.2","","""event"",""trial"",""time""
""fullscreenenter"",""1"",""2356""
","
","
","""event"",""trial"",""time""
""fullscreenenter"",""1"",""2356""
","
","","","6131","[""SPACE""]","0","10","10573","4983","","","","","","","","","","","","","","","","","","",""
"pit-instructions","104","826240","0.0-2.0-20.0-1.0","battery-v0.2","","""event"",""trial"",""time""
""fullscreenenter"",""1"",""2356""
","
","
","""event"",""trial"",""time""
""fullscreenenter"",""1"",""2356""
","
","","[{""page_index"":0,""viewing_time"":2741.100000023842}]","2741.399999976158","","","","","","","","","","","","","","","","","","","","","","","",""
"pit-comprehension","105","832379","0.0-2.0-21.0-0.0","battery-v0.2","","""event"",""trial"",""time""
""fullscreenenter"",""1"",""2356""
","
","
","""event"",""trial"",""time""
""fullscreenenter"",""1"",""2356""
","
","","","6133.5","[""10""]","0","10","10573","4983","","","","","","","","","","","","","","","","","","",""
"pit-instructions","106","833951","0.0-2.0-21.0-1.0","battery-v0.2","","""event"",""trial"",""time""
""fullscreenenter"",""1"",""2356""
","
","
","""event"",""trial"",""time""
""fullscreenenter"",""1"",""2356""
","
","","[{""page_index"":0,""viewing_time"":1541.7000000476837}]","1542","","","","","","","","","","","","","","","","","","","","","","","",""
"pit-comprehension","107","840389","0.0-2.0-22.0-0.0","battery-v0.2","","""event"",""trial"",""time""
""fullscreenenter"",""1"",""2356""
","
","
","""event"",""trial"",""time""
""fullscreenenter"",""1"",""2356""
","
","","","6433.399999976158","[""0""]","0","10","10573","4983","","","","","","","","","","","","","","","","","","",""
"pit-instructions","108","841885","0.0-2.0-22.0-1.0","battery-v0.2","","""event"",""trial"",""time""
""fullscreenenter"",""1"",""2356""
","
","
","""event"",""trial"",""time""
""fullscreenenter"",""1"",""2356""
","
","","[{""page_index"":0,""viewing_time"":1463.2999999523163}]","1463.5","","","","","","","","","","","","","","","","","","","","","","","",""
"pit-comprehension","109","854368","0.0-2.0-23.0-0.0","battery-v0.2","","""event"",""trial"",""time""
""fullscreenenter"",""1"",""2356""
","
","
","""event"",""trial"",""time""
""fullscreenenter"",""1"",""2356""
","
","","","12479.5","[""True""]","0","10","10573","4983","","","","","","","","","","","","","","","","","","",""
"pit-instructions","110","855999","0.0-2.0-23.0-1.0","battery-v0.2","","""event"",""trial"",""time""
""fullscreenenter"",""1"",""2356""
","
","
","""event"",""trial"",""time""
""fullscreenenter"",""1"",""2356""
","
","","[{""page_index"":0,""viewing_time"":1597.8000000715256}]","1598.1000000238419","","","","","","","","","","","","","","","","","","","","","","","",""
"pit-comprehension","111","863694","0.0-2.0-24.0-0.0","battery-v0.2","","""event"",""trial"",""time""
""fullscreenenter"",""1"",""2356""
","
","
","""event"",""trial"",""time""
""fullscreenenter"",""1"",""2356""
","
","","","7691","[""True""]","0","10","10573","4983","","","","","","","","","","","","","","","","","","",""
"pit-instructions","112","865246","0.0-2.0-24.0-1.0","battery-v0.2","","""event"",""trial"",""time""
""fullscreenenter"",""1"",""2356""
","
","
","""event"",""trial"",""time""
""fullscreenenter"",""1"",""2356""
","
","","[{""page_index"":0,""viewing_time"":1520.1000000238419}]","1520.2999999523163","","","","","","","","","","","","","","","","","","","","","","","",""
"pit-comprehension","113","872224","0.0-2.0-25.0-0.0","battery-v0.2","","""event"",""trial"",""time""
""fullscreenenter"",""1"",""2356""
","
","
","""event"",""trial"",""time""
""fullscreenenter"",""1"",""2356""
","
","","","6974","[""True""]","0","10","10573","4983","","","","","","","","","","","","","","","","","","",""
"pit-instructions","114","873908","0.0-2.0-25.0-1.0","battery-v0.2","","""event"",""trial"",""time""
""fullscreenenter"",""1"",""2356""
","
","
","""event"",""trial"",""time""
""fullscreenenter"",""1"",""2356""
","
","","[{""page_index"":0,""viewing_time"":1652.6000000238419}]","1653.1000000238419","","","","","","","","","","","","","","","","","","","","","","","",""
"pit-comprehension","115","879715","0.0-2.0-26.0-0.0","battery-v0.2","","""event"",""trial"",""time""
""fullscreenenter"",""1"",""2356""
","
","
","""event"",""trial"",""time""
""fullscreenenter"",""1"",""2356""
","
","","","5801.799999952316","[""False""]","0","10","10573","4983","","","","","","","","","","","","","","","","","","",""
"pit-instructions","116","881221","0.0-2.0-26.0-1.0","battery-v0.2","","""event"",""trial"",""time""
""fullscreenenter"",""1"",""2356""
","
","
","""event"",""trial"",""time""
""fullscreenenter"",""1"",""2356""
","
","","[{""page_index"":0,""viewing_time"":1474.3000000715256}]","1474.7000000476837","","","","","","","","","","","","","","","","","","","","","","","",""
"pit-instructions","117","898850","0.0-3.0","battery-v0.2","","""event"",""trial"",""time""
""fullscreenenter"",""1"",""2356""
","
","
","""event"",""trial"",""time""
""fullscreenenter"",""1"",""2356""
","
","","[{""page_index"":0,""viewing_time"":4124.799999952316},{""page_index"":1,""viewing_time"":5607.300000071526},{""page_index"":2,""viewing_time"":7893}]","17625.399999976158","","","","","","","","","","","","","","","","","","","","","","","",""
"pit-trial","118","902788","0.0-4.0","battery-v0.2","","""event"",""trial"",""time""
""fullscreenenter"",""1"",""2356""
","
","
","""event"",""trial"",""time""
""fullscreenenter"",""1"",""2356""
","
","","","1063","","","10","10573","4983","&#9728;","elianto","#f73b6a7A","-1"," ","0","-10","[1921.6999999284744]","1","1","","","10573","1","0","4","lose","no-go","0"
"pit-trial","119","906884","0.0-5.0","battery-v0.2","","""event"",""trial"",""time""
""fullscreenenter"",""1"",""2356""
","
","
","""event"",""trial"",""time""
""fullscreenenter"",""1"",""2356""
","
","","","1235.8999999761581","","","10","10573","4983","&#9752;","elianto","#f73b6a7A"," "," ","1","0","[2088.2000000476837]","1","1","","","10573","2","3","3","lose","go","0"
"pit-trial","120","910828","0.0-6.0","battery-v0.2","","""event"",""trial"",""time""
""fullscreenenter"",""1"",""2356""
","
","
","""event"",""trial"",""time""
""fullscreenenter"",""1"",""2356""
","
","","","1088.7000000476837","","","10","10573","4983","&#9730;","elianto","#3366ff99"," "," ","1","+10","[1938.8999999761581]","1","1","","","10573","3","1","1","win","go","0"
"pit-trial","121","914493","0.0-7.0","battery-v0.2","","""event"",""trial"",""time""
""fullscreenenter"",""1"",""2356""
","
","
","""event"",""trial"",""time""
""fullscreenenter"",""1"",""2356""
","
","","","803.6999999284744","","","10","10573","4983","&#9733;","elianto","#3366ff99","-1"," ","0","0","[1656.1000000238419]","1","1","","","10573","4","2","2","win","no-go","0"
"pit-trial","122","919117","0.0-8.0","battery-v0.2","","""event"",""trial"",""time""
""fullscreenenter"",""1"",""2356""
","
","
","""event"",""trial"",""time""
""fullscreenenter"",""1"",""2356""
","
","","","1764.7999999523163","","","10","10573","4983","&#9752;","elianto","#f73b6a7A"," "," ","1","-10","[2617.2000000476837]","1","1","","","10573","5","3","3","lose","go","1"
"pit-trial","123","922893","0.0-9.0","battery-v0.2","","""event"",""trial"",""time""
""fullscreenenter"",""1"",""2356""
","
","
","""event"",""trial"",""time""
""fullscreenenter"",""1"",""2356""
","
","","","918.3999999761581","","","10","10573","4983","&#9728;","elianto","#f73b6a7A","-1"," ","0","0","[1769.6000000238419]","1","1","","","10573","6","0","4","lose","no-go","1"
"pit-trial","124","927756","0.0-10.0","battery-v0.2","","""event"",""trial"",""time""
""fullscreenenter"",""1"",""2356""
","
","
","""event"",""trial"",""time""
""fullscreenenter"",""1"",""2356""
","
","","","-1","","","10","10573","4983","&#9730;","elianto","#3366ff99"," ","-1","0","+10","[]","0","1","","","10573","7","1","1","win","go","1"
"pit-trial","125","931173","0.0-11.0","battery-v0.2","","""event"",""trial"",""time""
""fullscreenenter"",""1"",""2356""
","
","
","""event"",""trial"",""time""
""fullscreenenter"",""1"",""2356""
","
","","","553.9000000953674","","","10","10573","4983","&#9733;","elianto","#3366ff99","-1"," ","0","+10","[1405.9000000953674]","1","1","","","10573","8","2","2","win","no-go","1"
"pit-trial","126","936037","0.0-12.0","battery-v0.2","","""event"",""trial"",""time""
""fullscreenenter"",""1"",""2356""
","
","
","""event"",""trial"",""time""
""fullscreenenter"",""1"",""2356""
","
","","","-1","","","10","10573","4983","&#9728;","elianto","#f73b6a7A","-1","-1","1","0","[]","0","1","","","10573","9","0","4","lose","no-go","0"
"pit-trial","127","940572","0.0-13.0","battery-v0.2","","""event"",""trial"",""time""
""fullscreenenter"",""1"",""2356""
","
","
","""event"",""trial"",""time""
""fullscreenenter"",""1"",""2356""
","
","","","1678.3999999761581","","","10","10573","4983","&#9733;","elianto","#3366ff99","-1"," ","0","+10","[2530.3000000715256]","1","1","","","10573","10","2","2","win","no-go","1"
"pit-trial","128","945436","0.0-14.0","battery-v0.2","","""event"",""trial"",""time""
""fullscreenenter"",""1"",""2356""
","
","
","""event"",""trial"",""time""
""fullscreenenter"",""1"",""2356""
","
","","","-1","","","10","10573","4983","&#9730;","elianto","#3366ff99"," ","-1","0","0","[]","0","1","","","10573","11","1","1","win","go","0"
"pit-trial","129","949829","0.0-15.0","battery-v0.2","","""event"",""trial"",""time""
""fullscreenenter"",""1"",""2356""
","
","
","""event"",""trial"",""time""
""fullscreenenter"",""1"",""2356""
","
","","","1532.7000000476837","","","10","10573","4983","&#9752;","elianto","#f73b6a7A"," "," ","1","0","[2383.1999999284744]","1","1","","","10573","12","3","3","lose","go","0"
"pit-trial","130","954020","0.0-16.0","battery-v0.2","","""event"",""trial"",""time""
""fullscreenenter"",""1"",""2356""
","
","
","""event"",""trial"",""time""
""fullscreenenter"",""1"",""2356""
","
","","","1328.8999999761581","","","10","10573","4983","&#9733;","elianto","#3366ff99","-1"," ","0","+10","[2181.7000000476837]","1","1","","","10573","13","2","2","win","no-go","1"
"pit-trial","131","958885","0.0-17.0","battery-v0.2","","""event"",""trial"",""time""
""fullscreenenter"",""1"",""2356""
","
","
","""event"",""trial"",""time""
""fullscreenenter"",""1"",""2356""
","
","","","-1","","","10","10573","4983","&#9728;","elianto","#f73b6a7A","-1","-1","1","0","[]","0","1","","","10573","14","0","4","lose","no-go","0"
"pit-trial","132","962974","0.0-18.0","battery-v0.2","","""event"",""trial"",""time""
""fullscreenenter"",""1"",""2356""
","
","
","""event"",""trial"",""time""
""fullscreenenter"",""1"",""2356""
","
","","","1227.3999999761581","","","10","10573","4983","&#9752;","elianto","#f73b6a7A"," "," ","1","0","[2077.6999999284744]","1","1","","","10573","15","3","3","lose","go","0"
"pit-trial","133","967838","0.0-19.0","battery-v0.2","","""event"",""trial"",""time""
""fullscreenenter"",""1"",""2356""
","
","
","""event"",""trial"",""time""
""fullscreenenter"",""1"",""2356""
","
","","","-1","","","10","10573","4983","&#9730;","elianto","#3366ff99"," ","-1","0","0","[]","0","1","","","10573","16","1","1","win","go","0"
"pit-trial","134","971676","0.0-20.0","battery-v0.2","","""event"",""trial"",""time""
""fullscreenenter"",""1"",""2356""
","
","
","""event"",""trial"",""time""
""fullscreenenter"",""1"",""2356""
","
","","","975.1000000238419","","","10","10573","4983","&#9730;","elianto","#3366ff99"," "," ","1","+10","[1826.2999999523163]","1","1","","","10573","17","1","1","win","go","0"
"pit-trial","135","976542","0.0-21.0","battery-v0.2","","""event"",""trial"",""time""
""fullscreenenter"",""1"",""2356""
","
","
","""event"",""trial"",""time""
""fullscreenenter"",""1"",""2356""
","
","","","-1","","","10","10573","4983","&#9728;","elianto","#f73b6a7A","-1","-1","1","0","[]","0","1","","","10573","18","0","4","lose","no-go","0"
"pit-trial","136","981406","0.0-22.0","battery-v0.2","","""event"",""trial"",""time""
""fullscreenenter"",""1"",""2356""
","
","
","""event"",""trial"",""time""
""fullscreenenter"",""1"",""2356""
","
","","","-1","","","10","10573","4983","&#9752;","elianto","#f73b6a7A"," ","-1","0","-10","[]","0","1","","","10573","19","3","3","lose","go","0"
"pit-trial","137","985260","0.0-23.0","battery-v0.2","","""event"",""trial"",""time""
""fullscreenenter"",""1"",""2356""
","
","
","""event"",""trial"",""time""
""fullscreenenter"",""1"",""2356""
","
","","","992.7000000476837","","","10","10573","4983","&#9733;","elianto","#3366ff99","-1"," ","0","0","[1844.1999999284744]","1","1","","","10573","20","2","2","win","no-go","0"
"pit-instructions","138","998736","0.0-24.0","battery-v0.2","","""event"",""trial"",""time""
""fullscreenenter"",""1"",""2356""
","
","
","""event"",""trial"",""time""
""fullscreenenter"",""1"",""2356""
","
","","[{""page_index"":0,""viewing_time"":6180.899999976158},{""page_index"":1,""viewing_time"":7291.299999952316}]","13472.399999976158","","","","","","","","","","","","","","","","","","","","","","","",""
"pit-trial","139","1002517","0.0-25.0","battery-v0.2","","""event"",""trial"",""time""
""fullscreenenter"",""1"",""2356""
","
","
","""event"",""trial"",""time""
""fullscreenenter"",""1"",""2356""
","
","","","918.2000000476837","","","10","10573","4983","w","elianto","#f73b6a7A"," "," ","1","0","[1775.2000000476837]","1","2","","","10573","21","3","3","lose","go","0"
"pit-trial","140","1006126","0.0-26.0","battery-v0.2","","""event"",""trial"",""time""
""fullscreenenter"",""1"",""2356""
","
","
","""event"",""trial"",""time""
""fullscreenenter"",""1"",""2356""
","
","","","746.3000000715256","","","10","10573","4983","j","elianto","#f73b6a7A","-1"," ","0","-10","[1597]","1","2","","","10573","22","0","4","lose","no-go","0"
"pit-trial","141","1009805","0.0-27.0","battery-v0.2","","""event"",""trial"",""time""
""fullscreenenter"",""1"",""2356""
","
","
","""event"",""trial"",""time""
""fullscreenenter"",""1"",""2356""
","
","","","817.5","","","10","10573","4983","e","elianto","#f73b6a7A","-1"," ","0","-10","[1669.6000000238419]","1","2","","","10573","23","2","4","lose","no-go","0"
"pit-trial","142","1013366","0.0-28.0","battery-v0.2","","""event"",""trial"",""time""
""fullscreenenter"",""1"",""2356""
","
","
","""event"",""trial"",""time""
""fullscreenenter"",""1"",""2356""
","
","","","699.2999999523163","","","10","10573","4983","d","elianto","#3366ff99"," "," ","1","+10","[1551.5]","1","2","","","10573","24","1","1","win","go","0"
"pit-trial","143","1018230","0.0-29.0","battery-v0.2","","""event"",""trial"",""time""
""fullscreenenter"",""1"",""2356""
","
","
","""event"",""trial"",""time""
""fullscreenenter"",""1"",""2356""
","
","","","-1","","","10","10573","4983","e","elianto","#f73b6a7A","-1","-1","1","0","[]","0","2","","","10573","25","2","4","lose","no-go","0"
"pit-trial","144","1022477","0.0-30.0","battery-v0.2","","""event"",""trial"",""time""
""fullscreenenter"",""1"",""2356""
","
","
","""event"",""trial"",""time""
""fullscreenenter"",""1"",""2356""
","
","","","1387.4000000953674","","","10","10573","4983","w","elianto","#f73b6a7A"," "," ","1","-10","[2239.600000023842]","1","2","","","10573","26","3","3","lose","go","1"
"pit-trial","145","1027342","0.0-31.0","battery-v0.2","","""event"",""trial"",""time""
""fullscreenenter"",""1"",""2356""
","
","
","""event"",""trial"",""time""
""fullscreenenter"",""1"",""2356""
","
","","","-1","","","10","10573","4983","j","elianto","#f73b6a7A","-1","-1","1","0","[]","0","2","","","10573","27","0","4","lose","no-go","0"
"pit-trial","146","1031198","0.0-32.0","battery-v0.2","","""event"",""trial"",""time""
""fullscreenenter"",""1"",""2356""
","
","
","""event"",""trial"",""time""
""fullscreenenter"",""1"",""2356""
","
","","","998.1000000238419","","","10","10573","4983","d","elianto","#3366ff99"," "," ","1","0","[1851.0999999046326]","1","2","","","10573","28","1","1","win","go","1"
"pit-trial","147","1036062","0.0-33.0","battery-v0.2","","""event"",""trial"",""time""
""fullscreenenter"",""1"",""2356""
","
","
","""event"",""trial"",""time""
""fullscreenenter"",""1"",""2356""
","
","","","-1","","","10","10573","4983","j","elianto","#f73b6a7A","-1","-1","1","0","[]","0","2","","","10573","29","0","4","lose","no-go","0"
"pit-trial","148","1040926","0.0-34.0","battery-v0.2","","""event"",""trial"",""time""
""fullscreenenter"",""1"",""2356""
","
","
","""event"",""trial"",""time""
""fullscreenenter"",""1"",""2356""
","
","","","-1","","","10","10573","4983","e","elianto","#f73b6a7A","-1","-1","1","0","[3051.100000023842]","1","2","","","10573","30","2","4","lose","no-go","0"
"pit-trial","149","1044934","0.0-35.0","battery-v0.2","","""event"",""trial"",""time""
""fullscreenenter"",""1"",""2356""
","
","
","""event"",""trial"",""time""
""fullscreenenter"",""1"",""2356""
","
","","","1145.3000000715256","","","10","10573","4983","w","elianto","#f73b6a7A"," "," ","1","0","[1997.7000000476837]","1","2","","","10573","31","3","3","lose","go","0"
"pit-trial","150","1048710","0.0-36.0","battery-v0.2","","""event"",""trial"",""time""
""fullscreenenter"",""1"",""2356""
","
","
","""event"",""trial"",""time""
""fullscreenenter"",""1"",""2356""
","
","","","918.2000000476837","","","10","10573","4983","d","elianto","#3366ff99"," "," ","1","+10","[1769.7000000476837]","1","2","","","10573","32","1","1","win","go","0"
"pit-trial","151","1052542","0.0-37.0","battery-v0.2","","""event"",""trial"",""time""
""fullscreenenter"",""1"",""2356""
","
","
","""event"",""trial"",""time""
""fullscreenenter"",""1"",""2356""
","
","","","971.7000000476837","","","10","10573","4983","d","elianto","#3366ff99"," "," ","1","+10","[1823.3999999761581]","1","2","","","10573","33","1","1","win","go","0"
"pit-trial","152","1057406","0.0-38.0","battery-v0.2","","""event"",""trial"",""time""
""fullscreenenter"",""1"",""2356""
","
","
","""event"",""trial"",""time""
""fullscreenenter"",""1"",""2356""
","
","","","-1","","","10","10573","4983","e","elianto","#f73b6a7A","-1","-1","1","0","[]","0","2","","","10573","34","2","4","lose","no-go","0"
"pit-trial","153","1062270","0.0-39.0","battery-v0.2","","""event"",""trial"",""time""
""fullscreenenter"",""1"",""2356""
","
","
","""event"",""trial"",""time""
""fullscreenenter"",""1"",""2356""
","
","","","-1","","","10","10573","4983","j","elianto","#f73b6a7A","-1","-1","1","0","[]","0","2","","","10573","35","0","4","lose","no-go","0"
"pit-trial","154","1065846","0.0-40.0","battery-v0.2","","""event"",""trial"",""time""
""fullscreenenter"",""1"",""2356""
","
","
","""event"",""trial"",""time""
""fullscreenenter"",""1"",""2356""
","
","","","716.3000000715256","","","10","10573","4983","w","elianto","#f73b6a7A"," "," ","1","0","[1567.8000000715256]","1","2","","","10573","36","3","3","lose","go","0"
"pit-trial","155","1070709","0.0-41.0","battery-v0.2","","""event"",""trial"",""time""
""fullscreenenter"",""1"",""2356""
","
","
","""event"",""trial"",""time""
""fullscreenenter"",""1"",""2356""
","
","","","-1","","","10","10573","4983","j","elianto","#f73b6a7A","-1","-1","1","-10","[]","0","2","","","10573","37","0","4","lose","no-go","1"
"pit-trial","156","1074406","0.0-42.0","battery-v0.2","","""event"",""trial"",""time""
""fullscreenenter"",""1"",""2356""
","
","
","""event"",""trial"",""time""
""fullscreenenter"",""1"",""2356""
","
","","","832.2000000476837","","","10","10573","4983","d","elianto","#3366ff99"," "," ","1","+10","[1686.6000000238419]","1","2","","","10573","38","1","1","win","go","0"
"pit-trial","157","1078230","0.0-43.0","battery-v0.2","","""event"",""trial"",""time""
""fullscreenenter"",""1"",""2356""
","
","
","""event"",""trial"",""time""
""fullscreenenter"",""1"",""2356""
","
","","","961.1999999284744","","","10","10573","4983","w","elianto","#f73b6a7A"," "," ","1","0","[1813]","1","2","","","10573","39","3","3","lose","go","0"
"pit-trial","158","1083094","0.0-44.0","battery-v0.2","","""event"",""trial"",""time""
""fullscreenenter"",""1"",""2356""
","
","
","""event"",""trial"",""time""
""fullscreenenter"",""1"",""2356""
","
","","","-1","","","10","10573","4983","e","elianto","#f73b6a7A","-1","-1","1","0","[]","0","2","","","10573","40","2","4","lose","no-go","0"
"pit-trial","159","1087959","0.0-45.0","battery-v0.2","","""event"",""trial"",""time""
""fullscreenenter"",""1"",""2356""
","
","
","""event"",""trial"",""time""
""fullscreenenter"",""1"",""2356""
","
","","","-1","","","10","10573","4983","e","elianto","#f73b6a7A","-1","-1","1","0","[]","0","2","","","10573","41","2","4","lose","no-go","0"
"pit-trial","160","1092823","0.0-46.0","battery-v0.2","","""event"",""trial"",""time""
""fullscreenenter"",""1"",""2356""
","
","
","""event"",""trial"",""time""
""fullscreenenter"",""1"",""2356""
","
","","","-1","","","10","10573","4983","j","elianto","#f73b6a7A","-1","-1","1","0","[]","0","2","","","10573","42","0","4","lose","no-go","0"
"pit-trial","161","1096295","0.0-47.0","battery-v0.2","","""event"",""trial"",""time""
""fullscreenenter"",""1"",""2356""
","
","
","""event"",""trial"",""time""
""fullscreenenter"",""1"",""2356""
","
","","","608.5999999046326","","","10","10573","4983","d","elianto","#3366ff99"," "," ","1","0","[1460.2000000476837]","1","2","","","10573","43","1","1","win","go","1"
"pit-trial","162","1100046","0.0-48.0","battery-v0.2","","""event"",""trial"",""time""
""fullscreenenter"",""1"",""2356""
","
","
","""event"",""trial"",""time""
""fullscreenenter"",""1"",""2356""
","
","","","892.1000000238419","","","10","10573","4983","w","elianto","#f73b6a7A"," "," ","1","0","[1744.2000000476837]","1","2","","","10573","44","3","3","lose","go","0"
"pit-trial","163","1104231","0.0-49.0","battery-v0.2","","""event"",""trial"",""time""
""fullscreenenter"",""1"",""2356""
","
","
","""event"",""trial"",""time""
""fullscreenenter"",""1"",""2356""
","
","","","1319.7999999523163","","","10","10573","4983","s","elianto","#3366ff99","-1"," ","0","0","[2173.7999999523163]","1","2","","","10573","45","4","2","win","no-go","0"
"pit-trial","164","1108087","0.0-50.0","battery-v0.2","","""event"",""trial"",""time""
""fullscreenenter"",""1"",""2356""
","
","
","""event"",""trial"",""time""
""fullscreenenter"",""1"",""2356""
","
","","","992.1000000238419","","","10","10573","4983","w","elianto","#f73b6a7A"," "," ","1","0","[1844.7999999523163]","1","2","","","10573","46","3","3","lose","go","0"
"pit-trial","165","1112950","0.0-51.0","battery-v0.2","","""event"",""trial"",""time""
""fullscreenenter"",""1"",""2356""
","
","
","""event"",""trial"",""time""
""fullscreenenter"",""1"",""2356""
","
","","","-1","","","10","10573","4983","e","elianto","#f73b6a7A","-1","-1","1","0","[]","0","2","","","10573","47","2","4","lose","no-go","0"
"pit-trial","166","1117815","0.0-52.0","battery-v0.2","","""event"",""trial"",""time""
""fullscreenenter"",""1"",""2356""
","
","
","""event"",""trial"",""time""
""fullscreenenter"",""1"",""2356""
","
","","","-1","","","10","10573","4983","j","elianto","#f73b6a7A","-1","-1","1","0","[]","0","2","","","10573","48","0","4","lose","no-go","0"
"pit-trial","167","1121439","0.0-53.0","battery-v0.2","","""event"",""trial"",""time""
""fullscreenenter"",""1"",""2356""
","
","
","""event"",""trial"",""time""
""fullscreenenter"",""1"",""2356""
","
","","","765.9000000953674","","","10","10573","4983","d","elianto","#3366ff99"," "," ","1","+10","[1617.7000000476837]","1","2","","","10573","49","1","1","win","go","0"
"pit-trial","168","1124791","0.0-54.0","battery-v0.2","","""event"",""trial"",""time""
""fullscreenenter"",""1"",""2356""
","
","
","""event"",""trial"",""time""
""fullscreenenter"",""1"",""2356""
","
","","","489","","","10","10573","4983","s","elianto","#3366ff99","-1"," ","0","0","[1340.1999999284744]","1","2","","","10573","50","4","2","win","no-go","0"
"pit-trial","169","1128696","0.0-55.0","battery-v0.2","","""event"",""trial"",""time""
""fullscreenenter"",""1"",""2356""
","
","
","""event"",""trial"",""time""
""fullscreenenter"",""1"",""2356""
","
","","","1045.8999999761581","","","10","10573","4983","w","elianto","#f73b6a7A"," "," ","1","0","[1897.3999999761581]","1","2","","","10573","51","3","3","lose","go","0"
"pit-trial","170","1133559","0.0-56.0","battery-v0.2","","""event"",""trial"",""time""
""fullscreenenter"",""1"",""2356""
","
","
","""event"",""trial"",""time""
""fullscreenenter"",""1"",""2356""
","
","","","-1","","","10","10573","4983","j","elianto","#f73b6a7A","-1","-1","1","0","[]","0","2","","","10573","52","0","4","lose","no-go","0"
"pit-trial","171","1137127","0.0-57.0","battery-v0.2","","""event"",""trial"",""time""
""fullscreenenter"",""1"",""2356""
","
","
","""event"",""trial"",""time""
""fullscreenenter"",""1"",""2356""
","
","","","706.8999999761581","","","10","10573","4983","d","elianto","#3366ff99"," "," ","1","+10","[1559.8999999761581]","1","2","","","10573","53","1","1","win","go","0"
"pit-trial","172","1141992","0.0-58.0","battery-v0.2","","""event"",""trial"",""time""
""fullscreenenter"",""1"",""2356""
","
","
","""event"",""trial"",""time""
""fullscreenenter"",""1"",""2356""
","
","","","-1","","","10","10573","4983","e","elianto","#f73b6a7A","-1","-1","1","0","[]","0","2","","","10573","54","2","4","lose","no-go","0"
"pit-trial","173","1146855","0.0-59.0","battery-v0.2","","""event"",""trial"",""time""
""fullscreenenter"",""1"",""2356""
","
","
","""event"",""trial"",""time""
""fullscreenenter"",""1"",""2356""
","
","","","-1","","","10","10573","4983","j","elianto","#f73b6a7A","-1","-1","1","0","[]","0","2","","","10573","55","0","4","lose","no-go","0"
"pit-trial","174","1151719","0.0-60.0","battery-v0.2","","""event"",""trial"",""time""
""fullscreenenter"",""1"",""2356""
","
","
","""event"",""trial"",""time""
""fullscreenenter"",""1"",""2356""
","
","","","-1","","","10","10573","4983","s","elianto","#3366ff99","-1","-1","1","0","[]","0","2","","","10573","56","4","2","win","no-go","1"
"pit-trial","175","1156583","0.0-61.0","battery-v0.2","","""event"",""trial"",""time""
""fullscreenenter"",""1"",""2356""
","
","
","""event"",""trial"",""time""
""fullscreenenter"",""1"",""2356""
","
","","","-1","","","10","10573","4983","j","elianto","#f73b6a7A","-1","-1","1","0","[]","0","2","","","10573","57","0","4","lose","no-go","0"
"pit-trial","176","1161447","0.0-62.0","battery-v0.2","","""event"",""trial"",""time""
""fullscreenenter"",""1"",""2356""
","
","
","""event"",""trial"",""time""
""fullscreenenter"",""1"",""2356""
","
","","","-1","","","10","10573","4983","s","elianto","#3366ff99","-1","-1","1","+10","[]","0","2","","","10573","58","4","2","win","no-go","0"
"pit-trial","177","1165408","0.0-63.0","battery-v0.2","","""event"",""trial"",""time""
""fullscreenenter"",""1"",""2356""
","
","
","""event"",""trial"",""time""
""fullscreenenter"",""1"",""2356""
","
","","","1102.6999999284744","","","10","10573","4983","w","elianto","#f73b6a7A"," "," ","1","0","[1954.3000000715256]","1","2","","","10573","59","3","3","lose","go","0"
"pit-trial","178","1168775","0.0-64.0","battery-v0.2","","""event"",""trial"",""time""
""fullscreenenter"",""1"",""2356""
","
","
","""event"",""trial"",""time""
""fullscreenenter"",""1"",""2356""
","
","","","508.2999999523163","","","10","10573","4983","d","elianto","#3366ff99"," "," ","1","+10","[1359.4000000953674]","1","2","","","10573","60","1","1","win","go","0"
"pit-trial","179","1172535","0.0-65.0","battery-v0.2","","""event"",""trial"",""time""
""fullscreenenter"",""1"",""2356""
","
","
","""event"",""trial"",""time""
""fullscreenenter"",""1"",""2356""
","
","","","898","","","10","10573","4983","w","elianto","#f73b6a7A"," "," ","1","0","[1751.2000000476837]","1","2","","","10573","61","3","3","lose","go","0"
"pit-trial","180","1175991","0.0-66.0","battery-v0.2","","""event"",""trial"",""time""
""fullscreenenter"",""1"",""2356""
","
","
","""event"",""trial"",""time""
""fullscreenenter"",""1"",""2356""
","
","","","598.1000000238419","","","10","10573","4983","d","elianto","#3366ff99"," "," ","1","0","[1448.8999999761581]","1","2","","","10573","62","1","1","win","go","1"
"pit-trial","181","1180856","0.0-67.0","battery-v0.2","","""event"",""trial"",""time""
""fullscreenenter"",""1"",""2356""
","
","
","""event"",""trial"",""time""
""fullscreenenter"",""1"",""2356""
","
","","","-1","","","10","10573","4983","s","elianto","#3366ff99","-1","-1","1","+10","[]","0","2","","","10573","63","4","2","win","no-go","0"
"pit-trial","182","1185720","0.0-68.0","battery-v0.2","","""event"",""trial"",""time""
""fullscreenenter"",""1"",""2356""
","
","
","""event"",""trial"",""time""
""fullscreenenter"",""1"",""2356""
","
","","","-1","","","10","10573","4983","e","elianto","#f73b6a7A","-1","-1","1","0","[]","0","2","","","10573","64","2","4","lose","no-go","0"
"pit-trial","183","1189456","0.0-69.0","battery-v0.2","","""event"",""trial"",""time""
""fullscreenenter"",""1"",""2356""
","
","
","""event"",""trial"",""time""
""fullscreenenter"",""1"",""2356""
","
","","","877.7999999523163","","","10","10573","4983","d","elianto","#3366ff99"," "," ","1","+10","[1729.2999999523163]","1","2","","","10573","65","1","1","win","go","0"
"pit-trial","184","1193136","0.0-70.0","battery-v0.2","","""event"",""trial"",""time""
""fullscreenenter"",""1"",""2356""
","
","
","""event"",""trial"",""time""
""fullscreenenter"",""1"",""2356""
","
","","","817","","","10","10573","4983","w","elianto","#f73b6a7A"," "," ","1","0","[1668.7000000476837]","1","2","","","10573","66","3","3","lose","go","0"
"pit-trial","185","1197999","0.0-71.0","battery-v0.2","","""event"",""trial"",""time""
""fullscreenenter"",""1"",""2356""
","
","
","""event"",""trial"",""time""
""fullscreenenter"",""1"",""2356""
","
","","","-1","","","10","10573","4983","e","elianto","#f73b6a7A","-1","-1","1","0","[]","0","2","","","10573","67","2","4","lose","no-go","0"
"pit-trial","186","1202863","0.0-72.0","battery-v0.2","","""event"",""trial"",""time""
""fullscreenenter"",""1"",""2356""
","
","
","""event"",""trial"",""time""
""fullscreenenter"",""1"",""2356""
","
","","","-1","","","10","10573","4983","s","elianto","#3366ff99","-1","-1","1","+10","[]","0","2","","","10573","68","4","2","win","no-go","0"
"pit-trial","187","1207727","0.0-73.0","battery-v0.2","","""event"",""trial"",""time""
""fullscreenenter"",""1"",""2356""
","
","
","""event"",""trial"",""time""
""fullscreenenter"",""1"",""2356""
","
","","","-1","","","10","10573","4983","s","elianto","#3366ff99","-1","-1","1","0","[]","0","2","","","10573","69","4","2","win","no-go","1"
"pit-trial","188","1211320","0.0-74.0","battery-v0.2","","""event"",""trial"",""time""
""fullscreenenter"",""1"",""2356""
","
","
","""event"",""trial"",""time""
""fullscreenenter"",""1"",""2356""
","
","","","733.3999999761581","","","10","10573","4983","d","elianto","#3366ff99"," "," ","1","+10","[1586.6999999284744]","1","2","","","10573","70","1","1","win","go","0"
"pit-trial","189","1215368","0.0-75.0","battery-v0.2","","""event"",""trial"",""time""
""fullscreenenter"",""1"",""2356""
","
","
","""event"",""trial"",""time""
""fullscreenenter"",""1"",""2356""
","
","","","1190.0999999046326","","","10","10573","4983","p","elianto","#3366ff99"," "," ","1","+10","[2041.9000000953674]","1","2","","","10573","71","5","1","win","go","0"
"pit-trial","190","1219039","0.0-76.0","battery-v0.2","","""event"",""trial"",""time""
""fullscreenenter"",""1"",""2356""
","
","
","""event"",""trial"",""time""
""fullscreenenter"",""1"",""2356""
","
","","","810.1000000238419","","","10","10573","4983","w","elianto","#f73b6a7A"," "," ","1","0","[1660.3000000715256]","1","2","","","10573","72","3","3","lose","go","0"
"pit-trial","191","1222616","0.0-77.0","battery-v0.2","","""event"",""trial"",""time""
""fullscreenenter"",""1"",""2356""
","
","
","""event"",""trial"",""time""
""fullscreenenter"",""1"",""2356""
","
","","","712.6999999284744","","","10","10573","4983","d","elianto","#3366ff99"," "," ","1","+10","[1566.3999999761581]","1","2","","","10573","73","1","1","win","go","0"
"pit-trial","192","1226256","0.0-78.0","battery-v0.2","","""event"",""trial"",""time""
""fullscreenenter"",""1"",""2356""
","
","
","""event"",""trial"",""time""
""fullscreenenter"",""1"",""2356""
","
","","","782","","","10","10573","4983","w","elianto","#f73b6a7A"," "," ","1","0","[1633.5999999046326]","1","2","","","10573","74","3","3","lose","go","0"
"pit-trial","193","1229801","0.0-79.0","battery-v0.2","","""event"",""trial"",""time""
""fullscreenenter"",""1"",""2356""
","
","
","""event"",""trial"",""time""
""fullscreenenter"",""1"",""2356""
","
","","","686.5999999046326","","","10","10573","4983","p","elianto","#3366ff99"," "," ","1","+10","[1537.9000000953674]","1","2","","","10573","75","5","1","win","go","0"
"pit-trial","194","1234664","0.0-80.0","battery-v0.2","","""event"",""trial"",""time""
""fullscreenenter"",""1"",""2356""
","
","
","""event"",""trial"",""time""
""fullscreenenter"",""1"",""2356""
","
","","","-1","","","10","10573","4983","s","elianto","#3366ff99","-1","-1","1","+10","[]","0","2","","","10573","76","4","2","win","no-go","0"
"pit-trial","195","1239280","0.0-81.0","battery-v0.2","","""event"",""trial"",""time""
""fullscreenenter"",""1"",""2356""
","
","
","""event"",""trial"",""time""
""fullscreenenter"",""1"",""2356""
","
","","","1752","","","10","10573","4983","g","elianto","#f73b6a7A","-1"," ","0","-10","[2605]","1","2","","","10573","77","6","4","lose","no-go","0"
"pit-trial","196","1243047","0.0-82.0","battery-v0.2","","""event"",""trial"",""time""
""fullscreenenter"",""1"",""2356""
","
","
","""event"",""trial"",""time""
""fullscreenenter"",""1"",""2356""
","
","","","904.8999999761581","","","10","10573","4983","w","elianto","#f73b6a7A"," "," ","1","0","[1756.8999999761581]","1","2","","","10573","78","3","3","lose","go","0"
"pit-trial","197","1247912","0.0-83.0","battery-v0.2","","""event"",""trial"",""time""
""fullscreenenter"",""1"",""2356""
","
","
","""event"",""trial"",""time""
""fullscreenenter"",""1"",""2356""
","
","","","-1","","","10","10573","4983","s","elianto","#3366ff99","-1","-1","1","+10","[]","0","2","","","10573","79","4","2","win","no-go","0"
"pit-trial","198","1251505","0.0-84.0","battery-v0.2","","""event"",""trial"",""time""
""fullscreenenter"",""1"",""2356""
","
","
","""event"",""trial"",""time""
""fullscreenenter"",""1"",""2356""
","
","","","728.1000000238419","","","10","10573","4983","p","elianto","#3366ff99"," "," ","1","0","[1580.5]","1","2","","","10573","80","5","1","win","go","1"
"pit-trial","199","1255777","0.0-85.0","battery-v0.2","","""event"",""trial"",""time""
""fullscreenenter"",""1"",""2356""
","
","
","""event"",""trial"",""time""
""fullscreenenter"",""1"",""2356""
","
","","","1408.1000000238419","","","10","10573","4983","a","elianto","#f73b6a7A"," "," ","1","0","[2259.399999976158]","1","2","","","10573","81","7","3","lose","go","0"
"pit-trial","200","1259497","0.0-86.0","battery-v0.2","","""event"",""trial"",""time""
""fullscreenenter"",""1"",""2356""
","
","
","""event"",""trial"",""time""
""fullscreenenter"",""1"",""2356""
","
","","","856.8999999761581","","","10","10573","4983","p","elianto","#3366ff99"," "," ","1","+10","[1709.3999999761581]","1","2","","","10573","82","5","1","win","go","0"
"pit-trial","201","1264360","0.0-87.0","battery-v0.2","","""event"",""trial"",""time""
""fullscreenenter"",""1"",""2356""
","
","
","""event"",""trial"",""time""
""fullscreenenter"",""1"",""2356""
","
","","","-1","","","10","10573","4983","s","elianto","#3366ff99","-1","-1","1","+10","[]","0","2","","","10573","83","4","2","win","no-go","0"
"pit-trial","202","1269224","0.0-88.0","battery-v0.2","","""event"",""trial"",""time""
""fullscreenenter"",""1"",""2356""
","
","
","""event"",""trial"",""time""
""fullscreenenter"",""1"",""2356""
","
","","","-1","","","10","10573","4983","g","elianto","#f73b6a7A","-1","-1","1","-10","[]","0","2","","","10573","84","6","4","lose","no-go","1"
"pit-trial","203","1273080","0.0-89.0","battery-v0.2","","""event"",""trial"",""time""
""fullscreenenter"",""1"",""2356""
","
","
","""event"",""trial"",""time""
""fullscreenenter"",""1"",""2356""
","
","","","995.6000000238419","","","10","10573","4983","p","elianto","#3366ff99"," "," ","1","+10","[1849]","1","2","","","10573","85","5","1","win","go","0"
"pit-trial","204","1277281","0.0-90.0","battery-v0.2","","""event"",""trial"",""time""
""fullscreenenter"",""1"",""2356""
","
","
","""event"",""trial"",""time""
""fullscreenenter"",""1"",""2356""
","
","","","1340.1999999284744","","","10","10573","4983","a","elianto","#f73b6a7A"," "," ","1","0","[2192.5999999046326]","1","2","","","10573","86","7","3","lose","go","0"
"pit-trial","205","1282145","0.0-91.0","battery-v0.2","","""event"",""trial"",""time""
""fullscreenenter"",""1"",""2356""
","
","
","""event"",""trial"",""time""
""fullscreenenter"",""1"",""2356""
","
","","","-1","","","10","10573","4983","g","elianto","#f73b6a7A","-1","-1","1","0","[]","0","2","","","10573","87","6","4","lose","no-go","0"
"pit-trial","206","1287009","0.0-92.0","battery-v0.2","","""event"",""trial"",""time""
""fullscreenenter"",""1"",""2356""
","
","
","""event"",""trial"",""time""
""fullscreenenter"",""1"",""2356""
","
","","","-1","","","10","10573","4983","s","elianto","#3366ff99","-1","-1","1","+10","[]","0","2","","","10573","88","4","2","win","no-go","0"
"pit-trial","207","1291873","0.0-93.0","battery-v0.2","","""event"",""trial"",""time""
""fullscreenenter"",""1"",""2356""
","
","
","""event"",""trial"",""time""
""fullscreenenter"",""1"",""2356""
","
","","","-1","","","10","10573","4983","s","elianto","#3366ff99","-1","-1","1","0","[]","0","2","","","10573","89","4","2","win","no-go","1"
"pit-trial","208","1296097","0.0-94.0","battery-v0.2","","""event"",""trial"",""time""
""fullscreenenter"",""1"",""2356""
","
","
","""event"",""trial"",""time""
""fullscreenenter"",""1"",""2356""
","
","","","1361.2999999523163","","","10","10573","4983","a","elianto","#f73b6a7A"," "," ","1","0","[2213.5999999046326]","1","2","","","10573","90","7","3","lose","go","0"
"pit-trial","209","1299673","0.0-95.0","battery-v0.2","","""event"",""trial"",""time""
""fullscreenenter"",""1"",""2356""
","
","
","""event"",""trial"",""time""
""fullscreenenter"",""1"",""2356""
","
","","","717.8000000715256","","","10","10573","4983","p","elianto","#3366ff99"," "," ","1","+10","[1569.2000000476837]","1","2","","","10573","91","5","1","win","go","0"
"pit-trial","210","1304537","0.0-96.0","battery-v0.2","","""event"",""trial"",""time""
""fullscreenenter"",""1"",""2356""
","
","
","""event"",""trial"",""time""
""fullscreenenter"",""1"",""2356""
","
","","","-1","","","10","10573","4983","g","elianto","#f73b6a7A","-1","-1","1","0","[]","0","2","","","10573","92","6","4","lose","no-go","0"
"pit-trial","211","1308321","0.0-97.0","battery-v0.2","","""event"",""trial"",""time""
""fullscreenenter"",""1"",""2356""
","
","
","""event"",""trial"",""time""
""fullscreenenter"",""1"",""2356""
","
","","","923.8999999761581","","","10","10573","4983","l","elianto","#3366ff99","-1"," ","0","+10","[1775.3999999761581]","1","2","","","10573","93","8","2","win","no-go","1"
"pit-trial","212","1312825","0.0-98.0","battery-v0.2","","""event"",""trial"",""time""
""fullscreenenter"",""1"",""2356""
","
","
","""event"",""trial"",""time""
""fullscreenenter"",""1"",""2356""
","
","","","1642.2999999523163","","","10","10573","4983","a","elianto","#f73b6a7A"," "," ","1","0","[2493.7999999523163]","1","2","","","10573","94","7","3","lose","go","0"
"pit-trial","213","1316417","0.0-99.0","battery-v0.2","","""event"",""trial"",""time""
""fullscreenenter"",""1"",""2356""
","
","
","""event"",""trial"",""time""
""fullscreenenter"",""1"",""2356""
","
","","","728.3999999761581","","","10","10573","4983","p","elianto","#3366ff99"," "," ","1","+10","[1580.3000000715256]","1","2","","","10573","95","5","1","win","go","0"
"pit-trial","214","1321280","0.0-100.0","battery-v0.2","","""event"",""trial"",""time""
""fullscreenenter"",""1"",""2356""
","
","
","""event"",""trial"",""time""
""fullscreenenter"",""1"",""2356""
","
","","","-1","","","10","10573","4983","g","elianto","#f73b6a7A","-1","-1","1","0","[]","0","2","","","10573","96","6","4","lose","no-go","0"
"pit-trial","215","1324985","0.0-101.0","battery-v0.2","","""event"",""trial"",""time""
""fullscreenenter"",""1"",""2356""
","
","
","""event"",""trial"",""time""
""fullscreenenter"",""1"",""2356""
","
","","","840.5999999046326","","","10","10573","4983","l","elianto","#3366ff99","-1"," ","0","+10","[1693.0999999046326]","1","2","","","10573","97","8","2","win","no-go","1"
"pit-trial","216","1329001","0.0-102.0","battery-v0.2","","""event"",""trial"",""time""
""fullscreenenter"",""1"",""2356""
","
","
","""event"",""trial"",""time""
""fullscreenenter"",""1"",""2356""
","
","","","1159.2999999523163","","","10","10573","4983","a","elianto","#f73b6a7A"," "," ","1","0","[2010.7000000476837]","1","2","","","10573","98","7","3","lose","go","0"
"pit-trial","217","1332625","0.0-103.0","battery-v0.2","","""event"",""trial"",""time""
""fullscreenenter"",""1"",""2356""
","
","
","""event"",""trial"",""time""
""fullscreenenter"",""1"",""2356""
","
","","","763.5999999046326","","","10","10573","4983","p","elianto","#3366ff99"," "," ","1","0","[1614.2999999523163]","1","2","","","10573","99","5","1","win","go","1"
"pit-trial","218","1337489","0.0-104.0","battery-v0.2","","""event"",""trial"",""time""
""fullscreenenter"",""1"",""2356""
","
","
","""event"",""trial"",""time""
""fullscreenenter"",""1"",""2356""
","
","","","-1","","","10","10573","4983","g","elianto","#f73b6a7A","-1","-1","1","0","[]","0","2","","","10573","100","6","4","lose","no-go","0"
"pit-trial","219","1341297","0.0-105.0","battery-v0.2","","""event"",""trial"",""time""
""fullscreenenter"",""1"",""2356""
","
","
","""event"",""trial"",""time""
""fullscreenenter"",""1"",""2356""
","
","","","943.8999999761581","","","10","10573","4983","u","elianto","#3366ff99","-1"," ","0","0","[1796]","1","2","","","10573","101","9","2","win","no-go","0"
"pit-trial","220","1344801","0.0-106.0","battery-v0.2","","""event"",""trial"",""time""
""fullscreenenter"",""1"",""2356""
","
","
","""event"",""trial"",""time""
""fullscreenenter"",""1"",""2356""
","
","","","641.3000000715256","","","10","10573","4983","p","elianto","#3366ff99"," "," ","1","+10","[1493.6000000238419]","1","2","","","10573","102","5","1","win","go","0"
"pit-trial","221","1349666","0.0-107.0","battery-v0.2","","""event"",""trial"",""time""
""fullscreenenter"",""1"",""2356""
","
","
","""event"",""trial"",""time""
""fullscreenenter"",""1"",""2356""
","
","","","-1","","","10","10573","4983","g","elianto","#f73b6a7A","-1","-1","1","-10","[]","0","2","","","10573","103","6","4","lose","no-go","1"
"pit-trial","222","1353417","0.0-108.0","battery-v0.2","","""event"",""trial"",""time""
""fullscreenenter"",""1"",""2356""
","
","
","""event"",""trial"",""time""
""fullscreenenter"",""1"",""2356""
","
","","","888.1999999284744","","","10","10573","4983","l","elianto","#3366ff99","-1"," ","0","0","[1739.1000000238419]","1","2","","","10573","104","8","2","win","no-go","0"
"pit-trial","223","1358282","0.0-109.0","battery-v0.2","","""event"",""trial"",""time""
""fullscreenenter"",""1"",""2356""
","
","
","""event"",""trial"",""time""
""fullscreenenter"",""1"",""2356""
","
","","","-1","","","10","10573","4983","g","elianto","#f73b6a7A","-1","-1","1","-10","[]","0","2","","","10573","105","6","4","lose","no-go","1"
"pit-trial","224","1361848","0.0-110.0","battery-v0.2","","""event"",""trial"",""time""
""fullscreenenter"",""1"",""2356""
","
","
","""event"",""trial"",""time""
""fullscreenenter"",""1"",""2356""
","
","","","708.2000000476837","","","10","10573","4983","l","elianto","#3366ff99","-1"," ","0","+10","[1559.1000000238419]","1","2","","","10573","106","8","2","win","no-go","1"
"pit-trial","225","1365617","0.0-111.0","battery-v0.2","","""event"",""trial"",""time""
""fullscreenenter"",""1"",""2356""
","
","
","""event"",""trial"",""time""
""fullscreenenter"",""1"",""2356""
","
","","","909","","","10","10573","4983","u","elianto","#3366ff99","-1"," ","0","0","[1760.8000000715256]","1","2","","","10573","107","9","2","win","no-go","0"
"pit-trial","226","1369154","0.0-112.0","battery-v0.2","","""event"",""trial"",""time""
""fullscreenenter"",""1"",""2356""
","
","
","""event"",""trial"",""time""
""fullscreenenter"",""1"",""2356""
","
","","","673.1999999284744","","","10","10573","4983","p","elianto","#3366ff99"," "," ","1","+10","[1524.7999999523163]","1","2","","","10573","108","5","1","win","go","0"
"pit-trial","227","1372650","0.0-113.0","battery-v0.2","","""event"",""trial"",""time""
""fullscreenenter"",""1"",""2356""
","
","
","""event"",""trial"",""time""
""fullscreenenter"",""1"",""2356""
","
","","","632.3000000715256","","","10","10573","4983","l","elianto","#3366ff99","-1"," ","0","+10","[1483.8999999761581]","1","2","","","10573","109","8","2","win","no-go","1"
"pit-trial","228","1377513","0.0-114.0","battery-v0.2","","""event"",""trial"",""time""
""fullscreenenter"",""1"",""2356""
","
","
","""event"",""trial"",""time""
""fullscreenenter"",""1"",""2356""
","
","","","-1","","","10","10573","4983","g","elianto","#f73b6a7A","-1","-1","1","0","[]","0","2","","","10573","110","6","4","lose","no-go","0"
"pit-trial","229","1381722","0.0-115.0","battery-v0.2","","""event"",""trial"",""time""
""fullscreenenter"",""1"",""2356""
","
","
","""event"",""trial"",""time""
""fullscreenenter"",""1"",""2356""
","
","","","1348.3999999761581","","","10","10573","4983","u","elianto","#3366ff99","-1"," ","0","0","[2200.6999999284744]","1","2","","","10573","111","9","2","win","no-go","0"
"pit-trial","230","1385274","0.0-116.0","battery-v0.2","","""event"",""trial"",""time""
""fullscreenenter"",""1"",""2356""
","
","
","""event"",""trial"",""time""
""fullscreenenter"",""1"",""2356""
","
","","","689.7999999523163","","","10","10573","4983","p","elianto","#3366ff99"," "," ","1","+10","[1541.7999999523163]","1","2","","","10573","112","5","1","win","go","0"
"pit-trial","231","1388954","0.0-117.0","battery-v0.2","","""event"",""trial"",""time""
""fullscreenenter"",""1"",""2356""
","
","
","""event"",""trial"",""time""
""fullscreenenter"",""1"",""2356""
","
","","","816.7000000476837","","","10","10573","4983","l","elianto","#3366ff99","-1"," ","0","0","[1668.2999999523163]","1","2","","","10573","113","8","2","win","no-go","0"
"pit-trial","232","1393818","0.0-118.0","battery-v0.2","","""event"",""trial"",""time""
""fullscreenenter"",""1"",""2356""
","
","
","""event"",""trial"",""time""
""fullscreenenter"",""1"",""2356""
","
","","","-1","","","10","10573","4983","u","elianto","#3366ff99","-1","-1","1","+10","[]","0","2","","","10573","114","9","2","win","no-go","0"
"pit-trial","233","1397914","0.0-119.0","battery-v0.2","","""event"",""trial"",""time""
""fullscreenenter"",""1"",""2356""
","
","
","""event"",""trial"",""time""
""fullscreenenter"",""1"",""2356""
","
","","","1237.1999999284744","","","10","10573","4983","a","elianto","#f73b6a7A"," "," ","1","0","[2087.2999999523163]","1","2","","","10573","115","7","3","lose","go","0"
"pit-trial","234","1401442","0.0-120.0","battery-v0.2","","""event"",""trial"",""time""
""fullscreenenter"",""1"",""2356""
","
","
","""event"",""trial"",""time""
""fullscreenenter"",""1"",""2356""
","
","","","671.2000000476837","","","10","10573","4983","p","elianto","#3366ff99"," "," ","1","0","[1522.8999999761581]","1","2","","","10573","116","5","1","win","go","1"
"pit-trial","235","1405331","0.0-121.0","battery-v0.2","","""event"",""trial"",""time""
""fullscreenenter"",""1"",""2356""
","
","
","""event"",""trial"",""time""
""fullscreenenter"",""1"",""2356""
","
","","","1026.1999999284744","","","10","10573","4983","l","elianto","#3366ff99","-1"," ","0","0","[1878.7999999523163]","1","2","","","10573","117","8","2","win","no-go","0"
"pit-trial","236","1410194","0.0-122.0","battery-v0.2","","""event"",""trial"",""time""
""fullscreenenter"",""1"",""2356""
","
","
","""event"",""trial"",""time""
""fullscreenenter"",""1"",""2356""
","
","","","-1","","","10","10573","4983","u","elianto","#3366ff99","-1","-1","1","0","[]","0","2","","","10573","118","9","2","win","no-go","1"
"pit-trial","237","1415058","0.0-123.0","battery-v0.2","","""event"",""trial"",""time""
""fullscreenenter"",""1"",""2356""
","
","
","""event"",""trial"",""time""
""fullscreenenter"",""1"",""2356""
","
","","","-1","","","10","10573","4983","g","elianto","#f73b6a7A","-1","-1","1","0","[]","0","2","","","10573","119","6","4","lose","no-go","0"
"pit-trial","238","1418577","0.0-124.0","battery-v0.2","","""event"",""trial"",""time""
""fullscreenenter"",""1"",""2356""
","
","
","""event"",""trial"",""time""
""fullscreenenter"",""1"",""2356""
","
","","","655.8999999761581","","","10","10573","4983","p","elianto","#3366ff99"," "," ","1","+10","[1507.6999999284744]","1","2","","","10573","120","5","1","win","go","0"
"pit-trial","239","1422058","0.0-125.0","battery-v0.2","","""event"",""trial"",""time""
""fullscreenenter"",""1"",""2356""
","
","
","""event"",""trial"",""time""
""fullscreenenter"",""1"",""2356""
","
","","","614.7000000476837","","","10","10573","4983","l","elianto","#3366ff99","-1"," ","0","0","[1468.8999999761581]","1","2","","","10573","121","8","2","win","no-go","0"
"pit-trial","240","1425611","0.0-126.0","battery-v0.2","","""event"",""trial"",""time""
""fullscreenenter"",""1"",""2356""
","
","
","""event"",""trial"",""time""
""fullscreenenter"",""1"",""2356""
","
","","","689.6000000238419","","","10","10573","4983","p","elianto","#3366ff99"," "," ","1","0","[1542]","1","2","","","10573","122","5","1","win","go","1"
"pit-trial","241","1430474","0.0-127.0","battery-v0.2","","""event"",""trial"",""time""
""fullscreenenter"",""1"",""2356""
","
","
","""event"",""trial"",""time""
""fullscreenenter"",""1"",""2356""
","
","","","-1","","","10","10573","4983","a","elianto","#f73b6a7A"," ","-1","0","-10","[]","0","2","","","10573","123","7","3","lose","go","0"
"pit-trial","242","1435338","0.0-128.0","battery-v0.2","","""event"",""trial"",""time""
""fullscreenenter"",""1"",""2356""
","
","
","""event"",""trial"",""time""
""fullscreenenter"",""1"",""2356""
","
","","","-1","","","10","10573","4983","u","elianto","#3366ff99","-1","-1","1","0","[]","0","2","","","10573","124","9","2","win","no-go","1"
"pit-trial","243","1440203","0.0-129.0","battery-v0.2","","""event"",""trial"",""time""
""fullscreenenter"",""1"",""2356""
","
","
","""event"",""trial"",""time""
""fullscreenenter"",""1"",""2356""
","
","","","-1","","","10","10573","4983","g","elianto","#f73b6a7A","-1","-1","1","0","[]","0","2","","","10573","125","6","4","lose","no-go","0"
"pit-trial","244","1445067","0.0-130.0","battery-v0.2","","""event"",""trial"",""time""
""fullscreenenter"",""1"",""2356""
","
","
","""event"",""trial"",""time""
""fullscreenenter"",""1"",""2356""
","
","","","-1","","","10","10573","4983","u","elianto","#3366ff99","-1","-1","1","0","[]","0","2","","","10573","126","9","2","win","no-go","1"
"pit-trial","245","1448443","0.0-131.0","battery-v0.2","","""event"",""trial"",""time""
""fullscreenenter"",""1"",""2356""
","
","
","""event"",""trial"",""time""
""fullscreenenter"",""1"",""2356""
","
","","","517.5","","","10","10573","4983","a","elianto","#f73b6a7A"," "," ","1","0","[1368.7999999523163]","1","2","","","10573","127","7","3","lose","go","0"
"pit-trial","246","1451947","0.0-132.0","battery-v0.2","","""event"",""trial"",""time""
""fullscreenenter"",""1"",""2356""
","
","
","""event"",""trial"",""time""
""fullscreenenter"",""1"",""2356""
","
","","","643.9000000953674","","","10","10573","4983","l","elianto","#3366ff99","-1"," ","0","0","[1495.7000000476837]","1","2","","","10573","128","8","2","win","no-go","0"
"pit-trial","247","1455458","0.0-133.0","battery-v0.2","","""event"",""trial"",""time""
""fullscreenenter"",""1"",""2356""
","
","
","""event"",""trial"",""time""
""fullscreenenter"",""1"",""2356""
","
","","","653.7999999523163","","","10","10573","4983","l","elianto","#3366ff99","-1"," ","0","+10","[1505.2999999523163]","1","2","","","10573","129","8","2","win","no-go","1"
"pit-trial","248","1460323","0.0-134.0","battery-v0.2","","""event"",""trial"",""time""
""fullscreenenter"",""1"",""2356""
","
","
","""event"",""trial"",""time""
""fullscreenenter"",""1"",""2356""
","
","","","-1","","","10","10573","4983","u","elianto","#3366ff99","-1","-1","1","0","[]","0","2","","","10573","130","9","2","win","no-go","1"
"pit-trial","249","1464227","0.0-135.0","battery-v0.2","","""event"",""trial"",""time""
""fullscreenenter"",""1"",""2356""
","
","
","""event"",""trial"",""time""
""fullscreenenter"",""1"",""2356""
","
","","","1042.8999999761581","","","10","10573","4983","a","elianto","#f73b6a7A"," "," ","1","-10","[1894.7999999523163]","1","2","","","10573","131","7","3","lose","go","1"
"pit-trial","250","1469091","0.0-136.0","battery-v0.2","","""event"",""trial"",""time""
""fullscreenenter"",""1"",""2356""
","
","
","""event"",""trial"",""time""
""fullscreenenter"",""1"",""2356""
","
","","","-1","","","10","10573","4983","g","elianto","#f73b6a7A","-1","-1","1","0","[]","0","2","","","10573","132","6","4","lose","no-go","0"
"pit-trial","251","1473955","0.0-137.0","battery-v0.2","","""event"",""trial"",""time""
""fullscreenenter"",""1"",""2356""
","
","
","""event"",""trial"",""time""
""fullscreenenter"",""1"",""2356""
","
","","","-1","","","10","10573","4983","u","elianto","#3366ff99","-1","-1","1","+10","[]","0","2","","","10573","133","9","2","win","no-go","0"
"pit-trial","252","1477611","0.0-138.0","battery-v0.2","","""event"",""trial"",""time""
""fullscreenenter"",""1"",""2356""
","
","
","""event"",""trial"",""time""
""fullscreenenter"",""1"",""2356""
","
","","","795.2999999523163","","","10","10573","4983","l","elianto","#3366ff99","-1"," ","0","+10","[1647.1000000238419]","1","2","","","10573","134","8","2","win","no-go","1"
"pit-trial","253","1481482","0.0-139.0","battery-v0.2","","""event"",""trial"",""time""
""fullscreenenter"",""1"",""2356""
","
","
","""event"",""trial"",""time""
""fullscreenenter"",""1"",""2356""
","
","","","1007.8999999761581","","","10","10573","4983","a","elianto","#f73b6a7A"," "," ","1","-10","[1860.1000000238419]","1","2","","","10573","135","7","3","lose","go","1"
"pit-trial","254","1486347","0.0-140.0","battery-v0.2","","""event"",""trial"",""time""
""fullscreenenter"",""1"",""2356""
","
","
","""event"",""trial"",""time""
""fullscreenenter"",""1"",""2356""
","
","","","-1","","","10","10573","4983","g","elianto","#f73b6a7A","-1","-1","1","-10","[]","0","2","","","10573","136","6","4","lose","no-go","1"
"pit-trial","255","1491211","0.0-141.0","battery-v0.2","","""event"",""trial"",""time""
""fullscreenenter"",""1"",""2356""
","
","
","""event"",""trial"",""time""
""fullscreenenter"",""1"",""2356""
","
","","","-1","","","10","10573","4983","g","elianto","#f73b6a7A","-1","-1","1","-10","[]","0","2","","","10573","137","6","4","lose","no-go","1"
"pit-trial","256","1495083","0.0-142.0","battery-v0.2","","""event"",""trial"",""time""
""fullscreenenter"",""1"",""2356""
","
","
","""event"",""trial"",""time""
""fullscreenenter"",""1"",""2356""
","
","","","1010","","","10","10573","4983","a","elianto","#f73b6a7A"," "," ","1","0","[1862.6999999284744]","1","2","","","10573","138","7","3","lose","go","0"
"pit-trial","257","1498724","0.0-143.0","battery-v0.2","","""event"",""trial"",""time""
""fullscreenenter"",""1"",""2356""
","
","
","""event"",""trial"",""time""
""fullscreenenter"",""1"",""2356""
","
","","","778.2000000476837","","","10","10573","4983","l","elianto","#3366ff99","-1"," ","0","0","[1628.6000000238419]","1","2","","","10573","139","8","2","win","no-go","0"
"pit-trial","258","1503587","0.0-144.0","battery-v0.2","","""event"",""trial"",""time""
""fullscreenenter"",""1"",""2356""
","
","
","""event"",""trial"",""time""
""fullscreenenter"",""1"",""2356""
","
","","","-1","","","10","10573","4983","u","elianto","#3366ff99","-1","-1","1","+10","[]","0","2","","","10573","140","9","2","win","no-go","0"
"pit-instructions","259","1536062","0.0-145.0","battery-v0.2","","""event"",""trial"",""time""
""fullscreenenter"",""1"",""2356""
","
","
","""event"",""trial"",""time""
""fullscreenenter"",""1"",""2356""
","
","","[{""page_index"":0,""viewing_time"":14185.299999952316},{""page_index"":1,""viewing_time"":18285.100000023842}]","32470.600000023842","","","","","","","","","","","","","","","","","","","","","","","",""
"pit-trial","260","1540475","0.0-146.0","battery-v0.2","","""event"",""trial"",""time""
""fullscreenenter"",""1"",""2356""
","
","
","""event"",""trial"",""time""
""fullscreenenter"",""1"",""2356""
","
","","","1552.3999999761581","","","10","10573","4983","h","elianto","#f73b6a7A","-1"," ","0","-10","[2404.2999999523163]","1","3","","","10573","141","3","4","lose","no-go","0"
"pit-trial","261","1543860","0.0-147.0","battery-v0.2","","""event"",""trial"",""time""
""fullscreenenter"",""1"",""2356""
","
","
","""event"",""trial"",""time""
""fullscreenenter"",""1"",""2356""
","
","","","525.3000000715256","","","10","10573","4983","r","elianto","#3366ff99","-1"," ","0","0","[1377.5]","1","3","","","10573","142","1","2","win","no-go","0"
"pit-trial","262","1547628","0.0-148.0","battery-v0.2","","""event"",""trial"",""time""
""fullscreenenter"",""1"",""2356""
","
","
","""event"",""trial"",""time""
""fullscreenenter"",""1"",""2356""
","
","","","903.7000000476837","","","10","10573","4983","y","elianto","#f73b6a7A"," "," ","1","0","[1755.1000000238419]","1","3","","","10573","143","2","3","lose","go","0"
"pit-trial","263","1551324","0.0-149.0","battery-v0.2","","""event"",""trial"",""time""
""fullscreenenter"",""1"",""2356""
","
","
","""event"",""trial"",""time""
""fullscreenenter"",""1"",""2356""
","
","","","833.8999999761581","","","10","10573","4983","m","elianto","#f73b6a7A"," "," ","1","0","[1684.7999999523163]","1","3","","","10573","144","0","3","lose","go","0"
"pit-trial","264","1554876","0.0-150.0","battery-v0.2","","""event"",""trial"",""time""
""fullscreenenter"",""1"",""2356""
","
","
","""event"",""trial"",""time""
""fullscreenenter"",""1"",""2356""
","
","","","688.8999999761581","","","10","10573","4983","r","elianto","#3366ff99","-1"," ","0","0","[1542.6000000238419]","1","3","","","10573","145","1","2","win","no-go","0"
"pit-trial","265","1559740","0.0-151.0","battery-v0.2","","""event"",""trial"",""time""
""fullscreenenter"",""1"",""2356""
","
","
","""event"",""trial"",""time""
""fullscreenenter"",""1"",""2356""
","
