"trial_type","trial_index","time_elapsed","internal_node_id","task_version","subject_id","interactions","blur_events","focus_events","fullscreenenter_events","fullscreenexit_events","success","view_history","rt","responses","num_errors","age","subject","participantId","rune","rune_set","hex","correct","choice","accuracy","outcome","keys","total_keys","block","practice","value","sub","trial","stimulus","robot","valence","action","sham"
"pavlovia","0","28","0.0-0.0","battery-v0.2","","""event"",""trial"",""time""
""fullscreenenter"",""1"",""80121""
","
","
","""event"",""trial"",""time""
""fullscreenenter"",""1"",""80121""
","
","","","","","","","","","","","","","","","","","","","","","","","","","","",""
"fullscreen","1","81077","0.0-1.0","battery-v0.2","","""event"",""trial"",""time""
""fullscreenenter"",""1"",""80121""
","
","
","""event"",""trial"",""time""
""fullscreenenter"",""1"",""80121""
","
","true","","","","","","","","","","","","","","","","","","","","","","","","","",""
"pit-instructions","2","96484","0.0-2.0-0.0","battery-v0.2","","""event"",""trial"",""time""
""fullscreenenter"",""1"",""80121""
","
","
","""event"",""trial"",""time""
""fullscreenenter"",""1"",""80121""
","
","","[{""page_index"":0,""viewing_time"":15384.699999988079}]","15392.29999999702","","","","","","","","","","","","","","","","","","","","","","","",""
"pit-comprehension","3","101281","0.0-2.0-1.0-0.0","battery-v0.2","","""event"",""trial"",""time""
""fullscreenenter"",""1"",""80121""
","
","
","""event"",""trial"",""time""
""fullscreenenter"",""1"",""80121""
","
","","","4772.5999999940395","[""shark""]","0","23","10499","4361","","","","","","","","","","","","","","","","","","",""
"pit-instructions","4","103703","0.0-2.0-1.0-1.0","battery-v0.2","","""event"",""trial"",""time""
""fullscreenenter"",""1"",""80121""
","
","
","""event"",""trial"",""time""
""fullscreenenter"",""1"",""80121""
","
","","[{""page_index"":0,""viewing_time"":2348.0999999940395}]","2348.8999999910593","","","","","","","","","","","","","","","","","","","","","","","",""
"pit-comprehension","5","108925","0.0-2.0-2.0-0.0","battery-v0.2","","""event"",""trial"",""time""
""fullscreenenter"",""1"",""80121""
","
","
","""event"",""trial"",""time""
""fullscreenenter"",""1"",""80121""
","
","","","5211.5999999940395","[""tiger""]","0","23","10499","4361","","","","","","","","","","","","","","","","","","",""
"pit-instructions","6","111987","0.0-2.0-2.0-1.0","battery-v0.2","","""event"",""trial"",""time""
""fullscreenenter"",""1"",""80121""
","
","
","""event"",""trial"",""time""
""fullscreenenter"",""1"",""80121""
","
","","[{""page_index"":0,""viewing_time"":3051.4000000059605}]","3054.7000000029802","","","","","","","","","","","","","","","","","","","","","","","",""
"pit-instructions","7","236191","0.0-2.0-3.0","battery-v0.2","","""event"",""trial"",""time""
""fullscreenenter"",""1"",""80121""
","
","
","""event"",""trial"",""time""
""fullscreenenter"",""1"",""80121""
","
","","[{""page_index"":0,""viewing_time"":9182.60000000894},{""page_index"":1,""viewing_time"":17795.29999999702},{""page_index"":2,""viewing_time"":7999},{""page_index"":3,""viewing_time"":5409.70000000298},{""page_index"":4,""viewing_time"":7539.899999991059},{""page_index"":5,""viewing_time"":6926.70000000298},{""page_index"":6,""viewing_time"":7152.70000000298},{""page_index"":7,""viewing_time"":8082.20000000298},{""page_index"":8,""viewing_time"":6803.0999999940395},{""page_index"":9,""viewing_time"":19682.5},{""page_index"":10,""viewing_time"":7133.70000000298},{""page_index"":11,""viewing_time"":8028.29999999702},{""page_index"":12,""viewing_time"":6254.20000000298},{""page_index"":13,""viewing_time"":6193.29999999702}]","124184.90000000596","","","","","","","","","","","","","","","","","","","","","","","",""
"pit-trial","8","239806","0.0-2.0-4.0-0.0","battery-v0.2","","""event"",""trial"",""time""
""fullscreenenter"",""1"",""80121""
","
","
","""event"",""trial"",""time""
""fullscreenenter"",""1"",""80121""
","
","","","733.0999999940395","","","23","10499","4361","&#9784;","elianto","#FFFFF080"," "," ","1","&#10004","[1588.7999999970198]","1","0","0","","","","","","","",""
"pit-trial","9","243356","0.0-2.0-4.1-0.1","battery-v0.2","","""event"",""trial"",""time""
""fullscreenenter"",""1"",""80121""
","
","
","""event"",""trial"",""time""
""fullscreenenter"",""1"",""80121""
","
","","","664.3999999910593","","","23","10499","4361","&#9784;","elianto","#FFFFF080"," "," ","1","&#10004","[1529.5]","1","0","0","","","","","","","",""
"pit-trial","10","246842","0.0-2.0-4.2-0.2","battery-v0.2","","""event"",""trial"",""time""
""fullscreenenter"",""1"",""80121""
","
","
","""event"",""trial"",""time""
""fullscreenenter"",""1"",""80121""
","
","","","599.5","","","23","10499","4361","&#9784;","elianto","#FFFFF080"," "," ","1","&#10004","[1463.8999999910593]","1","0","0","","","","","","","",""
"pit-trial","11","250276","0.0-2.0-4.3-0.3","battery-v0.2","","""event"",""trial"",""time""
""fullscreenenter"",""1"",""80121""
","
","
","""event"",""trial"",""time""
""fullscreenenter"",""1"",""80121""
","
","","","565.2000000029802","","","23","10499","4361","&#9784;","elianto","#FFFFF080"," "," ","1","&#10004","[1415.9000000059605]","1","0","0","","","","","","","",""
"pit-trial","12","253752","0.0-2.0-4.4-0.4","battery-v0.2","","""event"",""trial"",""time""
""fullscreenenter"",""1"",""80121""
","
","
","""event"",""trial"",""time""
""fullscreenenter"",""1"",""80121""
","
","","","606","","","23","10499","4361","&#9784;","elianto","#FFFFF080"," "," ","1","&#10004","[1459.0999999940395]","1","0","0","","","","","","","",""
"pit-instructions","13","276709","0.0-2.0-5.0","battery-v0.2","","""event"",""trial"",""time""
""fullscreenenter"",""1"",""80121""
","
","
","""event"",""trial"",""time""
""fullscreenenter"",""1"",""80121""
","
","","[{""page_index"":0,""viewing_time"":6285},{""page_index"":1,""viewing_time"":6015.600000008941},{""page_index"":2,""viewing_time"":5357.70000000298},{""page_index"":3,""viewing_time"":5283.899999991059}]","22945.70000000298","","","","","","","","","","","","","","","","","","","","","","","",""
"pit-trial","14","281580","0.0-2.0-6.0-0.0","battery-v0.2","","""event"",""trial"",""time""
""fullscreenenter"",""1"",""80121""
","
","
","""event"",""trial"",""time""
""fullscreenenter"",""1"",""80121""
","
","","","-1","","","23","10499","4361","&#9854;","elianto","#FFFFF080","-1","-1","1","&#10004","[]","0","0","1","","","","","","","",""
"pit-trial","15","286469","0.0-2.0-6.1-0.1","battery-v0.2","","""event"",""trial"",""time""
""fullscreenenter"",""1"",""80121""
","
","
","""event"",""trial"",""time""
""fullscreenenter"",""1"",""80121""
","
","","","-1","","","23","10499","4361","&#9854;","elianto","#FFFFF080","-1","-1","1","&#10004","[]","0","0","1","","","","","","","",""
"pit-trial","16","291344","0.0-2.0-6.2-0.2","battery-v0.2","","""event"",""trial"",""time""
""fullscreenenter"",""1"",""80121""
","
","
","""event"",""trial"",""time""
""fullscreenenter"",""1"",""80121""
","
","","","-1","","","23","10499","4361","&#9854;","elianto","#FFFFF080","-1","-1","1","&#10004","[]","0","0","1","","","","","","","",""
"pit-trial","17","296214","0.0-2.0-6.3-0.3","battery-v0.2","","""event"",""trial"",""time""
""fullscreenenter"",""1"",""80121""
","
","
","""event"",""trial"",""time""
""fullscreenenter"",""1"",""80121""
","
","","","-1","","","23","10499","4361","&#9854;","elianto","#FFFFF080","-1","-1","1","&#10004","[]","0","0","1","","","","","","","",""
"pit-trial","18","301110","0.0-2.0-6.4-0.4","battery-v0.2","","""event"",""trial"",""time""
""fullscreenenter"",""1"",""80121""
","
","
","""event"",""trial"",""time""
""fullscreenenter"",""1"",""80121""
","
","","","-1","","","23","10499","4361","&#9854;","elianto","#FFFFF080","-1","-1","1","&#10004","[]","0","0","1","","","","","","","",""
"pit-instructions","19","420070","0.0-2.0-7.0","battery-v0.2","","""event"",""trial"",""time""
""fullscreenenter"",""1"",""80121""
","
","
","""event"",""trial"",""time""
""fullscreenenter"",""1"",""80121""
","
","","[{""page_index"":0,""viewing_time"":5944.70000000298},{""page_index"":1,""viewing_time"":7485.4000000059605},{""page_index"":2,""viewing_time"":6419.0999999940395},{""page_index"":3,""viewing_time"":6740.20000000298},{""page_index"":4,""viewing_time"":6482.9000000059605},{""page_index"":5,""viewing_time"":5919},{""page_index"":6,""viewing_time"":5015.5999999940395},{""page_index"":7,""viewing_time"":8552.79999999702},{""page_index"":8,""viewing_time"":6901.70000000298},{""page_index"":9,""viewing_time"":6161.79999999702},{""page_index"":10,""viewing_time"":6377.20000000298},{""page_index"":11,""viewing_time"":4328.0999999940395},{""page_index"":12,""viewing_time"":6904.100000008941},{""page_index"":13,""viewing_time"":7094.79999999702},{""page_index"":14,""viewing_time"":7180.4000000059605},{""page_index"":15,""viewing_time"":6974.399999991059},{""page_index"":16,""viewing_time"":6866.29999999702},{""page_index"":17,""viewing_time"":7596.4000000059605}]","118946.20000000298","","","","","","","","","","","","","","","","","","","","","","","",""
"pit-trial","20","423475","0.0-2.0-8.0-0.0","battery-v0.2","","""event"",""trial"",""time""
""fullscreenenter"",""1"",""80121""
","
","
","""event"",""trial"",""time""
""fullscreenenter"",""1"",""80121""
","
","","","524.1999999880791","","","23","10499","4361","&#9776;","elianto","#3366ff99"," "," ","1","+10","[1387.4000000059605]","1","0","1","","","","","","","",""
"pit-trial","21","426780","0.0-2.0-8.0-1.0","battery-v0.2","","""event"",""trial"",""time""
""fullscreenenter"",""1"",""80121""
","
","
","""event"",""trial"",""time""
""fullscreenenter"",""1"",""80121""
","
","","","430.70000000298023","","","23","10499","4361","&#9776;","elianto","#3366ff99"," "," ","1","+10","[1285.199999988079]","1","0","1","","","","","","","",""
"pit-trial","22","430171","0.0-2.0-8.0-2.0","battery-v0.2","","""event"",""trial"",""time""
""fullscreenenter"",""1"",""80121""
","
","
","""event"",""trial"",""time""
""fullscreenenter"",""1"",""80121""
","
","","","504.29999999701977","","","23","10499","4361","&#9776;","elianto","#3366ff99"," "," ","1","+10","[1367.0999999940395]","1","0","1","","","","","","","",""
"pit-trial","23","433495","0.0-2.0-8.0-3.0","battery-v0.2","","""event"",""trial"",""time""
""fullscreenenter"",""1"",""80121""
","
","
","""event"",""trial"",""time""
""fullscreenenter"",""1"",""80121""
","
","","","464.5","","","23","10499","4361","&#9776;","elianto","#3366ff99"," "," ","1","0","[1315.6000000089407]","1","0","1","","","","","","","",""
"pit-trial","24","436805","0.0-2.0-8.0-4.0","battery-v0.2","","""event"",""trial"",""time""
""fullscreenenter"",""1"",""80121""
","
","
","""event"",""trial"",""time""
""fullscreenenter"",""1"",""80121""
","
","","","443.09999999403954","","","23","10499","4361","&#9776;","elianto","#3366ff99"," "," ","1","+10","[1302.5]","1","0","1","","","","","","","",""
"pit-trial","25","440489","0.0-2.0-8.1-0.1","battery-v0.2","","""event"",""trial"",""time""
""fullscreenenter"",""1"",""80121""
","
","
","""event"",""trial"",""time""
""fullscreenenter"",""1"",""80121""
","
","","","820.3000000119209","","","23","10499","4361","&#9776;","elianto","#3366ff99"," "," ","1","+10","[1675.0999999940395]","1","0","1","","","","","","","",""
"pit-trial","26","444281","0.0-2.0-8.1-1.1","battery-v0.2","","""event"",""trial"",""time""
""fullscreenenter"",""1"",""80121""
","
","
","""event"",""trial"",""time""
""fullscreenenter"",""1"",""80121""
","
","","","922.5","","","23","10499","4361","&#9776;","elianto","#3366ff99"," "," ","1","+10","[1778.0999999940395]","1","0","1","","","","","","","",""
"pit-trial","27","447656","0.0-2.0-8.1-2.1","battery-v0.2","","""event"",""trial"",""time""
""fullscreenenter"",""1"",""80121""
","
","
","""event"",""trial"",""time""
""fullscreenenter"",""1"",""80121""
","
","","","500.69999998807907","","","23","10499","4361","&#9776;","elianto","#3366ff99"," "," ","1","+10","[1358.300000011921]","1","0","1","","","","","","","",""
"pit-trial","28","451081","0.0-2.0-8.1-3.1","battery-v0.2","","""event"",""trial"",""time""
""fullscreenenter"",""1"",""80121""
","
","
","""event"",""trial"",""time""
""fullscreenenter"",""1"",""80121""
","
","","","568.5999999940395","","","23","10499","4361","&#9776;","elianto","#3366ff99"," "," ","1","0","[1419.7999999970198]","1","0","1","","","","","","","",""
"pit-trial","29","454484","0.0-2.0-8.1-4.1","battery-v0.2","","""event"",""trial"",""time""
""fullscreenenter"",""1"",""80121""
","
","
","""event"",""trial"",""time""
""fullscreenenter"",""1"",""80121""
","
","","","526.3999999910593","","","23","10499","4361","&#9776;","elianto","#3366ff99"," "," ","1","+10","[1390.5]","1","0","1","","","","","","","",""
"pit-trial","30","457902","0.0-2.0-8.2-0.2","battery-v0.2","","""event"",""trial"",""time""
""fullscreenenter"",""1"",""80121""
","
","
","""event"",""trial"",""time""
""fullscreenenter"",""1"",""80121""
","
","","","543.2999999970198","","","23","10499","4361","&#9776;","elianto","#3366ff99"," "," ","1","+10","[1401.4000000059605]","1","0","1","","","","","","","",""
"pit-trial","31","461340","0.0-2.0-8.2-1.2","battery-v0.2","","""event"",""trial"",""time""
""fullscreenenter"",""1"",""80121""
","
","
","""event"",""trial"",""time""
""fullscreenenter"",""1"",""80121""
","
","","","569.5","","","23","10499","4361","&#9776;","elianto","#3366ff99"," "," ","1","+10","[1430.9000000059605]","1","0","1","","","","","","","",""
"pit-trial","32","464704","0.0-2.0-8.2-2.2","battery-v0.2","","""event"",""trial"",""time""
""fullscreenenter"",""1"",""80121""
","
","
","""event"",""trial"",""time""
""fullscreenenter"",""1"",""80121""
","
","","","501.20000000298023","","","23","10499","4361","&#9776;","elianto","#3366ff99"," "," ","1","+10","[1353.5]","1","0","1","","","","","","","",""
"pit-trial","33","468980","0.0-2.0-8.2-3.2","battery-v0.2","","""event"",""trial"",""time""
""fullscreenenter"",""1"",""80121""
","
","
","""event"",""trial"",""time""
""fullscreenenter"",""1"",""80121""
","
","","","1407.7999999970198","","","23","10499","4361","&#9776;","elianto","#3366ff99"," "," ","1","0","[2260.2999999970198]","1","0","1","","","","","","","",""
"pit-trial","34","473848","0.0-2.0-8.2-4.2","battery-v0.2","","""event"",""trial"",""time""
""fullscreenenter"",""1"",""80121""
","
","
","""event"",""trial"",""time""
""fullscreenenter"",""1"",""80121""
","
","","","-1","","","23","10499","4361","&#9776;","elianto","#3366ff99"," ","-1","0","0","[]","0","0","1","","","","","","","",""
"call-function","35","473854","0.0-2.0-9.0","battery-v0.2","","""event"",""trial"",""time""
""fullscreenenter"",""1"",""80121""
","
","
","""event"",""trial"",""time""
""fullscreenenter"",""1"",""80121""
","
","","","","","","","","","","","","","","","","","","","","","","","","","","",""
"pit-instructions","36","515551","0.0-2.0-10.0","battery-v0.2","","""event"",""trial"",""time""
""fullscreenenter"",""1"",""80121""
","
","
","""event"",""trial"",""time""
""fullscreenenter"",""1"",""80121""
","
","","[{""page_index"":0,""viewing_time"":7000.100000008941},{""page_index"":1,""viewing_time"":8003.79999999702},{""page_index"":2,""viewing_time"":9966.40000000596},{""page_index"":3,""viewing_time"":8568.09999999404},{""page_index"":4,""viewing_time"":8155.0999999940395}]","41695.20000000298","","","","","","","","","","","","","","","","","","","","","","","",""
"pit-trial","37","520427","0.0-2.0-11.0-0.0","battery-v0.2","","""event"",""trial"",""time""
""fullscreenenter"",""1"",""80121""
","
","
","""event"",""trial"",""time""
""fullscreenenter"",""1"",""80121""
","
","","","-1","","","23","10499","4361","&#9761;","elianto","#3366ff99","-1","-1","1","+10","[]","0","0","2","","","","","","","",""
"pit-trial","38","523749","0.0-2.0-11.0-1.0","battery-v0.2","","""event"",""trial"",""time""
""fullscreenenter"",""1"",""80121""
","
","
","""event"",""trial"",""time""
""fullscreenenter"",""1"",""80121""
","
","","","436.1000000089407","","","23","10499","4361","&#9761;","elianto","#3366ff99","-1"," ","0","0","[1296.300000011921]","1","0","2","","","","","","","",""
"pit-trial","39","528624","0.0-2.0-11.0-2.0","battery-v0.2","","""event"",""trial"",""time""
""fullscreenenter"",""1"",""80121""
","
","
","""event"",""trial"",""time""
""fullscreenenter"",""1"",""80121""
","
","","","-1","","","23","10499","4361","&#9761;","elianto","#3366ff99","-1","-1","1","+10","[]","0","0","2","","","","","","","",""
"pit-trial","40","533494","0.0-2.0-11.0-3.0","battery-v0.2","","""event"",""trial"",""time""
""fullscreenenter"",""1"",""80121""
","
","
","""event"",""trial"",""time""
""fullscreenenter"",""1"",""80121""
","
","","","-1","","","23","10499","4361","&#9761;","elianto","#3366ff99","-1","-1","1","0","[]","0","0","2","","","","","","","",""
"pit-trial","41","536774","0.0-2.0-11.0-4.0","battery-v0.2","","""event"",""trial"",""time""
""fullscreenenter"",""1"",""80121""
","
","
","""event"",""trial"",""time""
""fullscreenenter"",""1"",""80121""
","
","","","410","","","23","10499","4361","&#9761;","elianto","#3366ff99","-1"," ","0","0","[1273.5]","1","0","2","","","","","","","",""
"pit-trial","42","541660","0.0-2.0-11.1-0.1","battery-v0.2","","""event"",""trial"",""time""
""fullscreenenter"",""1"",""80121""
","
","
","""event"",""trial"",""time""
""fullscreenenter"",""1"",""80121""
","
","","","-1","","","23","10499","4361","&#9761;","elianto","#3366ff99","-1","-1","1","+10","[]","0","0","2","","","","","","","",""
"pit-trial","43","546530","0.0-2.0-11.1-1.1","battery-v0.2","","""event"",""trial"",""time""
""fullscreenenter"",""1"",""80121""
","
","
","""event"",""trial"",""time""
""fullscreenenter"",""1"",""80121""
","
","","","-1","","","23","10499","4361","&#9761;","elianto","#3366ff99","-1","-1","1","+10","[]","0","0","2","","","","","","","",""
"pit-trial","44","551396","0.0-2.0-11.1-2.1","battery-v0.2","","""event"",""trial"",""time""
""fullscreenenter"",""1"",""80121""
","
","
","""event"",""trial"",""time""
""fullscreenenter"",""1"",""80121""
","
","","","-1","","","23","10499","4361","&#9761;","elianto","#3366ff99","-1","-1","1","+10","[]","0","0","2","","","","","","","",""
"pit-trial","45","556260","0.0-2.0-11.1-3.1","battery-v0.2","","""event"",""trial"",""time""
""fullscreenenter"",""1"",""80121""
","
","
","""event"",""trial"",""time""
""fullscreenenter"",""1"",""80121""
","
","","","-1","","","23","10499","4361","&#9761;","elianto","#3366ff99","-1","-1","1","0","[]","0","0","2","","","","","","","",""
"pit-trial","46","561123","0.0-2.0-11.1-4.1","battery-v0.2","","""event"",""trial"",""time""
""fullscreenenter"",""1"",""80121""
","
","
","""event"",""trial"",""time""
""fullscreenenter"",""1"",""80121""
","
","","","-1","","","23","10499","4361","&#9761;","elianto","#3366ff99","-1","-1","1","+10","[]","0","0","2","","","","","","","",""
"pit-trial","47","565997","0.0-2.0-11.2-0.2","battery-v0.2","","""event"",""trial"",""time""
""fullscreenenter"",""1"",""80121""
","
","
","""event"",""trial"",""time""
""fullscreenenter"",""1"",""80121""
","
","","","-1","","","23","10499","4361","&#9761;","elianto","#3366ff99","-1","-1","1","+10","[]","0","0","2","","","","","","","",""
"pit-trial","48","570866","0.0-2.0-11.2-1.2","battery-v0.2","","""event"",""trial"",""time""
""fullscreenenter"",""1"",""80121""
","
","
","""event"",""trial"",""time""
""fullscreenenter"",""1"",""80121""
","
","","","-1","","","23","10499","4361","&#9761;","elianto","#3366ff99","-1","-1","1","+10","[]","0","0","2","","","","","","","",""
"pit-trial","49","575721","0.0-2.0-11.2-2.2","battery-v0.2","","""event"",""trial"",""time""
""fullscreenenter"",""1"",""80121""
","
","
","""event"",""trial"",""time""
""fullscreenenter"",""1"",""80121""
","
","","","-1","","","23","10499","4361","&#9761;","elianto","#3366ff99","-1","-1","1","+10","[]","0","0","2","","","","","","","",""
"pit-trial","50","579350","0.0-2.0-11.2-3.2","battery-v0.2","","""event"",""trial"",""time""
""fullscreenenter"",""1"",""80121""
","
","
","""event"",""trial"",""time""
""fullscreenenter"",""1"",""80121""
","
","","","760.0999999940395","","","23","10499","4361","&#9761;","elianto","#3366ff99","-1"," ","0","+10","[1614.5999999940395]","1","0","2","","","","","","","",""
"pit-trial","51","582620","0.0-2.0-11.2-4.2","battery-v0.2","","""event"",""trial"",""time""
""fullscreenenter"",""1"",""80121""
","
","
","""event"",""trial"",""time""
""fullscreenenter"",""1"",""80121""
","
","","","404.79999999701977","","","23","10499","4361","&#9761;","elianto","#3366ff99","-1"," ","0","0","[1260.9000000059605]","1","0","2","","","","","","","",""
"pit-trial","52","587481","0.0-2.0-11.3-0.3","battery-v0.2","","""event"",""trial"",""time""
""fullscreenenter"",""1"",""80121""
","
","
","""event"",""trial"",""time""
""fullscreenenter"",""1"",""80121""
","
","","","-1","","","23","10499","4361","&#9761;","elianto","#3366ff99","-1","-1","1","+10","[]","0","0","2","","","","","","","",""
"pit-trial","53","592339","0.0-2.0-11.3-1.3","battery-v0.2","","""event"",""trial"",""time""
""fullscreenenter"",""1"",""80121""
","
","
","""event"",""trial"",""time""
""fullscreenenter"",""1"",""80121""
","
","","","-1","","","23","10499","4361","&#9761;","elianto","#3366ff99","-1","-1","1","+10","[]","0","0","2","","","","","","","",""
"pit-trial","54","597206","0.0-2.0-11.3-2.3","battery-v0.2","","""event"",""trial"",""time""
""fullscreenenter"",""1"",""80121""
","
","
","""event"",""trial"",""time""
""fullscreenenter"",""1"",""80121""
","
","","","-1","","","23","10499","4361","&#9761;","elianto","#3366ff99","-1","-1","1","+10","[]","0","0","2","","","","","","","",""
"pit-trial","55","602074","0.0-2.0-11.3-3.3","battery-v0.2","","""event"",""trial"",""time""
""fullscreenenter"",""1"",""80121""
","
","
","""event"",""trial"",""time""
""fullscreenenter"",""1"",""80121""
","
","","","-1","","","23","10499","4361","&#9761;","elianto","#3366ff99","-1","-1","1","0","[]","0","0","2","","","","","","","",""
"pit-trial","56","606937","0.0-2.0-11.3-4.3","battery-v0.2","","""event"",""trial"",""time""
""fullscreenenter"",""1"",""80121""
","
","
","""event"",""trial"",""time""
""fullscreenenter"",""1"",""80121""
","
","","","-1","","","23","10499","4361","&#9761;","elianto","#3366ff99","-1","-1","1","+10","[]","0","0","2","","","","","","","",""
"call-function","57","606942","0.0-2.0-12.0","battery-v0.2","","""event"",""trial"",""time""
""fullscreenenter"",""1"",""80121""
","
","
","""event"",""trial"",""time""
""fullscreenenter"",""1"",""80121""
","
","","","","","","","","","","","","","","","","","","","","","","","","","","",""
"pit-instructions","58","640716","0.0-2.0-13.0","battery-v0.2","","""event"",""trial"",""time""
""fullscreenenter"",""1"",""80121""
","
","
","""event"",""trial"",""time""
""fullscreenenter"",""1"",""80121""
","
","","[{""page_index"":0,""viewing_time"":5605.5},{""page_index"":1,""viewing_time"":6442.70000000298},{""page_index"":2,""viewing_time"":4509.20000000298},{""page_index"":3,""viewing_time"":10908.29999999702},{""page_index"":4,""viewing_time"":6299.9000000059605}]","33767.29999999702","","","","","","","","","","","","","","","","","","","","","","","",""
"pit-trial","59","643983","0.0-2.0-14.0-0.0","battery-v0.2","","""event"",""trial"",""time""
""fullscreenenter"",""1"",""80121""
","
","
","""event"",""trial"",""time""
""fullscreenenter"",""1"",""80121""
","
","","","378.6000000089407","","","23","10499","4361","&#9826;","elianto","#f73b6a7A","-1"," ","0","-10","[1243]","1","0","3","","","","","","","",""
"pit-trial","60","648847","0.0-2.0-14.0-1.0","battery-v0.2","","""event"",""trial"",""time""
""fullscreenenter"",""1"",""80121""
","
","
","""event"",""trial"",""time""
""fullscreenenter"",""1"",""80121""
","
","","","-1","","","23","10499","4361","&#9826;","elianto","#f73b6a7A","-1","-1","1","0","[]","0","0","3","","","","","","","",""
"pit-trial","61","653722","0.0-2.0-14.0-2.0","battery-v0.2","","""event"",""trial"",""time""
""fullscreenenter"",""1"",""80121""
","
","
","""event"",""trial"",""time""
""fullscreenenter"",""1"",""80121""
","
","","","-1","","","23","10499","4361","&#9826;","elianto","#f73b6a7A","-1","-1","1","0","[]","0","0","3","","","","","","","",""
"pit-trial","62","658597","0.0-2.0-14.0-3.0","battery-v0.2","","""event"",""trial"",""time""
""fullscreenenter"",""1"",""80121""
","
","
","""event"",""trial"",""time""
""fullscreenenter"",""1"",""80121""
","
","","","-1","","","23","10499","4361","&#9826;","elianto","#f73b6a7A","-1","-1","1","-10","[]","0","0","3","","","","","","","",""
"pit-trial","63","663462","0.0-2.0-14.0-4.0","battery-v0.2","","""event"",""trial"",""time""
""fullscreenenter"",""1"",""80121""
","
","
","""event"",""trial"",""time""
""fullscreenenter"",""1"",""80121""
","
","","","-1","","","23","10499","4361","&#9826;","elianto","#f73b6a7A","-1","-1","1","0","[]","0","0","3","","","","","","","",""
"pit-trial","64","668322","0.0-2.0-14.1-0.1","battery-v0.2","","""event"",""trial"",""time""
""fullscreenenter"",""1"",""80121""
","
","
","""event"",""trial"",""time""
""fullscreenenter"",""1"",""80121""
","
","","","-1","","","23","10499","4361","&#9826;","elianto","#f73b6a7A","-1","-1","1","0","[]","0","0","3","","","","","","","",""
"pit-trial","65","673180","0.0-2.0-14.1-1.1","battery-v0.2","","""event"",""trial"",""time""
""fullscreenenter"",""1"",""80121""
","
","
","""event"",""trial"",""time""
""fullscreenenter"",""1"",""80121""
","
","","","-1","","","23","10499","4361","&#9826;","elianto","#f73b6a7A","-1","-1","1","0","[]","0","0","3","","","","","","","",""
"pit-trial","66","678042","0.0-2.0-14.1-2.1","battery-v0.2","","""event"",""trial"",""time""
""fullscreenenter"",""1"",""80121""
","
","
","""event"",""trial"",""time""
""fullscreenenter"",""1"",""80121""
","
","","","-1","","","23","10499","4361","&#9826;","elianto","#f73b6a7A","-1","-1","1","0","[]","0","0","3","","","","","","","",""
"pit-trial","67","682900","0.0-2.0-14.1-3.1","battery-v0.2","","""event"",""trial"",""time""
""fullscreenenter"",""1"",""80121""
","
","
","""event"",""trial"",""time""
""fullscreenenter"",""1"",""80121""
","
","","","-1","","","23","10499","4361","&#9826;","elianto","#f73b6a7A","-1","-1","1","-10","[]","0","0","3","","","","","","","",""
"pit-trial","68","687768","0.0-2.0-14.1-4.1","battery-v0.2","","""event"",""trial"",""time""
""fullscreenenter"",""1"",""80121""
","
","
","""event"",""trial"",""time""
""fullscreenenter"",""1"",""80121""
","
","","","-1","","","23","10499","4361","&#9826;","elianto","#f73b6a7A","-1","-1","1","0","[]","0","0","3","","","","","","","",""
"pit-trial","69","692639","0.0-2.0-14.2-0.2","battery-v0.2","","""event"",""trial"",""time""
""fullscreenenter"",""1"",""80121""
","
","
","""event"",""trial"",""time""
""fullscreenenter"",""1"",""80121""
","
","","","-1","","","23","10499","4361","&#9826;","elianto","#f73b6a7A","-1","-1","1","0","[]","0","0","3","","","","","","","",""
"pit-trial","70","697499","0.0-2.0-14.2-1.2","battery-v0.2","","""event"",""trial"",""time""
""fullscreenenter"",""1"",""80121""
","
","
","""event"",""trial"",""time""
""fullscreenenter"",""1"",""80121""
","
","","","-1","","","23","10499","4361","&#9826;","elianto","#f73b6a7A","-1","-1","1","0","[]","0","0","3","","","","","","","",""
"pit-trial","71","702370","0.0-2.0-14.2-2.2","battery-v0.2","","""event"",""trial"",""time""
""fullscreenenter"",""1"",""80121""
","
","
","""event"",""trial"",""time""
""fullscreenenter"",""1"",""80121""
","
","","","-1","","","23","10499","4361","&#9826;","elianto","#f73b6a7A","-1","-1","1","0","[]","0","0","3","","","","","","","",""
"pit-trial","72","707238","0.0-2.0-14.2-3.2","battery-v0.2","","""event"",""trial"",""time""
""fullscreenenter"",""1"",""80121""
","
","
","""event"",""trial"",""time""
""fullscreenenter"",""1"",""80121""
","
","","","-1","","","23","10499","4361","&#9826;","elianto","#f73b6a7A","-1","-1","1","-10","[]","0","0","3","","","","","","","",""
"pit-trial","73","712116","0.0-2.0-14.2-4.2","battery-v0.2","","""event"",""trial"",""time""
""fullscreenenter"",""1"",""80121""
","
","
","""event"",""trial"",""time""
""fullscreenenter"",""1"",""80121""
","
","","","-1","","","23","10499","4361","&#9826;","elianto","#f73b6a7A","-1","-1","1","0","[]","0","0","3","","","","","","","",""
"pit-trial","74","716983","0.0-2.0-14.3-0.3","battery-v0.2","","""event"",""trial"",""time""
""fullscreenenter"",""1"",""80121""
","
","
","""event"",""trial"",""time""
""fullscreenenter"",""1"",""80121""
","
","","","-1","","","23","10499","4361","&#9826;","elianto","#f73b6a7A","-1","-1","1","0","[]","0","0","3","","","","","","","",""
"pit-trial","75","721850","0.0-2.0-14.3-1.3","battery-v0.2","","""event"",""trial"",""time""
""fullscreenenter"",""1"",""80121""
","
","
","""event"",""trial"",""time""
""fullscreenenter"",""1"",""80121""
","
","","","-1","","","23","10499","4361","&#9826;","elianto","#f73b6a7A","-1","-1","1","0","[]","0","0","3","","","","","","","",""
"pit-trial","76","726726","0.0-2.0-14.3-2.3","battery-v0.2","","""event"",""trial"",""time""
""fullscreenenter"",""1"",""80121""
","
","
","""event"",""trial"",""time""
""fullscreenenter"",""1"",""80121""
","
","","","-1","","","23","10499","4361","&#9826;","elianto","#f73b6a7A","-1","-1","1","0","[]","0","0","3","","","","","","","",""
"pit-trial","77","731589","0.0-2.0-14.3-3.3","battery-v0.2","","""event"",""trial"",""time""
""fullscreenenter"",""1"",""80121""
","
","
","""event"",""trial"",""time""
""fullscreenenter"",""1"",""80121""
","
","","","-1","","","23","10499","4361","&#9826;","elianto","#f73b6a7A","-1","-1","1","-10","[]","0","0","3","","","","","","","",""
"pit-trial","78","736457","0.0-2.0-14.3-4.3","battery-v0.2","","""event"",""trial"",""time""
""fullscreenenter"",""1"",""80121""
","
","
","""event"",""trial"",""time""
""fullscreenenter"",""1"",""80121""
","
","","","-1","","","23","10499","4361","&#9826;","elianto","#f73b6a7A","-1","-1","1","0","[]","0","0","3","","","","","","","",""
"call-function","79","736462","0.0-2.0-15.0","battery-v0.2","","""event"",""trial"",""time""
""fullscreenenter"",""1"",""80121""
","
","
","""event"",""trial"",""time""
""fullscreenenter"",""1"",""80121""
","
","","","","","","","","","","","","","","","","","","","","","","","","","","",""
"pit-instructions","80","767916","0.0-2.0-16.0","battery-v0.2","","""event"",""trial"",""time""
""fullscreenenter"",""1"",""80121""
","
","
","""event"",""trial"",""time""
""fullscreenenter"",""1"",""80121""
","
","","[{""page_index"":0,""viewing_time"":10408.10000000894},{""page_index"":1,""viewing_time"":10196},{""page_index"":2,""viewing_time"":5383.5},{""page_index"":3,""viewing_time"":5460.899999991059}]","31449.90000000596","","","","","","","","","","","","","","","","","","","","","","","",""
"pit-trial","81","772792","0.0-2.0-17.0-0.0","battery-v0.2","","""event"",""trial"",""time""
""fullscreenenter"",""1"",""80121""
","
","
","""event"",""trial"",""time""
""fullscreenenter"",""1"",""80121""
","
","","","-1","","","23","10499","4361","&#9789;","elianto","#f73b6a7A"," ","-1","0","-10","[]","0","0","4","","","","","","","",""
"pit-trial","82","775952","0.0-2.0-17.0-1.0","battery-v0.2","","""event"",""trial"",""time""
""fullscreenenter"",""1"",""80121""
","
","
","""event"",""trial"",""time""
""fullscreenenter"",""1"",""80121""
","
","","","285.59999999403954","","","23","10499","4361","&#9789;","elianto","#f73b6a7A"," "," ","1","0","[1147.300000011921]","1","0","4","","","","","","","",""
"pit-trial","83","779282","0.0-2.0-17.0-2.0","battery-v0.2","","""event"",""trial"",""time""
""fullscreenenter"",""1"",""80121""
","
","
","""event"",""trial"",""time""
""fullscreenenter"",""1"",""80121""
","
","","","467.6000000089407","","","23","10499","4361","&#9789;","elianto","#f73b6a7A"," "," ","1","0","[1320.7999999970198]","1","0","4","","","","","","","",""
"pit-trial","84","782772","0.0-2.0-17.0-3.0","battery-v0.2","","""event"",""trial"",""time""
""fullscreenenter"",""1"",""80121""
","
","
","""event"",""trial"",""time""
""fullscreenenter"",""1"",""80121""
","
","","","611.0999999940395","","","23","10499","4361","&#9789;","elianto","#f73b6a7A"," "," ","1","-10","[1477.4000000059605]","1","0","4","","","","","","","",""
"pit-trial","85","786132","0.0-2.0-17.0-4.0","battery-v0.2","","""event"",""trial"",""time""
""fullscreenenter"",""1"",""80121""
","
","
","""event"",""trial"",""time""
""fullscreenenter"",""1"",""80121""
","
","","","485","","","23","10499","4361","&#9789;","elianto","#f73b6a7A"," "," ","1","0","[1342.2999999970198]","1","0","4","","","","","","","",""
"pit-trial","86","789482","0.0-2.0-17.1-0.1","battery-v0.2","","""event"",""trial"",""time""
""fullscreenenter"",""1"",""80121""
","
","
","""event"",""trial"",""time""
""fullscreenenter"",""1"",""80121""
","
","","","483.40000000596046","","","23","10499","4361","&#9789;","elianto","#f73b6a7A"," "," ","1","0","[1334.699999988079]","1","0","4","","","","","","","",""
"pit-trial","87","792922","0.0-2.0-17.1-1.1","battery-v0.2","","""event"",""trial"",""time""
""fullscreenenter"",""1"",""80121""
","
","
","""event"",""trial"",""time""
""fullscreenenter"",""1"",""80121""
","
","","","557.7000000029802","","","23","10499","4361","&#9789;","elianto","#f73b6a7A"," "," ","1","0","[1413.6000000089407]","1","0","4","","","","","","","",""
"pit-trial","88","796627","0.0-2.0-17.1-2.1","battery-v0.2","","""event"",""trial"",""time""
""fullscreenenter"",""1"",""80121""
","
","
","""event"",""trial"",""time""
""fullscreenenter"",""1"",""80121""
","
","","","833","","","23","10499","4361","&#9789;","elianto","#f73b6a7A"," "," ","1","0","[1693.800000011921]","1","0","4","","","","","","","",""
"pit-trial","89","799815","0.0-2.0-17.1-3.1","battery-v0.2","","""event"",""trial"",""time""
""fullscreenenter"",""1"",""80121""
","
","
","""event"",""trial"",""time""
""fullscreenenter"",""1"",""80121""
","
","","","316.5","","","23","10499","4361","&#9789;","elianto","#f73b6a7A"," "," ","1","-10","[1168.4000000059605]","1","0","4","","","","","","","",""
"pit-trial","90","803105","0.0-2.0-17.1-4.1","battery-v0.2","","""event"",""trial"",""time""
""fullscreenenter"",""1"",""80121""
","
","
","""event"",""trial"",""time""
""fullscreenenter"",""1"",""80121""
","
","","","416.8999999910593","","","23","10499","4361","&#9789;","elianto","#f73b6a7A"," "," ","1","0","[1271.6000000089407]","1","0","4","","","","","","","",""
"pit-trial","91","806454","0.0-2.0-17.2-0.2","battery-v0.2","","""event"",""trial"",""time""
""fullscreenenter"",""1"",""80121""
","
","
","""event"",""trial"",""time""
""fullscreenenter"",""1"",""80121""
","
","","","489.1000000089407","","","23","10499","4361","&#9789;","elianto","#f73b6a7A"," "," ","1","0","[1339.199999988079]","1","0","4","","","","","","","",""
"pit-trial","92","809542","0.0-2.0-17.2-1.2","battery-v0.2","","""event"",""trial"",""time""
""fullscreenenter"",""1"",""80121""
","
","
","""event"",""trial"",""time""
""fullscreenenter"",""1"",""80121""
","
","","","224.90000000596046","","","23","10499","4361","&#9789;","elianto","#f73b6a7A"," "," ","1","0","[1076.800000011921]","1","0","4","","","","","","","",""
"pit-trial","93","812608","0.0-2.0-17.2-2.2","battery-v0.2","","""event"",""trial"",""time""
""fullscreenenter"",""1"",""80121""
","
","
","""event"",""trial"",""time""
""fullscreenenter"",""1"",""80121""
","
","","","191.29999999701977","","","23","10499","4361","&#9789;","elianto","#f73b6a7A"," "," ","1","0","[1054]","1","0","4","","","","","","","",""
"pit-trial","94","815894","0.0-2.0-17.2-3.2","battery-v0.2","","""event"",""trial"",""time""
""fullscreenenter"",""1"",""80121""
","
","
","""event"",""trial"",""time""
""fullscreenenter"",""1"",""80121""
","
","","","426.59999999403954","","","23","10499","4361","&#9789;","elianto","#f73b6a7A"," "," ","1","-10","[1279]","1","0","4","","","","","","","",""
"pit-trial","95","819183","0.0-2.0-17.2-4.2","battery-v0.2","","""event"",""trial"",""time""
""fullscreenenter"",""1"",""80121""
","
","
","""event"",""trial"",""time""
""fullscreenenter"",""1"",""80121""
","
","","","416.79999999701977","","","23","10499","4361","&#9789;","elianto","#f73b6a7A"," "," ","1","0","[1275.699999988079]","1","0","4","","","","","","","",""
"pit-trial","96","822328","0.0-2.0-17.3-0.3","battery-v0.2","","""event"",""trial"",""time""
""fullscreenenter"",""1"",""80121""
","
","
","""event"",""trial"",""time""
""fullscreenenter"",""1"",""80121""
","
","","","285.59999999403954","","","23","10499","4361","&#9789;","elianto","#f73b6a7A"," "," ","1","0","[1138]","1","0","4","","","","","","","",""
"pit-trial","97","825629","0.0-2.0-17.3-1.3","battery-v0.2","","""event"",""trial"",""time""
""fullscreenenter"",""1"",""80121""
","
","
","""event"",""trial"",""time""
""fullscreenenter"",""1"",""80121""
","
","","","433.30000001192093","","","23","10499","4361","&#9789;","elianto","#f73b6a7A"," "," ","1","0","[1291.7000000029802]","1","0","4","","","","","","","",""
"pit-trial","98","829045","0.0-2.0-17.3-2.3","battery-v0.2","","""event"",""trial"",""time""
""fullscreenenter"",""1"",""80121""
","
","
","""event"",""trial"",""time""
""fullscreenenter"",""1"",""80121""
","
","","","548.2000000029802","","","23","10499","4361","&#9789;","elianto","#f73b6a7A"," "," ","1","0","[1402.7000000029802]","1","0","4","","","","","","","",""
"pit-trial","99","832344","0.0-2.0-17.3-3.3","battery-v0.2","","""event"",""trial"",""time""
""fullscreenenter"",""1"",""80121""
","
","
","""event"",""trial"",""time""
""fullscreenenter"",""1"",""80121""
","
","","","426","","","23","10499","4361","&#9789;","elianto","#f73b6a7A"," "," ","1","-10","[1283.2000000029802]","1","0","4","","","","","","","",""
"pit-trial","100","835633","0.0-2.0-17.3-4.3","battery-v0.2","","""event"",""trial"",""time""
""fullscreenenter"",""1"",""80121""
","
","
","""event"",""trial"",""time""
""fullscreenenter"",""1"",""80121""
","
","","","427","","","23","10499","4361","&#9789;","elianto","#f73b6a7A"," "," ","1","0","[1279.1000000089407]","1","0","4","","","","","","","",""
"call-function","101","835638","0.0-2.0-18.0","battery-v0.2","","""event"",""trial"",""time""
""fullscreenenter"",""1"",""80121""
","
","
","""event"",""trial"",""time""
""fullscreenenter"",""1"",""80121""
","
","","","","","","","","","","","","","","","","","","","","","","","","","","",""
"pit-instructions","102","918978","0.0-2.0-19.0","battery-v0.2","","""event"",""trial"",""time""
""fullscreenenter"",""1"",""80121""
","
","
","""event"",""trial"",""time""
""fullscreenenter"",""1"",""80121""
","
","","[{""page_index"":0,""viewing_time"":7681.5},{""page_index"":1,""viewing_time"":6880.699999988079},{""page_index"":2,""viewing_time"":13686.60000000894},{""page_index"":3,""viewing_time"":8187.20000000298},{""page_index"":4,""viewing_time"":9465.199999988079},{""page_index"":5,""viewing_time"":8779},{""page_index"":6,""viewing_time"":9007.20000000298},{""page_index"":7,""viewing_time"":14567.70000000298},{""page_index"":8,""viewing_time"":5082.5999999940395}]","83339.5","","","","","","","","","","","","","","","","","","","","","","","",""
"pit-comprehension","103","924005","0.0-2.0-20.0-0.0","battery-v0.2","","""event"",""trial"",""time""
""fullscreenenter"",""1"",""80121""
","
","
","""event"",""trial"",""time""
""fullscreenenter"",""1"",""80121""
","
","","","5013","[""SPACE""]","0","23","10499","4361","","","","","","","","","","","","","","","","","","",""
"pit-instructions","104","927456","0.0-2.0-20.0-1.0","battery-v0.2","","""event"",""trial"",""time""
""fullscreenenter"",""1"",""80121""
","
","
","""event"",""trial"",""time""
""fullscreenenter"",""1"",""80121""
","
","","[{""page_index"":0,""viewing_time"":3358}]","3359.3999999910593","","","","","","","","","","","","","","","","","","","","","","","",""
"pit-comprehension","105","932763","0.0-2.0-21.0-0.0","battery-v0.2","","""event"",""trial"",""time""
""fullscreenenter"",""1"",""80121""
","
","
","""event"",""trial"",""time""
""fullscreenenter"",""1"",""80121""
","
","","","5289.300000011921","[""10""]","0","23","10499","4361","","","","","","","","","","","","","","","","","","",""
"pit-instructions","106","934068","0.0-2.0-21.0-1.0","battery-v0.2","","""event"",""trial"",""time""
""fullscreenenter"",""1"",""80121""
","
","
","""event"",""trial"",""time""
""fullscreenenter"",""1"",""80121""
","
","","[{""page_index"":0,""viewing_time"":1177.6000000089407}]","1178.800000011921","","","","","","","","","","","","","","","","","","","","","","","",""
"pit-comprehension","107","941086","0.0-2.0-22.0-0.0","battery-v0.2","","""event"",""trial"",""time""
""fullscreenenter"",""1"",""80121""
","
","
","""event"",""trial"",""time""
""fullscreenenter"",""1"",""80121""
","
","","","7004.5999999940395","[""0""]","0","23","10499","4361","","","","","","","","","","","","","","","","","","",""
"pit-instructions","108","945452","0.0-2.0-22.0-1.0","battery-v0.2","","""event"",""trial"",""time""
""fullscreenenter"",""1"",""80121""
","
","
","""event"",""trial"",""time""
""fullscreenenter"",""1"",""80121""
","
","","[{""page_index"":0,""viewing_time"":4252.20000000298}]","4253.70000000298","","","","","","","","","","","","","","","","","","","","","","","",""
"pit-comprehension","109","958803","0.0-2.0-23.0-0.0","battery-v0.2","","""event"",""trial"",""time""
""fullscreenenter"",""1"",""80121""
","
","
","""event"",""trial"",""time""
""fullscreenenter"",""1"",""80121""
","
","","","13329.79999999702","[""False""]","1","23","10499","4361","","","","","","","","","","","","","","","","","","",""
"pit-instructions","110","961332","0.0-2.0-23.0-1.0","battery-v0.2","","""event"",""trial"",""time""
""fullscreenenter"",""1"",""80121""
","
","
","""event"",""trial"",""time""
""fullscreenenter"",""1"",""80121""
","
","","[{""page_index"":0,""viewing_time"":2396.5999999940395}]","2397.9000000059605","","","","","","","","","","","","","","","","","","","","","","","",""
"pit-instructions","111","962584","0.0-2.0-23.0-2.0-0.0","battery-v0.2","","""event"",""trial"",""time""
""fullscreenenter"",""1"",""80121""
","
","
","""event"",""trial"",""time""
""fullscreenenter"",""1"",""80121""
","
","","[{""page_index"":0,""viewing_time"":1244.5}]","1246","","","","","","","","","","","","","","","","","","","","","","","",""
"pit-comprehension","112","971051","0.0-2.0-23.1-0.1","battery-v0.2","","""event"",""trial"",""time""
""fullscreenenter"",""1"",""80121""
","
","
","""event"",""trial"",""time""
""fullscreenenter"",""1"",""80121""
","
","","","8457.70000000298","[""True""]","0","23","10499","4361","","","","","","","","","","","","","","","","","","",""
"pit-instructions","113","972333","0.0-2.0-23.1-1.1","battery-v0.2","","""event"",""trial"",""time""
""fullscreenenter"",""1"",""80121""
","
","
","""event"",""trial"",""time""
""fullscreenenter"",""1"",""80121""
","
","","[{""page_index"":0,""viewing_time"":1156.7999999970198}]","1158.4000000059605","","","","","","","","","","","","","","","","","","","","","","","",""
"pit-comprehension","114","983359","0.0-2.0-24.0-0.0","battery-v0.2","","""event"",""trial"",""time""
""fullscreenenter"",""1"",""80121""
","
","
","""event"",""trial"",""time""
""fullscreenenter"",""1"",""80121""
","
","","","11009.20000000298","[""True""]","0","23","10499","4361","","","","","","","","","","","","","","","","","","",""
"pit-instructions","115","984685","0.0-2.0-24.0-1.0","battery-v0.2","","""event"",""trial"",""time""
""fullscreenenter"",""1"",""80121""
","
","
","""event"",""trial"",""time""
""fullscreenenter"",""1"",""80121""
","
","","[{""page_index"":0,""viewing_time"":1195.0999999940395}]","1196.5","","","","","","","","","","","","","","","","","","","","","","","",""
"pit-comprehension","116","992000","0.0-2.0-25.0-0.0","battery-v0.2","","""event"",""trial"",""time""
""fullscreenenter"",""1"",""80121""
","
","
","""event"",""trial"",""time""
""fullscreenenter"",""1"",""80121""
","
","","","7301","[""True""]","0","23","10499","4361","","","","","","","","","","","","","","","","","","",""
"pit-instructions","117","993153","0.0-2.0-25.0-1.0","battery-v0.2","","""event"",""trial"",""time""
""fullscreenenter"",""1"",""80121""
","
","
","""event"",""trial"",""time""
""fullscreenenter"",""1"",""80121""
","
","","[{""page_index"":0,""viewing_time"":1051.0999999940395}]","1052.5999999940395","","","","","","","","","","","","","","","","","","","","","","","",""
"pit-comprehension","118","1000039","0.0-2.0-26.0-0.0","battery-v0.2","","""event"",""trial"",""time""
""fullscreenenter"",""1"",""80121""
","
","
","""event"",""trial"",""time""
""fullscreenenter"",""1"",""80121""
","
","","","6867.20000000298","[""False""]","0","23","10499","4361","","","","","","","","","","","","","","","","","","",""
"pit-instructions","119","1002622","0.0-2.0-26.0-1.0","battery-v0.2","","""event"",""trial"",""time""
""fullscreenenter"",""1"",""80121""
","
","
","""event"",""trial"",""time""
""fullscreenenter"",""1"",""80121""
","
","","[{""page_index"":0,""viewing_time"":2410.2999999970198}]","2411.3999999910593","","","","","","","","","","","","","","","","","","","","","","","",""
"pit-instructions","120","1025230","0.0-3.0","battery-v0.2","","""event"",""trial"",""time""
""fullscreenenter"",""1"",""80121""
","
","
","""event"",""trial"",""time""
""fullscreenenter"",""1"",""80121""
","
","","[{""page_index"":0,""viewing_time"":5764.79999999702},{""page_index"":1,""viewing_time"":8871.60000000894},{""page_index"":2,""viewing_time"":7960.79999999702}]","22598.5","","","","","","","","","","","","","","","","","","","","","","","",""
"pit-trial","121","1028910","0.0-4.0","battery-v0.2","","""event"",""trial"",""time""
""fullscreenenter"",""1"",""80121""
","
","
","""event"",""trial"",""time""
""fullscreenenter"",""1"",""80121""
","
","","","789.4000000059605","","","23","10499","4361","&#9728;","elianto","#f73b6a7A","-1"," ","0","-10","[1648.5999999940395]","1","1","","","10499","1","0","4","lose","no-go","0"
"pit-trial","122","1032460","0.0-5.0","battery-v0.2","","""event"",""trial"",""time""
""fullscreenenter"",""1"",""80121""
","
","
","""event"",""trial"",""time""
""fullscreenenter"",""1"",""80121""
","
","","","665","","","23","10499","4361","&#9730;","elianto","#3366ff99"," "," ","1","+10","[1524.800000011921]","1","1","","","10499","2","1","1","win","go","0"
"pit-trial","123","1036130","0.0-6.0","battery-v0.2","","""event"",""trial"",""time""
""fullscreenenter"",""1"",""80121""
","
","
","""event"",""trial"",""time""
""fullscreenenter"",""1"",""80121""
","
","","","799.5999999940395","","","23","10499","4361","&#9733;","elianto","#3366ff99","-1"," ","0","0","[1650.800000011921]","1","1","","","10499","3","2","2","win","no-go","0"
"pit-trial","124","1039796","0.0-7.0","battery-v0.2","","""event"",""trial"",""time""
""fullscreenenter"",""1"",""80121""
","
","
","""event"",""trial"",""time""
""fullscreenenter"",""1"",""80121""
","
","","","779.3999999910593","","","23","10499","4361","&#9752;","elianto","#f73b6a7A"," "," ","1","0","[1645.4000000059605]","1","1","","","10499","4","3","3","lose","go","0"
"pit-trial","125","1043695","0.0-8.0","battery-v0.2","","""event"",""trial"",""time""
""fullscreenenter"",""1"",""80121""
","
","
","""event"",""trial"",""time""
""fullscreenenter"",""1"",""80121""
","
","","","1021.2999999970198","","","23","10499","4361","&#9752;","elianto","#f73b6a7A"," "," ","1","0","[1887]","1","1","","","10499","5","3","3","lose","go","0"
"pit-trial","126","1047286","0.0-9.0","battery-v0.2","","""event"",""trial"",""time""
""fullscreenenter"",""1"",""80121""
","
","
","""event"",""trial"",""time""
""fullscreenenter"",""1"",""80121""
","
","","","724.0999999940395","","","23","10499","4361","&#9733;","elianto","#3366ff99","-1"," ","0","+10","[1577.2999999970198]","1","1","","","10499","6","2","2","win","no-go","1"
"pit-trial","127","1052165","0.0-10.0","battery-v0.2","","""event"",""trial"",""time""
""fullscreenenter"",""1"",""80121""
","
","
","""event"",""trial"",""time""
""fullscreenenter"",""1"",""80121""
","
","","","-1","","","23","10499","4361","&#9728;","elianto","#f73b6a7A","-1","-1","1","0","[]","0","1","","","10499","7","0","4","lose","no-go","0"
"pit-trial","128","1057027","0.0-11.0","battery-v0.2","","""event"",""trial"",""time""
""fullscreenenter"",""1"",""80121""
","
","
","""event"",""trial"",""time""
""fullscreenenter"",""1"",""80121""
","
","","","-1","","","23","10499","4361","&#9730;","elianto","#3366ff99"," ","-1","0","0","[]","0","1","","","10499","8","1","1","win","go","0"
"pit-trial","129","1060700","0.0-12.0","battery-v0.2","","""event"",""trial"",""time""
""fullscreenenter"",""1"",""80121""
","
","
","""event"",""trial"",""time""
""fullscreenenter"",""1"",""80121""
","
","","","795.5","","","23","10499","4361","&#9752;","elianto","#f73b6a7A"," "," ","1","0","[1660.2999999970198]","1","1","","","10499","9","3","3","lose","go","0"
"pit-trial","130","1065578","0.0-13.0","battery-v0.2","","""event"",""trial"",""time""
""fullscreenenter"",""1"",""80121""
","
","
","""event"",""trial"",""time""
""fullscreenenter"",""1"",""80121""
","
","","","-1","","","23","10499","4361","&#9728;","elianto","#f73b6a7A","-1","-1","1","0","[]","0","1","","","10499","10","0","4","lose","no-go","0"
"pit-trial","131","1069265","0.0-14.0","battery-v0.2","","""event"",""trial"",""time""
""fullscreenenter"",""1"",""80121""
","
","
","""event"",""trial"",""time""
""fullscreenenter"",""1"",""80121""
","
","","","821.9000000059605","","","23","10499","4361","&#9733;","elianto","#3366ff99","-1"," ","0","0","[1678.2999999970198]","1","1","","","10499","11","2","2","win","no-go","0"
"pit-trial","132","1073151","0.0-15.0","battery-v0.2","","""event"",""trial"",""time""
""fullscreenenter"",""1"",""80121""
","
","
","""event"",""trial"",""time""
""fullscreenenter"",""1"",""80121""
","
","","","1020","","","23","10499","4361","&#9730;","elianto","#3366ff99"," "," ","1","0","[1876.7999999970198]","1","1","","","10499","12","1","1","win","go","1"
"pit-trial","133","1078027","0.0-16.0","battery-v0.2","","""event"",""trial"",""time""
""fullscreenenter"",""1"",""80121""
","
","
","""event"",""trial"",""time""
""fullscreenenter"",""1"",""80121""
","
","","","-1","","","23","10499","4361","&#9728;","elianto","#f73b6a7A","-1","-1","1","0","[]","0","1","","","10499","13","0","4","lose","no-go","0"
"pit-trial","134","1081558","0.0-17.0","battery-v0.2","","""event"",""trial"",""time""
""fullscreenenter"",""1"",""80121""
","
","
","""event"",""trial"",""time""
""fullscreenenter"",""1"",""80121""
","
","","","668.2999999970198","","","23","10499","4361","&#9752;","elianto","#f73b6a7A"," "," ","1","0","[1522.5999999940395]","1","1","","","10499","14","3","3","lose","go","0"
"pit-trial","135","1086416","0.0-18.0","battery-v0.2","","""event"",""trial"",""time""
""fullscreenenter"",""1"",""80121""
","
","
","""event"",""trial"",""time""
""fullscreenenter"",""1"",""80121""
","
","","","-1","","","23","10499","4361","&#9730;","elianto","#3366ff99"," ","-1","0","0","[]","0","1","","","10499","15","1","1","win","go","0"
"pit-trial","136","1089850","0.0-19.0","battery-v0.2","","""event"",""trial"",""time""
""fullscreenenter"",""1"",""80121""
","
","
","""event"",""trial"",""time""
""fullscreenenter"",""1"",""80121""
","
","","","562.5999999940395","","","23","10499","4361","&#9733;","elianto","#3366ff99","-1"," ","0","0","[1421.5999999940395]","1","1","","","10499","16","2","2","win","no-go","0"
"pit-trial","137","1093352","0.0-20.0","battery-v0.2","","""event"",""trial"",""time""
""fullscreenenter"",""1"",""80121""
","
","
","""event"",""trial"",""time""
""fullscreenenter"",""1"",""80121""
","
","","","632.2999999970198","","","23","10499","4361","&#9733;","elianto","#3366ff99","-1"," ","0","0","[1488.4000000059605]","1","1","","","10499","17","2","2","win","no-go","0"
"pit-trial","138","1096736","0.0-21.0","battery-v0.2","","""event"",""trial"",""time""
""fullscreenenter"",""1"",""80121""
","
","
","""event"",""trial"",""time""
""fullscreenenter"",""1"",""80121""
","
","","","517.5","","","23","10499","4361","&#9730;","elianto","#3366ff99"," "," ","1","+10","[1373.3999999910593]","1","1","","","10499","18","1","1","win","go","0"
"pit-trial","139","1100493","0.0-22.0","battery-v0.2","","""event"",""trial"",""time""
""fullscreenenter"",""1"",""80121""
","
","
","""event"",""trial"",""time""
""fullscreenenter"",""1"",""80121""
","
","","","888","","","23","10499","4361","&#9752;","elianto","#f73b6a7A"," "," ","1","0","[1741.6000000089407]","1","1","","","10499","19","3","3","lose","go","0"
"pit-trial","140","1105362","0.0-23.0","battery-v0.2","","""event"",""trial"",""time""
""fullscreenenter"",""1"",""80121""
","
","
","""event"",""trial"",""time""
""fullscreenenter"",""1"",""80121""
","
","","","-1","","","23","10499","4361","&#9728;","elianto","#f73b6a7A","-1","-1","1","-10","[]","0","1","","","10499","20","0","4","lose","no-go","1"
"pit-instructions","141","1119156","0.0-24.0","battery-v0.2","","""event"",""trial"",""time""
""fullscreenenter"",""1"",""80121""
","
","
","""event"",""trial"",""time""
""fullscreenenter"",""1"",""80121""
","
","","[{""page_index"":0,""viewing_time"":5597.899999991059},{""page_index"":1,""viewing_time"":8190.600000008941}]","13789.70000000298","","","","","","","","","","","","","","","","","","","","","","","",""
"pit-trial","142","1122627","0.0-25.0","battery-v0.2","","""event"",""trial"",""time""
""fullscreenenter"",""1"",""80121""
","
","
","""event"",""trial"",""time""
""fullscreenenter"",""1"",""80121""
","
","","","595.7000000029802","","","23","10499","4361","y","elianto","#f73b6a7A"," "," ","1","0","[1446.7000000029802]","1","2","","","10499","21","2","3","lose","go","0"
"pit-trial","143","1126072","0.0-26.0","battery-v0.2","","""event"",""trial"",""time""
""fullscreenenter"",""1"",""80121""
","
","
","""event"",""trial"",""time""
""fullscreenenter"",""1"",""80121""
","
","","","575.2999999970198","","","23","10499","4361","h","elianto","#f73b6a7A","-1"," ","0","-10","[1426.300000011921]","1","2","","","10499","22","3","4","lose","no-go","0"
"pit-trial","144","1129562","0.0-27.0","battery-v0.2","","""event"",""trial"",""time""
""fullscreenenter"",""1"",""80121""
","
","
","""event"",""trial"",""time""
""fullscreenenter"",""1"",""80121""
","
","","","626.7000000029802","","","23","10499","4361","r","elianto","#3366ff99","-1"," ","0","+10","[1478.5]","1","2","","","10499","23","1","2","win","no-go","1"
"pit-trial","145","1133486","0.0-28.0","battery-v0.2","","""event"",""trial"",""time""
""fullscreenenter"",""1"",""80121""
","
","
","""event"",""trial"",""time""
""fullscreenenter"",""1"",""80121""
","
","","","1048.6000000089407","","","23","10499","4361","m","elianto","#f73b6a7A"," "," ","1","0","[1903.0999999940395]","1","2","","","10499","24","0","3","lose","go","0"
"pit-trial","146","1138367","0.0-29.0","battery-v0.2","","""event"",""trial"",""time""
""fullscreenenter"",""1"",""80121""
","
","
","""event"",""trial"",""time""
""fullscreenenter"",""1"",""80121""
","
","","","-1","","","23","10499","4361","m","elianto","#f73b6a7A"," ","-1","0","0","[]","0","2","","","10499","25","0","3","lose","go","1"
"pit-trial","147","1143232","0.0-30.0","battery-v0.2","","""event"",""trial"",""time""
""fullscreenenter"",""1"",""80121""
","
","
","""event"",""trial"",""time""
""fullscreenenter"",""1"",""80121""
","
","","","-1","","","23","10499","4361","h","elianto","#f73b6a7A","-1","-1","1","0","[]","0","2","","","10499","26","3","4","lose","no-go","0"
"pit-trial","148","1147042","0.0-31.0","battery-v0.2","","""event"",""trial"",""time""
""fullscreenenter"",""1"",""80121""
","
","
","""event"",""trial"",""time""
""fullscreenenter"",""1"",""80121""
","
","","","936","","","23","10499","4361","r","elianto","#3366ff99","-1"," ","0","0","[1789.7999999970198]","1","2","","","10499","27","1","2","win","no-go","0"
"pit-trial","149","1151903","0.0-32.0","battery-v0.2","","""event"",""trial"",""time""
""fullscreenenter"",""1"",""80121""
","
","
","""event"",""trial"",""time""
""fullscreenenter"",""1"",""80121""
","
","","","-1","","","23","10499","4361","y","elianto","#f73b6a7A"," ","-1","0","-10","[]","0","2","","","10499","28","2","3","lose","go","0"
"pit-trial","150","1156768","0.0-33.0","battery-v0.2","","""event"",""trial"",""time""
""fullscreenenter"",""1"",""80121""
","
","
","""event"",""trial"",""time""
""fullscreenenter"",""1"",""80121""
","
","","","-1","","","23","10499","4361","m","elianto","#f73b6a7A"," ","-1","0","-10","[]","0","2","","","10499","29","0","3","lose","go","0"
"pit-trial","151","1161632","0.0-34.0","battery-v0.2","","""event"",""trial"",""time""
""fullscreenenter"",""1"",""80121""
","
","
","""event"",""trial"",""time""
""fullscreenenter"",""1"",""80121""
","
","","","-1","","","23","10499","4361","r","elianto","#3366ff99","-1","-1","1","+10","[]","0","2","","","10499","30","1","2","win","no-go","0"
"pit-trial","152","1165997","0.0-35.0","battery-v0.2","","""event"",""trial"",""time""
""fullscreenenter"",""1"",""80121""
","
","
","""event"",""trial"",""time""
""fullscreenenter"",""1"",""80121""
","
","","","1502.9000000059605","","","23","10499","4361","y","elianto","#f73b6a7A"," "," ","1","0","[2353.2999999970198]","1","2","","","10499","31","2","3","lose","go","0"
"pit-trial","153","1170875","0.0-36.0","battery-v0.2","","""event"",""trial"",""time""
""fullscreenenter"",""1"",""80121""
","
","
","""event"",""trial"",""time""
""fullscreenenter"",""1"",""80121""
","
","","","-1","","","23","10499","4361","h","elianto","#f73b6a7A","-1","-1","1","0","[]","0","2","","","10499","32","3","4","lose","no-go","0"
"pit-trial","154","1175743","0.0-37.0","battery-v0.2","","""event"",""trial"",""time""
""fullscreenenter"",""1"",""80121""
","
","
","""event"",""trial"",""time""
""fullscreenenter"",""1"",""80121""
","
","","","-1","","","23","10499","4361","h","elianto","#f73b6a7A","-1","-1","1","0","[]","0","2","","","10499","33","3","4","lose","no-go","0"
"pit-trial","155","1179580","0.0-38.0","battery-v0.2","","""event"",""trial"",""time""
""fullscreenenter"",""1"",""80121""
","
","
","""event"",""trial"",""time""
""fullscreenenter"",""1"",""80121""
","
","","","976.5999999940395","","","23","10499","4361","y","elianto","#f73b6a7A"," "," ","1","0","[1827.300000011921]","1","2","","","10499","34","2","3","lose","go","0"
"pit-trial","156","1184457","0.0-39.0","battery-v0.2","","""event"",""trial"",""time""
""fullscreenenter"",""1"",""80121""
","
","
","""event"",""trial"",""time""
""fullscreenenter"",""1"",""80121""
","
","","","-1","","","23","10499","4361","r","elianto","#3366ff99","-1","-1","1","+10","[]","0","2","","","10499","35","1","2","win","no-go","0"
"pit-trial","157","1188774","0.0-40.0","battery-v0.2","","""event"",""trial"",""time""
""fullscreenenter"",""1"",""80121""
","
","
","""event"",""trial"",""time""
""fullscreenenter"",""1"",""80121""
","
","","","1453.5999999940395","","","23","10499","4361","m","elianto","#f73b6a7A"," "," ","1","-10","[2307.7000000029802]","1","2","","","10499","36","0","3","lose","go","1"
"pit-trial","158","1193643","0.0-41.0","battery-v0.2","","""event"",""trial"",""time""
""fullscreenenter"",""1"",""80121""
","
","
","""event"",""trial"",""time""
""fullscreenenter"",""1"",""80121""
","
","","","-1","","","23","10499","4361","h","elianto","#f73b6a7A","-1","-1","1","0","[]","0","2","","","10499","37","3","4","lose","no-go","0"
"pit-trial","159","1198509","0.0-42.0","battery-v0.2","","""event"",""trial"",""time""
""fullscreenenter"",""1"",""80121""
","
","
","""event"",""trial"",""time""
""fullscreenenter"",""1"",""80121""
","
","","","-1","","","23","10499","4361","r","elianto","#3366ff99","-1","-1","1","+10","[]","0","2","","","10499","38","1","2","win","no-go","0"
"pit-trial","160","1202133","0.0-43.0","battery-v0.2","","""event"",""trial"",""time""
""fullscreenenter"",""1"",""80121""
","
","
","""event"",""trial"",""time""
""fullscreenenter"",""1"",""80121""
","
","","","761.4000000059605","","","23","10499","4361","y","elianto","#f73b6a7A"," "," ","1","0","[1615.4000000059605]","1","2","","","10499","39","2","3","lose","go","0"
"pit-trial","161","1206996","0.0-44.0","battery-v0.2","","""event"",""trial"",""time""
""fullscreenenter"",""1"",""80121""
","
","
","""event"",""trial"",""time""
""fullscreenenter"",""1"",""80121""
","
","","","-1","","","23","10499","4361","m","elianto","#f73b6a7A"," ","-1","0","-10","[]","0","2","","","10499","40","0","3","lose","go","0"
"pit-trial","162","1210657","0.0-45.0","battery-v0.2","","""event"",""trial"",""time""
""fullscreenenter"",""1"",""80121""
","
","
","""event"",""trial"",""time""
""fullscreenenter"",""1"",""80121""
","
","","","803.2999999970198","","","23","10499","4361","m","elianto","#f73b6a7A"," "," ","1","0","[1653.5]","1","2","","","10499","41","0","3","lose","go","0"
"pit-trial","163","1215519","0.0-46.0","battery-v0.2","","""event"",""trial"",""time""
""fullscreenenter"",""1"",""80121""
","
","
","""event"",""trial"",""time""
""fullscreenenter"",""1"",""80121""
","
","","","-1","","","23","10499","4361","h","elianto","#f73b6a7A","-1","-1","1","-10","[]","0","2","","","10499","42","3","4","lose","no-go","1"
"pit-trial","164","1219073","0.0-47.0","battery-v0.2","","""event"",""trial"",""time""
""fullscreenenter"",""1"",""80121""
","
","
","""event"",""trial"",""time""
""fullscreenenter"",""1"",""80121""
","
","","","690.2999999970198","","","23","10499","4361","y","elianto","#f73b6a7A"," "," ","1","0","[1541.2000000029802]","1","2","","","10499","43","2","3","lose","go","0"
"pit-trial","165","1222592","0.0-48.0","battery-v0.2","","""event"",""trial"",""time""
""fullscreenenter"",""1"",""80121""
","
","
","""event"",""trial"",""time""
""fullscreenenter"",""1"",""80121""
","
","","","643.2000000029802","","","23","10499","4361","r","elianto","#3366ff99","-1"," ","0","0","[1506.8999999910593]","1","2","","","10499","44","1","2","win","no-go","0"
"pit-trial","166","1226215","0.0-49.0","battery-v0.2","","""event"",""trial"",""time""
""fullscreenenter"",""1"",""80121""
","
","
","""event"",""trial"",""time""
""fullscreenenter"",""1"",""80121""
","
","","","759.2000000029802","","","23","10499","4361","y","elianto","#f73b6a7A"," "," ","1","-10","[1612.7999999970198]","1","2","","","10499","45","2","3","lose","go","1"
"pit-trial","167","1231083","0.0-50.0","battery-v0.2","","""event"",""trial"",""time""
""fullscreenenter"",""1"",""80121""
","
","
","""event"",""trial"",""time""
""fullscreenenter"",""1"",""80121""
","
","","","-1","","","23","10499","4361","h","elianto","#f73b6a7A","-1","-1","1","0","[]","0","2","","","10499","46","3","4","lose","no-go","0"
"pit-trial","168","1234474","0.0-51.0","battery-v0.2","","""event"",""trial"",""time""
""fullscreenenter"",""1"",""80121""
","
","
","""event"",""trial"",""time""
""fullscreenenter"",""1"",""80121""
","
","","","525.7000000029802","","","23","10499","4361","r","elianto","#3366ff99","-1"," ","0","+10","[1381.1000000089407]","1","2","","","10499","47","1","2","win","no-go","1"
"pit-trial","169","1239212","0.0-52.0","battery-v0.2","","""event"",""trial"",""time""
""fullscreenenter"",""1"",""80121""
","
","
","""event"",""trial"",""time""
""fullscreenenter"",""1"",""80121""
","
","","","1865.2999999970198","","","23","10499","4361","m","elianto","#f73b6a7A"," "," ","1","0","[2720.9000000059605]","1","2","","","10499","48","0","3","lose","go","0"
"pit-trial","170","1244087","0.0-53.0","battery-v0.2","","""event"",""trial"",""time""
""fullscreenenter"",""1"",""80121""
","
","
","""event"",""trial"",""time""
""fullscreenenter"",""1"",""80121""
","
","","","-1","","","23","10499","4361","h","elianto","#f73b6a7A","-1","-1","1","0","[]","0","2","","","10499","49","3","4","lose","no-go","0"
"pit-trial","171","1248927","0.0-54.0","battery-v0.2","","""event"",""trial"",""time""
""fullscreenenter"",""1"",""80121""
","
","
","""event"",""trial"",""time""
""fullscreenenter"",""1"",""80121""
","
","","","1978.2999999970198","","","23","10499","4361","m","elianto","#f73b6a7A"," "," ","1","-10","[2833.0999999940395]","1","2","","","10499","50","0","3","lose","go","1"
"pit-trial","172","1252497","0.0-55.0","battery-v0.2","","""event"",""trial"",""time""
""fullscreenenter"",""1"",""80121""
","
","
","""event"",""trial"",""time""
""fullscreenenter"",""1"",""80121""
","
","","","704.3999999910593","","","23","10499","4361","y","elianto","#f73b6a7A"," "," ","1","0","[1560.8999999910593]","1","2","","","10499","51","2","3","lose","go","0"
"pit-trial","173","1256221","0.0-56.0","battery-v0.2","","""event"",""trial"",""time""
""fullscreenenter"",""1"",""80121""
","
","
","""event"",""trial"",""time""
""fullscreenenter"",""1"",""80121""
","
","","","861.2999999970198","","","23","10499","4361","r","elianto","#3366ff99","-1"," ","0","0","[1714.199999988079]","1","2","","","10499","52","1","2","win","no-go","0"
"pit-trial","174","1261093","0.0-57.0","battery-v0.2","","""event"",""trial"",""time""
""fullscreenenter"",""1"",""80121""
","
","
","""event"",""trial"",""time""
""fullscreenenter"",""1"",""80121""
","
","","","-1","","","23","10499","4361","m","elianto","#f73b6a7A"," ","-1","0","-10","[]","0","2","","","10499","53","0","3","lose","go","0"
"pit-trial","175","1264848","0.0-58.0","battery-v0.2","","""event"",""trial"",""time""
""fullscreenenter"",""1"",""80121""
","
","
","""event"",""trial"",""time""
""fullscreenenter"",""1"",""80121""
","
","","","887.8000000119209","","","23","10499","4361","y","elianto","#f73b6a7A"," "," ","1","0","[1742.300000011921]","1","2","","","10499","54","2","3","lose","go","0"
"pit-trial","176","1269718","0.0-59.0","battery-v0.2","","""event"",""trial"",""time""
""fullscreenenter"",""1"",""80121""
","
","
","""event"",""trial"",""time""
""fullscreenenter"",""1"",""80121""
","
","","","-1","","","23","10499","4361","h","elianto","#f73b6a7A","-1","-1","1","0","[]","0","2","","","10499","55","3","4","lose","no-go","0"
"pit-trial","177","1274579","0.0-60.0","battery-v0.2","","""event"",""trial"",""time""
""fullscreenenter"",""1"",""80121""
","
","
","""event"",""trial"",""time""
""fullscreenenter"",""1"",""80121""
","
","","","-1","","","23","10499","4361","r","elianto","#3366ff99","-1","-1","1","+10","[]","0","2","","","10499","56","1","2","win","no-go","0"
"pit-trial","178","1279443","0.0-61.0","battery-v0.2","","""event"",""trial"",""time""
""fullscreenenter"",""1"",""80121""
","
","
","""event"",""trial"",""time""
""fullscreenenter"",""1"",""80121""
","
","","","-1","","","23","10499","4361","h","elianto","#f73b6a7A","-1","-1","1","0","[]","0","2","","","10499","57","3","4","lose","no-go","0"
"pit-trial","179","1283134","0.0-62.0","battery-v0.2","","""event"",""trial"",""time""
""fullscreenenter"",""1"",""80121""
","
","
","""event"",""trial"",""time""
""fullscreenenter"",""1"",""80121""
","
","","","822.2999999970198","","","23","10499","4361","y","elianto","#f73b6a7A"," "," ","1","-10","[1680.1000000089407]","1","2","","","10499","58","2","3","lose","go","1"
"pit-trial","180","1287707","0.0-63.0","battery-v0.2","","""event"",""trial"",""time""
""fullscreenenter"",""1"",""80121""
","
","
","""event"",""trial"",""time""
""fullscreenenter"",""1"",""80121""
","
","","","1707.300000011921","","","23","10499","4361","z","elianto","#3366ff99"," "," ","1","+10","[2560.2999999970198]","1","2","","","10499","59","4","1","win","go","0"
"pit-trial","181","1292573","0.0-64.0","battery-v0.2","","""event"",""trial"",""time""
""fullscreenenter"",""1"",""80121""
","
","
","""event"",""trial"",""time""
""fullscreenenter"",""1"",""80121""
","
","","","-1","","","23","10499","4361","m","elianto","#f73b6a7A"," ","-1","0","-10","[]","0","2","","","10499","60","0","3","lose","go","0"
"pit-trial","182","1296346","0.0-65.0","battery-v0.2","","""event"",""trial"",""time""
""fullscreenenter"",""1"",""80121""
","
","
","""event"",""trial"",""time""
""fullscreenenter"",""1"",""80121""
","
","","","909.2000000029802","","","23","10499","4361","z","elianto","#3366ff99"," "," ","1","+10","[1760.3999999910593]","1","2","","","10499","61","4","1","win","go","0"
"pit-trial","183","1300053","0.0-66.0","battery-v0.2","","""event"",""trial"",""time""
""fullscreenenter"",""1"",""80121""
","
","
","""event"",""trial"",""time""
""fullscreenenter"",""1"",""80121""
","
","","","839.9000000059605","","","23","10499","4361","y","elianto","#f73b6a7A"," "," ","1","0","[1697.4000000059605]","1","2","","","10499","62","2","3","lose","go","0"
"pit-trial","184","1304919","0.0-67.0","battery-v0.2","","""event"",""trial"",""time""
""fullscreenenter"",""1"",""80121""
","
","
","""event"",""trial"",""time""
""fullscreenenter"",""1"",""80121""
","
","","","-1","","","23","10499","4361","r","elianto","#3366ff99","-1","-1","1","+10","[]","0","2","","","10499","63","1","2","win","no-go","0"
"pit-trial","185","1309792","0.0-68.0","battery-v0.2","","""event"",""trial"",""time""
""fullscreenenter"",""1"",""80121""
","
","
","""event"",""trial"",""time""
""fullscreenenter"",""1"",""80121""
","
","","","-1","","","23","10499","4361","h","elianto","#f73b6a7A","-1","-1","1","0","[]","0","2","","","10499","64","3","4","lose","no-go","0"
"pit-trial","186","1314651","0.0-69.0","battery-v0.2","","""event"",""trial"",""time""
""fullscreenenter"",""1"",""80121""
","
","
","""event"",""trial"",""time""
""fullscreenenter"",""1"",""80121""
","
","","","-1","","","23","10499","4361","r","elianto","#3366ff99","-1","-1","1","+10","[]","0","2","","","10499","65","1","2","win","no-go","0"
"pit-trial","187","1318860","0.0-70.0","battery-v0.2","","""event"",""trial"",""time""
""fullscreenenter"",""1"",""80121""
","
","
","""event"",""trial"",""time""
""fullscreenenter"",""1"",""80121""
","
","","","1346.4000000059605","","","23","10499","4361","c","elianto","#3366ff99","-1"," ","0","0","[2201]","1","2","","","10499","66","5","2","win","no-go","0"
"pit-trial","188","1323722","0.0-71.0","battery-v0.2","","""event"",""trial"",""time""
""fullscreenenter"",""1"",""80121""
","
","
","""event"",""trial"",""time""
""fullscreenenter"",""1"",""80121""
","
","","","-1","","","23","10499","4361","h","elianto","#f73b6a7A","-1","-1","1","0","[]","0","2","","","10499","67","3","4","lose","no-go","0"
"pit-trial","189","1327472","0.0-72.0","battery-v0.2","","""event"",""trial"",""time""
""fullscreenenter"",""1"",""80121""
","
","
","""event"",""trial"",""time""
""fullscreenenter"",""1"",""80121""
","
","","","889.2000000029802","","","23","10499","4361","z","elianto","#3366ff99"," "," ","1","0","[1742.3999999910593]","1","2","","","10499","68","4","1","win","go","1"
"pit-trial","190","1332337","0.0-73.0","battery-v0.2","","""event"",""trial"",""time""
""fullscreenenter"",""1"",""80121""
","
","
","""event"",""trial"",""time""
""fullscreenenter"",""1"",""80121""
","
","","","-1","","","23","10499","4361","c","elianto","#3366ff99","-1","-1","1","+10","[]","0","2","","","10499","69","5","2","win","no-go","0"
"pit-trial","191","1336182","0.0-74.0","battery-v0.2","","""event"",""trial"",""time""
""fullscreenenter"",""1"",""80121""
","
","
","""event"",""trial"",""time""
""fullscreenenter"",""1"",""80121""
","
","","","978.2000000029802","","","23","10499","4361","y","elianto","#f73b6a7A"," "," ","1","0","[1828.6000000089407]","1","2","","","10499","70","2","3","lose","go","0"
"pit-trial","192","1340050","0.0-75.0","battery-v0.2","","""event"",""trial"",""time""
""fullscreenenter"",""1"",""80121""
","
","
","""event"",""trial"",""time""
""fullscreenenter"",""1"",""80121""
","
","","","988","","","23","10499","4361","z","elianto","#3366ff99"," "," ","1","+10","[1846.699999988079]","1","2","","","10499","71","4","1","win","go","0"
"pit-trial","193","1344914","0.0-76.0","battery-v0.2","","""event"",""trial"",""time""
""fullscreenenter"",""1"",""80121""
","
","
","""event"",""trial"",""time""
""fullscreenenter"",""1"",""80121""
","
","","","-1","","","23","10499","4361","r","elianto","#3366ff99","-1","-1","1","+10","[]","0","2","","","10499","72","1","2","win","no-go","0"
"pit-trial","194","1349787","0.0-77.0","battery-v0.2","","""event"",""trial"",""time""
""fullscreenenter"",""1"",""80121""
","
","
","""event"",""trial"",""time""
""fullscreenenter"",""1"",""80121""
","
","","","-1","","","23","10499","4361","h","elianto","#f73b6a7A","-1","-1","1","0","[]","0","2","","","10499","73","3","4","lose","no-go","0"
"pit-trial","195","1353412","0.0-78.0","battery-v0.2","","""event"",""trial"",""time""
""fullscreenenter"",""1"",""80121""
","
","
","""event"",""trial"",""time""
""fullscreenenter"",""1"",""80121""
","
","","","758.6000000089407","","","23","10499","4361","z","elianto","#3366ff99"," "," ","1","+10","[1613.4000000059605]","1","2","","","10499","74","4","1","win","go","0"
"pit-trial","196","1358272","0.0-79.0","battery-v0.2","","""event"",""trial"",""time""
""fullscreenenter"",""1"",""80121""
","
","
","""event"",""trial"",""time""
""fullscreenenter"",""1"",""80121""
","
","","","-1","","","23","10499","4361","r","elianto","#3366ff99","-1","-1","1","+10","[]","0","2","","","10499","75","1","2","win","no-go","0"
"pit-trial","197","1363132","0.0-80.0","battery-v0.2","","""event"",""trial"",""time""
""fullscreenenter"",""1"",""80121""
","
","
","""event"",""trial"",""time""
""fullscreenenter"",""1"",""80121""
","
","","","-1","","","23","10499","4361","c","elianto","#3366ff99","-1","-1","1","0","[]","0","2","","","10499","76","5","2","win","no-go","1"
"pit-trial","198","1366710","0.0-81.0","battery-v0.2","","""event"",""trial"",""time""
""fullscreenenter"",""1"",""80121""
","
","
","""event"",""trial"",""time""
""fullscreenenter"",""1"",""80121""
","
","","","716","","","23","10499","4361","z","elianto","#3366ff99"," "," ","1","+10","[1568.199999988079]","1","2","","","10499","77","4","1","win","go","0"
"pit-trial","199","1370348","0.0-82.0","battery-v0.2","","""event"",""trial"",""time""
""fullscreenenter"",""1"",""80121""
","
","
","""event"",""trial"",""time""
""fullscreenenter"",""1"",""80121""
","
","","","771.8000000119209","","","23","10499","4361","z","elianto","#3366ff99"," "," ","1","+10","[1629.5]","1","2","","","10499","78","4","1","win","go","0"
"pit-trial","200","1374370","0.0-83.0","battery-v0.2","","""event"",""trial"",""time""
""fullscreenenter"",""1"",""80121""
","
","
","""event"",""trial"",""time""
""fullscreenenter"",""1"",""80121""
","
","","","1156.2999999970198","","","23","10499","4361","c","elianto","#3366ff99","-1"," ","0","0","[2011.5999999940395]","1","2","","","10499","79","5","2","win","no-go","0"
"pit-trial","201","1379239","0.0-84.0","battery-v0.2","","""event"",""trial"",""time""
""fullscreenenter"",""1"",""80121""
","
","
","""event"",""trial"",""time""
""fullscreenenter"",""1"",""80121""
","
","","","-1","","","23","10499","4361","h","elianto","#f73b6a7A","-1","-1","1","0","[]","0","2","","","10499","80","3","4","lose","no-go","0"
"pit-trial","202","1383105","0.0-85.0","battery-v0.2","","""event"",""trial"",""time""
""fullscreenenter"",""1"",""80121""
","
","
","""event"",""trial"",""time""
""fullscreenenter"",""1"",""80121""
","
","","","1001.7999999970198","","","23","10499","4361","c","elianto","#3366ff99","-1"," ","0","0","[1855.6000000089407]","1","2","","","10499","81","5","2","win","no-go","0"
"pit-trial","203","1387441","0.0-86.0","battery-v0.2","","""event"",""trial"",""time""
""fullscreenenter"",""1"",""80121""
","
","
","""event"",""trial"",""time""
""fullscreenenter"",""1"",""80121""
","
","","","1469.2000000029802","","","23","10499","4361","t","elianto","#f73b6a7A","-1"," ","0","-10","[2321.2000000029802]","1","2","","","10499","82","7","4","lose","no-go","0"
"pit-trial","204","1390966","0.0-87.0","battery-v0.2","","""event"",""trial"",""time""
""fullscreenenter"",""1"",""80121""
","
","
","""event"",""trial"",""time""
""fullscreenenter"",""1"",""80121""
","
","","","657.2999999970198","","","23","10499","4361","z","elianto","#3366ff99"," "," ","1","+10","[1509]","1","2","","","10499","83","4","1","win","go","0"
"pit-trial","205","1395832","0.0-88.0","battery-v0.2","","""event"",""trial"",""time""
""fullscreenenter"",""1"",""80121""
","
","
","""event"",""trial"",""time""
""fullscreenenter"",""1"",""80121""
","
","","","-1","","","23","10499","4361","h","elianto","#f73b6a7A","-1","-1","1","0","[]","0","2","","","10499","84","3","4","lose","no-go","0"
"pit-trial","206","1400706","0.0-89.0","battery-v0.2","","""event"",""trial"",""time""
""fullscreenenter"",""1"",""80121""
","
","
","""event"",""trial"",""time""
""fullscreenenter"",""1"",""80121""
","
","","","-1","","","23","10499","4361","c","elianto","#3366ff99","-1","-1","1","0","[]","0","2","","","10499","85","5","2","win","no-go","1"
"pit-trial","207","1405568","0.0-90.0","battery-v0.2","","""event"",""trial"",""time""
""fullscreenenter"",""1"",""80121""
","
","
","""event"",""trial"",""time""
""fullscreenenter"",""1"",""80121""
","
","","","-1","","","23","10499","4361","t","elianto","#f73b6a7A","-1","-1","1","0","[]","0","2","","","10499","86","7","4","lose","no-go","0"
"pit-trial","208","1409893","0.0-91.0","battery-v0.2","","""event"",""trial"",""time""
""fullscreenenter"",""1"",""80121""
","
","
","""event"",""trial"",""time""
""fullscreenenter"",""1"",""80121""
","
","","","1459.7999999970198","","","23","10499","4361","b","elianto","#f73b6a7A"," "," ","1","0","[2312.300000011921]","1","2","","","10499","87","6","3","lose","go","0"
"pit-trial","209","1413554","0.0-92.0","battery-v0.2","","""event"",""trial"",""time""
""fullscreenenter"",""1"",""80121""
","
","
","""event"",""trial"",""time""
""fullscreenenter"",""1"",""80121""
","
","","","799.7999999970198","","","23","10499","4361","z","elianto","#3366ff99"," "," ","1","0","[1652.1000000089407]","1","2","","","10499","88","4","1","win","go","1"
"pit-trial","210","1418417","0.0-93.0","battery-v0.2","","""event"",""trial"",""time""
""fullscreenenter"",""1"",""80121""
","
","
","""event"",""trial"",""time""
""fullscreenenter"",""1"",""80121""
","
","","","-1","","","23","10499","4361","c","elianto","#3366ff99","-1","-1","1","+10","[]","0","2","","","10499","89","5","2","win","no-go","0"
"pit-trial","211","1422622","0.0-94.0","battery-v0.2","","""event"",""trial"",""time""
""fullscreenenter"",""1"",""80121""
","
","
","""event"",""trial"",""time""
""fullscreenenter"",""1"",""80121""
","
","","","1344","","","23","10499","4361","t","elianto","#f73b6a7A","-1"," ","0","-10","[2197.2000000029802]","1","2","","","10499","90","7","4","lose","no-go","0"
"pit-trial","212","1427230","0.0-95.0","battery-v0.2","","""event"",""trial"",""time""
""fullscreenenter"",""1"",""80121""
","
","
","""event"",""trial"",""time""
""fullscreenenter"",""1"",""80121""
","
","","","1745.9000000059605","","","23","10499","4361","b","elianto","#f73b6a7A"," "," ","1","0","[2599.7000000029802]","1","2","","","10499","91","6","3","lose","go","0"
"pit-trial","213","1430823","0.0-96.0","battery-v0.2","","""event"",""trial"",""time""
""fullscreenenter"",""1"",""80121""
","
","
","""event"",""trial"",""time""
""fullscreenenter"",""1"",""80121""
","
","","","731.6000000089407","","","23","10499","4361","z","elianto","#3366ff99"," "," ","1","+10","[1581.8999999910593]","1","2","","","10499","92","4","1","win","go","0"
"pit-trial","214","1434889","0.0-97.0","battery-v0.2","","""event"",""trial"",""time""
""fullscreenenter"",""1"",""80121""
","
","
","""event"",""trial"",""time""
""fullscreenenter"",""1"",""80121""
","
","","","1200.7999999970198","","","23","10499","4361","b","elianto","#f73b6a7A"," "," ","1","0","[2055]","1","2","","","10499","93","6","3","lose","go","0"
"pit-trial","215","1438809","0.0-98.0","battery-v0.2","","""event"",""trial"",""time""
""fullscreenenter"",""1"",""80121""
","
","
","""event"",""trial"",""time""
""fullscreenenter"",""1"",""80121""
","
","","","1057.7999999970198","","","23","10499","4361","f","elianto","#3366ff99"," "," ","1","+10","[1910.7999999970198]","1","2","","","10499","94","8","1","win","go","0"
"pit-trial","216","1443673","0.0-99.0","battery-v0.2","","""event"",""trial"",""time""
""fullscreenenter"",""1"",""80121""
","
","
","""event"",""trial"",""time""
""fullscreenenter"",""1"",""80121""
","
","","","-1","","","23","10499","4361","c","elianto","#3366ff99","-1","-1","1","+10","[]","0","2","","","10499","95","5","2","win","no-go","0"
"pit-trial","217","1447536","0.0-100.0","battery-v0.2","","""event"",""trial"",""time""
""fullscreenenter"",""1"",""80121""
","
","
","""event"",""trial"",""time""
""fullscreenenter"",""1"",""80121""
","
","","","1006.5","","","23","10499","4361","t","elianto","#f73b6a7A","-1"," ","0","-10","[1856.5]","1","2","","","10499","96","7","4","lose","no-go","0"
"pit-trial","218","1451387","0.0-101.0","battery-v0.2","","""event"",""trial"",""time""
""fullscreenenter"",""1"",""80121""
","
","
","""event"",""trial"",""time""
""fullscreenenter"",""1"",""80121""
","
","","","986.6999999880791","","","23","10499","4361","f","elianto","#3366ff99"," "," ","1","+10","[1843.2999999970198]","1","2","","","10499","97","8","1","win","go","0"
"pit-trial","219","1456253","0.0-102.0","battery-v0.2","","""event"",""trial"",""time""
""fullscreenenter"",""1"",""80121""
","
","
","""event"",""trial"",""time""
""fullscreenenter"",""1"",""80121""
","
","","","-1","","","23","10499","4361","c","elianto","#3366ff99","-1","-1","1","+10","[]","0","2","","","10499","98","5","2","win","no-go","0"
"pit-trial","220","1461122","0.0-103.0","battery-v0.2","","""event"",""trial"",""time""
""fullscreenenter"",""1"",""80121""
","
","
","""event"",""trial"",""time""
""fullscreenenter"",""1"",""80121""
","
","","","-1","","","23","10499","4361","t","elianto","#f73b6a7A","-1","-1","1","0","[]","0","2","","","10499","99","7","4","lose","no-go","0"
"pit-trial","221","1464706","0.0-104.0","battery-v0.2","","""event"",""trial"",""time""
""fullscreenenter"",""1"",""80121""
","
","
","""event"",""trial"",""time""
""fullscreenenter"",""1"",""80121""
","
","","","726.2999999970198","","","23","10499","4361","b","elianto","#f73b6a7A"," "," ","1","0","[1576.7000000029802]","1","2","","","10499","100","6","3","lose","go","0"
"pit-trial","222","1469576","0.0-105.0","battery-v0.2","","""event"",""trial"",""time""
""fullscreenenter"",""1"",""80121""
","
","
","""event"",""trial"",""time""
""fullscreenenter"",""1"",""80121""
","
","","","-1","","","23","10499","4361","t","elianto","#f73b6a7A","-1","-1","1","0","[]","0","2","","","10499","101","7","4","lose","no-go","0"
"pit-trial","223","1473510","0.0-106.0","battery-v0.2","","""event"",""trial"",""time""
""fullscreenenter"",""1"",""80121""
","
","
","""event"",""trial"",""time""
""fullscreenenter"",""1"",""80121""
","
","","","1067.6000000089407","","","23","10499","4361","n","elianto","#3366ff99"," "," ","1","+10","[1920.5]","1","2","","","10499","102","9","1","win","go","0"
"pit-trial","224","1477937","0.0-107.0","battery-v0.2","","""event"",""trial"",""time""
""fullscreenenter"",""1"",""80121""
","
","
","""event"",""trial"",""time""
""fullscreenenter"",""1"",""80121""
","
","","","1552.7999999970198","","","23","10499","4361","f","elianto","#3366ff99"," "," ","1","+10","[2409.5]","1","2","","","10499","103","8","1","win","go","0"
"pit-trial","225","1482802","0.0-108.0","battery-v0.2","","""event"",""trial"",""time""
""fullscreenenter"",""1"",""80121""
","
","
","""event"",""trial"",""time""
""fullscreenenter"",""1"",""80121""
","
","","","-1","","","23","10499","4361","c","elianto","#3366ff99","-1","-1","1","+10","[]","0","2","","","10499","104","5","2","win","no-go","0"
"pit-trial","226","1486581","0.0-109.0","battery-v0.2","","""event"",""trial"",""time""
""fullscreenenter"",""1"",""80121""
","
","
","""event"",""trial"",""time""
""fullscreenenter"",""1"",""80121""
","
","","","918.5","","","23","10499","4361","b","elianto","#f73b6a7A"," "," ","1","0","[1770.199999988079]","1","2","","","10499","105","6","3","lose","go","0"
"pit-trial","227","1490421","0.0-110.0","battery-v0.2","","""event"",""trial"",""time""
""fullscreenenter"",""1"",""80121""
","
","
","""event"",""trial"",""time""
""fullscreenenter"",""1"",""80121""
","
","","","985.5","","","23","10499","4361","f","elianto","#3366ff99"," "," ","1","0","[1835.7000000029802]","1","2","","","10499","106","8","1","win","go","1"
"pit-trial","228","1494062","0.0-111.0","battery-v0.2","","""event"",""trial"",""time""
""fullscreenenter"",""1"",""80121""
","
","
","""event"",""trial"",""time""
""fullscreenenter"",""1"",""80121""
","
","","","774","","","23","10499","4361","z","elianto","#3366ff99"," "," ","1","+10","[1628.2000000029802]","1","2","","","10499","107","4","1","win","go","0"
"pit-trial","229","1498083","0.0-112.0","battery-v0.2","","""event"",""trial"",""time""
""fullscreenenter"",""1"",""80121""
","
","
","""event"",""trial"",""time""
""fullscreenenter"",""1"",""80121""
","
","","","1152.7999999970198","","","23","10499","4361","n","elianto","#3366ff99"," "," ","1","+10","[2009.9000000059605]","1","2","","","10499","108","9","1","win","go","0"
"pit-trial","230","1502949","0.0-113.0","battery-v0.2","","""event"",""trial"",""time""
""fullscreenenter"",""1"",""80121""
","
","
","""event"",""trial"",""time""
""fullscreenenter"",""1"",""80121""
","
","","","-1","","","23","10499","4361","f","elianto","#3366ff99"," ","-1","0","0","[]","0","2","","","10499","109","8","1","win","go","0"
"pit-trial","231","1506645","0.0-114.0","battery-v0.2","","""event"",""trial"",""time""
""fullscreenenter"",""1"",""80121""
","
","
","""event"",""trial"",""time""
""fullscreenenter"",""1"",""80121""
","
","","","829","","","23","10499","4361","b","elianto","#f73b6a7A"," "," ","1","0","[1679.8999999910593]","1","2","","","10499","110","6","3","lose","go","0"
"pit-trial","232","1510300","0.0-115.0","battery-v0.2","","""event"",""trial"",""time""
""fullscreenenter"",""1"",""80121""
","
","
","""event"",""trial"",""time""
""fullscreenenter"",""1"",""80121""
","
","","","791.7999999970198","","","23","10499","4361","n","elianto","#3366ff99"," "," ","1","+10","[1643.8999999910593]","1","2","","","10499","111","9","1","win","go","0"
"pit-trial","233","1515162","0.0-116.0","battery-v0.2","","""event"",""trial"",""time""
""fullscreenenter"",""1"",""80121""
","
","
","""event"",""trial"",""time""
""fullscreenenter"",""1"",""80121""
","
","","","-1","","","23","10499","4361","c","elianto","#3366ff99","-1","-1","1","+10","[]","0","2","","","10499","112","5","2","win","no-go","0"
"pit-trial","234","1518682","0.0-117.0","battery-v0.2","","""event"",""trial"",""time""
""fullscreenenter"",""1"",""80121""
","
","
","""event"",""trial"",""time""
""fullscreenenter"",""1"",""80121""
","
","","","654.5","","","23","10499","4361","b","elianto","#f73b6a7A"," "," ","1","0","[1511.5]","1","2","","","10499","113","6","3","lose","go","0"
"pit-trial","235","1522270","0.0-118.0","battery-v0.2","","""event"",""trial"",""time""
""fullscreenenter"",""1"",""80121""
","
","
","""event"",""trial"",""time""
""fullscreenenter"",""1"",""80121""
","
","","","728","","","23","10499","4361","n","elianto","#3366ff99"," "," ","1","+10","[1579.800000011921]","1","2","","","10499","114","9","1","win","go","0"
"pit-trial","236","1526081","0.0-119.0","battery-v0.2","","""event"",""trial"",""time""
""fullscreenenter"",""1"",""80121""
","
","
","""event"",""trial"",""time""
""fullscreenenter"",""1"",""80121""
","
","","","943.7000000029802","","","23","10499","4361","f","elianto","#3366ff99"," "," ","1","+10","[1801.2000000029802]","1","2","","","10499","115","8","1","win","go","0"
"pit-trial","237","1530942","0.0-120.0","battery-v0.2","","""event"",""trial"",""time""
""fullscreenenter"",""1"",""80121""
","
","
","""event"",""trial"",""time""
""fullscreenenter"",""1"",""80121""
","
","","","-1","","","23","10499","4361","c","elianto","#3366ff99","-1","-1","1","+10","[]","0","2","","","10499","116","5","2","win","no-go","0"
"pit-trial","238","1534411","0.0-121.0","battery-v0.2","","""event"",""trial"",""time""
""fullscreenenter"",""1"",""80121""
","
","
","""event"",""trial"",""time""
""fullscreenenter"",""1"",""80121""
","
","","","596.7999999970198","","","23","10499","4361","n","elianto","#3366ff99"," "," ","1","+10","[1454.2999999970198]","1","2","","","10499","117","9","1","win","go","0"
"pit-trial","239","1537938","0.0-122.0","battery-v0.2","","""event"",""trial"",""time""
""fullscreenenter"",""1"",""80121""
","
","
","""event"",""trial"",""time""
""fullscreenenter"",""1"",""80121""
","
","","","661.6000000089407","","","23","10499","4361","b","elianto","#f73b6a7A"," "," ","1","0","[1515.0999999940395]","1","2","","","10499","118","6","3","lose","go","0"
"pit-trial","240","1542811","0.0-123.0","battery-v0.2","","""event"",""trial"",""time""
""fullscreenenter"",""1"",""80121""
","
","
","""event"",""trial"",""time""
""fullscreenenter"",""1"",""80121""
","
","","","-1","","","23","10499","4361","c","elianto","#3366ff99","-1","-1","1","+10","[]","0","2","","","10499","119","5","2","win","no-go","0"
"pit-trial","241","1546539","0.0-124.0","battery-v0.2","","""event"",""trial"",""time""
""fullscreenenter"",""1"",""80121""
","
","
","""event"",""trial"",""time""
""fullscreenenter"",""1"",""80121""
","
","","","863","","","23","10499","4361","f","elianto","#3366ff99"," "," ","1","+10","[1714.0999999940395]","1","2","","","10499","120","8","1","win","go","0"
"pit-trial","242","1550105","0.0-125.0","battery-v0.2","","""event"",""trial"",""time""
""fullscreenenter"",""1"",""80121""
","
","
","""event"",""trial"",""time""
""fullscreenenter"",""1"",""80121""
","
","","","695.2999999970198","","","23","10499","4361","n","elianto","#3366ff99"," "," ","1","+10","[1550.2999999970198]","1","2","","","10499","121","9","1","win","go","0"
"pit-trial","243","1553653","0.0-126.0","battery-v0.2","","""event"",""trial"",""time""
""fullscreenenter"",""1"",""80121""
","
","
","""event"",""trial"",""time""
""fullscreenenter"",""1"",""80121""
","
","","","686.3999999910593","","","23","10499","4361","b","elianto","#f73b6a7A"," "," ","1","0","[1539.4000000059605]","1","2","","","10499","122","6","3","lose","go","0"
"pit-trial","244","1557520","0.0-127.0","battery-v0.2","","""event"",""trial"",""time""
""fullscreenenter"",""1"",""80121""
","
","
","""event"",""trial"",""time""
""fullscreenenter"",""1"",""80121""
","
","","","1006.2000000029802","","","23","10499","4361","f","elianto","#3366ff99"," "," ","1","+10","[1858.0999999940395]","1","2","","","10499","123","8","1","win","go","0"
"pit-trial","245","1562398","0.0-128.0","battery-v0.2","","""event"",""trial"",""time""
""fullscreenenter"",""1"",""80121""
","
","
","""event"",""trial"",""time""
""fullscreenenter"",""1"",""80121""
","
","","","-1","","","23","10499","4361","t","elianto","#f73b6a7A","-1","-1","1","-10","[]","0","2","","","10499","124","7","4","lose","no-go","1"
"pit-trial","246","1566014","0.0-129.0","battery-v0.2","","""event"",""trial"",""time""
""fullscreenenter"",""1"",""80121""
","
","
","""event"",""trial"",""time""
""fullscreenenter"",""1"",""80121""
","
","","","744.8000000119209","","","23","10499","4361","f","elianto","#3366ff99"," "," ","1","+10","[1604.7000000029802]","1","2","","","10499","125","8","1","win","go","0"
"pit-trial","247","1569563","0.0-130.0","battery-v0.2","","""event"",""trial"",""time""
""fullscreenenter"",""1"",""80121""
","
","
","""event"",""trial"",""time""
""fullscreenenter"",""1"",""80121""
","
","","","682.2999999970198","","","23","10499","4361","b","elianto","#f73b6a7A"," "," ","1","-10","[1540.0999999940395]","1","2","","","10499","126","6","3","lose","go","1"
"pit-trial","248","1574433","0.0-131.0","battery-v0.2","","""event"",""trial"",""time""
""fullscreenenter"",""1"",""80121""
","
","
","""event"",""trial"",""time""
""fullscreenenter"",""1"",""80121""
","
","","","-1","","","23","10499","4361","t","elianto","#f73b6a7A","-1","-1","1","0","[]","0","2","","","10499","127","7","4","lose","no-go","0"
"pit-trial","249","1577981","0.0-132.0","battery-v0.2","","""event"",""trial"",""time""
""fullscreenenter"",""1"",""80121""
","
","
","""event"",""trial"",""time""
""fullscreenenter"",""1"",""80121""
","
","","","682.6000000089407","","","23","10499","4361","n","elianto","#3366ff99"," "," ","1","+10","[1534.0999999940395]","1","2","","","10499","128","9","1","win","go","0"
"pit-trial","250","1581575","0.0-133.0","battery-v0.2","","""event"",""trial"",""time""
""fullscreenenter"",""1"",""80121""
","
","
","""event"",""trial"",""time""
""fullscreenenter"",""1"",""80121""
","
","","","731.2999999970198","","","23","10499","4361","b","elianto","#f73b6a7A"," "," ","1","0","[1582.4000000059605]","1","2","","","10499","129","6","3","lose","go","0"
"pit-trial","251","1586452","0.0-134.0","battery-v0.2","","""event"",""trial"",""time""
""fullscreenenter"",""1"",""80121""
","
","
","""event"",""trial"",""time""
""fullscreenenter"",""1"",""80121""
","
","","","-1","","","23","10499","4361","t","elianto","#f73b6a7A","-1","-1","1","0","[]","0","2","","","10499","130","7","4","lose","no-go","0"
"pit-trial","252","1589942","0.0-135.0","battery-v0.2","","""event"",""trial"",""time""
""fullscreenenter"",""1"",""80121""
","
","
","""event"",""trial"",""time""
""fullscreenenter"",""1"",""80121""
","
","","","623.6999999880791","","","23","10499","4361","n","elianto","#3366ff99"," "," ","1","+10","[1478.5999999940395]","1","2","","","10499","131","9","1","win","go","0"
"pit-trial","253","1593393","0.0-136.0","battery-v0.2","","""event"",""trial"",""time""
""fullscreenenter"",""1"",""80121""
","
","
","""event"",""trial"",""time""
""fullscreenenter"",""1"",""80121""
","
","","","583","","","23","10499","4361","f","elianto","#3366ff99"," "," ","1","+10","[1437.7999999970198]","1","2","","","10499","132","8","1","win","go","0"
"pit-trial","254","1598255","0.0-137.0","battery-v0.2","","""event"",""trial"",""time""
""fullscreenenter"",""1"",""80121""
","
","
","""event"",""trial"",""time""
""fullscreenenter"",""1"",""80121""
","
","","","-1","","","23","10499","4361","t","elianto","#f73b6a7A","-1","-1","1","0","[]","0","2","","","10499","133","7","4","lose","no-go","0"
"pit-trial","255","1601822","0.0-138.0","battery-v0.2","","""event"",""trial"",""time""
""fullscreenenter"",""1"",""80121""
","
","
","""event"",""trial"",""time""
""fullscreenenter"",""1"",""80121""
","
","","","699.0999999940395","","","23","10499","4361","b","elianto","#f73b6a7A"," "," ","1","0","[1559.3999999910593]","1","2","","","10499","134","6","3","lose","go","0"
"pit-trial","256","1605177","0.0-139.0","battery-v0.2","","""event"",""trial"",""time""
""fullscreenenter"",""1"",""80121""
","
","
","""event"",""trial"",""time""
""fullscreenenter"",""1"",""80121""
","
","","","490.09999999403954","","","23","10499","4361","n","elianto","#3366ff99"," "," ","1","+10","[1345]","1","2","","","10499","135","9","1","win","go","0"
"pit-trial","257","1608757","0.0-140.0","battery-v0.2","","""event"",""trial"",""time""
""fullscreenenter"",""1"",""80121""
","
","
","""event"",""trial"",""time""
""fullscreenenter"",""1"",""80121""
","
","","","696","","","23","10499","4361","f","elianto","#3366ff99"," "," ","1","0","[1557.9000000059605]","1","2","","","10499","136","8","1","win","go","1"
"pit-trial","258","1613622","0.0-141.0","battery-v0.2","","""event"",""trial"",""time""
""fullscreenenter"",""1"",""80121""
","
","
","""event"",""trial"",""time""
""fullscreenenter"",""1"",""80121""
","
","","","-1","","","23","10499","4361","t","elianto","#f73b6a7A","-1","-1","1","0","[]","0","2","","","10499","137","7","4","lose","no-go","0"
"pit-trial","259","1617140","0.0-142.0","battery-v0.2","","""event"",""trial"",""time""
""fullscreenenter"",""1"",""80121""
","
","
","""event"",""trial"",""time""
""fullscreenenter"",""1"",""80121""
","
","","","655.2000000029802","","","23","10499","4361","b","elianto","#f73b6a7A"," "," ","1","0","[1506.6000000089407]","1","2","","","10499","138","6","3","lose","go","0"
"pit-trial","260","1620539","0.0-143.0","battery-v0.2","","""event"",""trial"",""time""
""fullscreenenter"",""1"",""80121""
","
","
","""event"",""trial"",""time""
""fullscreenenter"",""1"",""80121""
","
","","","535","","","23","10499","4361","n","elianto","#3366ff99"," "," ","1","+10","[1388.4000000059605]","1","2","","","10499","139","9","1","win","go","0"
"pit-trial","261","1624070","0.0-144.0","battery-v0.2","","""event"",""trial"",""time""
""fullscreenenter"",""1"",""80121""
","
","
","""event"",""trial"",""time""
""fullscreenenter"",""1"",""80121""
","
","","","672.8999999910593","","","23","10499","4361","f","elianto","#3366ff99"," "," ","1","+10","[1526]","1","2","","","10499","140","8","1","win","go","0"
"pit-instructions","262","1766283","0.0-145.0","battery-v0.2","","""event"",""trial"",""time""
""fullscreenenter"",""1"",""80121""
","
","
","""event"",""trial"",""time""
""fullscreenenter"",""1"",""80121""
","
","","[{""page_index"":0,""viewing_time"":132185.59999999404},{""page_index"":1,""viewing_time"":10022.60000000894}]","142209.5","","","","","","","","","","","","","","","","","","","","","","","",""
"pit-trial","263","1769656","0.0-146.0","battery-v0.2","","""event"",""trial"",""time""
""fullscreenenter"",""1"",""80121""
","
","
","""event"",""trial"",""time""
""fullscreenenter"",""1"",""80121""
","
","","","501.40000000596046","","","23","10499","4361","e","elianto","#f73b6a7A","-1"," ","0","-10","[1353.5]","1","3","","","10499","141","2","4","lose","no-go","0"
"pit-trial","264","1773066","0.0-147.0","battery-v0.2","","""event"",""trial"",""time""
""fullscreenenter"",""1"",""80121""
","
","
","""event"",""trial"",""time""
""fullscreenenter"",""1"",""80121""
","
","","","541.4000000059605","","","23","10499","4361","d","elianto","#3366ff99"," "," ","1","+10","[1394]","1","3","","","10499","142","1","1","win","go","0"
