"trial_type","trial_index","time_elapsed","internal_node_id","task_version","subject_id","interactions","blur_events","focus_events","fullscreenenter_events","fullscreenexit_events","success","view_history","rt","responses","num_errors","age","subject","participantId","rune","rune_set","hex","correct","choice","accuracy","outcome","keys","total_keys","block","practice","value","sub","trial","stimulus","robot","valence","action","sham"
"pavlovia","0","7","0.0-0.0","battery-v0.2","","""event"",""trial"",""time""
""fullscreenenter"",""1"",""1681""
","
","
","""event"",""trial"",""time""
""fullscreenenter"",""1"",""1681""
","
","","","","","","","","","","","","","","","","","","","","","","","","","","",""
"fullscreen","1","2651","0.0-1.0","battery-v0.2","","""event"",""trial"",""time""
""fullscreenenter"",""1"",""1681""
","
","
","""event"",""trial"",""time""
""fullscreenenter"",""1"",""1681""
","
","true","","","","","","","","","","","","","","","","","","","","","","","","","",""
"pit-instructions","2","6151","0.0-2.0-0.0","battery-v0.2","","""event"",""trial"",""time""
""fullscreenenter"",""1"",""1681""
","
","
","""event"",""trial"",""time""
""fullscreenenter"",""1"",""1681""
","
","","[{""page_index"":0,""viewing_time"":3497.600000143051}]","3498","","","","","","","","","","","","","","","","","","","","","","","",""
"pit-comprehension","3","9507","0.0-2.0-1.0-0.0","battery-v0.2","","""event"",""trial"",""time""
""fullscreenenter"",""1"",""1681""
","
","
","""event"",""trial"",""time""
""fullscreenenter"",""1"",""1681""
","
","","","3352.5","[""shark""]","0","20","10215","4756","","","","","","","","","","","","","","","","","","",""
"pit-instructions","4","12612","0.0-2.0-1.0-1.0","battery-v0.2","","""event"",""trial"",""time""
""fullscreenenter"",""1"",""1681""
","
","
","""event"",""trial"",""time""
""fullscreenenter"",""1"",""1681""
","
","","[{""page_index"":0,""viewing_time"":3094.7000000476837}]","3094.9000000953674","","","","","","","","","","","","","","","","","","","","","","","",""
"pit-comprehension","5","15076","0.0-2.0-2.0-0.0","battery-v0.2","","""event"",""trial"",""time""
""fullscreenenter"",""1"",""1681""
","
","
","""event"",""trial"",""time""
""fullscreenenter"",""1"",""1681""
","
","","","2461.7999999523163","[""tiger""]","0","20","10215","4756","","","","","","","","","","","","","","","","","","",""
"pit-instructions","6","18498","0.0-2.0-2.0-1.0","battery-v0.2","","""event"",""trial"",""time""
""fullscreenenter"",""1"",""1681""
","
","
","""event"",""trial"",""time""
""fullscreenenter"",""1"",""1681""
","
","","[{""page_index"":0,""viewing_time"":3419.2999999523163}]","3419.7999999523163","","","","","","","","","","","","","","","","","","","","","","","",""
"pit-instructions","7","112528","0.0-2.0-3.0","battery-v0.2","","""event"",""trial"",""time""
""fullscreenenter"",""1"",""1681""
","
","
","""event"",""trial"",""time""
""fullscreenenter"",""1"",""1681""
","
","","[{""page_index"":0,""viewing_time"":10757.299999952316},{""page_index"":1,""viewing_time"":8864.299999952316},{""page_index"":2,""viewing_time"":6998.700000047684},{""page_index"":3,""viewing_time"":5068.799999952316},{""page_index"":4,""viewing_time"":5745.099999904633},{""page_index"":5,""viewing_time"":5151.900000095367},{""page_index"":6,""viewing_time"":6173.299999952316},{""page_index"":7,""viewing_time"":7010.400000095367},{""page_index"":8,""viewing_time"":7173},{""page_index"":9,""viewing_time"":5018.099999904633},{""page_index"":10,""viewing_time"":7608.5},{""page_index"":11,""viewing_time"":7080.5},{""page_index"":12,""viewing_time"":6327.299999952316},{""page_index"":13,""viewing_time"":5049.700000047684}]","94027.5","","","","","","","","","","","","","","","","","","","","","","","",""
"pit-trial","8","115884","0.0-2.0-4.0-0.0","battery-v0.2","","""event"",""trial"",""time""
""fullscreenenter"",""1"",""1681""
","
","
","""event"",""trial"",""time""
""fullscreenenter"",""1"",""1681""
","
","","","475.7999999523163","","","20","10215","4756","&#9784;","elianto","#FFFFF080"," "," ","1","&#10004","[1338.7999999523163]","1","0","0","","","","","","","",""
"pit-trial","9","119217","0.0-2.0-4.1-0.1","battery-v0.2","","""event"",""trial"",""time""
""fullscreenenter"",""1"",""1681""
","
","
","""event"",""trial"",""time""
""fullscreenenter"",""1"",""1681""
","
","","","459.40000009536743","","","20","10215","4756","&#9784;","elianto","#FFFFF080"," "," ","1","&#10004","[1314.0999999046326]","1","0","0","","","","","","","",""
"pit-trial","10","122419","0.0-2.0-4.2-0.2","battery-v0.2","","""event"",""trial"",""time""
""fullscreenenter"",""1"",""1681""
","
","
","""event"",""trial"",""time""
""fullscreenenter"",""1"",""1681""
","
","","","339.5","","","20","10215","4756","&#9784;","elianto","#FFFFF080"," "," ","1","&#10004","[1191.7000000476837]","1","0","0","","","","","","","",""
"pit-trial","11","125741","0.0-2.0-4.3-0.3","battery-v0.2","","""event"",""trial"",""time""
""fullscreenenter"",""1"",""1681""
","
","
","""event"",""trial"",""time""
""fullscreenenter"",""1"",""1681""
","
","","","450","","","20","10215","4756","&#9784;","elianto","#FFFFF080"," "," ","1","&#10004","[1303.7000000476837]","1","0","0","","","","","","","",""
"pit-trial","12","129131","0.0-2.0-4.4-0.4","battery-v0.2","","""event"",""trial"",""time""
""fullscreenenter"",""1"",""1681""
","
","
","""event"",""trial"",""time""
""fullscreenenter"",""1"",""1681""
","
","","","529.7999999523163","","","20","10215","4756","&#9784;","elianto","#FFFFF080"," "," ","1","&#10004","[1380.6000001430511]","1","0","0","","","","","","","",""
"pit-instructions","13","150655","0.0-2.0-5.0","battery-v0.2","","""event"",""trial"",""time""
""fullscreenenter"",""1"",""1681""
","
","
","""event"",""trial"",""time""
""fullscreenenter"",""1"",""1681""
","
","","[{""page_index"":0,""viewing_time"":5951.800000190735},{""page_index"":1,""viewing_time"":5111.799999952316},{""page_index"":2,""viewing_time"":5017.5},{""page_index"":3,""viewing_time"":5440.399999856949}]","21522.10000014305","","","","","","","","","","","","","","","","","","","","","","","",""
"pit-trial","14","155513","0.0-2.0-6.0-0.0","battery-v0.2","","""event"",""trial"",""time""
""fullscreenenter"",""1"",""1681""
","
","
","""event"",""trial"",""time""
""fullscreenenter"",""1"",""1681""
","
","","","-1","","","20","10215","4756","&#9854;","elianto","#FFFFF080","-1","-1","1","&#10004","[]","0","0","1","","","","","","","",""
"pit-trial","15","160394","0.0-2.0-6.1-0.1","battery-v0.2","","""event"",""trial"",""time""
""fullscreenenter"",""1"",""1681""
","
","
","""event"",""trial"",""time""
""fullscreenenter"",""1"",""1681""
","
","","","-1","","","20","10215","4756","&#9854;","elianto","#FFFFF080","-1","-1","1","&#10004","[]","0","0","1","","","","","","","",""
"pit-trial","16","165273","0.0-2.0-6.2-0.2","battery-v0.2","","""event"",""trial"",""time""
""fullscreenenter"",""1"",""1681""
","
","
","""event"",""trial"",""time""
""fullscreenenter"",""1"",""1681""
","
","","","-1","","","20","10215","4756","&#9854;","elianto","#FFFFF080","-1","-1","1","&#10004","[]","0","0","1","","","","","","","",""
"pit-trial","17","170134","0.0-2.0-6.3-0.3","battery-v0.2","","""event"",""trial"",""time""
""fullscreenenter"",""1"",""1681""
","
","
","""event"",""trial"",""time""
""fullscreenenter"",""1"",""1681""
","
","","","-1","","","20","10215","4756","&#9854;","elianto","#FFFFF080","-1","-1","1","&#10004","[]","0","0","1","","","","","","","",""
"pit-trial","18","174991","0.0-2.0-6.4-0.4","battery-v0.2","","""event"",""trial"",""time""
""fullscreenenter"",""1"",""1681""
","
","
","""event"",""trial"",""time""
""fullscreenenter"",""1"",""1681""
","
","","","-1","","","20","10215","4756","&#9854;","elianto","#FFFFF080","-1","-1","1","&#10004","[]","0","0","1","","","","","","","",""
"pit-instructions","19","292974","0.0-2.0-7.0","battery-v0.2","","""event"",""trial"",""time""
""fullscreenenter"",""1"",""1681""
","
","
","""event"",""trial"",""time""
""fullscreenenter"",""1"",""1681""
","
","","[{""page_index"":0,""viewing_time"":5696.100000143051},{""page_index"":1,""viewing_time"":7765},{""page_index"":2,""viewing_time"":8011.899999856949},{""page_index"":3,""viewing_time"":6726.100000143051},{""page_index"":4,""viewing_time"":5310},{""page_index"":5,""viewing_time"":5176},{""page_index"":6,""viewing_time"":4335.599999904633},{""page_index"":7,""viewing_time"":7051.700000047684},{""page_index"":8,""viewing_time"":7186.900000095367},{""page_index"":9,""viewing_time"":5788.899999856949},{""page_index"":10,""viewing_time"":6820.799999952316},{""page_index"":11,""viewing_time"":5012.100000143051},{""page_index"":12,""viewing_time"":6934.200000047684},{""page_index"":13,""viewing_time"":7703.699999809265},{""page_index"":14,""viewing_time"":7876},{""page_index"":15,""viewing_time"":6670.700000047684},{""page_index"":16,""viewing_time"":6040.700000047684},{""page_index"":17,""viewing_time"":7873}]","117979.80000019073","","","","","","","","","","","","","","","","","","","","","","","",""
"pit-trial","20","296858","0.0-2.0-8.0-0.0","battery-v0.2","","""event"",""trial"",""time""
""fullscreenenter"",""1"",""1681""
","
","
","""event"",""trial"",""time""
""fullscreenenter"",""1"",""1681""
","
","","","1008","","","20","10215","4756","&#9776;","elianto","#3366ff99"," "," ","1","+10","[1867.5]","1","0","1","","","","","","","",""
"pit-trial","21","300359","0.0-2.0-8.0-1.0","battery-v0.2","","""event"",""trial"",""time""
""fullscreenenter"",""1"",""1681""
","
","
","""event"",""trial"",""time""
""fullscreenenter"",""1"",""1681""
","
","","","638.2000000476837","","","20","10215","4756","&#9776;","elianto","#3366ff99"," "," ","1","+10","[1492.5999999046326]","1","0","1","","","","","","","",""
"pit-trial","22","303938","0.0-2.0-8.0-2.0","battery-v0.2","","""event"",""trial"",""time""
""fullscreenenter"",""1"",""1681""
","
","
","""event"",""trial"",""time""
""fullscreenenter"",""1"",""1681""
","
","","","706.1999998092651","","","20","10215","4756","&#9776;","elianto","#3366ff99"," "," ","1","+10","[1563.5]","1","0","1","","","","","","","",""
"pit-trial","23","307290","0.0-2.0-8.0-3.0","battery-v0.2","","""event"",""trial"",""time""
""fullscreenenter"",""1"",""1681""
","
","
","""event"",""trial"",""time""
""fullscreenenter"",""1"",""1681""
","
","","","472.7000000476837","","","20","10215","4756","&#9776;","elianto","#3366ff99"," "," ","1","0","[1334.6999998092651]","1","0","1","","","","","","","",""
"pit-trial","24","310640","0.0-2.0-8.0-4.0","battery-v0.2","","""event"",""trial"",""time""
""fullscreenenter"",""1"",""1681""
","
","
","""event"",""trial"",""time""
""fullscreenenter"",""1"",""1681""
","
","","","476.7999999523163","","","20","10215","4756","&#9776;","elianto","#3366ff99"," "," ","1","+10","[1334.0999999046326]","1","0","1","","","","","","","",""
"pit-trial","25","313898","0.0-2.0-8.1-0.1","battery-v0.2","","""event"",""trial"",""time""
""fullscreenenter"",""1"",""1681""
","
","
","""event"",""trial"",""time""
""fullscreenenter"",""1"",""1681""
","
","","","384.90000009536743","","","20","10215","4756","&#9776;","elianto","#3366ff99"," "," ","1","+10","[1243.2000000476837]","1","0","1","","","","","","","",""
"pit-trial","26","317330","0.0-2.0-8.1-1.1","battery-v0.2","","""event"",""trial"",""time""
""fullscreenenter"",""1"",""1681""
","
","
","""event"",""trial"",""time""
""fullscreenenter"",""1"",""1681""
","
","","","568.0999999046326","","","20","10215","4756","&#9776;","elianto","#3366ff99"," "," ","1","+10","[1419.7000000476837]","1","0","1","","","","","","","",""
"pit-trial","27","320637","0.0-2.0-8.1-2.1","battery-v0.2","","""event"",""trial"",""time""
""fullscreenenter"",""1"",""1681""
","
","
","""event"",""trial"",""time""
""fullscreenenter"",""1"",""1681""
","
","","","439.7000000476837","","","20","10215","4756","&#9776;","elianto","#3366ff99"," "," ","1","+10","[1290.2999999523163]","1","0","1","","","","","","","",""
"pit-trial","28","323986","0.0-2.0-8.1-3.1","battery-v0.2","","""event"",""trial"",""time""
""fullscreenenter"",""1"",""1681""
","
","
","""event"",""trial"",""time""
""fullscreenenter"",""1"",""1681""
","
","","","490.59999990463257","","","20","10215","4756","&#9776;","elianto","#3366ff99"," "," ","1","0","[1341.8999998569489]","1","0","1","","","","","","","",""
"pit-trial","29","327070","0.0-2.0-8.1-4.1","battery-v0.2","","""event"",""trial"",""time""
""fullscreenenter"",""1"",""1681""
","
","
","""event"",""trial"",""time""
""fullscreenenter"",""1"",""1681""
","
","","","230.19999980926514","","","20","10215","4756","&#9776;","elianto","#3366ff99"," "," ","1","+10","[1081]","1","0","1","","","","","","","",""
"pit-trial","30","330380","0.0-2.0-8.2-0.2","battery-v0.2","","""event"",""trial"",""time""
""fullscreenenter"",""1"",""1681""
","
","
","""event"",""trial"",""time""
""fullscreenenter"",""1"",""1681""
","
","","","447.89999985694885","","","20","10215","4756","&#9776;","elianto","#3366ff99"," "," ","1","+10","[1304.7999999523163]","1","0","1","","","","","","","",""
"pit-trial","31","333895","0.0-2.0-8.2-1.2","battery-v0.2","","""event"",""trial"",""time""
""fullscreenenter"",""1"",""1681""
","
","
","""event"",""trial"",""time""
""fullscreenenter"",""1"",""1681""
","
","","","661","","","20","10215","4756","&#9776;","elianto","#3366ff99"," "," ","1","+10","[1511.2999999523163]","1","0","1","","","","","","","",""
"pit-trial","32","337344","0.0-2.0-8.2-2.2","battery-v0.2","","""event"",""trial"",""time""
""fullscreenenter"",""1"",""1681""
","
","
","""event"",""trial"",""time""
""fullscreenenter"",""1"",""1681""
","
","","","593.7999999523163","","","20","10215","4756","&#9776;","elianto","#3366ff99"," "," ","1","+10","[1444.6000001430511]","1","0","1","","","","","","","",""
"pit-trial","33","340868","0.0-2.0-8.2-3.2","battery-v0.2","","""event"",""trial"",""time""
""fullscreenenter"",""1"",""1681""
","
","
","""event"",""trial"",""time""
""fullscreenenter"",""1"",""1681""
","
","","","667.7999999523163","","","20","10215","4756","&#9776;","elianto","#3366ff99"," "," ","1","0","[1518.8000001907349]","1","0","1","","","","","","","",""
"pit-trial","34","344155","0.0-2.0-8.2-4.2","battery-v0.2","","""event"",""trial"",""time""
""fullscreenenter"",""1"",""1681""
","
","
","""event"",""trial"",""time""
""fullscreenenter"",""1"",""1681""
","
","","","432.5","","","20","10215","4756","&#9776;","elianto","#3366ff99"," "," ","1","+10","[1282.6000001430511]","1","0","1","","","","","","","",""
"call-function","35","344157","0.0-2.0-9.0","battery-v0.2","","""event"",""trial"",""time""
""fullscreenenter"",""1"",""1681""
","
","
","""event"",""trial"",""time""
""fullscreenenter"",""1"",""1681""
","
","","","","","","","","","","","","","","","","","","","","","","","","","","",""
"pit-instructions","36","382684","0.0-2.0-10.0","battery-v0.2","","""event"",""trial"",""time""
""fullscreenenter"",""1"",""1681""
","
","
","""event"",""trial"",""time""
""fullscreenenter"",""1"",""1681""
","
","","[{""page_index"":0,""viewing_time"":5093.299999952316},{""page_index"":1,""viewing_time"":6330.299999952316},{""page_index"":2,""viewing_time"":9127.799999952316},{""page_index"":3,""viewing_time"":10240.900000095367},{""page_index"":4,""viewing_time"":7733}]","38526.09999990463","","","","","","","","","","","","","","","","","","","","","","","",""
"pit-trial","37","387544","0.0-2.0-11.0-0.0","battery-v0.2","","""event"",""trial"",""time""
""fullscreenenter"",""1"",""1681""
","
","
","""event"",""trial"",""time""
""fullscreenenter"",""1"",""1681""
","
","","","-1","","","20","10215","4756","&#9761;","elianto","#3366ff99","-1","-1","1","+10","[]","0","0","2","","","","","","","",""
"pit-trial","38","392423","0.0-2.0-11.0-1.0","battery-v0.2","","""event"",""trial"",""time""
""fullscreenenter"",""1"",""1681""
","
","
","""event"",""trial"",""time""
""fullscreenenter"",""1"",""1681""
","
","","","-1","","","20","10215","4756","&#9761;","elianto","#3366ff99","-1","-1","1","+10","[]","0","0","2","","","","","","","",""
"pit-trial","39","397288","0.0-2.0-11.0-2.0","battery-v0.2","","""event"",""trial"",""time""
""fullscreenenter"",""1"",""1681""
","
","
","""event"",""trial"",""time""
""fullscreenenter"",""1"",""1681""
","
","","","-1","","","20","10215","4756","&#9761;","elianto","#3366ff99","-1","-1","1","+10","[]","0","0","2","","","","","","","",""
"pit-trial","40","402157","0.0-2.0-11.0-3.0","battery-v0.2","","""event"",""trial"",""time""
""fullscreenenter"",""1"",""1681""
","
","
","""event"",""trial"",""time""
""fullscreenenter"",""1"",""1681""
","
","","","-1","","","20","10215","4756","&#9761;","elianto","#3366ff99","-1","-1","1","0","[]","0","0","2","","","","","","","",""
"pit-trial","41","407025","0.0-2.0-11.0-4.0","battery-v0.2","","""event"",""trial"",""time""
""fullscreenenter"",""1"",""1681""
","
","
","""event"",""trial"",""time""
""fullscreenenter"",""1"",""1681""
","
","","","-1","","","20","10215","4756","&#9761;","elianto","#3366ff99","-1","-1","1","+10","[]","0","0","2","","","","","","","",""
"pit-trial","42","411891","0.0-2.0-11.1-0.1","battery-v0.2","","""event"",""trial"",""time""
""fullscreenenter"",""1"",""1681""
","
","
","""event"",""trial"",""time""
""fullscreenenter"",""1"",""1681""
","
","","","-1","","","20","10215","4756","&#9761;","elianto","#3366ff99","-1","-1","1","+10","[]","0","0","2","","","","","","","",""
"pit-trial","43","416745","0.0-2.0-11.1-1.1","battery-v0.2","","""event"",""trial"",""time""
""fullscreenenter"",""1"",""1681""
","
","
","""event"",""trial"",""time""
""fullscreenenter"",""1"",""1681""
","
","","","-1","","","20","10215","4756","&#9761;","elianto","#3366ff99","-1","-1","1","+10","[]","0","0","2","","","","","","","",""
"pit-trial","44","421601","0.0-2.0-11.1-2.1","battery-v0.2","","""event"",""trial"",""time""
""fullscreenenter"",""1"",""1681""
","
","
","""event"",""trial"",""time""
""fullscreenenter"",""1"",""1681""
","
","","","-1","","","20","10215","4756","&#9761;","elianto","#3366ff99","-1","-1","1","+10","[]","0","0","2","","","","","","","",""
"pit-trial","45","426455","0.0-2.0-11.1-3.1","battery-v0.2","","""event"",""trial"",""time""
""fullscreenenter"",""1"",""1681""
","
","
","""event"",""trial"",""time""
""fullscreenenter"",""1"",""1681""
","
","","","-1","","","20","10215","4756","&#9761;","elianto","#3366ff99","-1","-1","1","0","[]","0","0","2","","","","","","","",""
"pit-trial","46","431310","0.0-2.0-11.1-4.1","battery-v0.2","","""event"",""trial"",""time""
""fullscreenenter"",""1"",""1681""
","
","
","""event"",""trial"",""time""
""fullscreenenter"",""1"",""1681""
","
","","","-1","","","20","10215","4756","&#9761;","elianto","#3366ff99","-1","-1","1","+10","[]","0","0","2","","","","","","","",""
"pit-trial","47","436167","0.0-2.0-11.2-0.2","battery-v0.2","","""event"",""trial"",""time""
""fullscreenenter"",""1"",""1681""
","
","
","""event"",""trial"",""time""
""fullscreenenter"",""1"",""1681""
","
","","","-1","","","20","10215","4756","&#9761;","elianto","#3366ff99","-1","-1","1","+10","[]","0","0","2","","","","","","","",""
"pit-trial","48","441021","0.0-2.0-11.2-1.2","battery-v0.2","","""event"",""trial"",""time""
""fullscreenenter"",""1"",""1681""
","
","
","""event"",""trial"",""time""
""fullscreenenter"",""1"",""1681""
","
","","","-1","","","20","10215","4756","&#9761;","elianto","#3366ff99","-1","-1","1","+10","[]","0","0","2","","","","","","","",""
"pit-trial","49","445876","0.0-2.0-11.2-2.2","battery-v0.2","","""event"",""trial"",""time""
""fullscreenenter"",""1"",""1681""
","
","
","""event"",""trial"",""time""
""fullscreenenter"",""1"",""1681""
","
","","","-1","","","20","10215","4756","&#9761;","elianto","#3366ff99","-1","-1","1","+10","[]","0","0","2","","","","","","","",""
"pit-trial","50","450733","0.0-2.0-11.2-3.2","battery-v0.2","","""event"",""trial"",""time""
""fullscreenenter"",""1"",""1681""
","
","
","""event"",""trial"",""time""
""fullscreenenter"",""1"",""1681""
","
","","","-1","","","20","10215","4756","&#9761;","elianto","#3366ff99","-1","-1","1","0","[]","0","0","2","","","","","","","",""
"pit-trial","51","455588","0.0-2.0-11.2-4.2","battery-v0.2","","""event"",""trial"",""time""
""fullscreenenter"",""1"",""1681""
","
","
","""event"",""trial"",""time""
""fullscreenenter"",""1"",""1681""
","
","","","-1","","","20","10215","4756","&#9761;","elianto","#3366ff99","-1","-1","1","+10","[]","0","0","2","","","","","","","",""
"pit-trial","52","460447","0.0-2.0-11.3-0.3","battery-v0.2","","""event"",""trial"",""time""
""fullscreenenter"",""1"",""1681""
","
","
","""event"",""trial"",""time""
""fullscreenenter"",""1"",""1681""
","
","","","-1","","","20","10215","4756","&#9761;","elianto","#3366ff99","-1","-1","1","+10","[]","0","0","2","","","","","","","",""
"pit-trial","53","465302","0.0-2.0-11.3-1.3","battery-v0.2","","""event"",""trial"",""time""
""fullscreenenter"",""1"",""1681""
","
","
","""event"",""trial"",""time""
""fullscreenenter"",""1"",""1681""
","
","","","-1","","","20","10215","4756","&#9761;","elianto","#3366ff99","-1","-1","1","+10","[]","0","0","2","","","","","","","",""
"pit-trial","54","470157","0.0-2.0-11.3-2.3","battery-v0.2","","""event"",""trial"",""time""
""fullscreenenter"",""1"",""1681""
","
","
","""event"",""trial"",""time""
""fullscreenenter"",""1"",""1681""
","
","","","-1","","","20","10215","4756","&#9761;","elianto","#3366ff99","-1","-1","1","+10","[]","0","0","2","","","","","","","",""
"pit-trial","55","475012","0.0-2.0-11.3-3.3","battery-v0.2","","""event"",""trial"",""time""
""fullscreenenter"",""1"",""1681""
","
","
","""event"",""trial"",""time""
""fullscreenenter"",""1"",""1681""
","
","","","-1","","","20","10215","4756","&#9761;","elianto","#3366ff99","-1","-1","1","0","[]","0","0","2","","","","","","","",""
"pit-trial","56","479868","0.0-2.0-11.3-4.3","battery-v0.2","","""event"",""trial"",""time""
""fullscreenenter"",""1"",""1681""
","
","
","""event"",""trial"",""time""
""fullscreenenter"",""1"",""1681""
","
","","","-1","","","20","10215","4756","&#9761;","elianto","#3366ff99","-1","-1","1","+10","[]","0","0","2","","","","","","","",""
"call-function","57","479871","0.0-2.0-12.0","battery-v0.2","","""event"",""trial"",""time""
""fullscreenenter"",""1"",""1681""
","
","
","""event"",""trial"",""time""
""fullscreenenter"",""1"",""1681""
","
","","","","","","","","","","","","","","","","","","","","","","","","","","",""
"pit-instructions","58","526411","0.0-2.0-13.0","battery-v0.2","","""event"",""trial"",""time""
""fullscreenenter"",""1"",""1681""
","
","
","""event"",""trial"",""time""
""fullscreenenter"",""1"",""1681""
","
","","[{""page_index"":0,""viewing_time"":11693.900000095367},{""page_index"":1,""viewing_time"":10256.200000047684},{""page_index"":2,""viewing_time"":5446.699999809265},{""page_index"":3,""viewing_time"":12514.100000143051},{""page_index"":4,""viewing_time"":6627.200000047684}]","46538.90000009537","","","","","","","","","","","","","","","","","","","","","","","",""
"pit-trial","59","531291","0.0-2.0-14.0-0.0","battery-v0.2","","""event"",""trial"",""time""
""fullscreenenter"",""1"",""1681""
","
","
","""event"",""trial"",""time""
""fullscreenenter"",""1"",""1681""
","
","","","-1","","","20","10215","4756","&#9826;","elianto","#f73b6a7A","-1","-1","1","0","[]","0","0","3","","","","","","","",""
"pit-trial","60","536162","0.0-2.0-14.0-1.0","battery-v0.2","","""event"",""trial"",""time""
""fullscreenenter"",""1"",""1681""
","
","
","""event"",""trial"",""time""
""fullscreenenter"",""1"",""1681""
","
","","","-1","","","20","10215","4756","&#9826;","elianto","#f73b6a7A","-1","-1","1","0","[]","0","0","3","","","","","","","",""
"pit-trial","61","541029","0.0-2.0-14.0-2.0","battery-v0.2","","""event"",""trial"",""time""
""fullscreenenter"",""1"",""1681""
","
","
","""event"",""trial"",""time""
""fullscreenenter"",""1"",""1681""
","
","","","-1","","","20","10215","4756","&#9826;","elianto","#f73b6a7A","-1","-1","1","0","[]","0","0","3","","","","","","","",""
"pit-trial","62","545897","0.0-2.0-14.0-3.0","battery-v0.2","","""event"",""trial"",""time""
""fullscreenenter"",""1"",""1681""
","
","
","""event"",""trial"",""time""
""fullscreenenter"",""1"",""1681""
","
","","","-1","","","20","10215","4756","&#9826;","elianto","#f73b6a7A","-1","-1","1","-10","[]","0","0","3","","","","","","","",""
"pit-trial","63","550777","0.0-2.0-14.0-4.0","battery-v0.2","","""event"",""trial"",""time""
""fullscreenenter"",""1"",""1681""
","
","
","""event"",""trial"",""time""
""fullscreenenter"",""1"",""1681""
","
","","","-1","","","20","10215","4756","&#9826;","elianto","#f73b6a7A","-1","-1","1","0","[]","0","0","3","","","","","","","",""
"pit-trial","64","555643","0.0-2.0-14.1-0.1","battery-v0.2","","""event"",""trial"",""time""
""fullscreenenter"",""1"",""1681""
","
","
","""event"",""trial"",""time""
""fullscreenenter"",""1"",""1681""
","
","","","-1","","","20","10215","4756","&#9826;","elianto","#f73b6a7A","-1","-1","1","0","[]","0","0","3","","","","","","","",""
"pit-trial","65","560498","0.0-2.0-14.1-1.1","battery-v0.2","","""event"",""trial"",""time""
""fullscreenenter"",""1"",""1681""
","
","
","""event"",""trial"",""time""
""fullscreenenter"",""1"",""1681""
","
","","","-1","","","20","10215","4756","&#9826;","elianto","#f73b6a7A","-1","-1","1","0","[]","0","0","3","","","","","","","",""
"pit-trial","66","565353","0.0-2.0-14.1-2.1","battery-v0.2","","""event"",""trial"",""time""
""fullscreenenter"",""1"",""1681""
","
","
","""event"",""trial"",""time""
""fullscreenenter"",""1"",""1681""
","
","","","-1","","","20","10215","4756","&#9826;","elianto","#f73b6a7A","-1","-1","1","0","[]","0","0","3","","","","","","","",""
"pit-trial","67","570209","0.0-2.0-14.1-3.1","battery-v0.2","","""event"",""trial"",""time""
""fullscreenenter"",""1"",""1681""
","
","
","""event"",""trial"",""time""
""fullscreenenter"",""1"",""1681""
","
","","","-1","","","20","10215","4756","&#9826;","elianto","#f73b6a7A","-1","-1","1","-10","[]","0","0","3","","","","","","","",""
"pit-trial","68","575066","0.0-2.0-14.1-4.1","battery-v0.2","","""event"",""trial"",""time""
""fullscreenenter"",""1"",""1681""
","
","
","""event"",""trial"",""time""
""fullscreenenter"",""1"",""1681""
","
","","","-1","","","20","10215","4756","&#9826;","elianto","#f73b6a7A","-1","-1","1","0","[]","0","0","3","","","","","","","",""
"pit-trial","69","579922","0.0-2.0-14.2-0.2","battery-v0.2","","""event"",""trial"",""time""
""fullscreenenter"",""1"",""1681""
","
","
","""event"",""trial"",""time""
""fullscreenenter"",""1"",""1681""
","
","","","-1","","","20","10215","4756","&#9826;","elianto","#f73b6a7A","-1","-1","1","0","[]","0","0","3","","","","","","","",""
"pit-trial","70","584777","0.0-2.0-14.2-1.2","battery-v0.2","","""event"",""trial"",""time""
""fullscreenenter"",""1"",""1681""
","
","
","""event"",""trial"",""time""
""fullscreenenter"",""1"",""1681""
","
","","","-1","","","20","10215","4756","&#9826;","elianto","#f73b6a7A","-1","-1","1","0","[]","0","0","3","","","","","","","",""
"pit-trial","71","589632","0.0-2.0-14.2-2.2","battery-v0.2","","""event"",""trial"",""time""
""fullscreenenter"",""1"",""1681""
","
","
","""event"",""trial"",""time""
""fullscreenenter"",""1"",""1681""
","
","","","-1","","","20","10215","4756","&#9826;","elianto","#f73b6a7A","-1","-1","1","0","[]","0","0","3","","","","","","","",""
"pit-trial","72","594487","0.0-2.0-14.2-3.2","battery-v0.2","","""event"",""trial"",""time""
""fullscreenenter"",""1"",""1681""
","
","
","""event"",""trial"",""time""
""fullscreenenter"",""1"",""1681""
","
","","","-1","","","20","10215","4756","&#9826;","elianto","#f73b6a7A","-1","-1","1","-10","[]","0","0","3","","","","","","","",""
"pit-trial","73","599343","0.0-2.0-14.2-4.2","battery-v0.2","","""event"",""trial"",""time""
""fullscreenenter"",""1"",""1681""
","
","
","""event"",""trial"",""time""
""fullscreenenter"",""1"",""1681""
","
","","","-1","","","20","10215","4756","&#9826;","elianto","#f73b6a7A","-1","-1","1","0","[]","0","0","3","","","","","","","",""
"pit-trial","74","604198","0.0-2.0-14.3-0.3","battery-v0.2","","""event"",""trial"",""time""
""fullscreenenter"",""1"",""1681""
","
","
","""event"",""trial"",""time""
""fullscreenenter"",""1"",""1681""
","
","","","-1","","","20","10215","4756","&#9826;","elianto","#f73b6a7A","-1","-1","1","0","[]","0","0","3","","","","","","","",""
"pit-trial","75","609055","0.0-2.0-14.3-1.3","battery-v0.2","","""event"",""trial"",""time""
""fullscreenenter"",""1"",""1681""
","
","
","""event"",""trial"",""time""
""fullscreenenter"",""1"",""1681""
","
","","","-1","","","20","10215","4756","&#9826;","elianto","#f73b6a7A","-1","-1","1","0","[]","0","0","3","","","","","","","",""
"pit-trial","76","613911","0.0-2.0-14.3-2.3","battery-v0.2","","""event"",""trial"",""time""
""fullscreenenter"",""1"",""1681""
","
","
","""event"",""trial"",""time""
""fullscreenenter"",""1"",""1681""
","
","","","-1","","","20","10215","4756","&#9826;","elianto","#f73b6a7A","-1","-1","1","0","[]","0","0","3","","","","","","","",""
"pit-trial","77","618766","0.0-2.0-14.3-3.3","battery-v0.2","","""event"",""trial"",""time""
""fullscreenenter"",""1"",""1681""
","
","
","""event"",""trial"",""time""
""fullscreenenter"",""1"",""1681""
","
","","","-1","","","20","10215","4756","&#9826;","elianto","#f73b6a7A","-1","-1","1","-10","[]","0","0","3","","","","","","","",""
"pit-trial","78","623620","0.0-2.0-14.3-4.3","battery-v0.2","","""event"",""trial"",""time""
""fullscreenenter"",""1"",""1681""
","
","
","""event"",""trial"",""time""
""fullscreenenter"",""1"",""1681""
","
","","","-1","","","20","10215","4756","&#9826;","elianto","#f73b6a7A","-1","-1","1","0","[]","0","0","3","","","","","","","",""
"call-function","79","623623","0.0-2.0-15.0","battery-v0.2","","""event"",""trial"",""time""
""fullscreenenter"",""1"",""1681""
","
","
","""event"",""trial"",""time""
""fullscreenenter"",""1"",""1681""
","
","","","","","","","","","","","","","","","","","","","","","","","","","","",""
"pit-instructions","80","655296","0.0-2.0-16.0","battery-v0.2","","""event"",""trial"",""time""
""fullscreenenter"",""1"",""1681""
","
","
","""event"",""trial"",""time""
""fullscreenenter"",""1"",""1681""
","
","","[{""page_index"":0,""viewing_time"":9693.099999904633},{""page_index"":1,""viewing_time"":10815.299999952316},{""page_index"":2,""viewing_time"":4395},{""page_index"":3,""viewing_time"":6768.900000095367}]","31672.89999985695","","","","","","","","","","","","","","","","","","","","","","","",""
"pit-trial","81","658888","0.0-2.0-17.0-0.0","battery-v0.2","","""event"",""trial"",""time""
""fullscreenenter"",""1"",""1681""
","
","
","""event"",""trial"",""time""
""fullscreenenter"",""1"",""1681""
","
","","","733.5","","","20","10215","4756","&#9789;","elianto","#f73b6a7A"," "," ","1","0","[1586.5]","1","0","4","","","","","","","",""
"pit-trial","82","661937","0.0-2.0-17.0-1.0","battery-v0.2","","""event"",""trial"",""time""
""fullscreenenter"",""1"",""1681""
","
","
","""event"",""trial"",""time""
""fullscreenenter"",""1"",""1681""
","
","","","180.40000009536743","","","20","10215","4756","&#9789;","elianto","#f73b6a7A"," "," ","1","0","[1040.0999999046326]","1","0","4","","","","","","","",""
"pit-trial","83","665134","0.0-2.0-17.0-2.0","battery-v0.2","","""event"",""trial"",""time""
""fullscreenenter"",""1"",""1681""
","
","
","""event"",""trial"",""time""
""fullscreenenter"",""1"",""1681""
","
","","","327.5","","","20","10215","4756","&#9789;","elianto","#f73b6a7A"," "," ","1","0","[589.5999999046326,1185]","2","0","4","","","","","","","",""
"pit-trial","84","670009","0.0-2.0-17.0-3.0","battery-v0.2","","""event"",""trial"",""time""
""fullscreenenter"",""1"",""1681""
","
","
","""event"",""trial"",""time""
""fullscreenenter"",""1"",""1681""
","
","","","-1","","","20","10215","4756","&#9789;","elianto","#f73b6a7A"," ","-1","0","0","[]","0","0","4","","","","","","","",""
"pit-trial","85","674880","0.0-2.0-17.0-4.0","battery-v0.2","","""event"",""trial"",""time""
""fullscreenenter"",""1"",""1681""
","
","
","""event"",""trial"",""time""
""fullscreenenter"",""1"",""1681""
","
","","","-1","","","20","10215","4756","&#9789;","elianto","#f73b6a7A"," ","-1","0","-10","[]","0","0","4","","","","","","","",""
"pit-trial","86","679745","0.0-2.0-17.1-0.1","battery-v0.2","","""event"",""trial"",""time""
""fullscreenenter"",""1"",""1681""
","
","
","""event"",""trial"",""time""
""fullscreenenter"",""1"",""1681""
","
","","","-1","","","20","10215","4756","&#9789;","elianto","#f73b6a7A"," ","-1","0","-10","[]","0","0","4","","","","","","","",""
"pit-trial","87","684601","0.0-2.0-17.1-1.1","battery-v0.2","","""event"",""trial"",""time""
""fullscreenenter"",""1"",""1681""
","
","
","""event"",""trial"",""time""
""fullscreenenter"",""1"",""1681""
","
","","","-1","","","20","10215","4756","&#9789;","elianto","#f73b6a7A"," ","-1","0","-10","[]","0","0","4","","","","","","","",""
"pit-trial","88","689457","0.0-2.0-17.1-2.1","battery-v0.2","","""event"",""trial"",""time""
""fullscreenenter"",""1"",""1681""
","
","
","""event"",""trial"",""time""
""fullscreenenter"",""1"",""1681""
","
","","","-1","","","20","10215","4756","&#9789;","elianto","#f73b6a7A"," ","-1","0","-10","[]","0","0","4","","","","","","","",""
"pit-trial","89","693170","0.0-2.0-17.1-3.1","battery-v0.2","","""event"",""trial"",""time""
""fullscreenenter"",""1"",""1681""
","
","
","""event"",""trial"",""time""
""fullscreenenter"",""1"",""1681""
","
","","","849.2000000476837","","","20","10215","4756","&#9789;","elianto","#f73b6a7A"," "," ","1","-10","[1700.4000000953674]","1","0","4","","","","","","","",""
"pit-trial","90","698024","0.0-2.0-17.1-4.1","battery-v0.2","","""event"",""trial"",""time""
""fullscreenenter"",""1"",""1681""
","
","
","""event"",""trial"",""time""
""fullscreenenter"",""1"",""1681""
","
","","","-1","","","20","10215","4756","&#9789;","elianto","#f73b6a7A"," ","-1","0","-10","[]","0","0","4","","","","","","","",""
"pit-trial","91","701354","0.0-2.0-17.2-0.2","battery-v0.2","","""event"",""trial"",""time""
""fullscreenenter"",""1"",""1681""
","
","
","""event"",""trial"",""time""
""fullscreenenter"",""1"",""1681""
","
","","","473.5","","","20","10215","4756","&#9789;","elianto","#f73b6a7A"," "," ","1","0","[1323.5999999046326]","1","0","4","","","","","","","",""
"pit-trial","92","704919","0.0-2.0-17.2-1.2","battery-v0.2","","""event"",""trial"",""time""
""fullscreenenter"",""1"",""1681""
","
","
","""event"",""trial"",""time""
""fullscreenenter"",""1"",""1681""
","
","","","710.5","","","20","10215","4756","&#9789;","elianto","#f73b6a7A"," "," ","1","0","[1560.9000000953674]","1","0","4","","","","","","","",""
"pit-trial","93","708335","0.0-2.0-17.2-2.2","battery-v0.2","","""event"",""trial"",""time""
""fullscreenenter"",""1"",""1681""
","
","
","""event"",""trial"",""time""
""fullscreenenter"",""1"",""1681""
","
","","","561.2999999523163","","","20","10215","4756","&#9789;","elianto","#f73b6a7A"," "," ","1","0","[1412.2000000476837]","1","0","4","","","","","","","",""
"pit-trial","94","711546","0.0-2.0-17.2-3.2","battery-v0.2","","""event"",""trial"",""time""
""fullscreenenter"",""1"",""1681""
","
","
","""event"",""trial"",""time""
""fullscreenenter"",""1"",""1681""
","
","","","355.7000000476837","","","20","10215","4756","&#9789;","elianto","#f73b6a7A"," "," ","1","-10","[1206.5999999046326]","1","0","4","","","","","","","",""
"pit-trial","95","714789","0.0-2.0-17.2-4.2","battery-v0.2","","""event"",""trial"",""time""
""fullscreenenter"",""1"",""1681""
","
","
","""event"",""trial"",""time""
""fullscreenenter"",""1"",""1681""
","
","","","388.2000000476837","","","20","10215","4756","&#9789;","elianto","#f73b6a7A"," "," ","1","0","[1240.2999999523163]","1","0","4","","","","","","","",""
"pit-trial","96","718108","0.0-2.0-17.3-0.3","battery-v0.2","","""event"",""trial"",""time""
""fullscreenenter"",""1"",""1681""
","
","
","""event"",""trial"",""time""
""fullscreenenter"",""1"",""1681""
","
","","","462.10000014305115","","","20","10215","4756","&#9789;","elianto","#f73b6a7A"," "," ","1","0","[1313]","1","0","4","","","","","","","",""
"pit-trial","97","721893","0.0-2.0-17.3-1.3","battery-v0.2","","""event"",""trial"",""time""
""fullscreenenter"",""1"",""1681""
","
","
","""event"",""trial"",""time""
""fullscreenenter"",""1"",""1681""
","
","","","930.2999999523163","","","20","10215","4756","&#9789;","elianto","#f73b6a7A"," "," ","1","0","[1780.7999999523163]","1","0","4","","","","","","","",""
"pit-trial","98","725190","0.0-2.0-17.3-2.3","battery-v0.2","","""event"",""trial"",""time""
""fullscreenenter"",""1"",""1681""
","
","
","""event"",""trial"",""time""
""fullscreenenter"",""1"",""1681""
","
","","","441.09999990463257","","","20","10215","4756","&#9789;","elianto","#f73b6a7A"," "," ","1","0","[1292.2000000476837]","1","0","4","","","","","","","",""
"pit-trial","99","728498","0.0-2.0-17.3-3.3","battery-v0.2","","""event"",""trial"",""time""
""fullscreenenter"",""1"",""1681""
","
","
","""event"",""trial"",""time""
""fullscreenenter"",""1"",""1681""
","
","","","454.2999999523163","","","20","10215","4756","&#9789;","elianto","#f73b6a7A"," "," ","1","-10","[1304.5]","1","0","4","","","","","","","",""
"pit-trial","100","731831","0.0-2.0-17.3-4.3","battery-v0.2","","""event"",""trial"",""time""
""fullscreenenter"",""1"",""1681""
","
","
","""event"",""trial"",""time""
""fullscreenenter"",""1"",""1681""
","
","","","476","","","20","10215","4756","&#9789;","elianto","#f73b6a7A"," "," ","1","0","[1328.9000000953674]","1","0","4","","","","","","","",""
"call-function","101","731835","0.0-2.0-18.0","battery-v0.2","","""event"",""trial"",""time""
""fullscreenenter"",""1"",""1681""
","
","
","""event"",""trial"",""time""
""fullscreenenter"",""1"",""1681""
","
","","","","","","","","","","","","","","","","","","","","","","","","","","",""
"pit-instructions","102","793988","0.0-2.0-19.0","battery-v0.2","","""event"",""trial"",""time""
""fullscreenenter"",""1"",""1681""
","
","
","""event"",""trial"",""time""
""fullscreenenter"",""1"",""1681""
","
","","[{""page_index"":0,""viewing_time"":14602.400000095367},{""page_index"":1,""viewing_time"":5170.399999856949},{""page_index"":2,""viewing_time"":8961.900000095367},{""page_index"":3,""viewing_time"":4519.900000095367},{""page_index"":4,""viewing_time"":7492},{""page_index"":5,""viewing_time"":8663.199999809265},{""page_index"":6,""viewing_time"":4050.4000000953674},{""page_index"":7,""viewing_time"":5000.400000095367},{""page_index"":8,""viewing_time"":3691.699999809265}]","62152.799999952316","","","","","","","","","","","","","","","","","","","","","","","",""
"pit-comprehension","103","798238","0.0-2.0-20.0-0.0","battery-v0.2","","""event"",""trial"",""time""
""fullscreenenter"",""1"",""1681""
","
","
","""event"",""trial"",""time""
""fullscreenenter"",""1"",""1681""
","
","","","4245.299999952316","[""SPACE""]","0","20","10215","4756","","","","","","","","","","","","","","","","","","",""
"pit-instructions","104","800897","0.0-2.0-20.0-1.0","battery-v0.2","","""event"",""trial"",""time""
""fullscreenenter"",""1"",""1681""
","
","
","""event"",""trial"",""time""
""fullscreenenter"",""1"",""1681""
","
","","[{""page_index"":0,""viewing_time"":2632.4000000953674}]","2632.7000000476837","","","","","","","","","","","","","","","","","","","","","","","",""
"pit-comprehension","105","805574","0.0-2.0-21.0-0.0","battery-v0.2","","""event"",""trial"",""time""
""fullscreenenter"",""1"",""1681""
","
","
","""event"",""trial"",""time""
""fullscreenenter"",""1"",""1681""
","
","","","4674.100000143051","[""10""]","0","20","10215","4756","","","","","","","","","","","","","","","","","","",""
"pit-instructions","106","806750","0.0-2.0-21.0-1.0","battery-v0.2","","""event"",""trial"",""time""
""fullscreenenter"",""1"",""1681""
","
","
","""event"",""trial"",""time""
""fullscreenenter"",""1"",""1681""
","
","","[{""page_index"":0,""viewing_time"":1152.5999999046326}]","1152.9000000953674","","","","","","","","","","","","","","","","","","","","","","","",""
"pit-comprehension","107","813086","0.0-2.0-22.0-0.0","battery-v0.2","","""event"",""trial"",""time""
""fullscreenenter"",""1"",""1681""
","
","
","""event"",""trial"",""time""
""fullscreenenter"",""1"",""1681""
","
","","","6332.699999809265","[""-10""]","1","20","10215","4756","","","","","","","","","","","","","","","","","","",""
"pit-instructions","108","815286","0.0-2.0-22.0-1.0","battery-v0.2","","""event"",""trial"",""time""
""fullscreenenter"",""1"",""1681""
","
","
","""event"",""trial"",""time""
""fullscreenenter"",""1"",""1681""
","
","","[{""page_index"":0,""viewing_time"":2178}]","2178.5999999046326","","","","","","","","","","","","","","","","","","","","","","","",""
"pit-instructions","109","816352","0.0-2.0-22.0-2.0-0.0","battery-v0.2","","""event"",""trial"",""time""
""fullscreenenter"",""1"",""1681""
","
","
","""event"",""trial"",""time""
""fullscreenenter"",""1"",""1681""
","
","","[{""page_index"":0,""viewing_time"":1064.7000000476837}]","1065.0999999046326","","","","","","","","","","","","","","","","","","","","","","","",""
"pit-comprehension","110","822439","0.0-2.0-22.1-0.1","battery-v0.2","","""event"",""trial"",""time""
""fullscreenenter"",""1"",""1681""
","
","
","""event"",""trial"",""time""
""fullscreenenter"",""1"",""1681""
","
","","","6083.900000095367","[""0""]","0","20","10215","4756","","","","","","","","","","","","","","","","","","",""
"pit-instructions","111","823625","0.0-2.0-22.1-1.1","battery-v0.2","","""event"",""trial"",""time""
""fullscreenenter"",""1"",""1681""
","
","
","""event"",""trial"",""time""
""fullscreenenter"",""1"",""1681""
","
","","[{""page_index"":0,""viewing_time"":1165.4000000953674}]","1165.6000001430511","","","","","","","","","","","","","","","","","","","","","","","",""
"pit-comprehension","112","832987","0.0-2.0-23.0-0.0","battery-v0.2","","""event"",""trial"",""time""
""fullscreenenter"",""1"",""1681""
","
","
","""event"",""trial"",""time""
""fullscreenenter"",""1"",""1681""
","
","","","9359.299999952316","[""True""]","0","20","10215","4756","","","","","","","","","","","","","","","","","","",""
"pit-instructions","113","834187","0.0-2.0-23.0-1.0","battery-v0.2","","""event"",""trial"",""time""
""fullscreenenter"",""1"",""1681""
","
","
","""event"",""trial"",""time""
""fullscreenenter"",""1"",""1681""
","
","","[{""page_index"":0,""viewing_time"":1177}]","1177.0999999046326","","","","","","","","","","","","","","","","","","","","","","","",""
"pit-comprehension","114","841229","0.0-2.0-24.0-0.0","battery-v0.2","","""event"",""trial"",""time""
""fullscreenenter"",""1"",""1681""
","
","
","""event"",""trial"",""time""
""fullscreenenter"",""1"",""1681""
","
","","","7039.300000190735","[""True""]","0","20","10215","4756","","","","","","","","","","","","","","","","","","",""
"pit-instructions","115","842965","0.0-2.0-24.0-1.0","battery-v0.2","","""event"",""trial"",""time""
""fullscreenenter"",""1"",""1681""
","
","
","""event"",""trial"",""time""
""fullscreenenter"",""1"",""1681""
","
","","[{""page_index"":0,""viewing_time"":1715.2999999523163}]","1715.5999999046326","","","","","","","","","","","","","","","","","","","","","","","",""
"pit-comprehension","116","849393","0.0-2.0-25.0-0.0","battery-v0.2","","""event"",""trial"",""time""
""fullscreenenter"",""1"",""1681""
","
","
","""event"",""trial"",""time""
""fullscreenenter"",""1"",""1681""
","
","","","6424.700000047684","[""True""]","0","20","10215","4756","","","","","","","","","","","","","","","","","","",""
"pit-instructions","117","853812","0.0-2.0-25.0-1.0","battery-v0.2","","""event"",""trial"",""time""
""fullscreenenter"",""1"",""1681""
","
","
","""event"",""trial"",""time""
""fullscreenenter"",""1"",""1681""
","
","","[{""page_index"":0,""viewing_time"":4396}]","4396.299999952316","","","","","","","","","","","","","","","","","","","","","","","",""
"pit-comprehension","118","859117","0.0-2.0-26.0-0.0","battery-v0.2","","""event"",""trial"",""time""
""fullscreenenter"",""1"",""1681""
","
","
","""event"",""trial"",""time""
""fullscreenenter"",""1"",""1681""
","
","","","5301.299999952316","[""False""]","0","20","10215","4756","","","","","","","","","","","","","","","","","","",""
"pit-instructions","119","861526","0.0-2.0-26.0-1.0","battery-v0.2","","""event"",""trial"",""time""
""fullscreenenter"",""1"",""1681""
","
","
","""event"",""trial"",""time""
""fullscreenenter"",""1"",""1681""
","
","","[{""page_index"":0,""viewing_time"":2390.699999809265}]","2391.0999999046326","","","","","","","","","","","","","","","","","","","","","","","",""
"pit-instructions","120","879570","0.0-3.0","battery-v0.2","","""event"",""trial"",""time""
""fullscreenenter"",""1"",""1681""
","
","
","""event"",""trial"",""time""
""fullscreenenter"",""1"",""1681""
","
","","[{""page_index"":0,""viewing_time"":6218.599999904633},{""page_index"":1,""viewing_time"":5036.599999904633},{""page_index"":2,""viewing_time"":6785.5}]","18041.099999904633","","","","","","","","","","","","","","","","","","","","","","","",""
"pit-trial","121","882957","0.0-4.0","battery-v0.2","","""event"",""trial"",""time""
""fullscreenenter"",""1"",""1681""
","
","
","""event"",""trial"",""time""
""fullscreenenter"",""1"",""1681""
","
","","","524","","","20","10215","4756","&#9730;","elianto","#3366ff99"," "," ","1","+10","[1376.7999999523163]","1","1","","","10215","1","1","1","win","go","0"
"pit-trial","122","887839","0.0-5.0","battery-v0.2","","""event"",""trial"",""time""
""fullscreenenter"",""1"",""1681""
","
","
","""event"",""trial"",""time""
""fullscreenenter"",""1"",""1681""
","
","","","-1","","","20","10215","4756","&#9752;","elianto","#f73b6a7A"," ","-1","0","-10","[]","0","1","","","10215","2","3","3","lose","go","0"
"pit-trial","123","891214","0.0-6.0","battery-v0.2","","""event"",""trial"",""time""
""fullscreenenter"",""1"",""1681""
","
","
","""event"",""trial"",""time""
""fullscreenenter"",""1"",""1681""
","
","","","506.59999990463257","","","20","10215","4756","&#9728;","elianto","#f73b6a7A","-1"," ","0","-10","[1363.4000000953674]","1","1","","","10215","3","0","4","lose","no-go","0"
"pit-trial","124","896087","0.0-7.0","battery-v0.2","","""event"",""trial"",""time""
""fullscreenenter"",""1"",""1681""
","
","
","""event"",""trial"",""time""
""fullscreenenter"",""1"",""1681""
","
","","","-1","","","20","10215","4756","&#9733;","elianto","#3366ff99","-1","-1","1","+10","[]","0","1","","","10215","4","2","2","win","no-go","0"
"pit-trial","125","900958","0.0-8.0","battery-v0.2","","""event"",""trial"",""time""
""fullscreenenter"",""1"",""1681""
","
","
","""event"",""trial"",""time""
""fullscreenenter"",""1"",""1681""
","
","","","-1","","","20","10215","4756","&#9733;","elianto","#3366ff99","-1","-1","1","0","[]","0","1","","","10215","5","2","2","win","no-go","1"
"pit-trial","126","904758","0.0-9.0","battery-v0.2","","""event"",""trial"",""time""
""fullscreenenter"",""1"",""1681""
","
","
","""event"",""trial"",""time""
""fullscreenenter"",""1"",""1681""
","
","","","939.6000001430511","","","20","10215","4756","&#9752;","elianto","#f73b6a7A"," "," ","1","-10","[1790.5]","1","1","","","10215","6","3","3","lose","go","1"
"pit-trial","127","908401","0.0-10.0","battery-v0.2","","""event"",""trial"",""time""
""fullscreenenter"",""1"",""1681""
","
","
","""event"",""trial"",""time""
""fullscreenenter"",""1"",""1681""
","
","","","779.6999998092651","","","20","10215","4756","&#9730;","elianto","#3366ff99"," "," ","1","+10","[1629.8999998569489]","1","1","","","10215","7","1","1","win","go","0"
"pit-trial","128","913256","0.0-11.0","battery-v0.2","","""event"",""trial"",""time""
""fullscreenenter"",""1"",""1681""
","
","
","""event"",""trial"",""time""
""fullscreenenter"",""1"",""1681""
","
","","","-1","","","20","10215","4756","&#9728;","elianto","#f73b6a7A","-1","-1","1","0","[]","0","1","","","10215","8","0","4","lose","no-go","0"
"pit-trial","129","916963","0.0-12.0","battery-v0.2","","""event"",""trial"",""time""
""fullscreenenter"",""1"",""1681""
","
","
","""event"",""trial"",""time""
""fullscreenenter"",""1"",""1681""
","
","","","852","","","20","10215","4756","&#9733;","elianto","#3366ff99","-1"," ","0","0","[1703.1000001430511]","1","1","","","10215","9","2","2","win","no-go","0"
"pit-trial","130","921819","0.0-13.0","battery-v0.2","","""event"",""trial"",""time""
""fullscreenenter"",""1"",""1681""
","
","
","""event"",""trial"",""time""
""fullscreenenter"",""1"",""1681""
","
","","","-1","","","20","10215","4756","&#9728;","elianto","#f73b6a7A","-1","-1","1","0","[]","0","1","","","10215","10","0","4","lose","no-go","0"
"pit-trial","131","925230","0.0-14.0","battery-v0.2","","""event"",""trial"",""time""
""fullscreenenter"",""1"",""1681""
","
","
","""event"",""trial"",""time""
""fullscreenenter"",""1"",""1681""
","
","","","556.2000000476837","","","20","10215","4756","&#9752;","elianto","#f73b6a7A"," "," ","1","0","[1407]","1","1","","","10215","11","3","3","lose","go","0"
"pit-trial","132","928664","0.0-15.0","battery-v0.2","","""event"",""trial"",""time""
""fullscreenenter"",""1"",""1681""
","
","
","""event"",""trial"",""time""
""fullscreenenter"",""1"",""1681""
","
","","","579","","","20","10215","4756","&#9730;","elianto","#3366ff99"," "," ","1","+10","[1429.1999998092651]","1","1","","","10215","12","1","1","win","go","0"
"pit-trial","133","932032","0.0-16.0","battery-v0.2","","""event"",""trial"",""time""
""fullscreenenter"",""1"",""1681""
","
","
","""event"",""trial"",""time""
""fullscreenenter"",""1"",""1681""
","
","","","514.7999999523163","","","20","10215","4756","&#9752;","elianto","#f73b6a7A"," "," ","1","0","[1365.7999999523163]","1","1","","","10215","13","3","3","lose","go","0"
"pit-trial","134","935493","0.0-17.0","battery-v0.2","","""event"",""trial"",""time""
""fullscreenenter"",""1"",""1681""
","
","
","""event"",""trial"",""time""
""fullscreenenter"",""1"",""1681""
","
","","","605.2999999523163","","","20","10215","4756","&#9730;","elianto","#3366ff99"," "," ","1","+10","[1456]","1","1","","","10215","14","1","1","win","go","0"
"pit-trial","135","940347","0.0-18.0","battery-v0.2","","""event"",""trial"",""time""
""fullscreenenter"",""1"",""1681""
","
","
","""event"",""trial"",""time""
""fullscreenenter"",""1"",""1681""
","
","","","-1","","","20","10215","4756","&#9733;","elianto","#3366ff99","-1","-1","1","+10","[]","0","1","","","10215","15","2","2","win","no-go","0"
"pit-trial","136","945201","0.0-19.0","battery-v0.2","","""event"",""trial"",""time""
""fullscreenenter"",""1"",""1681""
","
","
","""event"",""trial"",""time""
""fullscreenenter"",""1"",""1681""
","
","","","-1","","","20","10215","4756","&#9728;","elianto","#f73b6a7A","-1","-1","1","-10","[]","0","1","","","10215","16","0","4","lose","no-go","1"
"pit-trial","137","948706","0.0-20.0","battery-v0.2","","""event"",""trial"",""time""
""fullscreenenter"",""1"",""1681""
","
","
","""event"",""trial"",""time""
""fullscreenenter"",""1"",""1681""
","
","","","649.2999999523163","","","20","10215","4756","&#9730;","elianto","#3366ff99"," "," ","1","0","[1500.3000001907349]","1","1","","","10215","17","1","1","win","go","1"
"pit-trial","138","953563","0.0-21.0","battery-v0.2","","""event"",""trial"",""time""
""fullscreenenter"",""1"",""1681""
","
","
","""event"",""trial"",""time""
""fullscreenenter"",""1"",""1681""
","
","","","-1","","","20","10215","4756","&#9728;","elianto","#f73b6a7A","-1","-1","1","0","[]","0","1","","","10215","18","0","4","lose","no-go","0"
"pit-trial","139","957089","0.0-22.0","battery-v0.2","","""event"",""trial"",""time""
""fullscreenenter"",""1"",""1681""
","
","
","""event"",""trial"",""time""
""fullscreenenter"",""1"",""1681""
","
","","","670.0999999046326","","","20","10215","4756","&#9752;","elianto","#f73b6a7A"," "," ","1","-10","[1521.7999999523163]","1","1","","","10215","19","3","3","lose","go","1"
"pit-trial","140","961945","0.0-23.0","battery-v0.2","","""event"",""trial"",""time""
""fullscreenenter"",""1"",""1681""
","
","
","""event"",""trial"",""time""
""fullscreenenter"",""1"",""1681""
","
","","","-1","","","20","10215","4756","&#9733;","elianto","#3366ff99","-1","-1","1","0","[]","0","1","","","10215","20","2","2","win","no-go","1"
"pit-instructions","141","973334","0.0-24.0","battery-v0.2","","""event"",""trial"",""time""
""fullscreenenter"",""1"",""1681""
","
","
","""event"",""trial"",""time""
""fullscreenenter"",""1"",""1681""
","
","","[{""page_index"":0,""viewing_time"":5068.599999904633},{""page_index"":1,""viewing_time"":6317.5}]","11386.599999904633","","","","","","","","","","","","","","","","","","","","","","","",""
"pit-trial","142","977321","0.0-25.0","battery-v0.2","","""event"",""trial"",""time""
""fullscreenenter"",""1"",""1681""
","
","
","""event"",""trial"",""time""
""fullscreenenter"",""1"",""1681""
","
","","","1124.7999999523163","","","20","10215","4756","t","elianto","#f73b6a7A"," "," ","1","0","[1979.2999999523163]","1","2","","","10215","21","2","3","lose","go","0"
"pit-trial","143","982191","0.0-26.0","battery-v0.2","","""event"",""trial"",""time""
""fullscreenenter"",""1"",""1681""
","
","
","""event"",""trial"",""time""
""fullscreenenter"",""1"",""1681""
","
","","","-1","","","20","10215","4756","b","elianto","#f73b6a7A","-1","-1","1","0","[]","0","2","","","10215","22","3","4","lose","no-go","0"
"pit-trial","144","987072","0.0-27.0","battery-v0.2","","""event"",""trial"",""time""
""fullscreenenter"",""1"",""1681""
","
","
","""event"",""trial"",""time""
""fullscreenenter"",""1"",""1681""
","
","","","-1","","","20","10215","4756","f","elianto","#3366ff99","-1","-1","1","+10","[2868.4000000953674]","1","2","","","10215","23","1","2","win","no-go","0"
"pit-trial","145","991946","0.0-28.0","battery-v0.2","","""event"",""trial"",""time""
""fullscreenenter"",""1"",""1681""
","
","
","""event"",""trial"",""time""
""fullscreenenter"",""1"",""1681""
","
","","","-1","","","20","10215","4756","n","elianto","#f73b6a7A"," ","-1","0","0","[]","0","2","","","10215","24","0","3","lose","go","1"
"pit-trial","146","995621","0.0-29.0","battery-v0.2","","""event"",""trial"",""time""
""fullscreenenter"",""1"",""1681""
","
","
","""event"",""trial"",""time""
""fullscreenenter"",""1"",""1681""
","
","","","807.3999998569489","","","20","10215","4756","f","elianto","#3366ff99","-1"," ","0","0","[1665.9000000953674]","1","2","","","10215","25","1","2","win","no-go","0"
"pit-trial","147","999185","0.0-30.0","battery-v0.2","","""event"",""trial"",""time""
""fullscreenenter"",""1"",""1681""
","
","
","""event"",""trial"",""time""
""fullscreenenter"",""1"",""1681""
","
","","","699.1999998092651","","","20","10215","4756","t","elianto","#f73b6a7A"," "," ","1","-10","[1550.8999998569489]","1","2","","","10215","26","2","3","lose","go","1"
"pit-trial","148","1004041","0.0-31.0","battery-v0.2","","""event"",""trial"",""time""
""fullscreenenter"",""1"",""1681""
","
","
","""event"",""trial"",""time""
""fullscreenenter"",""1"",""1681""
","
","","","-1","","","20","10215","4756","b","elianto","#f73b6a7A","-1","-1","1","0","[]","0","2","","","10215","27","3","4","lose","no-go","0"
"pit-trial","149","1008896","0.0-32.0","battery-v0.2","","""event"",""trial"",""time""
""fullscreenenter"",""1"",""1681""
","
","
","""event"",""trial"",""time""
""fullscreenenter"",""1"",""1681""
","
","","","-1","","","20","10215","4756","n","elianto","#f73b6a7A"," ","-1","0","0","[]","0","2","","","10215","28","0","3","lose","go","1"
"pit-trial","150","1013758","0.0-33.0","battery-v0.2","","""event"",""trial"",""time""
""fullscreenenter"",""1"",""1681""
","
","
","""event"",""trial"",""time""
""fullscreenenter"",""1"",""1681""
","
","","","-1","","","20","10215","4756","n","elianto","#f73b6a7A"," ","-1","0","-10","[]","0","2","","","10215","29","0","3","lose","go","0"
"pit-trial","151","1017280","0.0-34.0","battery-v0.2","","""event"",""trial"",""time""
""fullscreenenter"",""1"",""1681""
","
","
","""event"",""trial"",""time""
""fullscreenenter"",""1"",""1681""
","
","","","668.7000000476837","","","20","10215","4756","t","elianto","#f73b6a7A"," "," ","1","0","[1519]","1","2","","","10215","30","2","3","lose","go","0"
"pit-trial","152","1022136","0.0-35.0","battery-v0.2","","""event"",""trial"",""time""
""fullscreenenter"",""1"",""1681""
","
","
","""event"",""trial"",""time""
""fullscreenenter"",""1"",""1681""
","
","","","-1","","","20","10215","4756","b","elianto","#f73b6a7A","-1","-1","1","-10","[]","0","2","","","10215","31","3","4","lose","no-go","1"
"pit-trial","153","1025990","0.0-36.0","battery-v0.2","","""event"",""trial"",""time""
""fullscreenenter"",""1"",""1681""
","
","
","""event"",""trial"",""time""
""fullscreenenter"",""1"",""1681""
","
","","","1000.6999998092651","","","20","10215","4756","f","elianto","#3366ff99","-1"," ","0","+10","[1851.1999998092651]","1","2","","","10215","32","1","2","win","no-go","1"
"pit-trial","154","1030846","0.0-37.0","battery-v0.2","","""event"",""trial"",""time""
""fullscreenenter"",""1"",""1681""
","
","
","""event"",""trial"",""time""
""fullscreenenter"",""1"",""1681""
","
","","","-1","","","20","10215","4756","b","elianto","#f73b6a7A","-1","-1","1","-10","[3464.5999999046326]","1","2","","","10215","33","3","4","lose","no-go","1"
"pit-trial","155","1034262","0.0-38.0","battery-v0.2","","""event"",""trial"",""time""
""fullscreenenter"",""1"",""1681""
","
","
","""event"",""trial"",""time""
""fullscreenenter"",""1"",""1681""
","
","","","563.2999999523163","","","20","10215","4756","f","elianto","#3366ff99","-1"," ","0","0","[1413.5]","1","2","","","10215","34","1","2","win","no-go","0"
"pit-trial","156","1037739","0.0-39.0","battery-v0.2","","""event"",""trial"",""time""
""fullscreenenter"",""1"",""1681""
","
","
","""event"",""trial"",""time""
""fullscreenenter"",""1"",""1681""
","
","","","621","","","20","10215","4756","t","elianto","#f73b6a7A"," "," ","1","0","[1471.5]","1","2","","","10215","35","2","3","lose","go","0"
"pit-trial","157","1042595","0.0-40.0","battery-v0.2","","""event"",""trial"",""time""
""fullscreenenter"",""1"",""1681""
","
","
","""event"",""trial"",""time""
""fullscreenenter"",""1"",""1681""
","
","","","-1","","","20","10215","4756","n","elianto","#f73b6a7A"," ","-1","0","0","[]","0","2","","","10215","36","0","3","lose","go","1"
"pit-trial","158","1047449","0.0-41.0","battery-v0.2","","""event"",""trial"",""time""
""fullscreenenter"",""1"",""1681""
","
","
","""event"",""trial"",""time""
""fullscreenenter"",""1"",""1681""
","
","","","-1","","","20","10215","4756","n","elianto","#f73b6a7A"," ","-1","0","-10","[]","0","2","","","10215","37","0","3","lose","go","0"
"pit-trial","159","1051825","0.0-42.0","battery-v0.2","","""event"",""trial"",""time""
""fullscreenenter"",""1"",""1681""
","
","
","""event"",""trial"",""time""
""fullscreenenter"",""1"",""1681""
","
","","","1520.7000000476837","","","20","10215","4756","b","elianto","#f73b6a7A","-1"," ","0","-10","[2370.7000000476837]","1","2","","","10215","38","3","4","lose","no-go","0"
"pit-trial","160","1055461","0.0-43.0","battery-v0.2","","""event"",""trial"",""time""
""fullscreenenter"",""1"",""1681""
","
","
","""event"",""trial"",""time""
""fullscreenenter"",""1"",""1681""
","
","","","782","","","20","10215","4756","t","elianto","#f73b6a7A"," "," ","1","0","[1632.3000001907349]","1","2","","","10215","39","2","3","lose","go","0"
"pit-trial","161","1058936","0.0-44.0","battery-v0.2","","""event"",""trial"",""time""
""fullscreenenter"",""1"",""1681""
","
","
","""event"",""trial"",""time""
""fullscreenenter"",""1"",""1681""
","
","","","619.7000000476837","","","20","10215","4756","f","elianto","#3366ff99","-1"," ","0","0","[1470.4000000953674]","1","2","","","10215","40","1","2","win","no-go","0"
"pit-trial","162","1063789","0.0-45.0","battery-v0.2","","""event"",""trial"",""time""
""fullscreenenter"",""1"",""1681""
","
","
","""event"",""trial"",""time""
""fullscreenenter"",""1"",""1681""
","
","","","-1","","","20","10215","4756","n","elianto","#f73b6a7A"," ","-1","0","-10","[]","0","2","","","10215","41","0","3","lose","go","0"
"pit-trial","163","1068645","0.0-46.0","battery-v0.2","","""event"",""trial"",""time""
""fullscreenenter"",""1"",""1681""
","
","
","""event"",""trial"",""time""
""fullscreenenter"",""1"",""1681""
","
","","","-1","","","20","10215","4756","b","elianto","#f73b6a7A","-1","-1","1","0","[]","0","2","","","10215","42","3","4","lose","no-go","0"
"pit-trial","164","1072192","0.0-47.0","battery-v0.2","","""event"",""trial"",""time""
""fullscreenenter"",""1"",""1681""
","
","
","""event"",""trial"",""time""
""fullscreenenter"",""1"",""1681""
","
","","","692.6999998092651","","","20","10215","4756","f","elianto","#3366ff99","-1"," ","0","+10","[1543.7999999523163]","1","2","","","10215","43","1","2","win","no-go","1"
"pit-trial","165","1075591","0.0-48.0","battery-v0.2","","""event"",""trial"",""time""
""fullscreenenter"",""1"",""1681""
","
","
","""event"",""trial"",""time""
""fullscreenenter"",""1"",""1681""
","
","","","545.4000000953674","","","20","10215","4756","t","elianto","#f73b6a7A"," "," ","1","-10","[1395.5]","1","2","","","10215","44","2","3","lose","go","1"
"pit-trial","166","1080447","0.0-49.0","battery-v0.2","","""event"",""trial"",""time""
""fullscreenenter"",""1"",""1681""
","
","
","""event"",""trial"",""time""
""fullscreenenter"",""1"",""1681""
","
","","","-1","","","20","10215","4756","n","elianto","#f73b6a7A"," ","-1","0","0","[]","0","2","","","10215","45","0","3","lose","go","1"
"pit-trial","167","1083913","0.0-50.0","battery-v0.2","","""event"",""trial"",""time""
""fullscreenenter"",""1"",""1681""
","
","
","""event"",""trial"",""time""
""fullscreenenter"",""1"",""1681""
","
","","","611.7000000476837","","","20","10215","4756","f","elianto","#3366ff99","-1"," ","0","+10","[1462.7000000476837]","1","2","","","10215","46","1","2","win","no-go","1"
"pit-trial","168","1088768","0.0-51.0","battery-v0.2","","""event"",""trial"",""time""
""fullscreenenter"",""1"",""1681""
","
","
","""event"",""trial"",""time""
""fullscreenenter"",""1"",""1681""
","
","","","-1","","","20","10215","4756","b","elianto","#f73b6a7A","-1","-1","1","0","[]","0","2","","","10215","47","3","4","lose","no-go","0"
"pit-trial","169","1092279","0.0-52.0","battery-v0.2","","""event"",""trial"",""time""
""fullscreenenter"",""1"",""1681""
","
","
","""event"",""trial"",""time""
""fullscreenenter"",""1"",""1681""
","
","","","656.1000001430511","","","20","10215","4756","t","elianto","#f73b6a7A"," "," ","1","-10","[1507.1000001430511]","1","2","","","10215","48","2","3","lose","go","1"
"pit-trial","170","1096209","0.0-53.0","battery-v0.2","","""event"",""trial"",""time""
""fullscreenenter"",""1"",""1681""
","
","
","""event"",""trial"",""time""
""fullscreenenter"",""1"",""1681""
","
","","","1074.8999998569489","","","20","10215","4756","t","elianto","#f73b6a7A"," "," ","1","0","[1925.0999999046326]","1","2","","","10215","49","2","3","lose","go","0"
"pit-trial","171","1101063","0.0-54.0","battery-v0.2","","""event"",""trial"",""time""
""fullscreenenter"",""1"",""1681""
","
","
","""event"",""trial"",""time""
""fullscreenenter"",""1"",""1681""
","
","","","-1","","","20","10215","4756","n","elianto","#f73b6a7A"," ","-1","0","-10","[]","0","2","","","10215","50","0","3","lose","go","0"
"pit-trial","172","1104509","0.0-55.0","battery-v0.2","","""event"",""trial"",""time""
""fullscreenenter"",""1"",""1681""
","
","
","""event"",""trial"",""time""
""fullscreenenter"",""1"",""1681""
","
","","","590.2000000476837","","","20","10215","4756","f","elianto","#3366ff99","-1"," ","0","+10","[1441.3999998569489]","1","2","","","10215","51","1","2","win","no-go","1"
"pit-trial","173","1109365","0.0-56.0","battery-v0.2","","""event"",""trial"",""time""
""fullscreenenter"",""1"",""1681""
","
","
","""event"",""trial"",""time""
""fullscreenenter"",""1"",""1681""
","
","","","-1","","","20","10215","4756","b","elianto","#f73b6a7A","-1","-1","1","-10","[]","0","2","","","10215","52","3","4","lose","no-go","1"
"pit-trial","174","1112728","0.0-57.0","battery-v0.2","","""event"",""trial"",""time""
""fullscreenenter"",""1"",""1681""
","
","
","""event"",""trial"",""time""
""fullscreenenter"",""1"",""1681""
","
","","","504.5","","","20","10215","4756","f","elianto","#3366ff99","-1"," ","0","0","[1357.7000000476837]","1","2","","","10215","53","1","2","win","no-go","0"
"pit-trial","175","1116294","0.0-58.0","battery-v0.2","","""event"",""trial"",""time""
""fullscreenenter"",""1"",""1681""
","
","
","""event"",""trial"",""time""
""fullscreenenter"",""1"",""1681""
","
","","","711.2999999523163","","","20","10215","4756","t","elianto","#f73b6a7A"," "," ","1","0","[1561.7000000476837]","1","2","","","10215","54","2","3","lose","go","0"
"pit-trial","176","1121149","0.0-59.0","battery-v0.2","","""event"",""trial"",""time""
""fullscreenenter"",""1"",""1681""
","
","
","""event"",""trial"",""time""
""fullscreenenter"",""1"",""1681""
","
","","","-1","","","20","10215","4756","b","elianto","#f73b6a7A","-1","-1","1","0","[]","0","2","","","10215","55","3","4","lose","no-go","0"
"pit-trial","177","1126008","0.0-60.0","battery-v0.2","","""event"",""trial"",""time""
""fullscreenenter"",""1"",""1681""
","
","
","""event"",""trial"",""time""
""fullscreenenter"",""1"",""1681""
","
","","","-1","","","20","10215","4756","n","elianto","#f73b6a7A"," ","-1","0","-10","[]","0","2","","","10215","56","0","3","lose","go","0"
"pit-trial","178","1129737","0.0-61.0","battery-v0.2","","""event"",""trial"",""time""
""fullscreenenter"",""1"",""1681""
","
","
","""event"",""trial"",""time""
""fullscreenenter"",""1"",""1681""
","
","","","875.3999998569489","","","20","10215","4756","t","elianto","#f73b6a7A"," "," ","1","0","[1724]","1","2","","","10215","57","2","3","lose","go","0"
"pit-trial","179","1134592","0.0-62.0","battery-v0.2","","""event"",""trial"",""time""
""fullscreenenter"",""1"",""1681""
","
","
","""event"",""trial"",""time""
""fullscreenenter"",""1"",""1681""
","
","","","-1","","","20","10215","4756","c","elianto","#3366ff99"," ","-1","0","0","[]","0","2","","","10215","58","4","1","win","go","0"
"pit-trial","180","1139447","0.0-63.0","battery-v0.2","","""event"",""trial"",""time""
""fullscreenenter"",""1"",""1681""
","
","
","""event"",""trial"",""time""
""fullscreenenter"",""1"",""1681""
","
","","","-1","","","20","10215","4756","n","elianto","#f73b6a7A"," ","-1","0","-10","[]","0","2","","","10215","59","0","3","lose","go","0"
"pit-trial","181","1144302","0.0-64.0","battery-v0.2","","""event"",""trial"",""time""
""fullscreenenter"",""1"",""1681""
","
","
","""event"",""trial"",""time""
""fullscreenenter"",""1"",""1681""
","
","","","-1","","","20","10215","4756","b","elianto","#f73b6a7A","-1","-1","1","0","[]","0","2","","","10215","60","3","4","lose","no-go","0"
"pit-trial","182","1149157","0.0-65.0","battery-v0.2","","""event"",""trial"",""time""
""fullscreenenter"",""1"",""1681""
","
","
","""event"",""trial"",""time""
""fullscreenenter"",""1"",""1681""
","
","","","-1","","","20","10215","4756","b","elianto","#f73b6a7A","-1","-1","1","-10","[]","0","2","","","10215","61","3","4","lose","no-go","1"
"pit-trial","183","1154011","0.0-66.0","battery-v0.2","","""event"",""trial"",""time""
""fullscreenenter"",""1"",""1681""
","
","
","""event"",""trial"",""time""
""fullscreenenter"",""1"",""1681""
","
","","","-1","","","20","10215","4756","c","elianto","#3366ff99"," ","-1","0","+10","[]","0","2","","","10215","62","4","1","win","go","1"
"pit-trial","184","1157886","0.0-67.0","battery-v0.2","","""event"",""trial"",""time""
""fullscreenenter"",""1"",""1681""
","
","
","""event"",""trial"",""time""
""fullscreenenter"",""1"",""1681""
","
","","","1020.3999998569489","","","20","10215","4756","f","elianto","#3366ff99","-1"," ","0","0","[1871.5]","1","2","","","10215","63","1","2","win","no-go","0"
"pit-trial","185","1161813","0.0-68.0","battery-v0.2","","""event"",""trial"",""time""
""fullscreenenter"",""1"",""1681""
","
","
","""event"",""trial"",""time""
""fullscreenenter"",""1"",""1681""
","
","","","1071.8000001907349","","","20","10215","4756","t","elianto","#f73b6a7A"," "," ","1","0","[1922.7000000476837]","1","2","","","10215","64","2","3","lose","go","0"
"pit-trial","186","1166669","0.0-69.0","battery-v0.2","","""event"",""trial"",""time""
""fullscreenenter"",""1"",""1681""
","
","
","""event"",""trial"",""time""
""fullscreenenter"",""1"",""1681""
","
","","","-1","","","20","10215","4756","b","elianto","#f73b6a7A","-1","-1","1","0","[]","0","2","","","10215","65","3","4","lose","no-go","0"
"pit-trial","187","1171523","0.0-70.0","battery-v0.2","","""event"",""trial"",""time""
""fullscreenenter"",""1"",""1681""
","
","
","""event"",""trial"",""time""
""fullscreenenter"",""1"",""1681""
","
","","","-1","","","20","10215","4756","c","elianto","#3366ff99"," ","-1","0","0","[]","0","2","","","10215","66","4","1","win","go","0"
"pit-trial","188","1174989","0.0-71.0","battery-v0.2","","""event"",""trial"",""time""
""fullscreenenter"",""1"",""1681""
","
","
","""event"",""trial"",""time""
""fullscreenenter"",""1"",""1681""
","
","","","612.5","","","20","10215","4756","z","elianto","#3366ff99","-1"," ","0","0","[1463.2999999523163]","1","2","","","10215","67","5","2","win","no-go","0"
"pit-trial","189","1178495","0.0-72.0","battery-v0.2","","""event"",""trial"",""time""
""fullscreenenter"",""1"",""1681""
","
","
","""event"",""trial"",""time""
""fullscreenenter"",""1"",""1681""
","
","","","649","","","20","10215","4756","f","elianto","#3366ff99","-1"," ","0","0","[1499.8999998569489]","1","2","","","10215","68","1","2","win","no-go","0"
"pit-trial","190","1183355","0.0-73.0","battery-v0.2","","""event"",""trial"",""time""
""fullscreenenter"",""1"",""1681""
","
","
","""event"",""trial"",""time""
""fullscreenenter"",""1"",""1681""
","
","","","-1","","","20","10215","4756","z","elianto","#3366ff99","-1","-1","1","0","[]","0","2","","","10215","69","5","2","win","no-go","1"
"pit-trial","191","1186820","0.0-74.0","battery-v0.2","","""event"",""trial"",""time""
""fullscreenenter"",""1"",""1681""
","
","
","""event"",""trial"",""time""
""fullscreenenter"",""1"",""1681""
","
","","","610.9000000953674","","","20","10215","4756","f","elianto","#3366ff99","-1"," ","0","0","[1461.2000000476837]","1","2","","","10215","70","1","2","win","no-go","0"
"pit-trial","192","1190266","0.0-75.0","battery-v0.2","","""event"",""trial"",""time""
""fullscreenenter"",""1"",""1681""
","
","
","""event"",""trial"",""time""
""fullscreenenter"",""1"",""1681""
","
","","","590.2999999523163","","","20","10215","4756","t","elianto","#f73b6a7A"," "," ","1","0","[1441]","1","2","","","10215","71","2","3","lose","go","0"
"pit-trial","193","1195121","0.0-76.0","battery-v0.2","","""event"",""trial"",""time""
""fullscreenenter"",""1"",""1681""
","
","
","""event"",""trial"",""time""
""fullscreenenter"",""1"",""1681""
","
","","","-1","","","20","10215","4756","c","elianto","#3366ff99"," ","-1","0","0","[]","0","2","","","10215","72","4","1","win","go","0"
"pit-trial","194","1198601","0.0-77.0","battery-v0.2","","""event"",""trial"",""time""
""fullscreenenter"",""1"",""1681""
","
","
","""event"",""trial"",""time""
""fullscreenenter"",""1"",""1681""
","
","","","624.2999999523163","","","20","10215","4756","z","elianto","#3366ff99","-1"," ","0","+10","[1474.7999999523163]","1","2","","","10215","73","5","2","win","no-go","1"
"pit-trial","195","1202026","0.0-78.0","battery-v0.2","","""event"",""trial"",""time""
""fullscreenenter"",""1"",""1681""
","
","
","""event"",""trial"",""time""
""fullscreenenter"",""1"",""1681""
","
","","","570.5","","","20","10215","4756","f","elianto","#3366ff99","-1"," ","0","+10","[1421.5]","1","2","","","10215","74","1","2","win","no-go","1"
"pit-trial","196","1205661","0.0-79.0","battery-v0.2","","""event"",""trial"",""time""
""fullscreenenter"",""1"",""1681""
","
","
","""event"",""trial"",""time""
""fullscreenenter"",""1"",""1681""
","
","","","779.5","","","20","10215","4756","c","elianto","#3366ff99"," "," ","1","+10","[1630.7000000476837]","1","2","","","10215","75","4","1","win","go","0"
"pit-trial","197","1210518","0.0-80.0","battery-v0.2","","""event"",""trial"",""time""
""fullscreenenter"",""1"",""1681""
","
","
","""event"",""trial"",""time""
""fullscreenenter"",""1"",""1681""
","
","","","-1","","","20","10215","4756","b","elianto","#f73b6a7A","-1","-1","1","0","[]","0","2","","","10215","76","3","4","lose","no-go","0"
"pit-trial","198","1214660","0.0-81.0","battery-v0.2","","""event"",""trial"",""time""
""fullscreenenter"",""1"",""1681""
","
","
","""event"",""trial"",""time""
""fullscreenenter"",""1"",""1681""
","
","","","1286.2000000476837","","","20","10215","4756","c","elianto","#3366ff99"," "," ","1","+10","[2137.2999999523163]","1","2","","","10215","77","4","1","win","go","0"
"pit-trial","199","1219517","0.0-82.0","battery-v0.2","","""event"",""trial"",""time""
""fullscreenenter"",""1"",""1681""
","
","
","""event"",""trial"",""time""
""fullscreenenter"",""1"",""1681""
","
","","","-1","","","20","10215","4756","b","elianto","#f73b6a7A","-1","-1","1","0","[]","0","2","","","10215","78","3","4","lose","no-go","0"
"pit-trial","200","1224370","0.0-83.0","battery-v0.2","","""event"",""trial"",""time""
""fullscreenenter"",""1"",""1681""
","
","
","""event"",""trial"",""time""
""fullscreenenter"",""1"",""1681""
","
","","","-1","","","20","10215","4756","z","elianto","#3366ff99","-1","-1","1","+10","[]","0","2","","","10215","79","5","2","win","no-go","0"
"pit-trial","201","1227852","0.0-84.0","battery-v0.2","","""event"",""trial"",""time""
""fullscreenenter"",""1"",""1681""
","
","
","""event"",""trial"",""time""
""fullscreenenter"",""1"",""1681""
","
","","","628","","","20","10215","4756","c","elianto","#3366ff99"," "," ","1","+10","[1479]","1","2","","","10215","80","4","1","win","go","0"
"pit-trial","202","1232708","0.0-85.0","battery-v0.2","","""event"",""trial"",""time""
""fullscreenenter"",""1"",""1681""
","
","
","""event"",""trial"",""time""
""fullscreenenter"",""1"",""1681""
","
","","","-1","","","20","10215","4756","b","elianto","#f73b6a7A","-1","-1","1","0","[]","0","2","","","10215","81","3","4","lose","no-go","0"
"pit-trial","203","1236496","0.0-86.0","battery-v0.2","","""event"",""trial"",""time""
""fullscreenenter"",""1"",""1681""
","
","
","""event"",""trial"",""time""
""fullscreenenter"",""1"",""1681""
","
","","","931.5999999046326","","","20","10215","4756","c","elianto","#3366ff99"," "," ","1","0","[1782.5999999046326]","1","2","","","10215","82","4","1","win","go","1"
"pit-trial","204","1241350","0.0-87.0","battery-v0.2","","""event"",""trial"",""time""
""fullscreenenter"",""1"",""1681""
","
","
","""event"",""trial"",""time""
""fullscreenenter"",""1"",""1681""
","
","","","-1","","","20","10215","4756","z","elianto","#3366ff99","-1","-1","1","+10","[]","0","2","","","10215","83","5","2","win","no-go","0"
"pit-trial","205","1245352","0.0-88.0","battery-v0.2","","""event"",""trial"",""time""
""fullscreenenter"",""1"",""1681""
","
","
","""event"",""trial"",""time""
""fullscreenenter"",""1"",""1681""
","
","","","1147","","","20","10215","4756","y","elianto","#f73b6a7A","-1"," ","0","-10","[1998.2999999523163]","1","2","","","10215","84","7","4","lose","no-go","0"
"pit-trial","206","1250208","0.0-89.0","battery-v0.2","","""event"",""trial"",""time""
""fullscreenenter"",""1"",""1681""
","
","
","""event"",""trial"",""time""
""fullscreenenter"",""1"",""1681""
","
","","","-1","","","20","10215","4756","h","elianto","#f73b6a7A"," ","-1","0","-10","[]","0","2","","","10215","85","6","3","lose","go","0"
"pit-trial","207","1253784","0.0-90.0","battery-v0.2","","""event"",""trial"",""time""
""fullscreenenter"",""1"",""1681""
","
","
","""event"",""trial"",""time""
""fullscreenenter"",""1"",""1681""
","
","","","720.7999999523163","","","20","10215","4756","y","elianto","#f73b6a7A","-1"," ","0","-10","[1572]","1","2","","","10215","86","7","4","lose","no-go","0"
"pit-trial","208","1257398","0.0-91.0","battery-v0.2","","""event"",""trial"",""time""
""fullscreenenter"",""1"",""1681""
","
","
","""event"",""trial"",""time""
""fullscreenenter"",""1"",""1681""
","
","","","757.2999999523163","","","20","10215","4756","c","elianto","#3366ff99"," "," ","1","0","[1608.5999999046326]","1","2","","","10215","87","4","1","win","go","1"
"pit-trial","209","1260967","0.0-92.0","battery-v0.2","","""event"",""trial"",""time""
""fullscreenenter"",""1"",""1681""
","
","
","""event"",""trial"",""time""
""fullscreenenter"",""1"",""1681""
","
","","","716","","","20","10215","4756","z","elianto","#3366ff99","-1"," ","0","0","[1566.2000000476837]","1","2","","","10215","88","5","2","win","no-go","0"
"pit-trial","210","1264679","0.0-93.0","battery-v0.2","","""event"",""trial"",""time""
""fullscreenenter"",""1"",""1681""
","
","
","""event"",""trial"",""time""
""fullscreenenter"",""1"",""1681""
","
","","","856.0999999046326","","","20","10215","4756","h","elianto","#f73b6a7A"," "," ","1","0","[1706.5,3520.0999999046326]","2","2","","","10215","89","6","3","lose","go","0"
"pit-trial","211","1269533","0.0-94.0","battery-v0.2","","""event"",""trial"",""time""
""fullscreenenter"",""1"",""1681""
","
","
","""event"",""trial"",""time""
""fullscreenenter"",""1"",""1681""
","
","","","-1","","","20","10215","4756","y","elianto","#f73b6a7A","-1","-1","1","0","[]","0","2","","","10215","90","7","4","lose","no-go","0"
"pit-trial","212","1273344","0.0-95.0","battery-v0.2","","""event"",""trial"",""time""
""fullscreenenter"",""1"",""1681""
","
","
","""event"",""trial"",""time""
""fullscreenenter"",""1"",""1681""
","
","","","957.1000001430511","","","20","10215","4756","z","elianto","#3366ff99","-1"," ","0","0","[1807.9000000953674]","1","2","","","10215","91","5","2","win","no-go","0"
"pit-trial","213","1276882","0.0-96.0","battery-v0.2","","""event"",""trial"",""time""
""fullscreenenter"",""1"",""1681""
","
","
","""event"",""trial"",""time""
""fullscreenenter"",""1"",""1681""
","
","","","682.2999999523163","","","20","10215","4756","c","elianto","#3366ff99"," "," ","1","0","[1532.7999999523163]","1","2","","","10215","92","4","1","win","go","1"
"pit-trial","214","1280606","0.0-97.0","battery-v0.2","","""event"",""trial"",""time""
""fullscreenenter"",""1"",""1681""
","
","
","""event"",""trial"",""time""
""fullscreenenter"",""1"",""1681""
","
","","","867.2000000476837","","","20","10215","4756","r","elianto","#3366ff99"," "," ","1","+10","[1718.7999999523163]","1","2","","","10215","93","8","1","win","go","0"
"pit-trial","215","1285461","0.0-98.0","battery-v0.2","","""event"",""trial"",""time""
""fullscreenenter"",""1"",""1681""
","
","
","""event"",""trial"",""time""
""fullscreenenter"",""1"",""1681""
","
","","","-1","","","20","10215","4756","z","elianto","#3366ff99","-1","-1","1","+10","[]","0","2","","","10215","94","5","2","win","no-go","0"
"pit-trial","216","1289312","0.0-99.0","battery-v0.2","","""event"",""trial"",""time""
""fullscreenenter"",""1"",""1681""
","
","
","""event"",""trial"",""time""
""fullscreenenter"",""1"",""1681""
","
","","","995.2000000476837","","","20","10215","4756","h","elianto","#f73b6a7A"," "," ","1","0","[1845.5999999046326]","1","2","","","10215","95","6","3","lose","go","0"
"pit-trial","217","1292801","0.0-100.0","battery-v0.2","","""event"",""trial"",""time""
""fullscreenenter"",""1"",""1681""
","
","
","""event"",""trial"",""time""
""fullscreenenter"",""1"",""1681""
","
","","","635","","","20","10215","4756","y","elianto","#f73b6a7A","-1"," ","0","0","[1485.2000000476837]","1","2","","","10215","96","7","4","lose","no-go","1"
"pit-trial","218","1296517","0.0-101.0","battery-v0.2","","""event"",""trial"",""time""
""fullscreenenter"",""1"",""1681""
","
","
","""event"",""trial"",""time""
""fullscreenenter"",""1"",""1681""
","
","","","861.7000000476837","","","20","10215","4756","r","elianto","#3366ff99"," "," ","1","+10","[1712.5999999046326]","1","2","","","10215","97","8","1","win","go","0"
"pit-trial","219","1300366","0.0-102.0","battery-v0.2","","""event"",""trial"",""time""
""fullscreenenter"",""1"",""1681""
","
","
","""event"",""trial"",""time""
""fullscreenenter"",""1"",""1681""
","
","","","992.7999999523163","","","20","10215","4756","z","elianto","#3366ff99","-1"," ","0","0","[1843.7999999523163]","1","2","","","10215","98","5","2","win","no-go","0"
"pit-trial","220","1303977","0.0-103.0","battery-v0.2","","""event"",""trial"",""time""
""fullscreenenter"",""1"",""1681""
","
","
","""event"",""trial"",""time""
""fullscreenenter"",""1"",""1681""
","
","","","756.1000001430511","","","20","10215","4756","h","elianto","#f73b6a7A"," "," ","1","-10","[1607.1000001430511]","1","2","","","10215","99","6","3","lose","go","1"
"pit-trial","221","1308833","0.0-104.0","battery-v0.2","","""event"",""trial"",""time""
""fullscreenenter"",""1"",""1681""
","
","
","""event"",""trial"",""time""
""fullscreenenter"",""1"",""1681""
","
","","","-1","","","20","10215","4756","y","elianto","#f73b6a7A","-1","-1","1","0","[]","0","2","","","10215","100","7","4","lose","no-go","0"
"pit-trial","222","1312557","0.0-105.0","battery-v0.2","","""event"",""trial"",""time""
""fullscreenenter"",""1"",""1681""
","
","
","""event"",""trial"",""time""
""fullscreenenter"",""1"",""1681""
","
","","","869.8000001907349","","","20","10215","4756","m","elianto","#3366ff99"," "," ","1","0","[1720.1000001430511]","1","2","","","10215","101","9","1","win","go","1"
"pit-trial","223","1316038","0.0-106.0","battery-v0.2","","""event"",""trial"",""time""
""fullscreenenter"",""1"",""1681""
","
","
","""event"",""trial"",""time""
""fullscreenenter"",""1"",""1681""
","
","","","626.7999999523163","","","20","10215","4756","r","elianto","#3366ff99"," "," ","1","+10","[1477.7000000476837]","1","2","","","10215","102","8","1","win","go","0"
"pit-trial","224","1319477","0.0-107.0","battery-v0.2","","""event"",""trial"",""time""
""fullscreenenter"",""1"",""1681""
","
","
","""event"",""trial"",""time""
""fullscreenenter"",""1"",""1681""
","
","","","584","","","20","10215","4756","z","elianto","#3366ff99","-1"," ","0","0","[1435]","1","2","","","10215","103","5","2","win","no-go","0"
"pit-trial","225","1324333","0.0-108.0","battery-v0.2","","""event"",""trial"",""time""
""fullscreenenter"",""1"",""1681""
","
","
","""event"",""trial"",""time""
""fullscreenenter"",""1"",""1681""
","
","","","-1","","","20","10215","4756","y","elianto","#f73b6a7A","-1","-1","1","0","[4410.099999904633]","1","2","","","10215","104","7","4","lose","no-go","0"
"pit-trial","226","1329188","0.0-109.0","battery-v0.2","","""event"",""trial"",""time""
""fullscreenenter"",""1"",""1681""
","
","
","""event"",""trial"",""time""
""fullscreenenter"",""1"",""1681""
","
","","","-1","","","20","10215","4756","h","elianto","#f73b6a7A"," ","-1","0","-10","[]","0","2","","","10215","105","6","3","lose","go","0"
"pit-trial","227","1332986","0.0-110.0","battery-v0.2","","""event"",""trial"",""time""
""fullscreenenter"",""1"",""1681""
","
","
","""event"",""trial"",""time""
""fullscreenenter"",""1"",""1681""
","
","","","941.7999999523163","","","20","10215","4756","r","elianto","#3366ff99"," "," ","1","+10","[1792.2000000476837]","1","2","","","10215","106","8","1","win","go","0"
"pit-trial","228","1337045","0.0-111.0","battery-v0.2","","""event"",""trial"",""time""
""fullscreenenter"",""1"",""1681""
","
","
","""event"",""trial"",""time""
""fullscreenenter"",""1"",""1681""
","
","","","1204.0999999046326","","","20","10215","4756","c","elianto","#3366ff99"," "," ","1","+10","[2055]","1","2","","","10215","107","4","1","win","go","0"
"pit-trial","229","1340598","0.0-112.0","battery-v0.2","","""event"",""trial"",""time""
""fullscreenenter"",""1"",""1681""
","
","
","""event"",""trial"",""time""
""fullscreenenter"",""1"",""1681""
","
","","","695.5","","","20","10215","4756","m","elianto","#3366ff99"," "," ","1","+10","[1547.2000000476837]","1","2","","","10215","108","9","1","win","go","0"
"pit-trial","230","1345454","0.0-113.0","battery-v0.2","","""event"",""trial"",""time""
""fullscreenenter"",""1"",""1681""
","
","
","""event"",""trial"",""time""
""fullscreenenter"",""1"",""1681""
","
","","","-1","","","20","10215","4756","h","elianto","#f73b6a7A"," ","-1","0","0","[]","0","2","","","10215","109","6","3","lose","go","1"
"pit-trial","231","1349388","0.0-114.0","battery-v0.2","","""event"",""trial"",""time""
""fullscreenenter"",""1"",""1681""
","
","
","""event"",""trial"",""time""
""fullscreenenter"",""1"",""1681""
","
","","","1078.6000001430511","","","20","10215","4756","z","elianto","#3366ff99","-1"," ","0","+10","[1929.7000000476837]","1","2","","","10215","110","5","2","win","no-go","1"
"pit-trial","232","1353109","0.0-115.0","battery-v0.2","","""event"",""trial"",""time""
""fullscreenenter"",""1"",""1681""
","
","
","""event"",""trial"",""time""
""fullscreenenter"",""1"",""1681""
","
","","","864.5999999046326","","","20","10215","4756","r","elianto","#3366ff99"," "," ","1","+10","[1715.2000000476837]","1","2","","","10215","111","8","1","win","go","0"
"pit-trial","233","1357266","0.0-116.0","battery-v0.2","","""event"",""trial"",""time""
""fullscreenenter"",""1"",""1681""
","
","
","""event"",""trial"",""time""
""fullscreenenter"",""1"",""1681""
","
","","","1303","","","20","10215","4756","m","elianto","#3366ff99"," "," ","1","+10","[2153.2000000476837]","1","2","","","10215","112","9","1","win","go","0"
"pit-trial","234","1360814","0.0-117.0","battery-v0.2","","""event"",""trial"",""time""
""fullscreenenter"",""1"",""1681""
","
","
","""event"",""trial"",""time""
""fullscreenenter"",""1"",""1681""
","
","","","693.2000000476837","","","20","10215","4756","m","elianto","#3366ff99"," "," ","1","+10","[1543.7999999523163]","1","2","","","10215","113","9","1","win","go","0"
"pit-trial","235","1365685","0.0-118.0","battery-v0.2","","""event"",""trial"",""time""
""fullscreenenter"",""1"",""1681""
","
","
","""event"",""trial"",""time""
""fullscreenenter"",""1"",""1681""
","
","","","-1","","","20","10215","4756","h","elianto","#f73b6a7A"," ","-1","0","-10","[]","0","2","","","10215","114","6","3","lose","go","0"
"pit-trial","236","1369338","0.0-119.0","battery-v0.2","","""event"",""trial"",""time""
""fullscreenenter"",""1"",""1681""
","
","
","""event"",""trial"",""time""
""fullscreenenter"",""1"",""1681""
","
","","","798.5","","","20","10215","4756","z","elianto","#3366ff99","-1"," ","0","+10","[1649.0999999046326]","1","2","","","10215","115","5","2","win","no-go","1"
"pit-trial","237","1372933","0.0-120.0","battery-v0.2","","""event"",""trial"",""time""
""fullscreenenter"",""1"",""1681""
","
","
","""event"",""trial"",""time""
""fullscreenenter"",""1"",""1681""
","
","","","740.7000000476837","","","20","10215","4756","r","elianto","#3366ff99"," "," ","1","+10","[1590.7000000476837]","1","2","","","10215","116","8","1","win","go","0"
"pit-trial","238","1376390","0.0-121.0","battery-v0.2","","""event"",""trial"",""time""
""fullscreenenter"",""1"",""1681""
","
","
","""event"",""trial"",""time""
""fullscreenenter"",""1"",""1681""
","
","","","600","","","20","10215","4756","z","elianto","#3366ff99","-1"," ","0","0","[1451.9000000953674]","1","2","","","10215","117","5","2","win","no-go","0"
"pit-trial","239","1379815","0.0-122.0","battery-v0.2","","""event"",""trial"",""time""
""fullscreenenter"",""1"",""1681""
","
","
","""event"",""trial"",""time""
""fullscreenenter"",""1"",""1681""
","
","","","571.3999998569489","","","20","10215","4756","m","elianto","#3366ff99"," "," ","1","+10","[1421.7999999523163]","1","2","","","10215","118","9","1","win","go","0"
"pit-trial","240","1383369","0.0-123.0","battery-v0.2","","""event"",""trial"",""time""
""fullscreenenter"",""1"",""1681""
","
","
","""event"",""trial"",""time""
""fullscreenenter"",""1"",""1681""
","
","","","697.7000000476837","","","20","10215","4756","r","elianto","#3366ff99"," "," ","1","0","[1548.0999999046326]","1","2","","","10215","119","8","1","win","go","1"
"pit-trial","241","1386958","0.0-124.0","battery-v0.2","","""event"",""trial"",""time""
""fullscreenenter"",""1"",""1681""
","
","
","""event"",""trial"",""time""
""fullscreenenter"",""1"",""1681""
","
","","","732.1999998092651","","","20","10215","4756","h","elianto","#f73b6a7A"," "," ","1","0","[1582.5999999046326]","1","2","","","10215","120","6","3","lose","go","0"
"pit-trial","242","1390490","0.0-125.0","battery-v0.2","","""event"",""trial"",""time""
""fullscreenenter"",""1"",""1681""
","
","
","""event"",""trial"",""time""
""fullscreenenter"",""1"",""1681""
","
","","","677.3999998569489","","","20","10215","4756","m","elianto","#3366ff99"," "," ","1","+10","[1527.7999999523163]","1","2","","","10215","121","9","1","win","go","0"
"pit-trial","243","1395345","0.0-126.0","battery-v0.2","","""event"",""trial"",""time""
""fullscreenenter"",""1"",""1681""
","
","
","""event"",""trial"",""time""
""fullscreenenter"",""1"",""1681""
","
","","","-1","","","20","10215","4756","h","elianto","#f73b6a7A"," ","-1","0","-10","[]","0","2","","","10215","122","6","3","lose","go","0"
"pit-trial","244","1398823","0.0-127.0","battery-v0.2","","""event"",""trial"",""time""
""fullscreenenter"",""1"",""1681""
","
","
","""event"",""trial"",""time""
""fullscreenenter"",""1"",""1681""
","
","","","620.7000000476837","","","20","10215","4756","r","elianto","#3366ff99"," "," ","1","0","[1472.5]","1","2","","","10215","123","8","1","win","go","1"
"pit-trial","245","1402330","0.0-128.0","battery-v0.2","","""event"",""trial"",""time""
""fullscreenenter"",""1"",""1681""
","
","
","""event"",""trial"",""time""
""fullscreenenter"",""1"",""1681""
","
","","","653.5","","","20","10215","4756","y","elianto","#f73b6a7A","-1"," ","0","-10","[1504.1999998092651]","1","2","","","10215","124","7","4","lose","no-go","0"
"pit-trial","246","1406358","0.0-129.0","battery-v0.2","","""event"",""trial"",""time""
""fullscreenenter"",""1"",""1681""
","
","
","""event"",""trial"",""time""
""fullscreenenter"",""1"",""1681""
","
","","","1171.7000000476837","","","20","10215","4756","h","elianto","#f73b6a7A"," "," ","1","0","[2021.7999999523163]","1","2","","","10215","125","6","3","lose","go","0"
"pit-trial","247","1410293","0.0-130.0","battery-v0.2","","""event"",""trial"",""time""
""fullscreenenter"",""1"",""1681""
","
","
","""event"",""trial"",""time""
""fullscreenenter"",""1"",""1681""
","
","","","1079.7000000476837","","","20","10215","4756","r","elianto","#3366ff99"," "," ","1","+10","[1931.3000001907349]","1","2","","","10215","126","8","1","win","go","0"
"pit-trial","248","1413770","0.0-131.0","battery-v0.2","","""event"",""trial"",""time""
""fullscreenenter"",""1"",""1681""
","
","
","""event"",""trial"",""time""
""fullscreenenter"",""1"",""1681""
","
","","","620.7999999523163","","","20","10215","4756","m","elianto","#3366ff99"," "," ","1","0","[1472.5]","1","2","","","10215","127","9","1","win","go","1"
"pit-trial","249","1418626","0.0-132.0","battery-v0.2","","""event"",""trial"",""time""
""fullscreenenter"",""1"",""1681""
","
","
","""event"",""trial"",""time""
""fullscreenenter"",""1"",""1681""
","
","","","-1","","","20","10215","4756","y","elianto","#f73b6a7A","-1","-1","1","0","[]","0","2","","","10215","128","7","4","lose","no-go","0"
"pit-trial","250","1422076","0.0-133.0","battery-v0.2","","""event"",""trial"",""time""
""fullscreenenter"",""1"",""1681""
","
","
","""event"",""trial"",""time""
""fullscreenenter"",""1"",""1681""
","
","","","593.3999998569489","","","20","10215","4756","m","elianto","#3366ff99"," "," ","1","+10","[1444.7999999523163]","1","2","","","10215","129","9","1","win","go","0"
"pit-trial","251","1426930","0.0-134.0","battery-v0.2","","""event"",""trial"",""time""
""fullscreenenter"",""1"",""1681""
","
","
","""event"",""trial"",""time""
""fullscreenenter"",""1"",""1681""
","
","","","-1","","","20","10215","4756","y","elianto","#f73b6a7A","-1","-1","1","0","[]","0","2","","","10215","130","7","4","lose","no-go","0"
"pit-trial","252","1430689","0.0-135.0","battery-v0.2","","""event"",""trial"",""time""
""fullscreenenter"",""1"",""1681""
","
","
","""event"",""trial"",""time""
""fullscreenenter"",""1"",""1681""
","
","","","896.3999998569489","","","20","10215","4756","h","elianto","#f73b6a7A"," "," ","1","0","[1751.1000001430511]","1","2","","","10215","131","6","3","lose","go","0"
"pit-trial","253","1434349","0.0-136.0","battery-v0.2","","""event"",""trial"",""time""
""fullscreenenter"",""1"",""1681""
","
","
","""event"",""trial"",""time""
""fullscreenenter"",""1"",""1681""
","
","","","802.7000000476837","","","20","10215","4756","r","elianto","#3366ff99"," "," ","1","+10","[1653.9000000953674]","1","2","","","10215","132","8","1","win","go","0"
"pit-trial","254","1438209","0.0-137.0","battery-v0.2","","""event"",""trial"",""time""
""fullscreenenter"",""1"",""1681""
","
","
","""event"",""trial"",""time""
""fullscreenenter"",""1"",""1681""
","
","","","1007.0999999046326","","","20","10215","4756","h","elianto","#f73b6a7A"," "," ","1","0","[1857.4000000953674]","1","2","","","10215","133","6","3","lose","go","0"
"pit-trial","255","1441715","0.0-138.0","battery-v0.2","","""event"",""trial"",""time""
""fullscreenenter"",""1"",""1681""
","
","
","""event"",""trial"",""time""
""fullscreenenter"",""1"",""1681""
","
","","","650.3999998569489","","","20","10215","4756","r","elianto","#3366ff99"," "," ","1","+10","[1502.2999999523163]","1","2","","","10215","134","8","1","win","go","0"
"pit-trial","256","1446572","0.0-139.0","battery-v0.2","","""event"",""trial"",""time""
""fullscreenenter"",""1"",""1681""
","
","
","""event"",""trial"",""time""
""fullscreenenter"",""1"",""1681""
","
","","","-1","","","20","10215","4756","y","elianto","#f73b6a7A","-1","-1","1","-10","[]","0","2","","","10215","135","7","4","lose","no-go","1"
"pit-trial","257","1450379","0.0-140.0","battery-v0.2","","""event"",""trial"",""time""
""fullscreenenter"",""1"",""1681""
","
","
","""event"",""trial"",""time""
""fullscreenenter"",""1"",""1681""
","
","","","953.4000000953674","","","20","10215","4756","m","elianto","#3366ff99"," "," ","1","0","[1804.5]","1","2","","","10215","136","9","1","win","go","1"
"pit-trial","258","1454075","0.0-141.0","battery-v0.2","","""event"",""trial"",""time""
""fullscreenenter"",""1"",""1681""
","
","
","""event"",""trial"",""time""
""fullscreenenter"",""1"",""1681""
","
","","","841.9000000953674","","","20","10215","4756","h","elianto","#f73b6a7A"," "," ","1","0","[1692.2999999523163]","1","2","","","10215","137","6","3","lose","go","0"
"pit-trial","259","1457554","0.0-142.0","battery-v0.2","","""event"",""trial"",""time""
""fullscreenenter"",""1"",""1681""
","
","
","""event"",""trial"",""time""
""fullscreenenter"",""1"",""1681""
","
","","","623.7000000476837","","","20","10215","4756","r","elianto","#3366ff99"," "," ","1","+10","[1475]","1","2","","","10215","138","8","1","win","go","0"
"pit-trial","260","1460876","0.0-143.0","battery-v0.2","","""event"",""trial"",""time""
""fullscreenenter"",""1"",""1681""
","
","
","""event"",""trial"",""time""
""fullscreenenter"",""1"",""1681""
","
","","","466.10000014305115","","","20","10215","4756","m","elianto","#3366ff99"," "," ","1","+10","[1318.1000001430511]","1","2","","","10215","139","9","1","win","go","0"
"pit-trial","261","1464517","0.0-144.0","battery-v0.2","","""event"",""trial"",""time""
""fullscreenenter"",""1"",""1681""
","
","
","""event"",""trial"",""time""
""fullscreenenter"",""1"",""1681""
","
","","","786.7000000476837","","","20","10215","4756","y","elianto","#f73b6a7A","-1"," ","0","0","[1638.3000001907349]","1","2","","","10215","140","7","4","lose","no-go","1"
"pit-instructions","262","1610117","0.0-145.0","battery-v0.2","","""event"",""trial"",""time""
""fullscreenenter"",""1"",""1681""
","
","
","""event"",""trial"",""time""
""fullscreenenter"",""1"",""1681""
","
","","[{""page_index"":0,""viewing_time"":136413.5},{""page_index"":1,""viewing_time"":9182.200000047684}]","145596.10000014305","","","","","","","","","","","","","","","","","","","","","","","",""
"pit-trial","263","1613795","0.0-146.0","battery-v0.2","","""event"",""trial"",""time""
""fullscreenenter"",""1"",""1681""
","
","
","""event"",""trial"",""time""
""fullscreenenter"",""1"",""1681""
","
","","","798.5","","","20","10215","4756","a","elianto","#f73b6a7A","-1"," ","0","-10","[1660.0999999046326]","1","3","","","10215","141","2","4","lose","no-go","0"
"pit-trial","264","1617546","0.0-147.0","battery-v0.2","","""event"",""trial"",""time""
""fullscreenenter"",""1"",""1681""
","
","
","""event"",""trial"",""time""
""fullscreenenter"",""1"",""1681""
","
","","","891.4000000953674","","","20","10215","4756","l","elianto","#3366ff99"," "," ","1","+10","[1741.5999999046326]","1","3","","","10215","142","1","1","win","go","0"
"pit-trial","265","1621210","0.0-148.0","battery-v0.2","","""event"",""trial"",""time""
""fullscreenenter"",""1"",""1681""
","
","
","""event"",""trial"",""time""
""fullscreenenter"",""1"",""1681""
","
","","","795.1000001430511","","","20","10215","4756","u","elianto","#f73b6a7A","-1"," ","0","-10","[1646.4000000953674]","1","3","","","10215","143","0","4","lose","no-go","0"
"pit-trial","266","1625199","0.0-149.0","battery-v0.2","","""event"",""trial"",""time""
""fullscreenenter"",""1"",""1681""
","
","
","""event"",""trial"",""time""
""fullscreenenter"",""1"",""1681""
","
","","","1128.8000001907349","","","20","10215","4756","g","elianto","#f73b6a7A"," "," ","1","0","[1979]","1","3","","","10215","144","3","3","lose","go","0"
