"trial_type","trial_index","time_elapsed","internal_node_id","task_version","subject_id","interactions","blur_events","focus_events","fullscreenenter_events","fullscreenexit_events","success","view_history","rt","responses","num_errors","age","subject","participantId","rune","rune_set","hex","correct","choice","accuracy","outcome","keys","total_keys","block","practice","value","sub","trial","stimulus","robot","valence","action","sham"
"pavlovia","0","39","0.0-0.0","battery-v0.2","","""event"",""trial"",""time""
""fullscreenenter"",""1"",""2137""
","
","
","""event"",""trial"",""time""
""fullscreenenter"",""1"",""2137""
","
","","","","","","","","","","","","","","","","","","","","","","","","","","",""
"fullscreen","1","3062","0.0-1.0","battery-v0.2","","""event"",""trial"",""time""
""fullscreenenter"",""1"",""2137""
","
","
","""event"",""trial"",""time""
""fullscreenenter"",""1"",""2137""
","
","true","","","","","","","","","","","","","","","","","","","","","","","","","",""
"pit-instructions","2","8623","0.0-2.0-0.0","battery-v0.2","","""event"",""trial"",""time""
""fullscreenenter"",""1"",""2137""
","
","
","""event"",""trial"",""time""
""fullscreenenter"",""1"",""2137""
","
","","[{""page_index"":0,""viewing_time"":5546.699999999255}]","5548.0999999996275","","","","","","","","","","","","","","","","","","","","","","","",""
"pit-comprehension","3","12280","0.0-2.0-1.0-0.0","battery-v0.2","","""event"",""trial"",""time""
""fullscreenenter"",""1"",""2137""
","
","
","""event"",""trial"",""time""
""fullscreenenter"",""1"",""2137""
","
","","","3640.399999999441","[""shark""]","0","11","15546","6223","","","","","","","","","","","","","","","","","","",""
"pit-instructions","4","17072","0.0-2.0-1.0-1.0","battery-v0.2","","""event"",""trial"",""time""
""fullscreenenter"",""1"",""2137""
","
","
","""event"",""trial"",""time""
""fullscreenenter"",""1"",""2137""
","
","","[{""page_index"":0,""viewing_time"":4755}]","4756.5999999996275","","","","","","","","","","","","","","","","","","","","","","","",""
"pit-comprehension","5","19903","0.0-2.0-2.0-0.0","battery-v0.2","","""event"",""trial"",""time""
""fullscreenenter"",""1"",""2137""
","
","
","""event"",""trial"",""time""
""fullscreenenter"",""1"",""2137""
","
","","","2814.0999999996275","[""tiger""]","0","11","15546","6223","","","","","","","","","","","","","","","","","","",""
"pit-instructions","6","20765","0.0-2.0-2.0-1.0","battery-v0.2","","""event"",""trial"",""time""
""fullscreenenter"",""1"",""2137""
","
","
","""event"",""trial"",""time""
""fullscreenenter"",""1"",""2137""
","
","","[{""page_index"":0,""viewing_time"":853.6000000005588}]","854.6000000005588","","","","","","","","","","","","","","","","","","","","","","","",""
"pit-instructions","7","126311","0.0-2.0-3.0","battery-v0.2","","""event"",""trial"",""time""
""fullscreenenter"",""1"",""2137""
","
","
","""event"",""trial"",""time""
""fullscreenenter"",""1"",""2137""
","
","","[{""page_index"":0,""viewing_time"":7504.4000000003725},{""page_index"":1,""viewing_time"":7230.5999999996275},{""page_index"":2,""viewing_time"":10413},{""page_index"":3,""viewing_time"":5470.9000000003725},{""page_index"":4,""viewing_time"":5884.299999999814},{""page_index"":5,""viewing_time"":6169},{""page_index"":6,""viewing_time"":7455.799999999814},{""page_index"":7,""viewing_time"":8743.5},{""page_index"":8,""viewing_time"":6699.100000000559},{""page_index"":9,""viewing_time"":8920},{""page_index"":10,""viewing_time"":8045.700000000186},{""page_index"":11,""viewing_time"":8153.0999999996275},{""page_index"":12,""viewing_time"":7319.200000000186},{""page_index"":13,""viewing_time"":7525.700000000186}]","105535","","","","","","","","","","","","","","","","","","","","","","","",""
"pit-trial","8","130258","0.0-2.0-4.0-0.0","battery-v0.2","","""event"",""trial"",""time""
""fullscreenenter"",""1"",""2137""
","
","
","""event"",""trial"",""time""
""fullscreenenter"",""1"",""2137""
","
","","","1089.1000000005588","","","11","15546","6223","&#9784;","elianto","#FFFFF080"," "," ","1","&#10004","[1939.5]","1","0","0","","","","","","","",""
"pit-trial","9","135013","0.0-2.0-4.1-0.1","battery-v0.2","","""event"",""trial"",""time""
""fullscreenenter"",""1"",""2137""
","
","
","""event"",""trial"",""time""
""fullscreenenter"",""1"",""2137""
","
","","","1892","","","11","15546","6223","&#9784;","elianto","#FFFFF080"," "," ","1","&#10004","[2744.7000000001863]","1","0","0","","","","","","","",""
"pit-trial","10","138304","0.0-2.0-4.2-0.2","battery-v0.2","","""event"",""trial"",""time""
""fullscreenenter"",""1"",""2137""
","
","
","""event"",""trial"",""time""
""fullscreenenter"",""1"",""2137""
","
","","","435.20000000018626","","","11","15546","6223","&#9784;","elianto","#FFFFF080"," "," ","1","&#10004","[1285.2000000001863]","1","0","0","","","","","","","",""
"pit-trial","11","141570","0.0-2.0-4.3-0.3","battery-v0.2","","""event"",""trial"",""time""
""fullscreenenter"",""1"",""2137""
","
","
","""event"",""trial"",""time""
""fullscreenenter"",""1"",""2137""
","
","","","409.3999999994412","","","11","15546","6223","&#9784;","elianto","#FFFFF080"," "," ","1","&#10004","[1259.5999999996275]","1","0","0","","","","","","","",""
"pit-trial","12","144616","0.0-2.0-4.4-0.4","battery-v0.2","","""event"",""trial"",""time""
""fullscreenenter"",""1"",""2137""
","
","
","""event"",""trial"",""time""
""fullscreenenter"",""1"",""2137""
","
","","","188.79999999981374","","","11","15546","6223","&#9784;","elianto","#FFFFF080"," "," ","1","&#10004","[1039]","1","0","0","","","","","","","",""
"pit-instructions","13","168917","0.0-2.0-5.0","battery-v0.2","","""event"",""trial"",""time""
""fullscreenenter"",""1"",""2137""
","
","
","""event"",""trial"",""time""
""fullscreenenter"",""1"",""2137""
","
","","[{""page_index"":0,""viewing_time"":4953.5},{""page_index"":1,""viewing_time"":8058},{""page_index"":2,""viewing_time"":5835.300000000745},{""page_index"":3,""viewing_time"":5446.5}]","24294.200000000186","","","","","","","","","","","","","","","","","","","","","","","",""
"pit-trial","14","173774","0.0-2.0-6.0-0.0","battery-v0.2","","""event"",""trial"",""time""
""fullscreenenter"",""1"",""2137""
","
","
","""event"",""trial"",""time""
""fullscreenenter"",""1"",""2137""
","
","","","-1","","","11","15546","6223","&#9854;","elianto","#FFFFF080","-1","-1","1","&#10004","[]","0","0","1","","","","","","","",""
"pit-trial","15","178632","0.0-2.0-6.1-0.1","battery-v0.2","","""event"",""trial"",""time""
""fullscreenenter"",""1"",""2137""
","
","
","""event"",""trial"",""time""
""fullscreenenter"",""1"",""2137""
","
","","","-1","","","11","15546","6223","&#9854;","elianto","#FFFFF080","-1","-1","1","&#10004","[]","0","0","1","","","","","","","",""
"pit-trial","16","183489","0.0-2.0-6.2-0.2","battery-v0.2","","""event"",""trial"",""time""
""fullscreenenter"",""1"",""2137""
","
","
","""event"",""trial"",""time""
""fullscreenenter"",""1"",""2137""
","
","","","-1","","","11","15546","6223","&#9854;","elianto","#FFFFF080","-1","-1","1","&#10004","[]","0","0","1","","","","","","","",""
"pit-trial","17","188346","0.0-2.0-6.3-0.3","battery-v0.2","","""event"",""trial"",""time""
""fullscreenenter"",""1"",""2137""
","
","
","""event"",""trial"",""time""
""fullscreenenter"",""1"",""2137""
","
","","","-1","","","11","15546","6223","&#9854;","elianto","#FFFFF080","-1","-1","1","&#10004","[]","0","0","1","","","","","","","",""
"pit-trial","18","193203","0.0-2.0-6.4-0.4","battery-v0.2","","""event"",""trial"",""time""
""fullscreenenter"",""1"",""2137""
","
","
","""event"",""trial"",""time""
""fullscreenenter"",""1"",""2137""
","
","","","-1","","","11","15546","6223","&#9854;","elianto","#FFFFF080","-1","-1","1","&#10004","[]","0","0","1","","","","","","","",""
"pit-instructions","19","328511","0.0-2.0-7.0","battery-v0.2","","""event"",""trial"",""time""
""fullscreenenter"",""1"",""2137""
","
","
","""event"",""trial"",""time""
""fullscreenenter"",""1"",""2137""
","
","","[{""page_index"":0,""viewing_time"":5859.700000000186},{""page_index"":1,""viewing_time"":7734.799999999814},{""page_index"":2,""viewing_time"":8179.100000000559},{""page_index"":3,""viewing_time"":7895.200000000186},{""page_index"":4,""viewing_time"":7249.699999999255},{""page_index"":5,""viewing_time"":5520.4000000003725},{""page_index"":6,""viewing_time"":7547.799999999814},{""page_index"":7,""viewing_time"":8505.400000000373},{""page_index"":8,""viewing_time"":7212.700000000186},{""page_index"":9,""viewing_time"":9236.299999999814},{""page_index"":10,""viewing_time"":8922.5},{""page_index"":11,""viewing_time"":5187.5999999996275},{""page_index"":12,""viewing_time"":8754},{""page_index"":13,""viewing_time"":8203.700000000186},{""page_index"":14,""viewing_time"":9912.5},{""page_index"":15,""viewing_time"":6054.299999999814},{""page_index"":16,""viewing_time"":7238.100000000559},{""page_index"":17,""viewing_time"":6082.5999999996275}]","135297.80000000075","","","","","","","","","","","","","","","","","","","","","","","",""
"pit-trial","20","331816","0.0-2.0-8.0-0.0","battery-v0.2","","""event"",""trial"",""time""
""fullscreenenter"",""1"",""2137""
","
","
","""event"",""trial"",""time""
""fullscreenenter"",""1"",""2137""
","
","","","447.19999999925494","","","11","15546","6223","&#9776;","elianto","#3366ff99"," "," ","1","+10","[1297.0999999996275]","1","0","1","","","","","","","",""
"pit-trial","21","335268","0.0-2.0-8.0-1.0","battery-v0.2","","""event"",""trial"",""time""
""fullscreenenter"",""1"",""2137""
","
","
","""event"",""trial"",""time""
""fullscreenenter"",""1"",""2137""
","
","","","591.5","","","11","15546","6223","&#9776;","elianto","#3366ff99"," "," ","1","+10","[1445.5999999996275]","1","0","1","","","","","","","",""
"pit-trial","22","338137","0.0-2.0-8.0-2.0","battery-v0.2","","""event"",""trial"",""time""
""fullscreenenter"",""1"",""2137""
","
","
","""event"",""trial"",""time""
""fullscreenenter"",""1"",""2137""
","
","","","12.900000000372529","","","11","15546","6223","&#9776;","elianto","#3366ff99"," "," ","1","+10","[863.0999999996275]","1","0","1","","","","","","","",""
"pit-trial","23","341416","0.0-2.0-8.0-3.0","battery-v0.2","","""event"",""trial"",""time""
""fullscreenenter"",""1"",""2137""
","
","
","""event"",""trial"",""time""
""fullscreenenter"",""1"",""2137""
","
","","","421.80000000074506","","","11","15546","6223","&#9776;","elianto","#3366ff99"," "," ","1","0","[1272]","1","0","1","","","","","","","",""
"pit-trial","24","344751","0.0-2.0-8.0-4.0","battery-v0.2","","""event"",""trial"",""time""
""fullscreenenter"",""1"",""2137""
","
","
","""event"",""trial"",""time""
""fullscreenenter"",""1"",""2137""
","
","","","475.59999999962747","","","11","15546","6223","&#9776;","elianto","#3366ff99"," "," ","1","+10","[1329.6000000005588]","1","0","1","","","","","","","",""
"pit-trial","25","347866","0.0-2.0-8.1-0.1","battery-v0.2","","""event"",""trial"",""time""
""fullscreenenter"",""1"",""2137""
","
","
","""event"",""trial"",""time""
""fullscreenenter"",""1"",""2137""
","
","","","256.1000000005588","","","11","15546","6223","&#9776;","elianto","#3366ff99"," "," ","1","+10","[1106.4000000003725]","1","0","1","","","","","","","",""
"pit-trial","26","351146","0.0-2.0-8.1-1.1","battery-v0.2","","""event"",""trial"",""time""
""fullscreenenter"",""1"",""2137""
","
","
","""event"",""trial"",""time""
""fullscreenenter"",""1"",""2137""
","
","","","421.5","","","11","15546","6223","&#9776;","elianto","#3366ff99"," "," ","1","+10","[1274.7000000001863]","1","0","1","","","","","","","",""
"pit-trial","27","354426","0.0-2.0-8.1-2.1","battery-v0.2","","""event"",""trial"",""time""
""fullscreenenter"",""1"",""2137""
","
","
","""event"",""trial"",""time""
""fullscreenenter"",""1"",""2137""
","
","","","422.20000000018626","","","11","15546","6223","&#9776;","elianto","#3366ff99"," "," ","1","+10","[1273.199999999255]","1","0","1","","","","","","","",""
"pit-trial","28","357762","0.0-2.0-8.1-3.1","battery-v0.2","","""event"",""trial"",""time""
""fullscreenenter"",""1"",""2137""
","
","
","""event"",""trial"",""time""
""fullscreenenter"",""1"",""2137""
","
","","","473.5","","","11","15546","6223","&#9776;","elianto","#3366ff99"," "," ","1","0","[1329.0999999996275]","1","0","1","","","","","","","",""
"pit-trial","29","360985","0.0-2.0-8.1-4.1","battery-v0.2","","""event"",""trial"",""time""
""fullscreenenter"",""1"",""2137""
","
","
","""event"",""trial"",""time""
""fullscreenenter"",""1"",""2137""
","
","","","367.09999999962747","","","11","15546","6223","&#9776;","elianto","#3366ff99"," "," ","1","+10","[1217.2000000001863]","1","0","1","","","","","","","",""
"pit-trial","30","364307","0.0-2.0-8.2-0.2","battery-v0.2","","""event"",""trial"",""time""
""fullscreenenter"",""1"",""2137""
","
","
","""event"",""trial"",""time""
""fullscreenenter"",""1"",""2137""
","
","","","465","","","11","15546","6223","&#9776;","elianto","#3366ff99"," "," ","1","+10","[1315.0999999996275]","1","0","1","","","","","","","",""
"pit-trial","31","367521","0.0-2.0-8.2-1.2","battery-v0.2","","""event"",""trial"",""time""
""fullscreenenter"",""1"",""2137""
","
","
","""event"",""trial"",""time""
""fullscreenenter"",""1"",""2137""
","
","","","355.5","","","11","15546","6223","&#9776;","elianto","#3366ff99"," "," ","1","+10","[1207.7000000001863]","1","0","1","","","","","","","",""
"pit-trial","32","370817","0.0-2.0-8.2-2.2","battery-v0.2","","""event"",""trial"",""time""
""fullscreenenter"",""1"",""2137""
","
","
","""event"",""trial"",""time""
""fullscreenenter"",""1"",""2137""
","
","","","439.70000000018626","","","11","15546","6223","&#9776;","elianto","#3366ff99"," "," ","1","+10","[1290.0999999996275]","1","0","1","","","","","","","",""
"pit-trial","33","374101","0.0-2.0-8.2-3.2","battery-v0.2","","""event"",""trial"",""time""
""fullscreenenter"",""1"",""2137""
","
","
","""event"",""trial"",""time""
""fullscreenenter"",""1"",""2137""
","
","","","427.79999999981374","","","11","15546","6223","&#9776;","elianto","#3366ff99"," "," ","1","0","[1277.9000000003725]","1","0","1","","","","","","","",""
"pit-trial","34","377409","0.0-2.0-8.2-4.2","battery-v0.2","","""event"",""trial"",""time""
""fullscreenenter"",""1"",""2137""
","
","
","""event"",""trial"",""time""
""fullscreenenter"",""1"",""2137""
","
","","","452.40000000037253","","","11","15546","6223","&#9776;","elianto","#3366ff99"," "," ","1","+10","[1302.7000000001863]","1","0","1","","","","","","","",""
"call-function","35","377416","0.0-2.0-9.0","battery-v0.2","","""event"",""trial"",""time""
""fullscreenenter"",""1"",""2137""
","
","
","""event"",""trial"",""time""
""fullscreenenter"",""1"",""2137""
","
","","","","","","","","","","","","","","","","","","","","","","","","","","",""
"pit-instructions","36","416844","0.0-2.0-10.0","battery-v0.2","","""event"",""trial"",""time""
""fullscreenenter"",""1"",""2137""
","
","
","""event"",""trial"",""time""
""fullscreenenter"",""1"",""2137""
","
","","[{""page_index"":0,""viewing_time"":7458.0999999996275},{""page_index"":1,""viewing_time"":6019.5},{""page_index"":2,""viewing_time"":9211.099999999627},{""page_index"":3,""viewing_time"":8422.200000000186},{""page_index"":4,""viewing_time"":8313.299999999814}]","39425.5","","","","","","","","","","","","","","","","","","","","","","","",""
"pit-trial","37","420139","0.0-2.0-11.0-0.0","battery-v0.2","","""event"",""trial"",""time""
""fullscreenenter"",""1"",""2137""
","
","
","""event"",""trial"",""time""
""fullscreenenter"",""1"",""2137""
","
","","","438.20000000018626","","","11","15546","6223","&#9761;","elianto","#3366ff99","-1"," ","0","0","[1288.5999999996275]","1","0","2","","","","","","","",""
"pit-trial","38","423194","0.0-2.0-11.0-1.0","battery-v0.2","","""event"",""trial"",""time""
""fullscreenenter"",""1"",""2137""
","
","
","""event"",""trial"",""time""
""fullscreenenter"",""1"",""2137""
","
","","","200.70000000018626","","","11","15546","6223","&#9761;","elianto","#3366ff99","-1"," ","0","0","[1051.1000000005588]","1","0","2","","","","","","","",""
"pit-trial","39","426264","0.0-2.0-11.0-2.0","battery-v0.2","","""event"",""trial"",""time""
""fullscreenenter"",""1"",""2137""
","
","
","""event"",""trial"",""time""
""fullscreenenter"",""1"",""2137""
","
","","","213","","","11","15546","6223","&#9761;","elianto","#3366ff99","-1"," ","0","0","[1063.1000000005588]","1","0","2","","","","","","","",""
"pit-trial","40","429476","0.0-2.0-11.0-3.0","battery-v0.2","","""event"",""trial"",""time""
""fullscreenenter"",""1"",""2137""
","
","
","""event"",""trial"",""time""
""fullscreenenter"",""1"",""2137""
","
","","","353","","","11","15546","6223","&#9761;","elianto","#3366ff99","-1"," ","0","+10","[1206.1000000005588]","1","0","2","","","","","","","",""
"pit-trial","41","432574","0.0-2.0-11.0-4.0","battery-v0.2","","""event"",""trial"",""time""
""fullscreenenter"",""1"",""2137""
","
","
","""event"",""trial"",""time""
""fullscreenenter"",""1"",""2137""
","
","","","240.70000000018626","","","11","15546","6223","&#9761;","elianto","#3366ff99","-1"," ","0","0","[1090.9000000003725]","1","0","2","","","","","","","",""
"pit-trial","42","435662","0.0-2.0-11.1-0.1","battery-v0.2","","""event"",""trial"",""time""
""fullscreenenter"",""1"",""2137""
","
","
","""event"",""trial"",""time""
""fullscreenenter"",""1"",""2137""
","
","","","226.5","","","11","15546","6223","&#9761;","elianto","#3366ff99","-1"," ","0","0","[1078.5]","1","0","2","","","","","","","",""
"pit-trial","43","439487","0.0-2.0-11.1-1.1","battery-v0.2","","""event"",""trial"",""time""
""fullscreenenter"",""1"",""2137""
","
","
","""event"",""trial"",""time""
""fullscreenenter"",""1"",""2137""
","
","","","969.3999999994412","","","11","15546","6223","&#9761;","elianto","#3366ff99","-1"," ","0","0","[1819.4000000003725]","1","0","2","","","","","","","",""
"pit-trial","44","444345","0.0-2.0-11.1-2.1","battery-v0.2","","""event"",""trial"",""time""
""fullscreenenter"",""1"",""2137""
","
","
","""event"",""trial"",""time""
""fullscreenenter"",""1"",""2137""
","
","","","-1","","","11","15546","6223","&#9761;","elianto","#3366ff99","-1","-1","1","+10","[]","0","0","2","","","","","","","",""
"pit-trial","45","449202","0.0-2.0-11.1-3.1","battery-v0.2","","""event"",""trial"",""time""
""fullscreenenter"",""1"",""2137""
","
","
","""event"",""trial"",""time""
""fullscreenenter"",""1"",""2137""
","
","","","-1","","","11","15546","6223","&#9761;","elianto","#3366ff99","-1","-1","1","0","[]","0","0","2","","","","","","","",""
"pit-trial","46","454059","0.0-2.0-11.1-4.1","battery-v0.2","","""event"",""trial"",""time""
""fullscreenenter"",""1"",""2137""
","
","
","""event"",""trial"",""time""
""fullscreenenter"",""1"",""2137""
","
","","","-1","","","11","15546","6223","&#9761;","elianto","#3366ff99","-1","-1","1","+10","[]","0","0","2","","","","","","","",""
"pit-trial","47","458917","0.0-2.0-11.2-0.2","battery-v0.2","","""event"",""trial"",""time""
""fullscreenenter"",""1"",""2137""
","
","
","""event"",""trial"",""time""
""fullscreenenter"",""1"",""2137""
","
","","","-1","","","11","15546","6223","&#9761;","elianto","#3366ff99","-1","-1","1","+10","[]","0","0","2","","","","","","","",""
"pit-trial","48","463773","0.0-2.0-11.2-1.2","battery-v0.2","","""event"",""trial"",""time""
""fullscreenenter"",""1"",""2137""
","
","
","""event"",""trial"",""time""
""fullscreenenter"",""1"",""2137""
","
","","","-1","","","11","15546","6223","&#9761;","elianto","#3366ff99","-1","-1","1","+10","[]","0","0","2","","","","","","","",""
"pit-trial","49","468630","0.0-2.0-11.2-2.2","battery-v0.2","","""event"",""trial"",""time""
""fullscreenenter"",""1"",""2137""
","
","
","""event"",""trial"",""time""
""fullscreenenter"",""1"",""2137""
","
","","","-1","","","11","15546","6223","&#9761;","elianto","#3366ff99","-1","-1","1","+10","[]","0","0","2","","","","","","","",""
"pit-trial","50","473487","0.0-2.0-11.2-3.2","battery-v0.2","","""event"",""trial"",""time""
""fullscreenenter"",""1"",""2137""
","
","
","""event"",""trial"",""time""
""fullscreenenter"",""1"",""2137""
","
","","","-1","","","11","15546","6223","&#9761;","elianto","#3366ff99","-1","-1","1","0","[]","0","0","2","","","","","","","",""
"pit-trial","51","478344","0.0-2.0-11.2-4.2","battery-v0.2","","""event"",""trial"",""time""
""fullscreenenter"",""1"",""2137""
","
","
","""event"",""trial"",""time""
""fullscreenenter"",""1"",""2137""
","
","","","-1","","","11","15546","6223","&#9761;","elianto","#3366ff99","-1","-1","1","+10","[]","0","0","2","","","","","","","",""
"pit-trial","52","483202","0.0-2.0-11.3-0.3","battery-v0.2","","""event"",""trial"",""time""
""fullscreenenter"",""1"",""2137""
","
","
","""event"",""trial"",""time""
""fullscreenenter"",""1"",""2137""
","
","","","-1","","","11","15546","6223","&#9761;","elianto","#3366ff99","-1","-1","1","+10","[]","0","0","2","","","","","","","",""
"pit-trial","53","488059","0.0-2.0-11.3-1.3","battery-v0.2","","""event"",""trial"",""time""
""fullscreenenter"",""1"",""2137""
","
","
","""event"",""trial"",""time""
""fullscreenenter"",""1"",""2137""
","
","","","-1","","","11","15546","6223","&#9761;","elianto","#3366ff99","-1","-1","1","+10","[]","0","0","2","","","","","","","",""
"pit-trial","54","492916","0.0-2.0-11.3-2.3","battery-v0.2","","""event"",""trial"",""time""
""fullscreenenter"",""1"",""2137""
","
","
","""event"",""trial"",""time""
""fullscreenenter"",""1"",""2137""
","
","","","-1","","","11","15546","6223","&#9761;","elianto","#3366ff99","-1","-1","1","+10","[]","0","0","2","","","","","","","",""
"pit-trial","55","497772","0.0-2.0-11.3-3.3","battery-v0.2","","""event"",""trial"",""time""
""fullscreenenter"",""1"",""2137""
","
","
","""event"",""trial"",""time""
""fullscreenenter"",""1"",""2137""
","
","","","-1","","","11","15546","6223","&#9761;","elianto","#3366ff99","-1","-1","1","0","[]","0","0","2","","","","","","","",""
"pit-trial","56","502630","0.0-2.0-11.3-4.3","battery-v0.2","","""event"",""trial"",""time""
""fullscreenenter"",""1"",""2137""
","
","
","""event"",""trial"",""time""
""fullscreenenter"",""1"",""2137""
","
","","","-1","","","11","15546","6223","&#9761;","elianto","#3366ff99","-1","-1","1","+10","[]","0","0","2","","","","","","","",""
"call-function","57","502636","0.0-2.0-12.0","battery-v0.2","","""event"",""trial"",""time""
""fullscreenenter"",""1"",""2137""
","
","
","""event"",""trial"",""time""
""fullscreenenter"",""1"",""2137""
","
","","","","","","","","","","","","","","","","","","","","","","","","","","",""
"pit-instructions","58","534614","0.0-2.0-13.0","battery-v0.2","","""event"",""trial"",""time""
""fullscreenenter"",""1"",""2137""
","
","
","""event"",""trial"",""time""
""fullscreenenter"",""1"",""2137""
","
","","[{""page_index"":0,""viewing_time"":4693},{""page_index"":1,""viewing_time"":7356.4000000003725},{""page_index"":2,""viewing_time"":3866.5},{""page_index"":3,""viewing_time"":11158.099999999627},{""page_index"":4,""viewing_time"":4901.300000000745}]","31976.700000000186","","","","","","","","","","","","","","","","","","","","","","","",""
"pit-trial","59","539472","0.0-2.0-14.0-0.0","battery-v0.2","","""event"",""trial"",""time""
""fullscreenenter"",""1"",""2137""
","
","
","""event"",""trial"",""time""
""fullscreenenter"",""1"",""2137""
","
","","","-1","","","11","15546","6223","&#9826;","elianto","#f73b6a7A","-1","-1","1","0","[]","0","0","3","","","","","","","",""
"pit-trial","60","544330","0.0-2.0-14.0-1.0","battery-v0.2","","""event"",""trial"",""time""
""fullscreenenter"",""1"",""2137""
","
","
","""event"",""trial"",""time""
""fullscreenenter"",""1"",""2137""
","
","","","-1","","","11","15546","6223","&#9826;","elianto","#f73b6a7A","-1","-1","1","0","[]","0","0","3","","","","","","","",""
"pit-trial","61","547503","0.0-2.0-14.0-2.0","battery-v0.2","","""event"",""trial"",""time""
""fullscreenenter"",""1"",""2137""
","
","
","""event"",""trial"",""time""
""fullscreenenter"",""1"",""2137""
","
","","","316.40000000037253","","","11","15546","6223","&#9826;","elianto","#f73b6a7A","-1"," ","0","-10","[1166.6000000005588]","1","0","3","","","","","","","",""
"pit-trial","62","552360","0.0-2.0-14.0-3.0","battery-v0.2","","""event"",""trial"",""time""
""fullscreenenter"",""1"",""2137""
","
","
","""event"",""trial"",""time""
""fullscreenenter"",""1"",""2137""
","
","","","-1","","","11","15546","6223","&#9826;","elianto","#f73b6a7A","-1","-1","1","-10","[]","0","0","3","","","","","","","",""
"pit-trial","63","557218","0.0-2.0-14.0-4.0","battery-v0.2","","""event"",""trial"",""time""
""fullscreenenter"",""1"",""2137""
","
","
","""event"",""trial"",""time""
""fullscreenenter"",""1"",""2137""
","
","","","-1","","","11","15546","6223","&#9826;","elianto","#f73b6a7A","-1","-1","1","0","[]","0","0","3","","","","","","","",""
"pit-trial","64","562077","0.0-2.0-14.1-0.1","battery-v0.2","","""event"",""trial"",""time""
""fullscreenenter"",""1"",""2137""
","
","
","""event"",""trial"",""time""
""fullscreenenter"",""1"",""2137""
","
","","","-1","","","11","15546","6223","&#9826;","elianto","#f73b6a7A","-1","-1","1","0","[]","0","0","3","","","","","","","",""
"pit-trial","65","566934","0.0-2.0-14.1-1.1","battery-v0.2","","""event"",""trial"",""time""
""fullscreenenter"",""1"",""2137""
","
","
","""event"",""trial"",""time""
""fullscreenenter"",""1"",""2137""
","
","","","-1","","","11","15546","6223","&#9826;","elianto","#f73b6a7A","-1","-1","1","0","[]","0","0","3","","","","","","","",""
"pit-trial","66","571791","0.0-2.0-14.1-2.1","battery-v0.2","","""event"",""trial"",""time""
""fullscreenenter"",""1"",""2137""
","
","
","""event"",""trial"",""time""
""fullscreenenter"",""1"",""2137""
","
","","","-1","","","11","15546","6223","&#9826;","elianto","#f73b6a7A","-1","-1","1","0","[]","0","0","3","","","","","","","",""
"pit-trial","67","576647","0.0-2.0-14.1-3.1","battery-v0.2","","""event"",""trial"",""time""
""fullscreenenter"",""1"",""2137""
","
","
","""event"",""trial"",""time""
""fullscreenenter"",""1"",""2137""
","
","","","-1","","","11","15546","6223","&#9826;","elianto","#f73b6a7A","-1","-1","1","-10","[]","0","0","3","","","","","","","",""
"pit-trial","68","581504","0.0-2.0-14.1-4.1","battery-v0.2","","""event"",""trial"",""time""
""fullscreenenter"",""1"",""2137""
","
","
","""event"",""trial"",""time""
""fullscreenenter"",""1"",""2137""
","
","","","-1","","","11","15546","6223","&#9826;","elianto","#f73b6a7A","-1","-1","1","0","[]","0","0","3","","","","","","","",""
"pit-trial","69","586363","0.0-2.0-14.2-0.2","battery-v0.2","","""event"",""trial"",""time""
""fullscreenenter"",""1"",""2137""
","
","
","""event"",""trial"",""time""
""fullscreenenter"",""1"",""2137""
","
","","","-1","","","11","15546","6223","&#9826;","elianto","#f73b6a7A","-1","-1","1","0","[]","0","0","3","","","","","","","",""
"pit-trial","70","591219","0.0-2.0-14.2-1.2","battery-v0.2","","""event"",""trial"",""time""
""fullscreenenter"",""1"",""2137""
","
","
","""event"",""trial"",""time""
""fullscreenenter"",""1"",""2137""
","
","","","-1","","","11","15546","6223","&#9826;","elianto","#f73b6a7A","-1","-1","1","0","[]","0","0","3","","","","","","","",""
"pit-trial","71","596075","0.0-2.0-14.2-2.2","battery-v0.2","","""event"",""trial"",""time""
""fullscreenenter"",""1"",""2137""
","
","
","""event"",""trial"",""time""
""fullscreenenter"",""1"",""2137""
","
","","","-1","","","11","15546","6223","&#9826;","elianto","#f73b6a7A","-1","-1","1","0","[]","0","0","3","","","","","","","",""
"pit-trial","72","600931","0.0-2.0-14.2-3.2","battery-v0.2","","""event"",""trial"",""time""
""fullscreenenter"",""1"",""2137""
","
","
","""event"",""trial"",""time""
""fullscreenenter"",""1"",""2137""
","
","","","-1","","","11","15546","6223","&#9826;","elianto","#f73b6a7A","-1","-1","1","-10","[]","0","0","3","","","","","","","",""
"pit-trial","73","605787","0.0-2.0-14.2-4.2","battery-v0.2","","""event"",""trial"",""time""
""fullscreenenter"",""1"",""2137""
","
","
","""event"",""trial"",""time""
""fullscreenenter"",""1"",""2137""
","
","","","-1","","","11","15546","6223","&#9826;","elianto","#f73b6a7A","-1","-1","1","0","[]","0","0","3","","","","","","","",""
"pit-trial","74","610645","0.0-2.0-14.3-0.3","battery-v0.2","","""event"",""trial"",""time""
""fullscreenenter"",""1"",""2137""
","
","
","""event"",""trial"",""time""
""fullscreenenter"",""1"",""2137""
","
","","","-1","","","11","15546","6223","&#9826;","elianto","#f73b6a7A","-1","-1","1","0","[]","0","0","3","","","","","","","",""
"pit-trial","75","615502","0.0-2.0-14.3-1.3","battery-v0.2","","""event"",""trial"",""time""
""fullscreenenter"",""1"",""2137""
","
","
","""event"",""trial"",""time""
""fullscreenenter"",""1"",""2137""
","
","","","-1","","","11","15546","6223","&#9826;","elianto","#f73b6a7A","-1","-1","1","0","[]","0","0","3","","","","","","","",""
"pit-trial","76","620360","0.0-2.0-14.3-2.3","battery-v0.2","","""event"",""trial"",""time""
""fullscreenenter"",""1"",""2137""
","
","
","""event"",""trial"",""time""
""fullscreenenter"",""1"",""2137""
","
","","","-1","","","11","15546","6223","&#9826;","elianto","#f73b6a7A","-1","-1","1","0","[]","0","0","3","","","","","","","",""
"pit-trial","77","625216","0.0-2.0-14.3-3.3","battery-v0.2","","""event"",""trial"",""time""
""fullscreenenter"",""1"",""2137""
","
","
","""event"",""trial"",""time""
""fullscreenenter"",""1"",""2137""
","
","","","-1","","","11","15546","6223","&#9826;","elianto","#f73b6a7A","-1","-1","1","-10","[]","0","0","3","","","","","","","",""
"pit-trial","78","630073","0.0-2.0-14.3-4.3","battery-v0.2","","""event"",""trial"",""time""
""fullscreenenter"",""1"",""2137""
","
","
","""event"",""trial"",""time""
""fullscreenenter"",""1"",""2137""
","
","","","-1","","","11","15546","6223","&#9826;","elianto","#f73b6a7A","-1","-1","1","0","[]","0","0","3","","","","","","","",""
"call-function","79","630080","0.0-2.0-15.0","battery-v0.2","","""event"",""trial"",""time""
""fullscreenenter"",""1"",""2137""
","
","
","""event"",""trial"",""time""
""fullscreenenter"",""1"",""2137""
","
","","","","","","","","","","","","","","","","","","","","","","","","","","",""
"pit-instructions","80","653084","0.0-2.0-16.0","battery-v0.2","","""event"",""trial"",""time""
""fullscreenenter"",""1"",""2137""
","
","
","""event"",""trial"",""time""
""fullscreenenter"",""1"",""2137""
","
","","[{""page_index"":0,""viewing_time"":6597.5},{""page_index"":1,""viewing_time"":8050.4000000003725},{""page_index"":2,""viewing_time"":4156.0999999996275},{""page_index"":3,""viewing_time"":4196.600000000559}]","23001.800000000745","","","","","","","","","","","","","","","","","","","","","","","",""
"pit-trial","81","656720","0.0-2.0-17.0-0.0","battery-v0.2","","""event"",""trial"",""time""
""fullscreenenter"",""1"",""2137""
","
","
","""event"",""trial"",""time""
""fullscreenenter"",""1"",""2137""
","
","","","778.9000000003725","","","11","15546","6223","&#9789;","elianto","#f73b6a7A"," "," ","1","0","[1629]","1","0","4","","","","","","","",""
"pit-trial","82","659808","0.0-2.0-17.0-1.0","battery-v0.2","","""event"",""trial"",""time""
""fullscreenenter"",""1"",""2137""
","
","
","""event"",""trial"",""time""
""fullscreenenter"",""1"",""2137""
","
","","","231.40000000037253","","","11","15546","6223","&#9789;","elianto","#f73b6a7A"," "," ","1","0","[1081.3999999994412,2298]","2","0","4","","","","","","","",""
"pit-trial","83","662851","0.0-2.0-17.0-2.0","battery-v0.2","","""event"",""trial"",""time""
""fullscreenenter"",""1"",""2137""
","
","
","""event"",""trial"",""time""
""fullscreenenter"",""1"",""2137""
","
","","","186.40000000037253","","","11","15546","6223","&#9789;","elianto","#f73b6a7A"," "," ","1","0","[1036.6000000005588]","1","0","4","","","","","","","",""
"pit-trial","84","666044","0.0-2.0-17.0-3.0","battery-v0.2","","""event"",""trial"",""time""
""fullscreenenter"",""1"",""2137""
","
","
","""event"",""trial"",""time""
""fullscreenenter"",""1"",""2137""
","
","","","334.69999999925494","","","11","15546","6223","&#9789;","elianto","#f73b6a7A"," "," ","1","-10","[1184.800000000745]","1","0","4","","","","","","","",""
"pit-trial","85","669316","0.0-2.0-17.0-4.0","battery-v0.2","","""event"",""trial"",""time""
""fullscreenenter"",""1"",""2137""
","
","
","""event"",""trial"",""time""
""fullscreenenter"",""1"",""2137""
","
","","","416","","","11","15546","6223","&#9789;","elianto","#f73b6a7A"," "," ","1","0","[1266.1000000005588]","1","0","4","","","","","","","",""
"pit-trial","86","672417","0.0-2.0-17.1-0.1","battery-v0.2","","""event"",""trial"",""time""
""fullscreenenter"",""1"",""2137""
","
","
","""event"",""trial"",""time""
""fullscreenenter"",""1"",""2137""
","
","","","242.70000000018626","","","11","15546","6223","&#9789;","elianto","#f73b6a7A"," "," ","1","0","[1092.7999999998137]","1","0","4","","","","","","","",""
"pit-trial","87","675499","0.0-2.0-17.1-1.1","battery-v0.2","","""event"",""trial"",""time""
""fullscreenenter"",""1"",""2137""
","
","
","""event"",""trial"",""time""
""fullscreenenter"",""1"",""2137""
","
","","","225.90000000037253","","","11","15546","6223","&#9789;","elianto","#f73b6a7A"," "," ","1","0","[1076.0999999996275]","1","0","4","","","","","","","",""
"pit-trial","88","678625","0.0-2.0-17.1-2.1","battery-v0.2","","""event"",""trial"",""time""
""fullscreenenter"",""1"",""2137""
","
","
","""event"",""trial"",""time""
""fullscreenenter"",""1"",""2137""
","
","","","266.20000000018626","","","11","15546","6223","&#9789;","elianto","#f73b6a7A"," "," ","1","0","[1119.5]","1","0","4","","","","","","","",""
"pit-trial","89","681603","0.0-2.0-17.1-3.1","battery-v0.2","","""event"",""trial"",""time""
""fullscreenenter"",""1"",""2137""
","
","
","""event"",""trial"",""time""
""fullscreenenter"",""1"",""2137""
","
","","","121.30000000074506","","","11","15546","6223","&#9789;","elianto","#f73b6a7A"," "," ","1","-10","[971.3999999994412]","1","0","4","","","","","","","",""
"pit-trial","90","684749","0.0-2.0-17.1-4.1","battery-v0.2","","""event"",""trial"",""time""
""fullscreenenter"",""1"",""2137""
","
","
","""event"",""trial"",""time""
""fullscreenenter"",""1"",""2137""
","
","","","288.90000000037253","","","11","15546","6223","&#9789;","elianto","#f73b6a7A"," "," ","1","0","[1139]","1","0","4","","","","","","","",""
"pit-trial","91","687829","0.0-2.0-17.2-0.2","battery-v0.2","","""event"",""trial"",""time""
""fullscreenenter"",""1"",""2137""
","
","
","""event"",""trial"",""time""
""fullscreenenter"",""1"",""2137""
","
","","","218","","","11","15546","6223","&#9789;","elianto","#f73b6a7A"," "," ","1","0","[1072.699999999255]","1","0","4","","","","","","","",""
"pit-trial","92","690708","0.0-2.0-17.2-1.2","battery-v0.2","","""event"",""trial"",""time""
""fullscreenenter"",""1"",""2137""
","
","
","""event"",""trial"",""time""
""fullscreenenter"",""1"",""2137""
","
","","","19.700000000186265","","","11","15546","6223","&#9789;","elianto","#f73b6a7A"," "," ","1","0","[873.9000000003725]","1","0","4","","","","","","","",""
"pit-trial","93","694004","0.0-2.0-17.2-2.2","battery-v0.2","","""event"",""trial"",""time""
""fullscreenenter"",""1"",""2137""
","
","
","""event"",""trial"",""time""
""fullscreenenter"",""1"",""2137""
","
","","","436.5","","","11","15546","6223","&#9789;","elianto","#f73b6a7A"," "," ","1","0","[1290.0999999996275]","1","0","4","","","","","","","",""
"pit-trial","94","696996","0.0-2.0-17.2-3.2","battery-v0.2","","""event"",""trial"",""time""
""fullscreenenter"",""1"",""2137""
","
","
","""event"",""trial"",""time""
""fullscreenenter"",""1"",""2137""
","
","","","135.30000000074506","","","11","15546","6223","&#9789;","elianto","#f73b6a7A"," "," ","1","-10","[985.2999999998137]","1","0","4","","","","","","","",""
"pit-trial","95","700302","0.0-2.0-17.2-4.2","battery-v0.2","","""event"",""trial"",""time""
""fullscreenenter"",""1"",""2137""
","
","
","""event"",""trial"",""time""
""fullscreenenter"",""1"",""2137""
","
","","","450.40000000037253","","","11","15546","6223","&#9789;","elianto","#f73b6a7A"," "," ","1","0","[1300.5]","1","0","4","","","","","","","",""
"pit-trial","96","703397","0.0-2.0-17.3-0.3","battery-v0.2","","""event"",""trial"",""time""
""fullscreenenter"",""1"",""2137""
","
","
","""event"",""trial"",""time""
""fullscreenenter"",""1"",""2137""
","
","","","236.59999999962747","","","11","15546","6223","&#9789;","elianto","#f73b6a7A"," "," ","1","0","[1087]","1","0","4","","","","","","","",""
"pit-trial","97","706745","0.0-2.0-17.3-1.3","battery-v0.2","","""event"",""trial"",""time""
""fullscreenenter"",""1"",""2137""
","
","
","""event"",""trial"",""time""
""fullscreenenter"",""1"",""2137""
","
","","","492.59999999962747","","","11","15546","6223","&#9789;","elianto","#f73b6a7A"," "," ","1","0","[1342.7000000001863]","1","0","4","","","","","","","",""
"pit-trial","98","709896","0.0-2.0-17.3-2.3","battery-v0.2","","""event"",""trial"",""time""
""fullscreenenter"",""1"",""2137""
","
","
","""event"",""trial"",""time""
""fullscreenenter"",""1"",""2137""
","
","","","290.59999999962747","","","11","15546","6223","&#9789;","elianto","#f73b6a7A"," "," ","1","0","[1144.300000000745]","1","0","4","","","","","","","",""
"pit-trial","99","713594","0.0-2.0-17.3-3.3","battery-v0.2","","""event"",""trial"",""time""
""fullscreenenter"",""1"",""2137""
","
","
","""event"",""trial"",""time""
""fullscreenenter"",""1"",""2137""
","
","","","842.6000000005588","","","11","15546","6223","&#9789;","elianto","#f73b6a7A"," "," ","1","-10","[1692.7999999998137]","1","0","4","","","","","","","",""
"pit-trial","100","716734","0.0-2.0-17.3-4.3","battery-v0.2","","""event"",""trial"",""time""
""fullscreenenter"",""1"",""2137""
","
","
","""event"",""trial"",""time""
""fullscreenenter"",""1"",""2137""
","
","","","283.40000000037253","","","11","15546","6223","&#9789;","elianto","#f73b6a7A"," "," ","1","0","[1133.3999999994412]","1","0","4","","","","","","","",""
"call-function","101","716739","0.0-2.0-18.0","battery-v0.2","","""event"",""trial"",""time""
""fullscreenenter"",""1"",""2137""
","
","
","""event"",""trial"",""time""
""fullscreenenter"",""1"",""2137""
","
","","","","","","","","","","","","","","","","","","","","","","","","","","",""
"pit-instructions","102","791808","0.0-2.0-19.0","battery-v0.2","","""event"",""trial"",""time""
""fullscreenenter"",""1"",""2137""
","
","
","""event"",""trial"",""time""
""fullscreenenter"",""1"",""2137""
","
","","[{""page_index"":0,""viewing_time"":7785.399999999441},{""page_index"":1,""viewing_time"":4275.600000000559},{""page_index"":2,""viewing_time"":14371.099999999627},{""page_index"":3,""viewing_time"":8559.299999999814},{""page_index"":4,""viewing_time"":8912.700000000186},{""page_index"":5,""viewing_time"":10335.099999999627},{""page_index"":6,""viewing_time"":7623.300000000745},{""page_index"":7,""viewing_time"":7607.799999999814},{""page_index"":8,""viewing_time"":5595}]","75066.69999999925","","","","","","","","","","","","","","","","","","","","","","","",""
"pit-comprehension","103","796191","0.0-2.0-20.0-0.0","battery-v0.2","","""event"",""trial"",""time""
""fullscreenenter"",""1"",""2137""
","
","
","""event"",""trial"",""time""
""fullscreenenter"",""1"",""2137""
","
","","","4369","[""SPACE""]","0","11","15546","6223","","","","","","","","","","","","","","","","","","",""
"pit-instructions","104","798793","0.0-2.0-20.0-1.0","battery-v0.2","","""event"",""trial"",""time""
""fullscreenenter"",""1"",""2137""
","
","
","""event"",""trial"",""time""
""fullscreenenter"",""1"",""2137""
","
","","[{""page_index"":0,""viewing_time"":2515.399999999441}]","2516.699999999255","","","","","","","","","","","","","","","","","","","","","","","",""
"pit-comprehension","105","803746","0.0-2.0-21.0-0.0","battery-v0.2","","""event"",""trial"",""time""
""fullscreenenter"",""1"",""2137""
","
","
","""event"",""trial"",""time""
""fullscreenenter"",""1"",""2137""
","
","","","4938.200000000186","[""10""]","0","11","15546","6223","","","","","","","","","","","","","","","","","","",""
"pit-instructions","106","805454","0.0-2.0-21.0-1.0","battery-v0.2","","""event"",""trial"",""time""
""fullscreenenter"",""1"",""2137""
","
","
","""event"",""trial"",""time""
""fullscreenenter"",""1"",""2137""
","
","","[{""page_index"":0,""viewing_time"":1609.2000000001863}]","1610.5","","","","","","","","","","","","","","","","","","","","","","","",""
"pit-comprehension","107","811903","0.0-2.0-22.0-0.0","battery-v0.2","","""event"",""trial"",""time""
""fullscreenenter"",""1"",""2137""
","
","
","""event"",""trial"",""time""
""fullscreenenter"",""1"",""2137""
","
","","","6431.700000000186","[""0""]","0","11","15546","6223","","","","","","","","","","","","","","","","","","",""
"pit-instructions","108","813541","0.0-2.0-22.0-1.0","battery-v0.2","","""event"",""trial"",""time""
""fullscreenenter"",""1"",""2137""
","
","
","""event"",""trial"",""time""
""fullscreenenter"",""1"",""2137""
","
","","[{""page_index"":0,""viewing_time"":1552}]","1552.9000000003725","","","","","","","","","","","","","","","","","","","","","","","",""
"pit-comprehension","109","823598","0.0-2.0-23.0-0.0","battery-v0.2","","""event"",""trial"",""time""
""fullscreenenter"",""1"",""2137""
","
","
","""event"",""trial"",""time""
""fullscreenenter"",""1"",""2137""
","
","","","10045.799999999814","[""True""]","0","11","15546","6223","","","","","","","","","","","","","","","","","","",""
"pit-instructions","110","825265","0.0-2.0-23.0-1.0","battery-v0.2","","""event"",""trial"",""time""
""fullscreenenter"",""1"",""2137""
","
","
","""event"",""trial"",""time""
""fullscreenenter"",""1"",""2137""
","
","","[{""page_index"":0,""viewing_time"":1576.0999999996275}]","1577.0999999996275","","","","","","","","","","","","","","","","","","","","","","","",""
"pit-comprehension","111","832402","0.0-2.0-24.0-0.0","battery-v0.2","","""event"",""trial"",""time""
""fullscreenenter"",""1"",""2137""
","
","
","""event"",""trial"",""time""
""fullscreenenter"",""1"",""2137""
","
","","","7124.5999999996275","[""True""]","0","11","15546","6223","","","","","","","","","","","","","","","","","","",""
"pit-instructions","112","834022","0.0-2.0-24.0-1.0","battery-v0.2","","""event"",""trial"",""time""
""fullscreenenter"",""1"",""2137""
","
","
","""event"",""trial"",""time""
""fullscreenenter"",""1"",""2137""
","
","","[{""page_index"":0,""viewing_time"":1534.7999999998137}]","1535.7999999998137","","","","","","","","","","","","","","","","","","","","","","","",""
"pit-comprehension","113","840423","0.0-2.0-25.0-0.0","battery-v0.2","","""event"",""trial"",""time""
""fullscreenenter"",""1"",""2137""
","
","
","""event"",""trial"",""time""
""fullscreenenter"",""1"",""2137""
","
","","","6389.100000000559","[""True""]","0","11","15546","6223","","","","","","","","","","","","","","","","","","",""
"pit-instructions","114","842052","0.0-2.0-25.0-1.0","battery-v0.2","","""event"",""trial"",""time""
""fullscreenenter"",""1"",""2137""
","
","
","""event"",""trial"",""time""
""fullscreenenter"",""1"",""2137""
","
","","[{""page_index"":0,""viewing_time"":1538.1000000005588}]","1539.300000000745","","","","","","","","","","","","","","","","","","","","","","","",""
"pit-comprehension","115","846635","0.0-2.0-26.0-0.0","battery-v0.2","","""event"",""trial"",""time""
""fullscreenenter"",""1"",""2137""
","
","
","""event"",""trial"",""time""
""fullscreenenter"",""1"",""2137""
","
","","","4570.200000000186","[""False""]","0","11","15546","6223","","","","","","","","","","","","","","","","","","",""
"pit-instructions","116","851122","0.0-2.0-26.0-1.0","battery-v0.2","","""event"",""trial"",""time""
""fullscreenenter"",""1"",""2137""
","
","
","""event"",""trial"",""time""
""fullscreenenter"",""1"",""2137""
","
","","[{""page_index"":0,""viewing_time"":4383.199999999255}]","4384.5","","","","","","","","","","","","","","","","","","","","","","","",""
"pit-instructions","117","871177","0.0-3.0","battery-v0.2","","""event"",""trial"",""time""
""fullscreenenter"",""1"",""2137""
","
","
","""event"",""trial"",""time""
""fullscreenenter"",""1"",""2137""
","
","","[{""page_index"":0,""viewing_time"":6182.5},{""page_index"":1,""viewing_time"":7515.600000000559},{""page_index"":2,""viewing_time"":6347}]","20045.900000000373","","","","","","","","","","","","","","","","","","","","","","","",""
"pit-trial","118","874792","0.0-4.0","battery-v0.2","","""event"",""trial"",""time""
""fullscreenenter"",""1"",""2137""
","
","
","""event"",""trial"",""time""
""fullscreenenter"",""1"",""2137""
","
","","","754.0999999996275","","","11","15546","6223","&#9730;","elianto","#3366ff99"," "," ","1","+10","[1604.5999999996275]","1","1","","","15546","1","1","1","win","go","0"
"pit-trial","119","878555","0.0-5.0","battery-v0.2","","""event"",""trial"",""time""
""fullscreenenter"",""1"",""2137""
","
","
","""event"",""trial"",""time""
""fullscreenenter"",""1"",""2137""
","
","","","907.2000000001863","","","11","15546","6223","&#9733;","elianto","#3366ff99","-1"," ","0","0","[1757.4000000003725]","1","1","","","15546","2","2","2","win","no-go","0"
"pit-trial","120","882198","0.0-6.0","battery-v0.2","","""event"",""trial"",""time""
""fullscreenenter"",""1"",""2137""
","
","
","""event"",""trial"",""time""
""fullscreenenter"",""1"",""2137""
","
","","","786.3999999994412","","","11","15546","6223","&#9752;","elianto","#f73b6a7A"," "," ","1","0","[1636.7999999998137]","1","1","","","15546","3","3","3","lose","go","0"
"pit-trial","121","887055","0.0-7.0","battery-v0.2","","""event"",""trial"",""time""
""fullscreenenter"",""1"",""2137""
","
","
","""event"",""trial"",""time""
""fullscreenenter"",""1"",""2137""
","
","","","-1","","","11","15546","6223","&#9728;","elianto","#f73b6a7A","-1","-1","1","0","[]","0","1","","","15546","4","0","4","lose","no-go","0"
"pit-trial","122","891913","0.0-8.0","battery-v0.2","","""event"",""trial"",""time""
""fullscreenenter"",""1"",""2137""
","
","
","""event"",""trial"",""time""
""fullscreenenter"",""1"",""2137""
","
","","","-1","","","11","15546","6223","&#9733;","elianto","#3366ff99","-1","-1","1","+10","[]","0","1","","","15546","5","2","2","win","no-go","0"
"pit-trial","123","896047","0.0-9.0","battery-v0.2","","""event"",""trial"",""time""
""fullscreenenter"",""1"",""2137""
","
","
","""event"",""trial"",""time""
""fullscreenenter"",""1"",""2137""
","
","","","1277","","","11","15546","6223","&#9752;","elianto","#f73b6a7A"," "," ","1","0","[2127.2999999998137]","1","1","","","15546","6","3","3","lose","go","0"
"pit-trial","124","900296","0.0-10.0","battery-v0.2","","""event"",""trial"",""time""
""fullscreenenter"",""1"",""2137""
","
","
","""event"",""trial"",""time""
""fullscreenenter"",""1"",""2137""
","
","","","1392.2999999998137","","","11","15546","6223","&#9728;","elianto","#f73b6a7A","-1"," ","0","-10","[2242.4000000003725]","1","1","","","15546","7","0","4","lose","no-go","0"
"pit-trial","125","904135","0.0-11.0","battery-v0.2","","""event"",""trial"",""time""
""fullscreenenter"",""1"",""2137""
","
","
","""event"",""trial"",""time""
""fullscreenenter"",""1"",""2137""
","
","","","982.5999999996275","","","11","15546","6223","&#9730;","elianto","#3366ff99"," "," ","1","+10","[1832.5999999996275]","1","1","","","15546","8","1","1","win","go","0"
"pit-trial","126","908992","0.0-12.0","battery-v0.2","","""event"",""trial"",""time""
""fullscreenenter"",""1"",""2137""
","
","
","""event"",""trial"",""time""
""fullscreenenter"",""1"",""2137""
","
","","","-1","","","11","15546","6223","&#9733;","elianto","#3366ff99","-1","-1","1","+10","[]","0","1","","","15546","9","2","2","win","no-go","0"
"pit-trial","127","913038","0.0-13.0","battery-v0.2","","""event"",""trial"",""time""
""fullscreenenter"",""1"",""2137""
","
","
","""event"",""trial"",""time""
""fullscreenenter"",""1"",""2137""
","
","","","1189.0999999996275","","","11","15546","6223","&#9752;","elianto","#f73b6a7A"," "," ","1","0","[2039.300000000745]","1","1","","","15546","10","3","3","lose","go","0"
"pit-trial","128","916767","0.0-14.0","battery-v0.2","","""event"",""trial"",""time""
""fullscreenenter"",""1"",""2137""
","
","
","""event"",""trial"",""time""
""fullscreenenter"",""1"",""2137""
","
","","","868.4000000003725","","","11","15546","6223","&#9730;","elianto","#3366ff99"," "," ","1","+10","[1721.7000000001863]","1","1","","","15546","11","1","1","win","go","0"
"pit-trial","129","921623","0.0-15.0","battery-v0.2","","""event"",""trial"",""time""
""fullscreenenter"",""1"",""2137""
","
","
","""event"",""trial"",""time""
""fullscreenenter"",""1"",""2137""
","
","","","-1","","","11","15546","6223","&#9728;","elianto","#f73b6a7A","-1","-1","1","0","[]","0","1","","","15546","12","0","4","lose","no-go","0"
"pit-trial","130","925185","0.0-16.0","battery-v0.2","","""event"",""trial"",""time""
""fullscreenenter"",""1"",""2137""
","
","
","""event"",""trial"",""time""
""fullscreenenter"",""1"",""2137""
","
","","","702.1000000005588","","","11","15546","6223","&#9730;","elianto","#3366ff99"," "," ","1","+10","[1555.2999999998137]","1","1","","","15546","13","1","1","win","go","0"
"pit-trial","131","930044","0.0-17.0","battery-v0.2","","""event"",""trial"",""time""
""fullscreenenter"",""1"",""2137""
","
","
","""event"",""trial"",""time""
""fullscreenenter"",""1"",""2137""
","
","","","-1","","","11","15546","6223","&#9728;","elianto","#f73b6a7A","-1","-1","1","0","[]","0","1","","","15546","14","0","4","lose","no-go","0"
"pit-trial","132","933862","0.0-18.0","battery-v0.2","","""event"",""trial"",""time""
""fullscreenenter"",""1"",""2137""
","
","
","""event"",""trial"",""time""
""fullscreenenter"",""1"",""2137""
","
","","","960","","","11","15546","6223","&#9752;","elianto","#f73b6a7A"," "," ","1","0","[1812.2999999998137]","1","1","","","15546","15","3","3","lose","go","0"
"pit-trial","133","938719","0.0-19.0","battery-v0.2","","""event"",""trial"",""time""
""fullscreenenter"",""1"",""2137""
","
","
","""event"",""trial"",""time""
""fullscreenenter"",""1"",""2137""
","
","","","-1","","","11","15546","6223","&#9733;","elianto","#3366ff99","-1","-1","1","+10","[]","0","1","","","15546","16","2","2","win","no-go","0"
"pit-trial","134","943577","0.0-20.0","battery-v0.2","","""event"",""trial"",""time""
""fullscreenenter"",""1"",""2137""
","
","
","""event"",""trial"",""time""
""fullscreenenter"",""1"",""2137""
","
","","","-1","","","11","15546","6223","&#9728;","elianto","#f73b6a7A","-1","-1","1","0","[]","0","1","","","15546","17","0","4","lose","no-go","0"
"pit-trial","135","948434","0.0-21.0","battery-v0.2","","""event"",""trial"",""time""
""fullscreenenter"",""1"",""2137""
","
","
","""event"",""trial"",""time""
""fullscreenenter"",""1"",""2137""
","
","","","-1","","","11","15546","6223","&#9733;","elianto","#3366ff99","-1","-1","1","+10","[]","0","1","","","15546","18","2","2","win","no-go","0"
"pit-trial","136","952258","0.0-22.0","battery-v0.2","","""event"",""trial"",""time""
""fullscreenenter"",""1"",""2137""
","
","
","""event"",""trial"",""time""
""fullscreenenter"",""1"",""2137""
","
","","","967.1000000005588","","","11","15546","6223","&#9752;","elianto","#f73b6a7A"," "," ","1","0","[1817.3999999994412]","1","1","","","15546","19","3","3","lose","go","0"
"pit-trial","137","955713","0.0-23.0","battery-v0.2","","""event"",""trial"",""time""
""fullscreenenter"",""1"",""2137""
","
","
","""event"",""trial"",""time""
""fullscreenenter"",""1"",""2137""
","
","","","598.4000000003725","","","11","15546","6223","&#9730;","elianto","#3366ff99"," "," ","1","+10","[1448.8999999994412]","1","1","","","15546","20","1","1","win","go","0"
"pit-instructions","138","968969","0.0-24.0","battery-v0.2","","""event"",""trial"",""time""
""fullscreenenter"",""1"",""2137""
","
","
","""event"",""trial"",""time""
""fullscreenenter"",""1"",""2137""
","
","","[{""page_index"":0,""viewing_time"":6293.199999999255},{""page_index"":1,""viewing_time"":6956.200000000186}]","13250.599999999627","","","","","","","","","","","","","","","","","","","","","","","",""
"pit-trial","139","972565","0.0-25.0","battery-v0.2","","""event"",""trial"",""time""
""fullscreenenter"",""1"",""2137""
","
","
","""event"",""trial"",""time""
""fullscreenenter"",""1"",""2137""
","
","","","735.6000000005588","","","11","15546","6223","l","elianto","#3366ff99","-1"," ","0","0","[1585.9000000003725]","1","2","","","15546","21","1","2","win","no-go","0"
"pit-trial","140","976509","0.0-26.0","battery-v0.2","","""event"",""trial"",""time""
""fullscreenenter"",""1"",""2137""
","
","
","""event"",""trial"",""time""
""fullscreenenter"",""1"",""2137""
","
","","","1086.7999999998137","","","11","15546","6223","u","elianto","#f73b6a7A"," "," ","1","0","[1937]","1","2","","","15546","22","0","3","lose","go","0"
"pit-trial","141","981366","0.0-27.0","battery-v0.2","","""event"",""trial"",""time""
""fullscreenenter"",""1"",""2137""
","
","
","""event"",""trial"",""time""
""fullscreenenter"",""1"",""2137""
","
","","","-1","","","11","15546","6223","g","elianto","#f73b6a7A","-1","-1","1","0","[]","0","2","","","15546","23","3","4","lose","no-go","0"
"pit-trial","142","986223","0.0-28.0","battery-v0.2","","""event"",""trial"",""time""
""fullscreenenter"",""1"",""2137""
","
","
","""event"",""trial"",""time""
""fullscreenenter"",""1"",""2137""
","
","","","-1","","","11","15546","6223","a","elianto","#f73b6a7A"," ","-1","0","-10","[]","0","2","","","15546","24","2","3","lose","go","0"
"pit-trial","143","991081","0.0-29.0","battery-v0.2","","""event"",""trial"",""time""
""fullscreenenter"",""1"",""2137""
","
","
","""event"",""trial"",""time""
""fullscreenenter"",""1"",""2137""
","
","","","-1","","","11","15546","6223","g","elianto","#f73b6a7A","-1","-1","1","0","[]","0","2","","","15546","25","3","4","lose","no-go","0"
"pit-trial","144","994813","0.0-30.0","battery-v0.2","","""event"",""trial"",""time""
""fullscreenenter"",""1"",""2137""
","
","
","""event"",""trial"",""time""
""fullscreenenter"",""1"",""2137""
","
","","","876","","","11","15546","6223","l","elianto","#3366ff99","-1"," ","0","0","[1726.0999999996275]","1","2","","","15546","26","1","2","win","no-go","0"
"pit-trial","145","999671","0.0-31.0","battery-v0.2","","""event"",""trial"",""time""
""fullscreenenter"",""1"",""2137""
","
","
","""event"",""trial"",""time""
""fullscreenenter"",""1"",""2137""
","
","","","-1","","","11","15546","6223","a","elianto","#f73b6a7A"," ","-1","0","-10","[]","0","2","","","15546","27","2","3","lose","go","0"
"pit-trial","146","1004245","0.0-32.0","battery-v0.2","","""event"",""trial"",""time""
""fullscreenenter"",""1"",""2137""
","
","
","""event"",""trial"",""time""
""fullscreenenter"",""1"",""2137""
","
","","","1716.9000000003725","","","11","15546","6223","u","elianto","#f73b6a7A"," "," ","1","0","[2567]","1","2","","","15546","28","0","3","lose","go","0"
"pit-trial","147","1008179","0.0-33.0","battery-v0.2","","""event"",""trial"",""time""
""fullscreenenter"",""1"",""2137""
","
","
","""event"",""trial"",""time""
""fullscreenenter"",""1"",""2137""
","
","","","1077.1000000005588","","","11","15546","6223","u","elianto","#f73b6a7A"," "," ","1","0","[1927.3999999994412]","1","2","","","15546","29","0","3","lose","go","0"
"pit-trial","148","1013036","0.0-34.0","battery-v0.2","","""event"",""trial"",""time""
""fullscreenenter"",""1"",""2137""
","
","
","""event"",""trial"",""time""
""fullscreenenter"",""1"",""2137""
","
","","","-1","","","11","15546","6223","l","elianto","#3366ff99","-1","-1","1","+10","[]","0","2","","","15546","30","1","2","win","no-go","0"
"pit-trial","149","1017893","0.0-35.0","battery-v0.2","","""event"",""trial"",""time""
""fullscreenenter"",""1"",""2137""
","
","
","""event"",""trial"",""time""
""fullscreenenter"",""1"",""2137""
","
","","","-1","","","11","15546","6223","g","elianto","#f73b6a7A","-1","-1","1","-10","[]","0","2","","","15546","31","3","4","lose","no-go","1"
"pit-trial","150","1022750","0.0-36.0","battery-v0.2","","""event"",""trial"",""time""
""fullscreenenter"",""1"",""2137""
","
","
","""event"",""trial"",""time""
""fullscreenenter"",""1"",""2137""
","
","","","-1","","","11","15546","6223","a","elianto","#f73b6a7A"," ","-1","0","0","[]","0","2","","","15546","32","2","3","lose","go","1"
"pit-trial","151","1027607","0.0-37.0","battery-v0.2","","""event"",""trial"",""time""
""fullscreenenter"",""1"",""2137""
","
","
","""event"",""trial"",""time""
""fullscreenenter"",""1"",""2137""
","
","","","-1","","","11","15546","6223","l","elianto","#3366ff99","-1","-1","1","+10","[]","0","2","","","15546","33","1","2","win","no-go","0"
"pit-trial","152","1031471","0.0-38.0","battery-v0.2","","""event"",""trial"",""time""
""fullscreenenter"",""1"",""2137""
","
","
","""event"",""trial"",""time""
""fullscreenenter"",""1"",""2137""
","
","","","1007.1999999992549","","","11","15546","6223","u","elianto","#f73b6a7A"," "," ","1","0","[1857.2999999998137]","1","2","","","15546","34","0","3","lose","go","0"
"pit-trial","153","1035270","0.0-39.0","battery-v0.2","","""event"",""trial"",""time""
""fullscreenenter"",""1"",""2137""
","
","
","""event"",""trial"",""time""
""fullscreenenter"",""1"",""2137""
","
","","","943.0999999996275","","","11","15546","6223","g","elianto","#f73b6a7A","-1"," ","0","-10","[1793.1000000005588]","1","2","","","15546","35","3","4","lose","no-go","0"
"pit-trial","154","1040127","0.0-40.0","battery-v0.2","","""event"",""trial"",""time""
""fullscreenenter"",""1"",""2137""
","
","
","""event"",""trial"",""time""
""fullscreenenter"",""1"",""2137""
","
","","","-1","","","11","15546","6223","a","elianto","#f73b6a7A"," ","-1","0","-10","[]","0","2","","","15546","36","2","3","lose","go","0"
"pit-trial","155","1044984","0.0-41.0","battery-v0.2","","""event"",""trial"",""time""
""fullscreenenter"",""1"",""2137""
","
","
","""event"",""trial"",""time""
""fullscreenenter"",""1"",""2137""
","
","","","-1","","","11","15546","6223","g","elianto","#f73b6a7A","-1","-1","1","0","[]","0","2","","","15546","37","3","4","lose","no-go","0"
"pit-trial","156","1049841","0.0-42.0","battery-v0.2","","""event"",""trial"",""time""
""fullscreenenter"",""1"",""2137""
","
","
","""event"",""trial"",""time""
""fullscreenenter"",""1"",""2137""
","
","","","-1","","","11","15546","6223","a","elianto","#f73b6a7A"," ","-1","0","-10","[]","0","2","","","15546","38","2","3","lose","go","0"
"pit-trial","157","1053719","0.0-43.0","battery-v0.2","","""event"",""trial"",""time""
""fullscreenenter"",""1"",""2137""
","
","
","""event"",""trial"",""time""
""fullscreenenter"",""1"",""2137""
","
","","","1018.5","","","11","15546","6223","u","elianto","#f73b6a7A"," "," ","1","-10","[1871.7000000001863]","1","2","","","15546","39","0","3","lose","go","1"
"pit-trial","158","1058577","0.0-44.0","battery-v0.2","","""event"",""trial"",""time""
""fullscreenenter"",""1"",""2137""
","
","
","""event"",""trial"",""time""
""fullscreenenter"",""1"",""2137""
","
","","","-1","","","11","15546","6223","l","elianto","#3366ff99","-1","-1","1","0","[]","0","2","","","15546","40","1","2","win","no-go","1"
"pit-trial","159","1062499","0.0-45.0","battery-v0.2","","""event"",""trial"",""time""
""fullscreenenter"",""1"",""2137""
","
","
","""event"",""trial"",""time""
""fullscreenenter"",""1"",""2137""
","
","","","1066.2000000001863","","","11","15546","6223","a","elianto","#f73b6a7A"," "," ","1","0","[1916.4000000003725]","1","2","","","15546","41","2","3","lose","go","0"
"pit-trial","160","1067357","0.0-46.0","battery-v0.2","","""event"",""trial"",""time""
""fullscreenenter"",""1"",""2137""
","
","
","""event"",""trial"",""time""
""fullscreenenter"",""1"",""2137""
","
","","","-1","","","11","15546","6223","l","elianto","#3366ff99","-1","-1","1","+10","[]","0","2","","","15546","42","1","2","win","no-go","0"
"pit-trial","161","1072213","0.0-47.0","battery-v0.2","","""event"",""trial"",""time""
""fullscreenenter"",""1"",""2137""
","
","
","""event"",""trial"",""time""
""fullscreenenter"",""1"",""2137""
","
","","","-1","","","11","15546","6223","g","elianto","#f73b6a7A","-1","-1","1","0","[]","0","2","","","15546","43","3","4","lose","no-go","0"
"pit-trial","162","1076061","0.0-48.0","battery-v0.2","","""event"",""trial"",""time""
""fullscreenenter"",""1"",""2137""
","
","
","""event"",""trial"",""time""
""fullscreenenter"",""1"",""2137""
","
","","","991.5999999996275","","","11","15546","6223","u","elianto","#f73b6a7A"," "," ","1","-10","[1841.7999999998137]","1","2","","","15546","44","0","3","lose","go","1"
"pit-trial","163","1079660","0.0-49.0","battery-v0.2","","""event"",""trial"",""time""
""fullscreenenter"",""1"",""2137""
","
","
","""event"",""trial"",""time""
""fullscreenenter"",""1"",""2137""
","
","","","741.9000000003725","","","11","15546","6223","a","elianto","#f73b6a7A"," "," ","1","0","[1592.5]","1","2","","","15546","45","2","3","lose","go","0"
"pit-trial","164","1084516","0.0-50.0","battery-v0.2","","""event"",""trial"",""time""
""fullscreenenter"",""1"",""2137""
","
","
","""event"",""trial"",""time""
""fullscreenenter"",""1"",""2137""
","
","","","-1","","","11","15546","6223","l","elianto","#3366ff99","-1","-1","1","+10","[]","0","2","","","15546","46","1","2","win","no-go","0"
"pit-trial","165","1089374","0.0-51.0","battery-v0.2","","""event"",""trial"",""time""
""fullscreenenter"",""1"",""2137""
","
","
","""event"",""trial"",""time""
""fullscreenenter"",""1"",""2137""
","
","","","-1","","","11","15546","6223","u","elianto","#f73b6a7A"," ","-1","0","-10","[]","0","2","","","15546","47","0","3","lose","go","0"
"pit-trial","166","1094231","0.0-52.0","battery-v0.2","","""event"",""trial"",""time""
""fullscreenenter"",""1"",""2137""
","
","
","""event"",""trial"",""time""
""fullscreenenter"",""1"",""2137""
","
","","","-1","","","11","15546","6223","g","elianto","#f73b6a7A","-1","-1","1","0","[]","0","2","","","15546","48","3","4","lose","no-go","0"
"pit-trial","167","1099087","0.0-53.0","battery-v0.2","","""event"",""trial"",""time""
""fullscreenenter"",""1"",""2137""
","
","
","""event"",""trial"",""time""
""fullscreenenter"",""1"",""2137""
","
","","","-1","","","11","15546","6223","g","elianto","#f73b6a7A","-1","-1","1","-10","[]","0","2","","","15546","49","3","4","lose","no-go","1"
"pit-trial","168","1103942","0.0-54.0","battery-v0.2","","""event"",""trial"",""time""
""fullscreenenter"",""1"",""2137""
","
","
","""event"",""trial"",""time""
""fullscreenenter"",""1"",""2137""
","
","","","-1","","","11","15546","6223","l","elianto","#3366ff99","-1","-1","1","0","[]","0","2","","","15546","50","1","2","win","no-go","1"
"pit-trial","169","1107930","0.0-55.0","battery-v0.2","","""event"",""trial"",""time""
""fullscreenenter"",""1"",""2137""
","
","
","""event"",""trial"",""time""
""fullscreenenter"",""1"",""2137""
","
","","","1132.5","","","11","15546","6223","a","elianto","#f73b6a7A"," "," ","1","0","[1982.5999999996275]","1","2","","","15546","51","2","3","lose","go","0"
"pit-trial","170","1112784","0.0-56.0","battery-v0.2","","""event"",""trial"",""time""
""fullscreenenter"",""1"",""2137""
","
","
","""event"",""trial"",""time""
""fullscreenenter"",""1"",""2137""
","
","","","-1","","","11","15546","6223","u","elianto","#f73b6a7A"," ","-1","0","-10","[]","0","2","","","15546","52","0","3","lose","go","0"
"pit-trial","171","1116435","0.0-57.0","battery-v0.2","","""event"",""trial"",""time""
""fullscreenenter"",""1"",""2137""
","
","
","""event"",""trial"",""time""
""fullscreenenter"",""1"",""2137""
","
","","","792.9000000003725","","","11","15546","6223","u","elianto","#f73b6a7A"," "," ","1","0","[1644.7000000001863]","1","2","","","15546","53","0","3","lose","go","0"
"pit-trial","172","1121292","0.0-58.0","battery-v0.2","","""event"",""trial"",""time""
""fullscreenenter"",""1"",""2137""
","
","
","""event"",""trial"",""time""
""fullscreenenter"",""1"",""2137""
","
","","","-1","","","11","15546","6223","l","elianto","#3366ff99","-1","-1","1","+10","[]","0","2","","","15546","54","1","2","win","no-go","0"
"pit-trial","173","1125157","0.0-59.0","battery-v0.2","","""event"",""trial"",""time""
""fullscreenenter"",""1"",""2137""
","
","
","""event"",""trial"",""time""
""fullscreenenter"",""1"",""2137""
","
","","","1007.9000000003725","","","11","15546","6223","a","elianto","#f73b6a7A"," "," ","1","0","[1857.8999999994412]","1","2","","","15546","55","2","3","lose","go","0"
"pit-trial","174","1130014","0.0-60.0","battery-v0.2","","""event"",""trial"",""time""
""fullscreenenter"",""1"",""2137""
","
","
","""event"",""trial"",""time""
""fullscreenenter"",""1"",""2137""
","
","","","-1","","","11","15546","6223","g","elianto","#f73b6a7A","-1","-1","1","0","[]","0","2","","","15546","56","3","4","lose","no-go","0"
"pit-trial","175","1133735","0.0-61.0","battery-v0.2","","""event"",""trial"",""time""
""fullscreenenter"",""1"",""2137""
","
","
","""event"",""trial"",""time""
""fullscreenenter"",""1"",""2137""
","
","","","863.8999999994412","","","11","15546","6223","u","elianto","#f73b6a7A"," "," ","1","0","[1714.1000000005588]","1","2","","","15546","57","0","3","lose","go","0"
"pit-trial","176","1137169","0.0-62.0","battery-v0.2","","""event"",""trial"",""time""
""fullscreenenter"",""1"",""2137""
","
","
","""event"",""trial"",""time""
""fullscreenenter"",""1"",""2137""
","
","","","577.7000000001863","","","11","15546","6223","a","elianto","#f73b6a7A"," "," ","1","0","[1427.800000000745]","1","2","","","15546","58","2","3","lose","go","0"
"pit-trial","177","1141590","0.0-63.0","battery-v0.2","","""event"",""trial"",""time""
""fullscreenenter"",""1"",""2137""
","
","
","""event"",""trial"",""time""
""fullscreenenter"",""1"",""2137""
","
","","","1561.9000000003725","","","11","15546","6223","p","elianto","#3366ff99"," "," ","1","0","[2414.0999999996275]","1","2","","","15546","59","4","1","win","go","1"
"pit-trial","178","1146447","0.0-64.0","battery-v0.2","","""event"",""trial"",""time""
""fullscreenenter"",""1"",""2137""
","
","
","""event"",""trial"",""time""
""fullscreenenter"",""1"",""2137""
","
","","","-1","","","11","15546","6223","g","elianto","#f73b6a7A","-1","-1","1","0","[]","0","2","","","15546","60","3","4","lose","no-go","0"
"pit-trial","179","1151302","0.0-65.0","battery-v0.2","","""event"",""trial"",""time""
""fullscreenenter"",""1"",""2137""
","
","
","""event"",""trial"",""time""
""fullscreenenter"",""1"",""2137""
","
","","","-1","","","11","15546","6223","l","elianto","#3366ff99","-1","-1","1","+10","[]","0","2","","","15546","61","1","2","win","no-go","0"
"pit-trial","180","1156159","0.0-66.0","battery-v0.2","","""event"",""trial"",""time""
""fullscreenenter"",""1"",""2137""
","
","
","""event"",""trial"",""time""
""fullscreenenter"",""1"",""2137""
","
","","","-1","","","11","15546","6223","g","elianto","#f73b6a7A","-1","-1","1","-10","[]","0","2","","","15546","62","3","4","lose","no-go","1"
"pit-trial","181","1159990","0.0-67.0","battery-v0.2","","""event"",""trial"",""time""
""fullscreenenter"",""1"",""2137""
","
","
","""event"",""trial"",""time""
""fullscreenenter"",""1"",""2137""
","
","","","974.1000000005588","","","11","15546","6223","a","elianto","#f73b6a7A"," "," ","1","0","[1824.2999999998137]","1","2","","","15546","63","2","3","lose","go","0"
"pit-trial","182","1164084","0.0-68.0","battery-v0.2","","""event"",""trial"",""time""
""fullscreenenter"",""1"",""2137""
","
","
","""event"",""trial"",""time""
""fullscreenenter"",""1"",""2137""
","
","","","1237.4000000003725","","","11","15546","6223","p","elianto","#3366ff99"," "," ","1","+10","[2087.5]","1","2","","","15546","64","4","1","win","go","0"
"pit-trial","183","1168941","0.0-69.0","battery-v0.2","","""event"",""trial"",""time""
""fullscreenenter"",""1"",""2137""
","
","
","""event"",""trial"",""time""
""fullscreenenter"",""1"",""2137""
","
","","","-1","","","11","15546","6223","g","elianto","#f73b6a7A","-1","-1","1","0","[]","0","2","","","15546","65","3","4","lose","no-go","0"
"pit-trial","184","1173798","0.0-70.0","battery-v0.2","","""event"",""trial"",""time""
""fullscreenenter"",""1"",""2137""
","
","
","""event"",""trial"",""time""
""fullscreenenter"",""1"",""2137""
","
","","","-1","","","11","15546","6223","l","elianto","#3366ff99","-1","-1","1","+10","[]","0","2","","","15546","66","1","2","win","no-go","0"
"pit-trial","185","1177600","0.0-71.0","battery-v0.2","","""event"",""trial"",""time""
""fullscreenenter"",""1"",""2137""
","
","
","""event"",""trial"",""time""
""fullscreenenter"",""1"",""2137""
","
","","","945.2000000001863","","","11","15546","6223","p","elianto","#3366ff99"," "," ","1","+10","[1795.3999999994412]","1","2","","","15546","67","4","1","win","go","0"
"pit-trial","186","1182031","0.0-72.0","battery-v0.2","","""event"",""trial"",""time""
""fullscreenenter"",""1"",""2137""
","
","
","""event"",""trial"",""time""
""fullscreenenter"",""1"",""2137""
","
","","","1572.2000000001863","","","11","15546","6223","s","elianto","#3366ff99","-1"," ","0","0","[2425.2999999998137]","1","2","","","15546","68","5","2","win","no-go","0"
"pit-trial","187","1186888","0.0-73.0","battery-v0.2","","""event"",""trial"",""time""
""fullscreenenter"",""1"",""2137""
","
","
","""event"",""trial"",""time""
""fullscreenenter"",""1"",""2137""
","
","","","-1","","","11","15546","6223","s","elianto","#3366ff99","-1","-1","1","+10","[]","0","2","","","15546","69","5","2","win","no-go","0"
"pit-trial","188","1190626","0.0-74.0","battery-v0.2","","""event"",""trial"",""time""
""fullscreenenter"",""1"",""2137""
","
","
","""event"",""trial"",""time""
""fullscreenenter"",""1"",""2137""
","
","","","876.5999999996275","","","11","15546","6223","p","elianto","#3366ff99"," "," ","1","+10","[1731.6000000005588]","1","2","","","15546","70","4","1","win","go","0"
"pit-trial","189","1194220","0.0-75.0","battery-v0.2","","""event"",""trial"",""time""
""fullscreenenter"",""1"",""2137""
","
","
","""event"",""trial"",""time""
""fullscreenenter"",""1"",""2137""
","
","","","736.5","","","11","15546","6223","a","elianto","#f73b6a7A"," "," ","1","0","[1586.7000000001863]","1","2","","","15546","71","2","3","lose","go","0"
"pit-trial","190","1199077","0.0-76.0","battery-v0.2","","""event"",""trial"",""time""
""fullscreenenter"",""1"",""2137""
","
","
","""event"",""trial"",""time""
""fullscreenenter"",""1"",""2137""
","
","","","-1","","","11","15546","6223","l","elianto","#3366ff99","-1","-1","1","+10","[]","0","2","","","15546","72","1","2","win","no-go","0"
"pit-trial","191","1203934","0.0-77.0","battery-v0.2","","""event"",""trial"",""time""
""fullscreenenter"",""1"",""2137""
","
","
","""event"",""trial"",""time""
""fullscreenenter"",""1"",""2137""
","
","","","-1","","","11","15546","6223","l","elianto","#3366ff99","-1","-1","1","+10","[]","0","2","","","15546","73","1","2","win","no-go","0"
"pit-trial","192","1208790","0.0-78.0","battery-v0.2","","""event"",""trial"",""time""
""fullscreenenter"",""1"",""2137""
","
","
","""event"",""trial"",""time""
""fullscreenenter"",""1"",""2137""
","
","","","-1","","","11","15546","6223","g","elianto","#f73b6a7A","-1","-1","1","-10","[]","0","2","","","15546","74","3","4","lose","no-go","1"
"pit-trial","193","1213647","0.0-79.0","battery-v0.2","","""event"",""trial"",""time""
""fullscreenenter"",""1"",""2137""
","
","
","""event"",""trial"",""time""
""fullscreenenter"",""1"",""2137""
","
","","","-1","","","11","15546","6223","s","elianto","#3366ff99","-1","-1","1","+10","[]","0","2","","","15546","75","5","2","win","no-go","0"
"pit-trial","194","1218126","0.0-80.0","battery-v0.2","","""event"",""trial"",""time""
""fullscreenenter"",""1"",""2137""
","
","
","""event"",""trial"",""time""
""fullscreenenter"",""1"",""2137""
","
","","","1622.8999999994412","","","11","15546","6223","p","elianto","#3366ff99"," "," ","1","+10","[2473]","1","2","","","15546","76","4","1","win","go","0"
"pit-trial","195","1221931","0.0-81.0","battery-v0.2","","""event"",""trial"",""time""
""fullscreenenter"",""1"",""2137""
","
","
","""event"",""trial"",""time""
""fullscreenenter"",""1"",""2137""
","
","","","949.0999999996275","","","11","15546","6223","p","elianto","#3366ff99"," "," ","1","+10","[1799.300000000745]","1","2","","","15546","77","4","1","win","go","0"
"pit-trial","196","1226265","0.0-82.0","battery-v0.2","","""event"",""trial"",""time""
""fullscreenenter"",""1"",""2137""
","
","
","""event"",""trial"",""time""
""fullscreenenter"",""1"",""2137""
","
","","","1477.9000000003725","","","11","15546","6223","p","elianto","#3366ff99"," "," ","1","+10","[2328]","1","2","","","15546","78","4","1","win","go","0"
"pit-trial","197","1230086","0.0-83.0","battery-v0.2","","""event"",""trial"",""time""
""fullscreenenter"",""1"",""2137""
","
","
","""event"",""trial"",""time""
""fullscreenenter"",""1"",""2137""
","
","","","963.7999999998137","","","11","15546","6223","g","elianto","#f73b6a7A","-1"," ","0","-10","[1814]","1","2","","","15546","79","3","4","lose","no-go","0"
"pit-trial","198","1234943","0.0-84.0","battery-v0.2","","""event"",""trial"",""time""
""fullscreenenter"",""1"",""2137""
","
","
","""event"",""trial"",""time""
""fullscreenenter"",""1"",""2137""
","
","","","-1","","","11","15546","6223","s","elianto","#3366ff99","-1","-1","1","+10","[]","0","2","","","15546","80","5","2","win","no-go","0"
"pit-trial","199","1239800","0.0-85.0","battery-v0.2","","""event"",""trial"",""time""
""fullscreenenter"",""1"",""2137""
","
","
","""event"",""trial"",""time""
""fullscreenenter"",""1"",""2137""
","
","","","-1","","","11","15546","6223","s","elianto","#3366ff99","-1","-1","1","+10","[]","0","2","","","15546","81","5","2","win","no-go","0"
"pit-trial","200","1244657","0.0-86.0","battery-v0.2","","""event"",""trial"",""time""
""fullscreenenter"",""1"",""2137""
","
","
","""event"",""trial"",""time""
""fullscreenenter"",""1"",""2137""
","
","","","-1","","","11","15546","6223","p","elianto","#3366ff99"," ","-1","0","0","[]","0","2","","","15546","82","4","1","win","go","0"
"pit-trial","201","1249513","0.0-87.0","battery-v0.2","","""event"",""trial"",""time""
""fullscreenenter"",""1"",""2137""
","
","
","""event"",""trial"",""time""
""fullscreenenter"",""1"",""2137""
","
","","","-1","","","11","15546","6223","e","elianto","#f73b6a7A","-1","-1","1","-10","[]","0","2","","","15546","83","7","4","lose","no-go","1"
"pit-trial","202","1254292","0.0-88.0","battery-v0.2","","""event"",""trial"",""time""
""fullscreenenter"",""1"",""2137""
","
","
","""event"",""trial"",""time""
""fullscreenenter"",""1"",""2137""
","
","","","1922.9000000003725","","","11","15546","6223","g","elianto","#f73b6a7A","-1"," ","0","-10","[2772.899999999441]","1","2","","","15546","84","3","4","lose","no-go","0"
"pit-trial","203","1259150","0.0-89.0","battery-v0.2","","""event"",""trial"",""time""
""fullscreenenter"",""1"",""2137""
","
","
","""event"",""trial"",""time""
""fullscreenenter"",""1"",""2137""
","
","","","-1","","","11","15546","6223","s","elianto","#3366ff99","-1","-1","1","0","[]","0","2","","","15546","85","5","2","win","no-go","1"
"pit-trial","204","1263325","0.0-90.0","battery-v0.2","","""event"",""trial"",""time""
""fullscreenenter"",""1"",""2137""
","
","
","""event"",""trial"",""time""
""fullscreenenter"",""1"",""2137""
","
","","","1318.0999999996275","","","11","15546","6223","e","elianto","#f73b6a7A","-1"," ","0","-10","[2168.2000000001863]","1","2","","","15546","86","7","4","lose","no-go","0"
"pit-trial","205","1268183","0.0-91.0","battery-v0.2","","""event"",""trial"",""time""
""fullscreenenter"",""1"",""2137""
","
","
","""event"",""trial"",""time""
""fullscreenenter"",""1"",""2137""
","
","","","-1","","","11","15546","6223","w","elianto","#f73b6a7A"," ","-1","0","-10","[]","0","2","","","15546","87","6","3","lose","go","0"
"pit-trial","206","1273040","0.0-92.0","battery-v0.2","","""event"",""trial"",""time""
""fullscreenenter"",""1"",""2137""
","
","
","""event"",""trial"",""time""
""fullscreenenter"",""1"",""2137""
","
","","","-1","","","11","15546","6223","p","elianto","#3366ff99"," ","-1","0","0","[]","0","2","","","15546","88","4","1","win","go","0"
"pit-trial","207","1277042","0.0-93.0","battery-v0.2","","""event"",""trial"",""time""
""fullscreenenter"",""1"",""2137""
","
","
","""event"",""trial"",""time""
""fullscreenenter"",""1"",""2137""
","
","","","1144.7999999998137","","","11","15546","6223","s","elianto","#3366ff99","-1"," ","0","0","[1994.800000000745]","1","2","","","15546","89","5","2","win","no-go","0"
"pit-trial","208","1281899","0.0-94.0","battery-v0.2","","""event"",""trial"",""time""
""fullscreenenter"",""1"",""2137""
","
","
","""event"",""trial"",""time""
""fullscreenenter"",""1"",""2137""
","
","","","-1","","","11","15546","6223","e","elianto","#f73b6a7A","-1","-1","1","0","[]","0","2","","","15546","90","7","4","lose","no-go","0"
"pit-trial","209","1286640","0.0-95.0","battery-v0.2","","""event"",""trial"",""time""
""fullscreenenter"",""1"",""2137""
","
","
","""event"",""trial"",""time""
""fullscreenenter"",""1"",""2137""
","
","","","1885","","","11","15546","6223","p","elianto","#3366ff99"," "," ","1","+10","[2735]","1","2","","","15546","91","4","1","win","go","0"
"pit-trial","210","1291497","0.0-96.0","battery-v0.2","","""event"",""trial"",""time""
""fullscreenenter"",""1"",""2137""
","
","
","""event"",""trial"",""time""
""fullscreenenter"",""1"",""2137""
","
","","","-1","","","11","15546","6223","w","elianto","#f73b6a7A"," ","-1","0","-10","[]","0","2","","","15546","92","6","3","lose","go","0"
"pit-trial","211","1296353","0.0-97.0","battery-v0.2","","""event"",""trial"",""time""
""fullscreenenter"",""1"",""2137""
","
","
","""event"",""trial"",""time""
""fullscreenenter"",""1"",""2137""
","
","","","-1","","","11","15546","6223","s","elianto","#3366ff99","-1","-1","1","0","[]","0","2","","","15546","93","5","2","win","no-go","1"
"pit-trial","212","1300497","0.0-98.0","battery-v0.2","","""event"",""trial"",""time""
""fullscreenenter"",""1"",""2137""
","
","
","""event"",""trial"",""time""
""fullscreenenter"",""1"",""2137""
","
","","","1287.0999999996275","","","11","15546","6223","w","elianto","#f73b6a7A"," "," ","1","-10","[2137.2999999998137]","1","2","","","15546","94","6","3","lose","go","1"
"pit-trial","213","1305354","0.0-99.0","battery-v0.2","","""event"",""trial"",""time""
""fullscreenenter"",""1"",""2137""
","
","
","""event"",""trial"",""time""
""fullscreenenter"",""1"",""2137""
","
","","","-1","","","11","15546","6223","d","elianto","#3366ff99"," ","-1","0","0","[]","0","2","","","15546","95","8","1","win","go","0"
"pit-trial","214","1310210","0.0-100.0","battery-v0.2","","""event"",""trial"",""time""
""fullscreenenter"",""1"",""2137""
","
","
","""event"",""trial"",""time""
""fullscreenenter"",""1"",""2137""
","
","","","-1","","","11","15546","6223","e","elianto","#f73b6a7A","-1","-1","1","0","[]","0","2","","","15546","96","7","4","lose","no-go","0"
"pit-trial","215","1315066","0.0-101.0","battery-v0.2","","""event"",""trial"",""time""
""fullscreenenter"",""1"",""2137""
","
","
","""event"",""trial"",""time""
""fullscreenenter"",""1"",""2137""
","
","","","-1","","","11","15546","6223","w","elianto","#f73b6a7A"," ","-1","0","0","[2862.5]","1","2","","","15546","97","6","3","lose","go","1"
"pit-trial","216","1319213","0.0-102.0","battery-v0.2","","""event"",""trial"",""time""
""fullscreenenter"",""1"",""2137""
","
","
","""event"",""trial"",""time""
""fullscreenenter"",""1"",""2137""
","
","","","1289.7000000001863","","","11","15546","6223","s","elianto","#3366ff99","-1"," ","0","0","[2139.7999999998137]","1","2","","","15546","98","5","2","win","no-go","0"
"pit-trial","217","1324070","0.0-103.0","battery-v0.2","","""event"",""trial"",""time""
""fullscreenenter"",""1"",""2137""
","
","
","""event"",""trial"",""time""
""fullscreenenter"",""1"",""2137""
","
","","","-1","","","11","15546","6223","e","elianto","#f73b6a7A","-1","-1","1","0","[]","0","2","","","15546","99","7","4","lose","no-go","0"
"pit-trial","218","1328508","0.0-104.0","battery-v0.2","","""event"",""trial"",""time""
""fullscreenenter"",""1"",""2137""
","
","
","""event"",""trial"",""time""
""fullscreenenter"",""1"",""2137""
","
","","","1581.5","","","11","15546","6223","d","elianto","#3366ff99"," "," ","1","+10","[2431.5]","1","2","","","15546","100","8","1","win","go","0"
"pit-trial","219","1333118","0.0-105.0","battery-v0.2","","""event"",""trial"",""time""
""fullscreenenter"",""1"",""2137""
","
","
","""event"",""trial"",""time""
""fullscreenenter"",""1"",""2137""
","
","","","1752.7000000001863","","","11","15546","6223","j","elianto","#3366ff99"," "," ","1","+10","[2602.9000000003725]","1","2","","","15546","101","9","1","win","go","0"
"pit-trial","220","1336774","0.0-106.0","battery-v0.2","","""event"",""trial"",""time""
""fullscreenenter"",""1"",""2137""
","
","
","""event"",""trial"",""time""
""fullscreenenter"",""1"",""2137""
","
","","","798.7999999998137","","","11","15546","6223","d","elianto","#3366ff99"," "," ","1","+10","[1648.9000000003725]","1","2","","","15546","102","8","1","win","go","0"
"pit-trial","221","1341630","0.0-107.0","battery-v0.2","","""event"",""trial"",""time""
""fullscreenenter"",""1"",""2137""
","
","
","""event"",""trial"",""time""
""fullscreenenter"",""1"",""2137""
","
","","","-1","","","11","15546","6223","e","elianto","#f73b6a7A","-1","-1","1","-10","[]","0","2","","","15546","103","7","4","lose","no-go","1"
"pit-trial","222","1346486","0.0-108.0","battery-v0.2","","""event"",""trial"",""time""
""fullscreenenter"",""1"",""2137""
","
","
","""event"",""trial"",""time""
""fullscreenenter"",""1"",""2137""
","
","","","-1","","","11","15546","6223","s","elianto","#3366ff99","-1","-1","1","+10","[]","0","2","","","15546","104","5","2","win","no-go","0"
"pit-trial","223","1351343","0.0-109.0","battery-v0.2","","""event"",""trial"",""time""
""fullscreenenter"",""1"",""2137""
","
","
","""event"",""trial"",""time""
""fullscreenenter"",""1"",""2137""
","
","","","-1","","","11","15546","6223","p","elianto","#3366ff99"," ","-1","0","0","[]","0","2","","","15546","105","4","1","win","go","0"
"pit-trial","224","1355672","0.0-110.0","battery-v0.2","","""event"",""trial"",""time""
""fullscreenenter"",""1"",""2137""
","
","
","""event"",""trial"",""time""
""fullscreenenter"",""1"",""2137""
","
","","","1472.6000000005588","","","11","15546","6223","j","elianto","#3366ff99"," "," ","1","0","[2322.5999999996275]","1","2","","","15546","106","9","1","win","go","1"
"pit-trial","225","1360529","0.0-111.0","battery-v0.2","","""event"",""trial"",""time""
""fullscreenenter"",""1"",""2137""
","
","
","""event"",""trial"",""time""
""fullscreenenter"",""1"",""2137""
","
","","","-1","","","11","15546","6223","w","elianto","#f73b6a7A"," ","-1","0","-10","[]","0","2","","","15546","107","6","3","lose","go","0"
"pit-trial","226","1365386","0.0-112.0","battery-v0.2","","""event"",""trial"",""time""
""fullscreenenter"",""1"",""2137""
","
","
","""event"",""trial"",""time""
""fullscreenenter"",""1"",""2137""
","
","","","-1","","","11","15546","6223","d","elianto","#3366ff99"," ","-1","0","0","[]","0","2","","","15546","108","8","1","win","go","0"
"pit-trial","227","1369233","0.0-113.0","battery-v0.2","","""event"",""trial"",""time""
""fullscreenenter"",""1"",""2137""
","
","
","""event"",""trial"",""time""
""fullscreenenter"",""1"",""2137""
","
","","","990.9000000003725","","","11","15546","6223","d","elianto","#3366ff99"," "," ","1","+10","[1841]","1","2","","","15546","109","8","1","win","go","0"
"pit-trial","228","1374090","0.0-114.0","battery-v0.2","","""event"",""trial"",""time""
""fullscreenenter"",""1"",""2137""
","
","
","""event"",""trial"",""time""
""fullscreenenter"",""1"",""2137""
","
","","","-1","","","11","15546","6223","s","elianto","#3366ff99","-1","-1","1","0","[]","0","2","","","15546","110","5","2","win","no-go","1"
"pit-trial","229","1378614","0.0-115.0","battery-v0.2","","""event"",""trial"",""time""
""fullscreenenter"",""1"",""2137""
","
","
","""event"",""trial"",""time""
""fullscreenenter"",""1"",""2137""
","
","","","1666.9000000003725","","","11","15546","6223","j","elianto","#3366ff99"," "," ","1","+10","[2517.2000000001863]","1","2","","","15546","111","9","1","win","go","0"
"pit-trial","230","1382718","0.0-116.0","battery-v0.2","","""event"",""trial"",""time""
""fullscreenenter"",""1"",""2137""
","
","
","""event"",""trial"",""time""
""fullscreenenter"",""1"",""2137""
","
","","","1247.5","","","11","15546","6223","w","elianto","#f73b6a7A"," "," ","1","-10","[2097.600000000559]","1","2","","","15546","112","6","3","lose","go","1"
"pit-trial","231","1387237","0.0-117.0","battery-v0.2","","""event"",""trial"",""time""
""fullscreenenter"",""1"",""2137""
","
","
","""event"",""trial"",""time""
""fullscreenenter"",""1"",""2137""
","
","","","1661.8999999994412","","","11","15546","6223","d","elianto","#3366ff99"," "," ","1","+10","[2512]","1","2","","","15546","113","8","1","win","go","0"
"pit-trial","232","1392094","0.0-118.0","battery-v0.2","","""event"",""trial"",""time""
""fullscreenenter"",""1"",""2137""
","
","
","""event"",""trial"",""time""
""fullscreenenter"",""1"",""2137""
","
","","","-1","","","11","15546","6223","w","elianto","#f73b6a7A"," ","-1","0","-10","[]","0","2","","","15546","114","6","3","lose","go","0"
"pit-trial","233","1396103","0.0-119.0","battery-v0.2","","""event"",""trial"",""time""
""fullscreenenter"",""1"",""2137""
","
","
","""event"",""trial"",""time""
""fullscreenenter"",""1"",""2137""
","
","","","1148","","","11","15546","6223","j","elianto","#3366ff99"," "," ","1","+10","[2002.5]","1","2","","","15546","115","9","1","win","go","0"
"pit-trial","234","1399590","0.0-120.0","battery-v0.2","","""event"",""trial"",""time""
""fullscreenenter"",""1"",""2137""
","
","
","""event"",""trial"",""time""
""fullscreenenter"",""1"",""2137""
","
","","","626.2000000001863","","","11","15546","6223","s","elianto","#3366ff99","-1"," ","0","0","[1480.1000000005588]","1","2","","","15546","116","5","2","win","no-go","0"
"pit-trial","235","1403092","0.0-121.0","battery-v0.2","","""event"",""trial"",""time""
""fullscreenenter"",""1"",""2137""
","
","
","""event"",""trial"",""time""
""fullscreenenter"",""1"",""2137""
","
","","","644.3000000007451","","","11","15546","6223","j","elianto","#3366ff99"," "," ","1","+10","[1494.5]","1","2","","","15546","117","9","1","win","go","0"
"pit-trial","236","1407640","0.0-122.0","battery-v0.2","","""event"",""trial"",""time""
""fullscreenenter"",""1"",""2137""
","
","
","""event"",""trial"",""time""
""fullscreenenter"",""1"",""2137""
","
","","","1688.0999999996275","","","11","15546","6223","w","elianto","#f73b6a7A"," "," ","1","0","[2541.4000000003725]","1","2","","","15546","118","6","3","lose","go","0"
"pit-trial","237","1411292","0.0-123.0","battery-v0.2","","""event"",""trial"",""time""
""fullscreenenter"",""1"",""2137""
","
","
","""event"",""trial"",""time""
""fullscreenenter"",""1"",""2137""
","
","","","795.7000000001863","","","11","15546","6223","d","elianto","#3366ff99"," "," ","1","+10","[1645.800000000745]","1","2","","","15546","119","8","1","win","go","0"
"pit-trial","238","1414897","0.0-124.0","battery-v0.2","","""event"",""trial"",""time""
""fullscreenenter"",""1"",""2137""
","
","
","""event"",""trial"",""time""
""fullscreenenter"",""1"",""2137""
","
","","","748.1000000005588","","","11","15546","6223","s","elianto","#3366ff99","-1"," ","0","+10","[1598.3999999994412]","1","2","","","15546","120","5","2","win","no-go","1"
"pit-trial","239","1418999","0.0-125.0","battery-v0.2","","""event"",""trial"",""time""
""fullscreenenter"",""1"",""2137""
","
","
","""event"",""trial"",""time""
""fullscreenenter"",""1"",""2137""
","
","","","1245.5","","","11","15546","6223","j","elianto","#3366ff99"," "," ","1","0","[2095.7000000001863]","1","2","","","15546","121","9","1","win","go","1"
"pit-trial","240","1423856","0.0-126.0","battery-v0.2","","""event"",""trial"",""time""
""fullscreenenter"",""1"",""2137""
","
","
","""event"",""trial"",""time""
""fullscreenenter"",""1"",""2137""
","
","","","-1","","","11","15546","6223","e","elianto","#f73b6a7A","-1","-1","1","0","[]","0","2","","","15546","122","7","4","lose","no-go","0"
"pit-trial","241","1427971","0.0-127.0","battery-v0.2","","""event"",""trial"",""time""
""fullscreenenter"",""1"",""2137""
","
","
","""event"",""trial"",""time""
""fullscreenenter"",""1"",""2137""
","
","","","1258.7000000001863","","","11","15546","6223","w","elianto","#f73b6a7A"," "," ","1","0","[2109]","1","2","","","15546","123","6","3","lose","go","0"
"pit-trial","242","1432571","0.0-128.0","battery-v0.2","","""event"",""trial"",""time""
""fullscreenenter"",""1"",""2137""
","
","
","""event"",""trial"",""time""
""fullscreenenter"",""1"",""2137""
","
","","","1743.2000000001863","","","11","15546","6223","d","elianto","#3366ff99"," "," ","1","+10","[2593.5]","1","2","","","15546","124","8","1","win","go","0"
"pit-trial","243","1436105","0.0-129.0","battery-v0.2","","""event"",""trial"",""time""
""fullscreenenter"",""1"",""2137""
","
","
","""event"",""trial"",""time""
""fullscreenenter"",""1"",""2137""
","
","","","677.9000000003725","","","11","15546","6223","j","elianto","#3366ff99"," "," ","1","+10","[1528.2000000001863]","1","2","","","15546","125","9","1","win","go","0"
"pit-trial","244","1440302","0.0-130.0","battery-v0.2","","""event"",""trial"",""time""
""fullscreenenter"",""1"",""2137""
","
","
","""event"",""trial"",""time""
""fullscreenenter"",""1"",""2137""
","
","","","1339.2999999998137","","","11","15546","6223","e","elianto","#f73b6a7A","-1"," ","0","-10","[2189.5999999996275]","1","2","","","15546","126","7","4","lose","no-go","0"
"pit-trial","245","1443917","0.0-131.0","battery-v0.2","","""event"",""trial"",""time""
""fullscreenenter"",""1"",""2137""
","
","
","""event"",""trial"",""time""
""fullscreenenter"",""1"",""2137""
","
","","","756.5","","","11","15546","6223","d","elianto","#3366ff99"," "," ","1","+10","[1608.4000000003725]","1","2","","","15546","127","8","1","win","go","0"
"pit-trial","246","1447947","0.0-132.0","battery-v0.2","","""event"",""trial"",""time""
""fullscreenenter"",""1"",""2137""
","
","
","""event"",""trial"",""time""
""fullscreenenter"",""1"",""2137""
","
","","","1173.8999999994412","","","11","15546","6223","w","elianto","#f73b6a7A"," "," ","1","0","[2024.2000000001863]","1","2","","","15546","128","6","3","lose","go","0"
"pit-trial","247","1451450","0.0-133.0","battery-v0.2","","""event"",""trial"",""time""
""fullscreenenter"",""1"",""2137""
","
","
","""event"",""trial"",""time""
""fullscreenenter"",""1"",""2137""
","
","","","639.6999999992549","","","11","15546","6223","j","elianto","#3366ff99"," "," ","1","+10","[1496.199999999255]","1","2","","","15546","129","9","1","win","go","0"
"pit-trial","248","1454807","0.0-134.0","battery-v0.2","","""event"",""trial"",""time""
""fullscreenenter"",""1"",""2137""
","
","
","""event"",""trial"",""time""
""fullscreenenter"",""1"",""2137""
","
","","","500.29999999981374","","","11","15546","6223","d","elianto","#3366ff99"," "," ","1","+10","[1350.3999999994412]","1","2","","","15546","130","8","1","win","go","0"
"pit-trial","249","1458666","0.0-135.0","battery-v0.2","","""event"",""trial"",""time""
""fullscreenenter"",""1"",""2137""
","
","
","""event"",""trial"",""time""
""fullscreenenter"",""1"",""2137""
","
","","","997.5","","","11","15546","6223","w","elianto","#f73b6a7A"," "," ","1","0","[1851.300000000745]","1","2","","","15546","131","6","3","lose","go","0"
"pit-trial","250","1463523","0.0-136.0","battery-v0.2","","""event"",""trial"",""time""
""fullscreenenter"",""1"",""2137""
","
","
","""event"",""trial"",""time""
""fullscreenenter"",""1"",""2137""
","
","","","-1","","","11","15546","6223","e","elianto","#f73b6a7A","-1","-1","1","0","[]","0","2","","","15546","132","7","4","lose","no-go","0"
"pit-trial","251","1466947","0.0-137.0","battery-v0.2","","""event"",""trial"",""time""
""fullscreenenter"",""1"",""2137""
","
","
","""event"",""trial"",""time""
""fullscreenenter"",""1"",""2137""
","
","","","566.6999999992549","","","11","15546","6223","d","elianto","#3366ff99"," "," ","1","+10","[1417.0999999996275]","1","2","","","15546","133","8","1","win","go","0"
"pit-trial","252","1470094","0.0-138.0","battery-v0.2","","""event"",""trial"",""time""
""fullscreenenter"",""1"",""2137""
","
","
","""event"",""trial"",""time""
""fullscreenenter"",""1"",""2137""
","
","","","291","","","11","15546","6223","w","elianto","#f73b6a7A"," "," ","1","0","[1141.1000000005588]","1","2","","","15546","134","6","3","lose","go","0"
"pit-trial","253","1473543","0.0-139.0","battery-v0.2","","""event"",""trial"",""time""
""fullscreenenter"",""1"",""2137""
","
","
","""event"",""trial"",""time""
""fullscreenenter"",""1"",""2137""
","
","","","588.8999999994412","","","11","15546","6223","j","elianto","#3366ff99"," "," ","1","+10","[1442.6000000005588]","1","2","","","15546","135","9","1","win","go","0"
"pit-trial","254","1478399","0.0-140.0","battery-v0.2","","""event"",""trial"",""time""
""fullscreenenter"",""1"",""2137""
","
","
","""event"",""trial"",""time""
""fullscreenenter"",""1"",""2137""
","
","","","-1","","","11","15546","6223","e","elianto","#f73b6a7A","-1","-1","1","0","[]","0","2","","","15546","136","7","4","lose","no-go","0"
"pit-trial","255","1481871","0.0-141.0","battery-v0.2","","""event"",""trial"",""time""
""fullscreenenter"",""1"",""2137""
","
","
","""event"",""trial"",""time""
""fullscreenenter"",""1"",""2137""
","
","","","614.4000000003725","","","11","15546","6223","d","elianto","#3366ff99"," "," ","1","0","[1464.7000000001863]","1","2","","","15546","137","8","1","win","go","1"
"pit-trial","256","1485110","0.0-142.0","battery-v0.2","","""event"",""trial"",""time""
""fullscreenenter"",""1"",""2137""
","
","
","""event"",""trial"",""time""
""fullscreenenter"",""1"",""2137""
","
","","","377.6000000005588","","","11","15546","6223","e","elianto","#f73b6a7A","-1"," ","0","-10","[1232.3999999994412]","1","2","","","15546","138","7","4","lose","no-go","0"
"pit-trial","257","1488547","0.0-143.0","battery-v0.2","","""event"",""trial"",""time""
""fullscreenenter"",""1"",""2137""
","
","
","""event"",""trial"",""time""
""fullscreenenter"",""1"",""2137""
","
","","","581.3999999994412","","","11","15546","6223","j","elianto","#3366ff99"," "," ","1","+10","[1431.5999999996275]","1","2","","","15546","139","9","1","win","go","0"
"pit-trial","258","1492185","0.0-144.0","battery-v0.2","","""event"",""trial"",""time""
""fullscreenenter"",""1"",""2137""
","
","
","""event"",""trial"",""time""
""fullscreenenter"",""1"",""2137""
","
","","","781","","","11","15546","6223","w","elianto","#f73b6a7A"," "," ","1","0","[1631.1000000005588]","1","2","","","15546","140","6","3","lose","go","0"
"pit-instructions","259","1519494","0.0-145.0","battery-v0.2","","""event"",""trial"",""time""
""fullscreenenter"",""1"",""2137""
","
","
","""event"",""trial"",""time""
""fullscreenenter"",""1"",""2137""
","
","","[{""page_index"":0,""viewing_time"":18743},{""page_index"":1,""viewing_time"":8559.600000000559}]","27303.400000000373","","","","","","","","","","","","","","","","","","","","","","","",""
"pit-trial","260","1523186","0.0-146.0","battery-v0.2","","""event"",""trial"",""time""
""fullscreenenter"",""1"",""2137""
","
","
","""event"",""trial"",""time""
""fullscreenenter"",""1"",""2137""
","
","","","831.1999999992549","","","11","15546","6223","b","elianto","#f73b6a7A"," "," ","1","0","[1681.6000000005588]","1","3","","","15546","141","3","3","lose","go","0"
"pit-trial","261","1526836","0.0-147.0","battery-v0.2","","""event"",""trial"",""time""
""fullscreenenter"",""1"",""2137""
","
","
","""event"",""trial"",""time""
""fullscreenenter"",""1"",""2137""
","
","","","792.5","","","11","15546","6223","n","elianto","#f73b6a7A","-1"," ","0","-10","[1642.9000000003725]","1","3","","","15546","142","0","4","lose","no-go","0"
"pit-trial","262","1530667","0.0-148.0","battery-v0.2","","""event"",""trial"",""time""
""fullscreenenter"",""1"",""2137""
","
","
","""event"",""trial"",""time""
""fullscreenenter"",""1"",""2137""
","
","","","971.2000000001863","","","11","15546","6223","t","elianto","#f73b6a7A","-1"," ","0","-10","[1824.4000000003725]","1","3","","","15546","143","2","4","lose","no-go","0"
"pit-trial","263","1534228","0.0-149.0","battery-v0.2","","""event"",""trial"",""time""
""fullscreenenter"",""1"",""2137""
","
","
","""event"",""trial"",""time""
""fullscreenenter"",""1"",""2137""
","
","","","703.7999999998137","","","11","15546","6223","f","elianto","#3366ff99"," "," ","1","+10","[1553.9000000003725]","1","3","","","15546","144","1","1","win","go","0"
"pit-trial","264","1539085","0.0-150.0","battery-v0.2","","""event"",""trial"",""time""
""fullscreenenter"",""1"",""2137""
","
","
","""event"",""trial"",""time""
""fullscreenenter"",""1"",""2137""
","
","","","-1","","","11","15546","6223","n","elianto","#f73b6a7A","-1","-1","1","0","[]","0","3","","","15546","145","0","4","lose","no-go","0"
"pit-trial","265","1542971","0.0-151.0","battery-v0.2","","""event"",""trial"",""time""
""fullscreenenter"",""1"",""2137""
","
","
","""event"",""trial"",""time""
""fullscreenenter"",""1"",""2137""
","
","","","1028.7000000001863","","","11","15546","6223","b","elianto","#f73b6a7A"," "," ","1","0","[1878.7999999998137]","1","3","","","15546","146","3","3","lose","go","0"
"pit-trial","266","1546468","0.0-152.0","battery-v0.2","","""event"",""trial"",""time""
""fullscreenenter"",""1"",""2137""
","
","
","""event"",""trial"",""time""
""fullscreenenter"",""1"",""2137""
","
