"trial_type","trial_index","time_elapsed","internal_node_id","task_version","subject_id","interactions","blur_events","focus_events","fullscreenenter_events","fullscreenexit_events","success","view_history","rt","responses","num_errors","age","subject","participantId","rune","rune_set","hex","correct","choice","accuracy","outcome","keys","total_keys","block","practice","value","sub","trial","stimulus","robot","valence","action","sham"
"pavlovia","0","8","0.0-0.0","battery-v0.2","","""event"",""trial"",""time""
""fullscreenenter"",""1"",""2204""
","
","
","""event"",""trial"",""time""
""fullscreenenter"",""1"",""2204""
","
","","","","","","","","","","","","","","","","","","","","","","","","","","",""
"fullscreen","1","3188","0.0-1.0","battery-v0.2","","""event"",""trial"",""time""
""fullscreenenter"",""1"",""2204""
","
","
","""event"",""trial"",""time""
""fullscreenenter"",""1"",""2204""
","
","true","","","","","","","","","","","","","","","","","","","","","","","","","",""
"pit-instructions","2","7774","0.0-2.0-0.0","battery-v0.2","","""event"",""trial"",""time""
""fullscreenenter"",""1"",""2204""
","
","
","""event"",""trial"",""time""
""fullscreenenter"",""1"",""2204""
","
","","[{""page_index"":0,""viewing_time"":4583.899999856949}]","4584.199999809265","","","","","","","","","","","","","","","","","","","","","","","",""
"pit-comprehension","3","34913","0.0-2.0-1.0-0.0","battery-v0.2","","""event"",""trial"",""time""
""fullscreenenter"",""1"",""2204""
","
","
","""event"",""trial"",""time""
""fullscreenenter"",""1"",""2204""
","
","","","27144","[""turtle""]","1","11","8041","4066","","","","","","","","","","","","","","","","","","",""
"pit-instructions","4","38447","0.0-2.0-1.0-1.0","battery-v0.2","","""event"",""trial"",""time""
""fullscreenenter"",""1"",""2204""
","
","
","""event"",""trial"",""time""
""fullscreenenter"",""1"",""2204""
","
","","[{""page_index"":0,""viewing_time"":3528.600000143051}]","3529","","","","","","","","","","","","","","","","","","","","","","","",""
"pit-instructions","5","40214","0.0-2.0-1.0-2.0-0.0","battery-v0.2","","""event"",""trial"",""time""
""fullscreenenter"",""1"",""2204""
","
","
","""event"",""trial"",""time""
""fullscreenenter"",""1"",""2204""
","
","","[{""page_index"":0,""viewing_time"":1765.7999999523163}]","1766.1000001430511","","","","","","","","","","","","","","","","","","","","","","","",""
"pit-comprehension","6","46184","0.0-2.0-1.1-0.1","battery-v0.2","","""event"",""trial"",""time""
""fullscreenenter"",""1"",""2204""
","
","
","""event"",""trial"",""time""
""fullscreenenter"",""1"",""2204""
","
","","","5968.200000047684","[""shark""]","0","11","8041","4066","","","","","","","","","","","","","","","","","","",""
"pit-instructions","7","48345","0.0-2.0-1.1-1.1","battery-v0.2","","""event"",""trial"",""time""
""fullscreenenter"",""1"",""2204""
","
","
","""event"",""trial"",""time""
""fullscreenenter"",""1"",""2204""
","
","","[{""page_index"":0,""viewing_time"":2159.2999999523163}]","2159.5","","","","","","","","","","","","","","","","","","","","","","","",""
"pit-comprehension","8","55430","0.0-2.0-2.0-0.0","battery-v0.2","","""event"",""trial"",""time""
""fullscreenenter"",""1"",""2204""
","
","
","""event"",""trial"",""time""
""fullscreenenter"",""1"",""2204""
","
","","","7083.5","[""tiger""]","0","11","8041","4066","","","","","","","","","","","","","","","","","","",""
"pit-instructions","9","62066","0.0-2.0-2.0-1.0","battery-v0.2","","""event"",""trial"",""time""
""fullscreenenter"",""1"",""2204""
","
","
","""event"",""trial"",""time""
""fullscreenenter"",""1"",""2204""
","
","","[{""page_index"":0,""viewing_time"":6633.700000047684}]","6633.899999856949","","","","","","","","","","","","","","","","","","","","","","","",""
"pit-instructions","10","222553","0.0-2.0-3.0","battery-v0.2","","""event"",""trial"",""time""
""fullscreenenter"",""1"",""2204""
","
","
","""event"",""trial"",""time""
""fullscreenenter"",""1"",""2204""
","
","","[{""page_index"":0,""viewing_time"":8889.200000047684},{""page_index"":1,""viewing_time"":7793.400000095367},{""page_index"":2,""viewing_time"":7267.799999952316},{""page_index"":3,""viewing_time"":8748.700000047684},{""page_index"":4,""viewing_time"":8240.299999952316},{""page_index"":5,""viewing_time"":8790.700000047684},{""page_index"":6,""viewing_time"":48925},{""page_index"":7,""viewing_time"":9172.200000047684},{""page_index"":8,""viewing_time"":9038.5},{""page_index"":9,""viewing_time"":8585.699999809265},{""page_index"":10,""viewing_time"":8532.300000190735},{""page_index"":11,""viewing_time"":13180.399999856949},{""page_index"":12,""viewing_time"":7723.200000047684},{""page_index"":13,""viewing_time"":5591.099999904633}]","160478.80000019073","","","","","","","","","","","","","","","","","","","","","","","",""
"pit-trial","11","225595","0.0-2.0-4.0-0.0","battery-v0.2","","""event"",""trial"",""time""
""fullscreenenter"",""1"",""2204""
","
","
","""event"",""trial"",""time""
""fullscreenenter"",""1"",""2204""
","
","","","181.20000004768372","","","11","8041","4066","&#9784;","elianto","#FFFFF080"," "," ","1","&#10004","[1035.5]","1","0","0","","","","","","","",""
"pit-trial","12","228475","0.0-2.0-4.1-0.1","battery-v0.2","","""event"",""trial"",""time""
""fullscreenenter"",""1"",""2204""
","
","
","""event"",""trial"",""time""
""fullscreenenter"",""1"",""2204""
","
","","","6","","","11","8041","4066","&#9784;","elianto","#FFFFF080"," "," ","1","&#10004","[182,868.2000000476837]","2","0","0","","","","","","","",""
"pit-trial","13","232085","0.0-2.0-4.2-0.2","battery-v0.2","","""event"",""trial"",""time""
""fullscreenenter"",""1"",""2204""
","
","
","""event"",""trial"",""time""
""fullscreenenter"",""1"",""2204""
","
","","","748.2000000476837","","","11","8041","4066","&#9784;","elianto","#FFFFF080"," "," ","1","&#10004","[715.5999999046326,1598.5]","2","0","0","","","","","","","",""
"pit-trial","14","235025","0.0-2.0-4.3-0.3","battery-v0.2","","""event"",""trial"",""time""
""fullscreenenter"",""1"",""2204""
","
","
","""event"",""trial"",""time""
""fullscreenenter"",""1"",""2204""
","
","","","65.40000009536743","","","11","8041","4066","&#9784;","elianto","#FFFFF080"," "," ","1","&#10004","[921.2999999523163]","1","0","0","","","","","","","",""
"pit-trial","15","237915","0.0-2.0-4.4-0.4","battery-v0.2","","""event"",""trial"",""time""
""fullscreenenter"",""1"",""2204""
","
","
","""event"",""trial"",""time""
""fullscreenenter"",""1"",""2204""
","
","","","14","","","11","8041","4066","&#9784;","elianto","#FFFFF080"," "," ","1","&#10004","[880.1000001430511,1856.1000001430511]","2","0","0","","","","","","","",""
"pit-instructions","16","261615","0.0-2.0-5.0","battery-v0.2","","""event"",""trial"",""time""
""fullscreenenter"",""1"",""2204""
","
","
","""event"",""trial"",""time""
""fullscreenenter"",""1"",""2204""
","
","","[{""page_index"":0,""viewing_time"":6170.599999904633},{""page_index"":1,""viewing_time"":5777.5},{""page_index"":2,""viewing_time"":5976.5},{""page_index"":3,""viewing_time"":5773.799999952316}]","23698.700000047684","","","","","","","","","","","","","","","","","","","","","","","",""
"pit-trial","17","266495","0.0-2.0-6.0-0.0","battery-v0.2","","""event"",""trial"",""time""
""fullscreenenter"",""1"",""2204""
","
","
","""event"",""trial"",""time""
""fullscreenenter"",""1"",""2204""
","
","","","-1","","","11","8041","4066","&#9854;","elianto","#FFFFF080","-1","-1","1","&#10004","[]","0","0","1","","","","","","","",""
"pit-trial","18","269835","0.0-2.0-6.1-0.1","battery-v0.2","","""event"",""trial"",""time""
""fullscreenenter"",""1"",""2204""
","
","
","""event"",""trial"",""time""
""fullscreenenter"",""1"",""2204""
","
","","","458.89999985694885","","","11","8041","4066","&#9854;","elianto","#FFFFF080","-1"," ","0","&#10060","[1320.5]","1","0","1","","","","","","","",""
"pit-trial","19","274715","0.0-2.0-6.2-0.2","battery-v0.2","","""event"",""trial"",""time""
""fullscreenenter"",""1"",""2204""
","
","
","""event"",""trial"",""time""
""fullscreenenter"",""1"",""2204""
","
","","","-1","","","11","8041","4066","&#9854;","elianto","#FFFFF080","-1","-1","1","&#10004","[]","0","0","1","","","","","","","",""
"pit-trial","20","279595","0.0-2.0-6.3-0.3","battery-v0.2","","""event"",""trial"",""time""
""fullscreenenter"",""1"",""2204""
","
","
","""event"",""trial"",""time""
""fullscreenenter"",""1"",""2204""
","
","","","-1","","","11","8041","4066","&#9854;","elianto","#FFFFF080","-1","-1","1","&#10004","[]","0","0","1","","","","","","","",""
"pit-trial","21","284485","0.0-2.0-6.4-0.4","battery-v0.2","","""event"",""trial"",""time""
""fullscreenenter"",""1"",""2204""
","
","
","""event"",""trial"",""time""
""fullscreenenter"",""1"",""2204""
","
","","","-1","","","11","8041","4066","&#9854;","elianto","#FFFFF080","-1","-1","1","&#10004","[]","0","0","1","","","","","","","",""
"pit-instructions","22","400507","0.0-2.0-7.0","battery-v0.2","","""event"",""trial"",""time""
""fullscreenenter"",""1"",""2204""
","
","
","""event"",""trial"",""time""
""fullscreenenter"",""1"",""2204""
","
","","[{""page_index"":0,""viewing_time"":5765},{""page_index"":1,""viewing_time"":7938.599999904633},{""page_index"":2,""viewing_time"":5981.700000047684},{""page_index"":3,""viewing_time"":6447.200000047684},{""page_index"":4,""viewing_time"":6124.899999856949},{""page_index"":5,""viewing_time"":5319},{""page_index"":6,""viewing_time"":4935.100000143051},{""page_index"":7,""viewing_time"":8366.099999904633},{""page_index"":8,""viewing_time"":6679.799999952316},{""page_index"":9,""viewing_time"":5156},{""page_index"":10,""viewing_time"":6095.200000047684},{""page_index"":11,""viewing_time"":4729.599999904633},{""page_index"":12,""viewing_time"":6445.900000095367},{""page_index"":13,""viewing_time"":8065.900000095367},{""page_index"":14,""viewing_time"":7217.399999856949},{""page_index"":15,""viewing_time"":6247.200000047684},{""page_index"":16,""viewing_time"":7082.400000095367},{""page_index"":17,""viewing_time"":7432.099999904633}]","116029.39999985695","","","","","","","","","","","","","","","","","","","","","","","",""
"pit-trial","23","403956","0.0-2.0-8.0-0.0","battery-v0.2","","""event"",""trial"",""time""
""fullscreenenter"",""1"",""2204""
","
","
","""event"",""trial"",""time""
""fullscreenenter"",""1"",""2204""
","
","","","587.7000000476837","","","11","8041","4066","&#9776;","elianto","#3366ff99"," "," ","1","+10","[1442]","1","0","1","","","","","","","",""
"pit-trial","24","407376","0.0-2.0-8.0-1.0","battery-v0.2","","""event"",""trial"",""time""
""fullscreenenter"",""1"",""2204""
","
","
","""event"",""trial"",""time""
""fullscreenenter"",""1"",""2204""
","
","","","551.5","","","11","8041","4066","&#9776;","elianto","#3366ff99"," "," ","1","+10","[1406.0999999046326]","1","0","1","","","","","","","",""
"pit-trial","25","411136","0.0-2.0-8.0-2.0","battery-v0.2","","""event"",""trial"",""time""
""fullscreenenter"",""1"",""2204""
","
","
","""event"",""trial"",""time""
""fullscreenenter"",""1"",""2204""
","
","","","888.5","","","11","8041","4066","&#9776;","elianto","#3366ff99"," "," ","1","+10","[1739.5]","1","0","1","","","","","","","",""
"pit-trial","26","414556","0.0-2.0-8.0-3.0","battery-v0.2","","""event"",""trial"",""time""
""fullscreenenter"",""1"",""2204""
","
","
","""event"",""trial"",""time""
""fullscreenenter"",""1"",""2204""
","
","","","553.5","","","11","8041","4066","&#9776;","elianto","#3366ff99"," "," ","1","0","[1411.5999999046326]","1","0","1","","","","","","","",""
"pit-trial","27","418376","0.0-2.0-8.0-4.0","battery-v0.2","","""event"",""trial"",""time""
""fullscreenenter"",""1"",""2204""
","
","
","""event"",""trial"",""time""
""fullscreenenter"",""1"",""2204""
","
","","","943.7000000476837","","","11","8041","4066","&#9776;","elianto","#3366ff99"," "," ","1","+10","[1798.3000001907349]","1","0","1","","","","","","","",""
"pit-trial","28","422006","0.0-2.0-8.1-0.1","battery-v0.2","","""event"",""trial"",""time""
""fullscreenenter"",""1"",""2204""
","
","
","""event"",""trial"",""time""
""fullscreenenter"",""1"",""2204""
","
","","","774.9000000953674","","","11","8041","4066","&#9776;","elianto","#3366ff99"," "," ","1","+10","[1625.1000001430511]","1","0","1","","","","","","","",""
"pit-trial","29","425916","0.0-2.0-8.1-1.1","battery-v0.2","","""event"",""trial"",""time""
""fullscreenenter"",""1"",""2204""
","
","
","""event"",""trial"",""time""
""fullscreenenter"",""1"",""2204""
","
","","","1053","","","11","8041","4066","&#9776;","elianto","#3366ff99"," "," ","1","+10","[1906.7999999523163]","1","0","1","","","","","","","",""
"pit-trial","30","429376","0.0-2.0-8.1-2.1","battery-v0.2","","""event"",""trial"",""time""
""fullscreenenter"",""1"",""2204""
","
","
","""event"",""trial"",""time""
""fullscreenenter"",""1"",""2204""
","
","","","588.5","","","11","8041","4066","&#9776;","elianto","#3366ff99"," "," ","1","+10","[1449.0999999046326]","1","0","1","","","","","","","",""
"pit-trial","31","432826","0.0-2.0-8.1-3.1","battery-v0.2","","""event"",""trial"",""time""
""fullscreenenter"",""1"",""2204""
","
","
","""event"",""trial"",""time""
""fullscreenenter"",""1"",""2204""
","
","","","596.7999999523163","","","11","8041","4066","&#9776;","elianto","#3366ff99"," "," ","1","0","[1448]","1","0","1","","","","","","","",""
"pit-trial","32","436329","0.0-2.0-8.1-4.1","battery-v0.2","","""event"",""trial"",""time""
""fullscreenenter"",""1"",""2204""
","
","
","""event"",""trial"",""time""
""fullscreenenter"",""1"",""2204""
","
","","","651","","","11","8041","4066","&#9776;","elianto","#3366ff99"," "," ","1","+10","[1501.3000001907349]","1","0","1","","","","","","","",""
"pit-trial","33","440215","0.0-2.0-8.2-0.2","battery-v0.2","","""event"",""trial"",""time""
""fullscreenenter"",""1"",""2204""
","
","
","""event"",""trial"",""time""
""fullscreenenter"",""1"",""2204""
","
","","","1034.9000000953674","","","11","8041","4066","&#9776;","elianto","#3366ff99"," "," ","1","+10","[1885]","1","0","1","","","","","","","",""
"pit-trial","34","443733","0.0-2.0-8.2-1.2","battery-v0.2","","""event"",""trial"",""time""
""fullscreenenter"",""1"",""2204""
","
","
","""event"",""trial"",""time""
""fullscreenenter"",""1"",""2204""
","
","","","665.0999999046326","","","11","8041","4066","&#9776;","elianto","#3366ff99"," "," ","1","+10","[1516.2000000476837]","1","0","1","","","","","","","",""
"pit-trial","35","447306","0.0-2.0-8.2-2.2","battery-v0.2","","""event"",""trial"",""time""
""fullscreenenter"",""1"",""2204""
","
","
","""event"",""trial"",""time""
""fullscreenenter"",""1"",""2204""
","
","","","720","","","11","8041","4066","&#9776;","elianto","#3366ff99"," "," ","1","+10","[1571]","1","0","1","","","","","","","",""
"pit-trial","36","450989","0.0-2.0-8.2-3.2","battery-v0.2","","""event"",""trial"",""time""
""fullscreenenter"",""1"",""2204""
","
","
","""event"",""trial"",""time""
""fullscreenenter"",""1"",""2204""
","
","","","830.5","","","11","8041","4066","&#9776;","elianto","#3366ff99"," "," ","1","0","[1681.5999999046326]","1","0","1","","","","","","","",""
"pit-trial","37","454715","0.0-2.0-8.2-4.2","battery-v0.2","","""event"",""trial"",""time""
""fullscreenenter"",""1"",""2204""
","
","
","""event"",""trial"",""time""
""fullscreenenter"",""1"",""2204""
","
","","","872.4000000953674","","","11","8041","4066","&#9776;","elianto","#3366ff99"," "," ","1","+10","[1723.2999999523163]","1","0","1","","","","","","","",""
"call-function","38","454716","0.0-2.0-9.0","battery-v0.2","","""event"",""trial"",""time""
""fullscreenenter"",""1"",""2204""
","
","
","""event"",""trial"",""time""
""fullscreenenter"",""1"",""2204""
","
","","","","","","","","","","","","","","","","","","","","","","","","","","",""
"pit-instructions","39","508361","0.0-2.0-10.0","battery-v0.2","","""event"",""trial"",""time""
""fullscreenenter"",""1"",""2204""
","
","
","""event"",""trial"",""time""
""fullscreenenter"",""1"",""2204""
","
","","[{""page_index"":0,""viewing_time"":11869.199999809265},{""page_index"":1,""viewing_time"":12611.800000190735},{""page_index"":2,""viewing_time"":11379.599999904633},{""page_index"":3,""viewing_time"":9677.299999952316},{""page_index"":4,""viewing_time"":8097.900000095367}]","53636.09999990463","","","","","","","","","","","","","","","","","","","","","","","",""
"pit-trial","40","511904","0.0-2.0-11.0-0.0","battery-v0.2","","""event"",""trial"",""time""
""fullscreenenter"",""1"",""2204""
","
","
","""event"",""trial"",""time""
""fullscreenenter"",""1"",""2204""
","
","","","676.8999998569489","","","11","8041","4066","&#9761;","elianto","#3366ff99","-1"," ","0","0","[1533]","1","0","2","","","","","","","",""
"pit-trial","41","515345","0.0-2.0-11.0-1.0","battery-v0.2","","""event"",""trial"",""time""
""fullscreenenter"",""1"",""2204""
","
","
","""event"",""trial"",""time""
""fullscreenenter"",""1"",""2204""
","
","","","574.5","","","11","8041","4066","&#9761;","elianto","#3366ff99","-1"," ","0","0","[1437]","1","0","2","","","","","","","",""
"pit-trial","42","520211","0.0-2.0-11.0-2.0","battery-v0.2","","""event"",""trial"",""time""
""fullscreenenter"",""1"",""2204""
","
","
","""event"",""trial"",""time""
""fullscreenenter"",""1"",""2204""
","
","","","-1","","","11","8041","4066","&#9761;","elianto","#3366ff99","-1","-1","1","+10","[]","0","0","2","","","","","","","",""
"pit-trial","43","525085","0.0-2.0-11.0-3.0","battery-v0.2","","""event"",""trial"",""time""
""fullscreenenter"",""1"",""2204""
","
","
","""event"",""trial"",""time""
""fullscreenenter"",""1"",""2204""
","
","","","-1","","","11","8041","4066","&#9761;","elianto","#3366ff99","-1","-1","1","0","[]","0","0","2","","","","","","","",""
"pit-trial","44","529965","0.0-2.0-11.0-4.0","battery-v0.2","","""event"",""trial"",""time""
""fullscreenenter"",""1"",""2204""
","
","
","""event"",""trial"",""time""
""fullscreenenter"",""1"",""2204""
","
","","","-1","","","11","8041","4066","&#9761;","elianto","#3366ff99","-1","-1","1","+10","[]","0","0","2","","","","","","","",""
"pit-trial","45","534845","0.0-2.0-11.1-0.1","battery-v0.2","","""event"",""trial"",""time""
""fullscreenenter"",""1"",""2204""
","
","
","""event"",""trial"",""time""
""fullscreenenter"",""1"",""2204""
","
","","","-1","","","11","8041","4066","&#9761;","elianto","#3366ff99","-1","-1","1","+10","[]","0","0","2","","","","","","","",""
"pit-trial","46","539696","0.0-2.0-11.1-1.1","battery-v0.2","","""event"",""trial"",""time""
""fullscreenenter"",""1"",""2204""
","
","
","""event"",""trial"",""time""
""fullscreenenter"",""1"",""2204""
","
","","","-1","","","11","8041","4066","&#9761;","elianto","#3366ff99","-1","-1","1","+10","[]","0","0","2","","","","","","","",""
"pit-trial","47","544548","0.0-2.0-11.1-2.1","battery-v0.2","","""event"",""trial"",""time""
""fullscreenenter"",""1"",""2204""
","
","
","""event"",""trial"",""time""
""fullscreenenter"",""1"",""2204""
","
","","","-1","","","11","8041","4066","&#9761;","elianto","#3366ff99","-1","-1","1","+10","[]","0","0","2","","","","","","","",""
"pit-trial","48","549401","0.0-2.0-11.1-3.1","battery-v0.2","","""event"",""trial"",""time""
""fullscreenenter"",""1"",""2204""
","
","
","""event"",""trial"",""time""
""fullscreenenter"",""1"",""2204""
","
","","","-1","","","11","8041","4066","&#9761;","elianto","#3366ff99","-1","-1","1","0","[]","0","0","2","","","","","","","",""
"pit-trial","49","554253","0.0-2.0-11.1-4.1","battery-v0.2","","""event"",""trial"",""time""
""fullscreenenter"",""1"",""2204""
","
","
","""event"",""trial"",""time""
""fullscreenenter"",""1"",""2204""
","
","","","-1","","","11","8041","4066","&#9761;","elianto","#3366ff99","-1","-1","1","+10","[]","0","0","2","","","","","","","",""
"pit-trial","50","559105","0.0-2.0-11.2-0.2","battery-v0.2","","""event"",""trial"",""time""
""fullscreenenter"",""1"",""2204""
","
","
","""event"",""trial"",""time""
""fullscreenenter"",""1"",""2204""
","
","","","-1","","","11","8041","4066","&#9761;","elianto","#3366ff99","-1","-1","1","+10","[]","0","0","2","","","","","","","",""
"pit-trial","51","563956","0.0-2.0-11.2-1.2","battery-v0.2","","""event"",""trial"",""time""
""fullscreenenter"",""1"",""2204""
","
","
","""event"",""trial"",""time""
""fullscreenenter"",""1"",""2204""
","
","","","-1","","","11","8041","4066","&#9761;","elianto","#3366ff99","-1","-1","1","+10","[]","0","0","2","","","","","","","",""
"pit-trial","52","568810","0.0-2.0-11.2-2.2","battery-v0.2","","""event"",""trial"",""time""
""fullscreenenter"",""1"",""2204""
","
","
","""event"",""trial"",""time""
""fullscreenenter"",""1"",""2204""
","
","","","-1","","","11","8041","4066","&#9761;","elianto","#3366ff99","-1","-1","1","+10","[]","0","0","2","","","","","","","",""
"pit-trial","53","573661","0.0-2.0-11.2-3.2","battery-v0.2","","""event"",""trial"",""time""
""fullscreenenter"",""1"",""2204""
","
","
","""event"",""trial"",""time""
""fullscreenenter"",""1"",""2204""
","
","","","-1","","","11","8041","4066","&#9761;","elianto","#3366ff99","-1","-1","1","0","[]","0","0","2","","","","","","","",""
"pit-trial","54","578513","0.0-2.0-11.2-4.2","battery-v0.2","","""event"",""trial"",""time""
""fullscreenenter"",""1"",""2204""
","
","
","""event"",""trial"",""time""
""fullscreenenter"",""1"",""2204""
","
","","","-1","","","11","8041","4066","&#9761;","elianto","#3366ff99","-1","-1","1","+10","[]","0","0","2","","","","","","","",""
"pit-trial","55","583366","0.0-2.0-11.3-0.3","battery-v0.2","","""event"",""trial"",""time""
""fullscreenenter"",""1"",""2204""
","
","
","""event"",""trial"",""time""
""fullscreenenter"",""1"",""2204""
","
","","","-1","","","11","8041","4066","&#9761;","elianto","#3366ff99","-1","-1","1","+10","[]","0","0","2","","","","","","","",""
"pit-trial","56","588219","0.0-2.0-11.3-1.3","battery-v0.2","","""event"",""trial"",""time""
""fullscreenenter"",""1"",""2204""
","
","
","""event"",""trial"",""time""
""fullscreenenter"",""1"",""2204""
","
","","","-1","","","11","8041","4066","&#9761;","elianto","#3366ff99","-1","-1","1","+10","[]","0","0","2","","","","","","","",""
"pit-trial","57","593072","0.0-2.0-11.3-2.3","battery-v0.2","","""event"",""trial"",""time""
""fullscreenenter"",""1"",""2204""
","
","
","""event"",""trial"",""time""
""fullscreenenter"",""1"",""2204""
","
","","","-1","","","11","8041","4066","&#9761;","elianto","#3366ff99","-1","-1","1","+10","[]","0","0","2","","","","","","","",""
"pit-trial","58","597924","0.0-2.0-11.3-3.3","battery-v0.2","","""event"",""trial"",""time""
""fullscreenenter"",""1"",""2204""
","
","
","""event"",""trial"",""time""
""fullscreenenter"",""1"",""2204""
","
","","","-1","","","11","8041","4066","&#9761;","elianto","#3366ff99","-1","-1","1","0","[]","0","0","2","","","","","","","",""
"pit-trial","59","602776","0.0-2.0-11.3-4.3","battery-v0.2","","""event"",""trial"",""time""
""fullscreenenter"",""1"",""2204""
","
","
","""event"",""trial"",""time""
""fullscreenenter"",""1"",""2204""
","
","","","-1","","","11","8041","4066","&#9761;","elianto","#3366ff99","-1","-1","1","+10","[]","0","0","2","","","","","","","",""
"call-function","60","602777","0.0-2.0-12.0","battery-v0.2","","""event"",""trial"",""time""
""fullscreenenter"",""1"",""2204""
","
","
","""event"",""trial"",""time""
""fullscreenenter"",""1"",""2204""
","
","","","","","","","","","","","","","","","","","","","","","","","","","","",""
"pit-instructions","61","650727","0.0-2.0-13.0","battery-v0.2","","""event"",""trial"",""time""
""fullscreenenter"",""1"",""2204""
","
","
","""event"",""trial"",""time""
""fullscreenenter"",""1"",""2204""
","
","","[{""page_index"":0,""viewing_time"":16934.200000047684},{""page_index"":1,""viewing_time"":8256.899999856949},{""page_index"":2,""viewing_time"":5259.400000095367},{""page_index"":3,""viewing_time"":12109.400000095367},{""page_index"":4,""viewing_time"":5392.899999856949}]","47953.09999990463","","","","","","","","","","","","","","","","","","","","","","","",""
"pit-trial","62","655602","0.0-2.0-14.0-0.0","battery-v0.2","","""event"",""trial"",""time""
""fullscreenenter"",""1"",""2204""
","
","
","""event"",""trial"",""time""
""fullscreenenter"",""1"",""2204""
","
","","","-1","","","11","8041","4066","&#9826;","elianto","#f73b6a7A","-1","-1","1","0","[]","0","0","3","","","","","","","",""
"pit-trial","63","660474","0.0-2.0-14.0-1.0","battery-v0.2","","""event"",""trial"",""time""
""fullscreenenter"",""1"",""2204""
","
","
","""event"",""trial"",""time""
""fullscreenenter"",""1"",""2204""
","
","","","-1","","","11","8041","4066","&#9826;","elianto","#f73b6a7A","-1","-1","1","0","[]","0","0","3","","","","","","","",""
"pit-trial","64","663794","0.0-2.0-14.0-2.0","battery-v0.2","","""event"",""trial"",""time""
""fullscreenenter"",""1"",""2204""
","
","
","""event"",""trial"",""time""
""fullscreenenter"",""1"",""2204""
","
","","","458.5","","","11","8041","4066","&#9826;","elianto","#f73b6a7A","-1"," ","0","-10","[1310]","1","0","3","","","","","","","",""
"pit-trial","65","667644","0.0-2.0-14.0-3.0","battery-v0.2","","""event"",""trial"",""time""
""fullscreenenter"",""1"",""2204""
","
","
","""event"",""trial"",""time""
""fullscreenenter"",""1"",""2204""
","
","","","986.5","","","11","8041","4066","&#9826;","elianto","#f73b6a7A","-1"," ","0","0","[1837.5]","1","0","3","","","","","","","",""
"pit-trial","66","672534","0.0-2.0-14.0-4.0","battery-v0.2","","""event"",""trial"",""time""
""fullscreenenter"",""1"",""2204""
","
","
","""event"",""trial"",""time""
""fullscreenenter"",""1"",""2204""
","
","","","-1","","","11","8041","4066","&#9826;","elianto","#f73b6a7A","-1","-1","1","0","[]","0","0","3","","","","","","","",""
"pit-trial","67","676334","0.0-2.0-14.1-0.1","battery-v0.2","","""event"",""trial"",""time""
""fullscreenenter"",""1"",""2204""
","
","
","""event"",""trial"",""time""
""fullscreenenter"",""1"",""2204""
","
","","","931.0999999046326","","","11","8041","4066","&#9826;","elianto","#f73b6a7A","-1"," ","0","-10","[1788.7999999523163]","1","0","3","","","","","","","",""
"pit-trial","68","681194","0.0-2.0-14.1-1.1","battery-v0.2","","""event"",""trial"",""time""
""fullscreenenter"",""1"",""2204""
","
","
","""event"",""trial"",""time""
""fullscreenenter"",""1"",""2204""
","
","","","-1","","","11","8041","4066","&#9826;","elianto","#f73b6a7A","-1","-1","1","0","[]","0","0","3","","","","","","","",""
"pit-trial","69","686047","0.0-2.0-14.1-2.1","battery-v0.2","","""event"",""trial"",""time""
""fullscreenenter"",""1"",""2204""
","
","
","""event"",""trial"",""time""
""fullscreenenter"",""1"",""2204""
","
","","","-1","","","11","8041","4066","&#9826;","elianto","#f73b6a7A","-1","-1","1","0","[]","0","0","3","","","","","","","",""
"pit-trial","70","690899","0.0-2.0-14.1-3.1","battery-v0.2","","""event"",""trial"",""time""
""fullscreenenter"",""1"",""2204""
","
","
","""event"",""trial"",""time""
""fullscreenenter"",""1"",""2204""
","
","","","-1","","","11","8041","4066","&#9826;","elianto","#f73b6a7A","-1","-1","1","-10","[]","0","0","3","","","","","","","",""
"pit-trial","71","695751","0.0-2.0-14.1-4.1","battery-v0.2","","""event"",""trial"",""time""
""fullscreenenter"",""1"",""2204""
","
","
","""event"",""trial"",""time""
""fullscreenenter"",""1"",""2204""
","
","","","-1","","","11","8041","4066","&#9826;","elianto","#f73b6a7A","-1","-1","1","0","[]","0","0","3","","","","","","","",""
"pit-trial","72","700603","0.0-2.0-14.2-0.2","battery-v0.2","","""event"",""trial"",""time""
""fullscreenenter"",""1"",""2204""
","
","
","""event"",""trial"",""time""
""fullscreenenter"",""1"",""2204""
","
","","","-1","","","11","8041","4066","&#9826;","elianto","#f73b6a7A","-1","-1","1","0","[]","0","0","3","","","","","","","",""
"pit-trial","73","705458","0.0-2.0-14.2-1.2","battery-v0.2","","""event"",""trial"",""time""
""fullscreenenter"",""1"",""2204""
","
","
","""event"",""trial"",""time""
""fullscreenenter"",""1"",""2204""
","
","","","-1","","","11","8041","4066","&#9826;","elianto","#f73b6a7A","-1","-1","1","0","[]","0","0","3","","","","","","","",""
"pit-trial","74","710311","0.0-2.0-14.2-2.2","battery-v0.2","","""event"",""trial"",""time""
""fullscreenenter"",""1"",""2204""
","
","
","""event"",""trial"",""time""
""fullscreenenter"",""1"",""2204""
","
","","","-1","","","11","8041","4066","&#9826;","elianto","#f73b6a7A","-1","-1","1","0","[]","0","0","3","","","","","","","",""
"pit-trial","75","715163","0.0-2.0-14.2-3.2","battery-v0.2","","""event"",""trial"",""time""
""fullscreenenter"",""1"",""2204""
","
","
","""event"",""trial"",""time""
""fullscreenenter"",""1"",""2204""
","
","","","-1","","","11","8041","4066","&#9826;","elianto","#f73b6a7A","-1","-1","1","-10","[]","0","0","3","","","","","","","",""
"pit-trial","76","720015","0.0-2.0-14.2-4.2","battery-v0.2","","""event"",""trial"",""time""
""fullscreenenter"",""1"",""2204""
","
","
","""event"",""trial"",""time""
""fullscreenenter"",""1"",""2204""
","
","","","-1","","","11","8041","4066","&#9826;","elianto","#f73b6a7A","-1","-1","1","0","[]","0","0","3","","","","","","","",""
"pit-trial","77","724868","0.0-2.0-14.3-0.3","battery-v0.2","","""event"",""trial"",""time""
""fullscreenenter"",""1"",""2204""
","
","
","""event"",""trial"",""time""
""fullscreenenter"",""1"",""2204""
","
","","","-1","","","11","8041","4066","&#9826;","elianto","#f73b6a7A","-1","-1","1","0","[]","0","0","3","","","","","","","",""
"pit-trial","78","729721","0.0-2.0-14.3-1.3","battery-v0.2","","""event"",""trial"",""time""
""fullscreenenter"",""1"",""2204""
","
","
","""event"",""trial"",""time""
""fullscreenenter"",""1"",""2204""
","
","","","-1","","","11","8041","4066","&#9826;","elianto","#f73b6a7A","-1","-1","1","0","[]","0","0","3","","","","","","","",""
"pit-trial","79","734573","0.0-2.0-14.3-2.3","battery-v0.2","","""event"",""trial"",""time""
""fullscreenenter"",""1"",""2204""
","
","
","""event"",""trial"",""time""
""fullscreenenter"",""1"",""2204""
","
","","","-1","","","11","8041","4066","&#9826;","elianto","#f73b6a7A","-1","-1","1","0","[]","0","0","3","","","","","","","",""
"pit-trial","80","739426","0.0-2.0-14.3-3.3","battery-v0.2","","""event"",""trial"",""time""
""fullscreenenter"",""1"",""2204""
","
","
","""event"",""trial"",""time""
""fullscreenenter"",""1"",""2204""
","
","","","-1","","","11","8041","4066","&#9826;","elianto","#f73b6a7A","-1","-1","1","-10","[]","0","0","3","","","","","","","",""
"pit-trial","81","744278","0.0-2.0-14.3-4.3","battery-v0.2","","""event"",""trial"",""time""
""fullscreenenter"",""1"",""2204""
","
","
","""event"",""trial"",""time""
""fullscreenenter"",""1"",""2204""
","
","","","-1","","","11","8041","4066","&#9826;","elianto","#f73b6a7A","-1","-1","1","0","[]","0","0","3","","","","","","","",""
"call-function","82","744278","0.0-2.0-15.0","battery-v0.2","","""event"",""trial"",""time""
""fullscreenenter"",""1"",""2204""
","
","
","""event"",""trial"",""time""
""fullscreenenter"",""1"",""2204""
","
","","","","","","","","","","","","","","","","","","","","","","","","","","",""
"pit-instructions","83","798881","0.0-2.0-16.0","battery-v0.2","","""event"",""trial"",""time""
""fullscreenenter"",""1"",""2204""
","
","
","""event"",""trial"",""time""
""fullscreenenter"",""1"",""2204""
","
","","[{""page_index"":0,""viewing_time"":12701.200000047684},{""page_index"":1,""viewing_time"":30652.5},{""page_index"":2,""viewing_time"":6098.200000047684},{""page_index"":3,""viewing_time"":5150.5}]","54602.60000014305","","","","","","","","","","","","","","","","","","","","","","","",""
"pit-trial","84","802897","0.0-2.0-17.0-0.0","battery-v0.2","","""event"",""trial"",""time""
""fullscreenenter"",""1"",""2204""
","
","
","""event"",""trial"",""time""
""fullscreenenter"",""1"",""2204""
","
","","","1140.2000000476837","","","11","8041","4066","&#9789;","elianto","#f73b6a7A"," "," ","1","0","[2002]","1","0","4","","","","","","","",""
"pit-trial","85","806307","0.0-2.0-17.0-1.0","battery-v0.2","","""event"",""trial"",""time""
""fullscreenenter"",""1"",""2204""
","
","
","""event"",""trial"",""time""
""fullscreenenter"",""1"",""2204""
","
","","","540.9000000953674","","","11","8041","4066","&#9789;","elianto","#f73b6a7A"," "," ","1","0","[1403.7000000476837]","1","0","4","","","","","","","",""
"pit-trial","86","811187","0.0-2.0-17.0-2.0","battery-v0.2","","""event"",""trial"",""time""
""fullscreenenter"",""1"",""2204""
","
","
","""event"",""trial"",""time""
""fullscreenenter"",""1"",""2204""
","
","","","-1","","","11","8041","4066","&#9789;","elianto","#f73b6a7A"," ","-1","0","-10","[]","0","0","4","","","","","","","",""
"pit-trial","87","816077","0.0-2.0-17.0-3.0","battery-v0.2","","""event"",""trial"",""time""
""fullscreenenter"",""1"",""2204""
","
","
","""event"",""trial"",""time""
""fullscreenenter"",""1"",""2204""
","
","","","-1","","","11","8041","4066","&#9789;","elianto","#f73b6a7A"," ","-1","0","0","[]","0","0","4","","","","","","","",""
"pit-trial","88","819477","0.0-2.0-17.0-4.0","battery-v0.2","","""event"",""trial"",""time""
""fullscreenenter"",""1"",""2204""
","
","
","""event"",""trial"",""time""
""fullscreenenter"",""1"",""2204""
","
","","","538.8999998569489","","","11","8041","4066","&#9789;","elianto","#f73b6a7A"," "," ","1","0","[1390]","1","0","4","","","","","","","",""
"pit-trial","89","822947","0.0-2.0-17.1-0.1","battery-v0.2","","""event"",""trial"",""time""
""fullscreenenter"",""1"",""2204""
","
","
","""event"",""trial"",""time""
""fullscreenenter"",""1"",""2204""
","
","","","593.7999999523163","","","11","8041","4066","&#9789;","elianto","#f73b6a7A"," "," ","1","0","[1458.0999999046326]","1","0","4","","","","","","","",""
"pit-trial","90","826347","0.0-2.0-17.1-1.1","battery-v0.2","","""event"",""trial"",""time""
""fullscreenenter"",""1"",""2204""
","
","
","""event"",""trial"",""time""
""fullscreenenter"",""1"",""2204""
","
","","","517.9000000953674","","","11","8041","4066","&#9789;","elianto","#f73b6a7A"," "," ","1","0","[1382.2000000476837]","1","0","4","","","","","","","",""
"pit-trial","91","829471","0.0-2.0-17.1-2.1","battery-v0.2","","""event"",""trial"",""time""
""fullscreenenter"",""1"",""2204""
","
","
","""event"",""trial"",""time""
""fullscreenenter"",""1"",""2204""
","
","","","260.90000009536743","","","11","8041","4066","&#9789;","elianto","#f73b6a7A"," "," ","1","0","[1122.5]","1","0","4","","","","","","","",""
"pit-trial","92","832619","0.0-2.0-17.1-3.1","battery-v0.2","","""event"",""trial"",""time""
""fullscreenenter"",""1"",""2204""
","
","
","""event"",""trial"",""time""
""fullscreenenter"",""1"",""2204""
","
","","","295.2000000476837","","","11","8041","4066","&#9789;","elianto","#f73b6a7A"," "," ","1","-10","[1146.0999999046326]","1","0","4","","","","","","","",""
"pit-trial","93","835920","0.0-2.0-17.1-4.1","battery-v0.2","","""event"",""trial"",""time""
""fullscreenenter"",""1"",""2204""
","
","
","""event"",""trial"",""time""
""fullscreenenter"",""1"",""2204""
","
","","","448.59999990463257","","","11","8041","4066","&#9789;","elianto","#f73b6a7A"," "," ","1","0","[1298.7999999523163]","1","0","4","","","","","","","",""
"pit-trial","94","839437","0.0-2.0-17.2-0.2","battery-v0.2","","""event"",""trial"",""time""
""fullscreenenter"",""1"",""2204""
","
","
","""event"",""trial"",""time""
""fullscreenenter"",""1"",""2204""
","
","","","664.7999999523163","","","11","8041","4066","&#9789;","elianto","#f73b6a7A"," "," ","1","0","[1515.4000000953674]","1","0","4","","","","","","","",""
"pit-trial","95","842894","0.0-2.0-17.2-1.2","battery-v0.2","","""event"",""trial"",""time""
""fullscreenenter"",""1"",""2204""
","
","
","""event"",""trial"",""time""
""fullscreenenter"",""1"",""2204""
","
","","","604.7000000476837","","","11","8041","4066","&#9789;","elianto","#f73b6a7A"," "," ","1","0","[1455.6000001430511]","1","0","4","","","","","","","",""
"pit-trial","96","847315","0.0-2.0-17.2-2.2","battery-v0.2","","""event"",""trial"",""time""
""fullscreenenter"",""1"",""2204""
","
","
","""event"",""trial"",""time""
""fullscreenenter"",""1"",""2204""
","
","","","1569.2000000476837","","","11","8041","4066","&#9789;","elianto","#f73b6a7A"," "," ","1","0","[2419.5999999046326]","1","0","4","","","","","","","",""
"pit-trial","97","852167","0.0-2.0-17.2-3.2","battery-v0.2","","""event"",""trial"",""time""
""fullscreenenter"",""1"",""2204""
","
","
","""event"",""trial"",""time""
""fullscreenenter"",""1"",""2204""
","
","","","-1","","","11","8041","4066","&#9789;","elianto","#f73b6a7A"," ","-1","0","0","[3084.9000000953674]","1","0","4","","","","","","","",""
"pit-trial","98","856638","0.0-2.0-17.2-4.2","battery-v0.2","","""event"",""trial"",""time""
""fullscreenenter"",""1"",""2204""
","
","
","""event"",""trial"",""time""
""fullscreenenter"",""1"",""2204""
","
","","","1618.5","","","11","8041","4066","&#9789;","elianto","#f73b6a7A"," "," ","1","0","[2469.4000000953674]","1","0","4","","","","","","","",""
"pit-trial","99","861490","0.0-2.0-17.3-0.3","battery-v0.2","","""event"",""trial"",""time""
""fullscreenenter"",""1"",""2204""
","
","
","""event"",""trial"",""time""
""fullscreenenter"",""1"",""2204""
","
","","","-1","","","11","8041","4066","&#9789;","elianto","#f73b6a7A"," ","-1","0","-10","[]","0","0","4","","","","","","","",""
"pit-trial","100","864744","0.0-2.0-17.3-1.3","battery-v0.2","","""event"",""trial"",""time""
""fullscreenenter"",""1"",""2204""
","
","
","""event"",""trial"",""time""
""fullscreenenter"",""1"",""2204""
","
","","","401.2999999523163","","","11","8041","4066","&#9789;","elianto","#f73b6a7A"," "," ","1","0","[1252.6999998092651]","1","0","4","","","","","","","",""
"pit-trial","101","867820","0.0-2.0-17.3-2.3","battery-v0.2","","""event"",""trial"",""time""
""fullscreenenter"",""1"",""2204""
","
","
","""event"",""trial"",""time""
""fullscreenenter"",""1"",""2204""
","
","","","224.59999990463257","","","11","8041","4066","&#9789;","elianto","#f73b6a7A"," "," ","1","0","[1075.2000000476837]","1","0","4","","","","","","","",""
"pit-trial","102","870754","0.0-2.0-17.3-3.3","battery-v0.2","","""event"",""trial"",""time""
""fullscreenenter"",""1"",""2204""
","
","
","""event"",""trial"",""time""
""fullscreenenter"",""1"",""2204""
","
","","","80.29999995231628","","","11","8041","4066","&#9789;","elianto","#f73b6a7A"," "," ","1","-10","[931]","1","0","4","","","","","","","",""
"pit-trial","103","875607","0.0-2.0-17.3-4.3","battery-v0.2","","""event"",""trial"",""time""
""fullscreenenter"",""1"",""2204""
","
","
","""event"",""trial"",""time""
""fullscreenenter"",""1"",""2204""
","
","","","-1","","","11","8041","4066","&#9789;","elianto","#f73b6a7A"," ","-1","0","-10","[]","0","0","4","","","","","","","",""
"call-function","104","875607","0.0-2.0-18.0","battery-v0.2","","""event"",""trial"",""time""
""fullscreenenter"",""1"",""2204""
","
","
","""event"",""trial"",""time""
""fullscreenenter"",""1"",""2204""
","
","","","","","","","","","","","","","","","","","","","","","","","","","","",""
"pit-instructions","105","958227","0.0-2.0-19.0","battery-v0.2","","""event"",""trial"",""time""
""fullscreenenter"",""1"",""2204""
","
","
","""event"",""trial"",""time""
""fullscreenenter"",""1"",""2204""
","
","","[{""page_index"":0,""viewing_time"":9010.899999856949},{""page_index"":1,""viewing_time"":9296.300000190735},{""page_index"":2,""viewing_time"":14482.299999952316},{""page_index"":3,""viewing_time"":7929.099999904633},{""page_index"":4,""viewing_time"":9479.299999952316},{""page_index"":5,""viewing_time"":8759},{""page_index"":6,""viewing_time"":8893.900000095367},{""page_index"":7,""viewing_time"":8592.799999952316},{""page_index"":8,""viewing_time"":6175.400000095367}]","82619.09999990463","","","","","","","","","","","","","","","","","","","","","","","",""
"pit-comprehension","106","963896","0.0-2.0-20.0-0.0","battery-v0.2","","""event"",""trial"",""time""
""fullscreenenter"",""1"",""2204""
","
","
","""event"",""trial"",""time""
""fullscreenenter"",""1"",""2204""
","
","","","5666.799999952316","[""SPACE""]","0","11","8041","4066","","","","","","","","","","","","","","","","","","",""
"pit-instructions","107","968442","0.0-2.0-20.0-1.0","battery-v0.2","","""event"",""trial"",""time""
""fullscreenenter"",""1"",""2204""
","
","
","""event"",""trial"",""time""
""fullscreenenter"",""1"",""2204""
","
","","[{""page_index"":0,""viewing_time"":4520.699999809265}]","4521","","","","","","","","","","","","","","","","","","","","","","","",""
"pit-comprehension","108","977143","0.0-2.0-21.0-0.0","battery-v0.2","","""event"",""trial"",""time""
""fullscreenenter"",""1"",""2204""
","
","
","""event"",""trial"",""time""
""fullscreenenter"",""1"",""2204""
","
","","","8699.299999952316","[""10""]","0","11","8041","4066","","","","","","","","","","","","","","","","","","",""
"pit-instructions","109","978887","0.0-2.0-21.0-1.0","battery-v0.2","","""event"",""trial"",""time""
""fullscreenenter"",""1"",""2204""
","
","
","""event"",""trial"",""time""
""fullscreenenter"",""1"",""2204""
","
","","[{""page_index"":0,""viewing_time"":1720.9000000953674}]","1721.1000001430511","","","","","","","","","","","","","","","","","","","","","","","",""
"pit-comprehension","110","987163","0.0-2.0-22.0-0.0","battery-v0.2","","""event"",""trial"",""time""
""fullscreenenter"",""1"",""2204""
","
","
","""event"",""trial"",""time""
""fullscreenenter"",""1"",""2204""
","
","","","8274.600000143051","[""0""]","0","11","8041","4066","","","","","","","","","","","","","","","","","","",""
"pit-instructions","111","988723","0.0-2.0-22.0-1.0","battery-v0.2","","""event"",""trial"",""time""
""fullscreenenter"",""1"",""2204""
","
","
","""event"",""trial"",""time""
""fullscreenenter"",""1"",""2204""
","
","","[{""page_index"":0,""viewing_time"":1535}]","1535.0999999046326","","","","","","","","","","","","","","","","","","","","","","","",""
"pit-comprehension","112","1000933","0.0-2.0-23.0-0.0","battery-v0.2","","""event"",""trial"",""time""
""fullscreenenter"",""1"",""2204""
","
","
","""event"",""trial"",""time""
""fullscreenenter"",""1"",""2204""
","
","","","12208.400000095367","[""False""]","1","11","8041","4066","","","","","","","","","","","","","","","","","","",""
"pit-instructions","113","1002932","0.0-2.0-23.0-1.0","battery-v0.2","","""event"",""trial"",""time""
""fullscreenenter"",""1"",""2204""
","
","
","""event"",""trial"",""time""
""fullscreenenter"",""1"",""2204""
","
","","[{""page_index"":0,""viewing_time"":1975.7000000476837}]","1975.8999998569489","","","","","","","","","","","","","","","","","","","","","","","",""
"pit-instructions","114","1004736","0.0-2.0-23.0-2.0-0.0","battery-v0.2","","""event"",""trial"",""time""
""fullscreenenter"",""1"",""2204""
","
","
","""event"",""trial"",""time""
""fullscreenenter"",""1"",""2204""
","
","","[{""page_index"":0,""viewing_time"":1802.8999998569489}]","1803.1999998092651","","","","","","","","","","","","","","","","","","","","","","","",""
"pit-comprehension","115","1013477","0.0-2.0-23.1-0.1","battery-v0.2","","""event"",""trial"",""time""
""fullscreenenter"",""1"",""2204""
","
","
","""event"",""trial"",""time""
""fullscreenenter"",""1"",""2204""
","
","","","8740.799999952316","[""True""]","0","11","8041","4066","","","","","","","","","","","","","","","","","","",""
"pit-instructions","116","1015211","0.0-2.0-23.1-1.1","battery-v0.2","","""event"",""trial"",""time""
""fullscreenenter"",""1"",""2204""
","
","
","""event"",""trial"",""time""
""fullscreenenter"",""1"",""2204""
","
","","[{""page_index"":0,""viewing_time"":1707.1000001430511}]","1707.3000001907349","","","","","","","","","","","","","","","","","","","","","","","",""
"pit-comprehension","117","1025400","0.0-2.0-24.0-0.0","battery-v0.2","","""event"",""trial"",""time""
""fullscreenenter"",""1"",""2204""
","
","
","""event"",""trial"",""time""
""fullscreenenter"",""1"",""2204""
","
","","","10186.600000143051","[""True""]","0","11","8041","4066","","","","","","","","","","","","","","","","","","",""
"pit-instructions","118","1026555","0.0-2.0-24.0-1.0","battery-v0.2","","""event"",""trial"",""time""
""fullscreenenter"",""1"",""2204""
","
","
","""event"",""trial"",""time""
""fullscreenenter"",""1"",""2204""
","
","","[{""page_index"":0,""viewing_time"":1130.9000000953674}]","1131","","","","","","","","","","","","","","","","","","","","","","","",""
"pit-comprehension","119","1034609","0.0-2.0-25.0-0.0","battery-v0.2","","""event"",""trial"",""time""
""fullscreenenter"",""1"",""2204""
","
","
","""event"",""trial"",""time""
""fullscreenenter"",""1"",""2204""
","
","","","8051.600000143051","[""True""]","0","11","8041","4066","","","","","","","","","","","","","","","","","","",""
"pit-instructions","120","1036116","0.0-2.0-25.0-1.0","battery-v0.2","","""event"",""trial"",""time""
""fullscreenenter"",""1"",""2204""
","
","
","""event"",""trial"",""time""
""fullscreenenter"",""1"",""2204""
","
","","[{""page_index"":0,""viewing_time"":1482.2999999523163}]","1482.5","","","","","","","","","","","","","","","","","","","","","","","",""
"pit-comprehension","121","1043196","0.0-2.0-26.0-0.0","battery-v0.2","","""event"",""trial"",""time""
""fullscreenenter"",""1"",""2204""
","
","
","""event"",""trial"",""time""
""fullscreenenter"",""1"",""2204""
","
","","","7078.200000047684","[""False""]","0","11","8041","4066","","","","","","","","","","","","","","","","","","",""
"pit-instructions","122","1044474","0.0-2.0-26.0-1.0","battery-v0.2","","""event"",""trial"",""time""
""fullscreenenter"",""1"",""2204""
","
","
","""event"",""trial"",""time""
""fullscreenenter"",""1"",""2204""
","
","","[{""page_index"":0,""viewing_time"":1254.2999999523163}]","1254.5","","","","","","","","","","","","","","","","","","","","","","","",""
"pit-instructions","123","1067700","0.0-3.0","battery-v0.2","","""event"",""trial"",""time""
""fullscreenenter"",""1"",""2204""
","
","
","""event"",""trial"",""time""
""fullscreenenter"",""1"",""2204""
","
","","[{""page_index"":0,""viewing_time"":5088.699999809265},{""page_index"":1,""viewing_time"":8302.800000190735},{""page_index"":2,""viewing_time"":9833}]","23224.699999809265","","","","","","","","","","","","","","","","","","","","","","","",""
"pit-trial","124","1072577","0.0-4.0","battery-v0.2","","""event"",""trial"",""time""
""fullscreenenter"",""1"",""2204""
","
","
","""event"",""trial"",""time""
""fullscreenenter"",""1"",""2204""
","
","","","-1","","","11","8041","4066","&#9733;","elianto","#3366ff99","-1","-1","1","+10","[2986.7000000476837]","1","1","","","8041","1","2","2","win","no-go","0"
"pit-trial","125","1077446","0.0-5.0","battery-v0.2","","""event"",""trial"",""time""
""fullscreenenter"",""1"",""2204""
","
","
","""event"",""trial"",""time""
""fullscreenenter"",""1"",""2204""
","
","","","-1","","","11","8041","4066","&#9752;","elianto","#f73b6a7A"," ","-1","0","-10","[]","0","1","","","8041","2","3","3","lose","go","0"
"pit-trial","126","1080966","0.0-6.0","battery-v0.2","","""event"",""trial"",""time""
""fullscreenenter"",""1"",""2204""
","
","
","""event"",""trial"",""time""
""fullscreenenter"",""1"",""2204""
","
","","","652.9000000953674","","","11","8041","4066","&#9730;","elianto","#3366ff99"," "," ","1","+10","[1508.7000000476837]","1","1","","","8041","3","1","1","win","go","0"
"pit-trial","127","1084366","0.0-7.0","battery-v0.2","","""event"",""trial"",""time""
""fullscreenenter"",""1"",""2204""
","
","
","""event"",""trial"",""time""
""fullscreenenter"",""1"",""2204""
","
","","","540.7999999523163","","","11","8041","4066","&#9728;","elianto","#f73b6a7A","-1"," ","0","-10","[1392.6000001430511]","1","1","","","8041","4","0","4","lose","no-go","0"
"pit-trial","128","1087456","0.0-8.0","battery-v0.2","","""event"",""trial"",""time""
""fullscreenenter"",""1"",""2204""
","
","
","""event"",""trial"",""time""
""fullscreenenter"",""1"",""2204""
","
","","","230.09999990463257","","","11","8041","4066","&#9733;","elianto","#3366ff99","-1"," ","0","+10","[1082.7000000476837]","1","1","","","8041","5","2","2","win","no-go","1"
"pit-trial","129","1092326","0.0-9.0","battery-v0.2","","""event"",""trial"",""time""
""fullscreenenter"",""1"",""2204""
","
","
","""event"",""trial"",""time""
""fullscreenenter"",""1"",""2204""
","
","","","-1","","","11","8041","4066","&#9752;","elianto","#f73b6a7A"," ","-1","0","-10","[]","0","1","","","8041","6","3","3","lose","go","0"
"pit-trial","130","1095615","0.0-10.0","battery-v0.2","","""event"",""trial"",""time""
""fullscreenenter"",""1"",""2204""
","
","
","""event"",""trial"",""time""
""fullscreenenter"",""1"",""2204""
","
","","","428.7999999523163","","","11","8041","4066","&#9728;","elianto","#f73b6a7A","-1"," ","0","0","[1287.3999998569489]","1","1","","","8041","7","0","4","lose","no-go","1"
"pit-trial","131","1098941","0.0-11.0","battery-v0.2","","""event"",""trial"",""time""
""fullscreenenter"",""1"",""2204""
","
","
","""event"",""trial"",""time""
""fullscreenenter"",""1"",""2204""
","
","","","472.2999999523163","","","11","8041","4066","&#9730;","elianto","#3366ff99"," "," ","1","+10","[1324.0999999046326]","1","1","","","8041","8","1","1","win","go","0"
"pit-trial","132","1102362","0.0-12.0","battery-v0.2","","""event"",""trial"",""time""
""fullscreenenter"",""1"",""2204""
","
","
","""event"",""trial"",""time""
""fullscreenenter"",""1"",""2204""
","
","","","569.4000000953674","","","11","8041","4066","&#9733;","elianto","#3366ff99","-1"," ","0","0","[1419.7000000476837]","1","1","","","8041","9","2","2","win","no-go","0"
"pit-trial","133","1105558","0.0-13.0","battery-v0.2","","""event"",""trial"",""time""
""fullscreenenter"",""1"",""2204""
","
","
","""event"",""trial"",""time""
""fullscreenenter"",""1"",""2204""
","
","","","342.7000000476837","","","11","8041","4066","&#9730;","elianto","#3366ff99"," "," ","1","+10","[1193.6000001430511]","1","1","","","8041","10","1","1","win","go","0"
"pit-trial","134","1108877","0.0-14.0","battery-v0.2","","""event"",""trial"",""time""
""fullscreenenter"",""1"",""2204""
","
","
","""event"",""trial"",""time""
""fullscreenenter"",""1"",""2204""
","
","","","466.59999990463257","","","11","8041","4066","&#9752;","elianto","#f73b6a7A"," "," ","1","0","[1317.7999999523163]","1","1","","","8041","11","3","3","lose","go","0"
"pit-trial","135","1113730","0.0-15.0","battery-v0.2","","""event"",""trial"",""time""
""fullscreenenter"",""1"",""2204""
","
","
","""event"",""trial"",""time""
""fullscreenenter"",""1"",""2204""
","
","","","-1","","","11","8041","4066","&#9728;","elianto","#f73b6a7A","-1","-1","1","0","[]","0","1","","","8041","12","0","4","lose","no-go","0"
"pit-trial","136","1117359","0.0-16.0","battery-v0.2","","""event"",""trial"",""time""
""fullscreenenter"",""1"",""2204""
","
","
","""event"",""trial"",""time""
""fullscreenenter"",""1"",""2204""
","
","","","777.7999999523163","","","11","8041","4066","&#9730;","elianto","#3366ff99"," "," ","1","+10","[1627.9000000953674]","1","1","","","8041","13","1","1","win","go","0"
"pit-trial","137","1121535","0.0-17.0","battery-v0.2","","""event"",""trial"",""time""
""fullscreenenter"",""1"",""2204""
","
","
","""event"",""trial"",""time""
""fullscreenenter"",""1"",""2204""
","
","","","1323.9000000953674","","","11","8041","4066","&#9728;","elianto","#f73b6a7A","-1"," ","0","-10","[2174.2000000476837]","1","1","","","8041","14","0","4","lose","no-go","0"
"pit-trial","138","1126386","0.0-18.0","battery-v0.2","","""event"",""trial"",""time""
""fullscreenenter"",""1"",""2204""
","
","
","""event"",""trial"",""time""
""fullscreenenter"",""1"",""2204""
","
","","","-1","","","11","8041","4066","&#9752;","elianto","#f73b6a7A"," ","-1","0","-10","[]","0","1","","","8041","15","3","3","lose","go","0"
"pit-trial","139","1130055","0.0-19.0","battery-v0.2","","""event"",""trial"",""time""
""fullscreenenter"",""1"",""2204""
","
","
","""event"",""trial"",""time""
""fullscreenenter"",""1"",""2204""
","
","","","816.7000000476837","","","11","8041","4066","&#9733;","elianto","#3366ff99","-1"," ","0","0","[1667]","1","1","","","8041","16","2","2","win","no-go","0"
"pit-trial","140","1133420","0.0-20.0","battery-v0.2","","""event"",""trial"",""time""
""fullscreenenter"",""1"",""2204""
","
","
","""event"",""trial"",""time""
""fullscreenenter"",""1"",""2204""
","
","","","513.3999998569489","","","11","8041","4066","&#9733;","elianto","#3366ff99","-1"," ","0","+10","[1363.7000000476837]","1","1","","","8041","17","2","2","win","no-go","1"
"pit-trial","141","1137851","0.0-21.0","battery-v0.2","","""event"",""trial"",""time""
""fullscreenenter"",""1"",""2204""
","
","
","""event"",""trial"",""time""
""fullscreenenter"",""1"",""2204""
","
","","","1578.0999999046326","","","11","8041","4066","&#9752;","elianto","#f73b6a7A"," "," ","1","0","[2429.899999856949]","1","1","","","8041","18","3","3","lose","go","0"
"pit-trial","142","1141166","0.0-22.0","battery-v0.2","","""event"",""trial"",""time""
""fullscreenenter"",""1"",""2204""
","
","
","""event"",""trial"",""time""
""fullscreenenter"",""1"",""2204""
","
","","","463","","","11","8041","4066","&#9730;","elianto","#3366ff99"," "," ","1","+10","[1313.2000000476837]","1","1","","","8041","19","1","1","win","go","0"
"pit-trial","143","1145606","0.0-23.0","battery-v0.2","","""event"",""trial"",""time""
""fullscreenenter"",""1"",""2204""
","
","
","""event"",""trial"",""time""
""fullscreenenter"",""1"",""2204""
","
","","","1587.5","","","11","8041","4066","&#9728;","elianto","#f73b6a7A","-1"," ","0","-10","[2438.7999999523163]","1","1","","","8041","20","0","4","lose","no-go","0"
"pit-instructions","144","1156924","0.0-24.0","battery-v0.2","","""event"",""trial"",""time""
""fullscreenenter"",""1"",""2204""
","
","
","""event"",""trial"",""time""
""fullscreenenter"",""1"",""2204""
","
","","[{""page_index"":0,""viewing_time"":5228.5},{""page_index"":1,""viewing_time"":6089}]","11317.700000047684","","","","","","","","","","","","","","","","","","","","","","","",""
"pit-trial","145","1160945","0.0-25.0","battery-v0.2","","""event"",""trial"",""time""
""fullscreenenter"",""1"",""2204""
","
","
","""event"",""trial"",""time""
""fullscreenenter"",""1"",""2204""
","
","","","1145","","","11","8041","4066","m","elianto","#f73b6a7A"," "," ","1","0","[2003.5999999046326]","1","2","","","8041","21","0","3","lose","go","0"
"pit-trial","146","1164395","0.0-26.0","battery-v0.2","","""event"",""trial"",""time""
""fullscreenenter"",""1"",""2204""
","
","
","""event"",""trial"",""time""
""fullscreenenter"",""1"",""2204""
","
","","","590.2999999523163","","","11","8041","4066","r","elianto","#3366ff99","-1"," ","0","0","[1445.0999999046326]","1","2","","","8041","22","1","2","win","no-go","0"
"pit-trial","147","1167865","0.0-27.0","battery-v0.2","","""event"",""trial"",""time""
""fullscreenenter"",""1"",""2204""
","
","
","""event"",""trial"",""time""
""fullscreenenter"",""1"",""2204""
","
","","","599","","","11","8041","4066","h","elianto","#f73b6a7A","-1"," ","0","-10","[1453.8999998569489]","1","2","","","8041","23","3","4","lose","no-go","0"
"pit-trial","148","1170995","0.0-28.0","battery-v0.2","","""event"",""trial"",""time""
""fullscreenenter"",""1"",""2204""
","
","
","""event"",""trial"",""time""
""fullscreenenter"",""1"",""2204""
","
","","","265.7999999523163","","","11","8041","4066","y","elianto","#f73b6a7A"," "," ","1","0","[1116.5]","1","2","","","8041","24","2","3","lose","go","0"
"pit-trial","149","1174865","0.0-29.0","battery-v0.2","","""event"",""trial"",""time""
""fullscreenenter"",""1"",""2204""
","
","
","""event"",""trial"",""time""
""fullscreenenter"",""1"",""2204""
","
","","","1005.5","","","11","8041","4066","y","elianto","#f73b6a7A"," "," ","1","0","[1860]","1","2","","","8041","25","2","3","lose","go","0"
"pit-trial","150","1178735","0.0-30.0","battery-v0.2","","""event"",""trial"",""time""
""fullscreenenter"",""1"",""2204""
","
","
","""event"",""trial"",""time""
""fullscreenenter"",""1"",""2204""
","
","","","1016.5","","","11","8041","4066","m","elianto","#f73b6a7A"," "," ","1","0","[1867.1999998092651]","1","2","","","8041","26","0","3","lose","go","0"
"pit-trial","151","1182855","0.0-31.0","battery-v0.2","","""event"",""trial"",""time""
""fullscreenenter"",""1"",""2204""
","
","
","""event"",""trial"",""time""
""fullscreenenter"",""1"",""2204""
","
","","","1255.6000001430511","","","11","8041","4066","h","elianto","#f73b6a7A","-1"," ","0","-10","[2106]","1","2","","","8041","27","3","4","lose","no-go","0"
"pit-trial","152","1186415","0.0-32.0","battery-v0.2","","""event"",""trial"",""time""
""fullscreenenter"",""1"",""2204""
","
","
","""event"",""trial"",""time""
""fullscreenenter"",""1"",""2204""
","
","","","688.7000000476837","","","11","8041","4066","r","elianto","#3366ff99","-1"," ","0","+10","[1552]","1","2","","","8041","28","1","2","win","no-go","1"
"pit-trial","153","1189829","0.0-33.0","battery-v0.2","","""event"",""trial"",""time""
""fullscreenenter"",""1"",""2204""
","
","
","""event"",""trial"",""time""
""fullscreenenter"",""1"",""2204""
","
","","","561.4000000953674","","","11","8041","4066","r","elianto","#3366ff99","-1"," ","0","0","[1412.6000001430511]","1","2","","","8041","29","1","2","win","no-go","0"
"pit-trial","154","1194352","0.0-34.0","battery-v0.2","","""event"",""trial"",""time""
""fullscreenenter"",""1"",""2204""
","
","
","""event"",""trial"",""time""
""fullscreenenter"",""1"",""2204""
","
","","","1669.7999999523163","","","11","8041","4066","m","elianto","#f73b6a7A"," "," ","1","0","[2520.5999999046326]","1","2","","","8041","30","0","3","lose","go","0"
"pit-trial","155","1199203","0.0-35.0","battery-v0.2","","""event"",""trial"",""time""
""fullscreenenter"",""1"",""2204""
","
","
","""event"",""trial"",""time""
""fullscreenenter"",""1"",""2204""
","
","","","-1","","","11","8041","4066","y","elianto","#f73b6a7A"," ","-1","0","-10","[]","0","2","","","8041","31","2","3","lose","go","0"
"pit-trial","156","1202609","0.0-36.0","battery-v0.2","","""event"",""trial"",""time""
""fullscreenenter"",""1"",""2204""
","
","
","""event"",""trial"",""time""
""fullscreenenter"",""1"",""2204""
","
","","","553.7999999523163","","","11","8041","4066","h","elianto","#f73b6a7A","-1"," ","0","-10","[1404.3999998569489]","1","2","","","8041","32","3","4","lose","no-go","0"
"pit-trial","157","1206015","0.0-37.0","battery-v0.2","","""event"",""trial"",""time""
""fullscreenenter"",""1"",""2204""
","
","
","""event"",""trial"",""time""
""fullscreenenter"",""1"",""2204""
","
","","","554.0999999046326","","","11","8041","4066","m","elianto","#f73b6a7A"," "," ","1","0","[1404.2999999523163]","1","2","","","8041","33","0","3","lose","go","0"
"pit-trial","158","1210041","0.0-38.0","battery-v0.2","","""event"",""trial"",""time""
""fullscreenenter"",""1"",""2204""
","
","
","""event"",""trial"",""time""
""fullscreenenter"",""1"",""2204""
","
","","","1174.8000001907349","","","11","8041","4066","h","elianto","#f73b6a7A","-1"," ","0","-10","[2024.9000000953674]","1","2","","","8041","34","3","4","lose","no-go","0"
"pit-trial","159","1213588","0.0-39.0","battery-v0.2","","""event"",""trial"",""time""
""fullscreenenter"",""1"",""2204""
","
","
","""event"",""trial"",""time""
""fullscreenenter"",""1"",""2204""
","
","","","693.7000000476837","","","11","8041","4066","y","elianto","#f73b6a7A"," "," ","1","0","[1544.3999998569489]","1","2","","","8041","35","2","3","lose","go","0"
"pit-trial","160","1217036","0.0-40.0","battery-v0.2","","""event"",""trial"",""time""
""fullscreenenter"",""1"",""2204""
","
","
","""event"",""trial"",""time""
""fullscreenenter"",""1"",""2204""
","
","","","594.5","","","11","8041","4066","r","elianto","#3366ff99","-1"," ","0","0","[1446.4000000953674]","1","2","","","8041","36","1","2","win","no-go","0"
"pit-trial","161","1221889","0.0-41.0","battery-v0.2","","""event"",""trial"",""time""
""fullscreenenter"",""1"",""2204""
","
","
","""event"",""trial"",""time""
""fullscreenenter"",""1"",""2204""
","
","","","-1","","","11","8041","4066","y","elianto","#f73b6a7A"," ","-1","0","-10","[661.1000001430511]","1","2","","","8041","37","2","3","lose","go","0"
"pit-trial","162","1225312","0.0-42.0","battery-v0.2","","""event"",""trial"",""time""
""fullscreenenter"",""1"",""2204""
","
","
","""event"",""trial"",""time""
""fullscreenenter"",""1"",""2204""
","
","","","570.8999998569489","","","11","8041","4066","m","elianto","#f73b6a7A"," "," ","1","-10","[1421.7000000476837]","1","2","","","8041","38","0","3","lose","go","1"
"pit-trial","163","1228820","0.0-43.0","battery-v0.2","","""event"",""trial"",""time""
""fullscreenenter"",""1"",""2204""
","
","
","""event"",""trial"",""time""
""fullscreenenter"",""1"",""2204""
","
","","","654.3999998569489","","","11","8041","4066","r","elianto","#3366ff99","-1"," ","0","0","[1505.0999999046326]","1","2","","","8041","39","1","2","win","no-go","0"
"pit-trial","164","1232050","0.0-44.0","battery-v0.2","","""event"",""trial"",""time""
""fullscreenenter"",""1"",""2204""
","
","
","""event"",""trial"",""time""
""fullscreenenter"",""1"",""2204""
","
","","","378.09999990463257","","","11","8041","4066","h","elianto","#f73b6a7A","-1"," ","0","-10","[1229.2999999523163]","1","2","","","8041","40","3","4","lose","no-go","0"
"pit-trial","165","1236903","0.0-45.0","battery-v0.2","","""event"",""trial"",""time""
""fullscreenenter"",""1"",""2204""
","
","
","""event"",""trial"",""time""
""fullscreenenter"",""1"",""2204""
","
","","","-1","","","11","8041","4066","h","elianto","#f73b6a7A","-1","-1","1","0","[]","0","2","","","8041","41","3","4","lose","no-go","0"
"pit-trial","166","1241756","0.0-46.0","battery-v0.2","","""event"",""trial"",""time""
""fullscreenenter"",""1"",""2204""
","
","
","""event"",""trial"",""time""
""fullscreenenter"",""1"",""2204""
","
","","","-1","","","11","8041","4066","m","elianto","#f73b6a7A"," ","-1","0","-10","[]","0","2","","","8041","42","0","3","lose","go","0"
"pit-trial","167","1246609","0.0-47.0","battery-v0.2","","""event"",""trial"",""time""
""fullscreenenter"",""1"",""2204""
","
","
","""event"",""trial"",""time""
""fullscreenenter"",""1"",""2204""
","
","","","-1","","","11","8041","4066","y","elianto","#f73b6a7A"," ","-1","0","-10","[]","0","2","","","8041","43","2","3","lose","go","0"
"pit-trial","168","1250522","0.0-48.0","battery-v0.2","","""event"",""trial"",""time""
""fullscreenenter"",""1"",""2204""
","
","
","""event"",""trial"",""time""
""fullscreenenter"",""1"",""2204""
","
","","","1061.0999999046326","","","11","8041","4066","r","elianto","#3366ff99","-1"," ","0","0","[1911.6000001430511]","1","2","","","8041","44","1","2","win","no-go","0"
"pit-trial","169","1255375","0.0-49.0","battery-v0.2","","""event"",""trial"",""time""
""fullscreenenter"",""1"",""2204""
","
","
","""event"",""trial"",""time""
""fullscreenenter"",""1"",""2204""
","
","","","-1","","","11","8041","4066","h","elianto","#f73b6a7A","-1","-1","1","0","[]","0","2","","","8041","45","3","4","lose","no-go","0"
"pit-trial","170","1260228","0.0-50.0","battery-v0.2","","""event"",""trial"",""time""
""fullscreenenter"",""1"",""2204""
","
","
","""event"",""trial"",""time""
""fullscreenenter"",""1"",""2204""
","
","","","-1","","","11","8041","4066","y","elianto","#f73b6a7A"," ","-1","0","-10","[]","0","2","","","8041","46","2","3","lose","go","0"
"pit-trial","171","1265080","0.0-51.0","battery-v0.2","","""event"",""trial"",""time""
""fullscreenenter"",""1"",""2204""
","
","
","""event"",""trial"",""time""
""fullscreenenter"",""1"",""2204""
","
","","","-1","","","11","8041","4066","m","elianto","#f73b6a7A"," ","-1","0","0","[]","0","2","","","8041","47","0","3","lose","go","1"
"pit-trial","172","1269933","0.0-52.0","battery-v0.2","","""event"",""trial"",""time""
""fullscreenenter"",""1"",""2204""
","
","
","""event"",""trial"",""time""
""fullscreenenter"",""1"",""2204""
","
","","","-1","","","11","8041","4066","r","elianto","#3366ff99","-1","-1","1","+10","[]","0","2","","","8041","48","1","2","win","no-go","0"
"pit-trial","173","1274786","0.0-53.0","battery-v0.2","","""event"",""trial"",""time""
""fullscreenenter"",""1"",""2204""
","
","
","""event"",""trial"",""time""
""fullscreenenter"",""1"",""2204""
","
","","","-1","","","11","8041","4066","y","elianto","#f73b6a7A"," ","-1","0","0","[]","0","2","","","8041","49","2","3","lose","go","1"
"pit-trial","174","1279638","0.0-54.0","battery-v0.2","","""event"",""trial"",""time""
""fullscreenenter"",""1"",""2204""
","
","
","""event"",""trial"",""time""
""fullscreenenter"",""1"",""2204""
","
","","","-1","","","11","8041","4066","m","elianto","#f73b6a7A"," ","-1","0","-10","[]","0","2","","","8041","50","0","3","lose","go","0"
"pit-trial","175","1284490","0.0-55.0","battery-v0.2","","""event"",""trial"",""time""
""fullscreenenter"",""1"",""2204""
","
","
","""event"",""trial"",""time""
""fullscreenenter"",""1"",""2204""
","
","","","-1","","","11","8041","4066","h","elianto","#f73b6a7A","-1","-1","1","0","[]","0","2","","","8041","51","3","4","lose","no-go","0"
"pit-trial","176","1289342","0.0-56.0","battery-v0.2","","""event"",""trial"",""time""
""fullscreenenter"",""1"",""2204""
","
","
","""event"",""trial"",""time""
""fullscreenenter"",""1"",""2204""
","
","","","-1","","","11","8041","4066","r","elianto","#3366ff99","-1","-1","1","+10","[]","0","2","","","8041","52","1","2","win","no-go","0"
"pit-trial","177","1294195","0.0-57.0","battery-v0.2","","""event"",""trial"",""time""
""fullscreenenter"",""1"",""2204""
","
","
","""event"",""trial"",""time""
""fullscreenenter"",""1"",""2204""
","
","","","-1","","","11","8041","4066","m","elianto","#f73b6a7A"," ","-1","0","-10","[]","0","2","","","8041","53","0","3","lose","go","0"
"pit-trial","178","1299048","0.0-58.0","battery-v0.2","","""event"",""trial"",""time""
""fullscreenenter"",""1"",""2204""
","
","
","""event"",""trial"",""time""
""fullscreenenter"",""1"",""2204""
","
","","","-1","","","11","8041","4066","h","elianto","#f73b6a7A","-1","-1","1","-10","[]","0","2","","","8041","54","3","4","lose","no-go","1"
"pit-trial","179","1303900","0.0-59.0","battery-v0.2","","""event"",""trial"",""time""
""fullscreenenter"",""1"",""2204""
","
","
","""event"",""trial"",""time""
""fullscreenenter"",""1"",""2204""
","
","","","-1","","","11","8041","4066","r","elianto","#3366ff99","-1","-1","1","+10","[]","0","2","","","8041","55","1","2","win","no-go","0"
"pit-trial","180","1308752","0.0-60.0","battery-v0.2","","""event"",""trial"",""time""
""fullscreenenter"",""1"",""2204""
","
","
","""event"",""trial"",""time""
""fullscreenenter"",""1"",""2204""
","
","","","-1","","","11","8041","4066","y","elianto","#f73b6a7A"," ","-1","0","-10","[]","0","2","","","8041","56","2","3","lose","go","0"
"pit-trial","181","1313605","0.0-61.0","battery-v0.2","","""event"",""trial"",""time""
""fullscreenenter"",""1"",""2204""
","
","
","""event"",""trial"",""time""
""fullscreenenter"",""1"",""2204""
","
","","","-1","","","11","8041","4066","y","elianto","#f73b6a7A"," ","-1","0","-10","[]","0","2","","","8041","57","2","3","lose","go","0"
"pit-trial","182","1318457","0.0-62.0","battery-v0.2","","""event"",""trial"",""time""
""fullscreenenter"",""1"",""2204""
","
","
","""event"",""trial"",""time""
""fullscreenenter"",""1"",""2204""
","
","","","-1","","","11","8041","4066","h","elianto","#f73b6a7A","-1","-1","1","0","[]","0","2","","","8041","58","3","4","lose","no-go","0"
"pit-trial","183","1322995","0.0-63.0","battery-v0.2","","""event"",""trial"",""time""
""fullscreenenter"",""1"",""2204""
","
","
","""event"",""trial"",""time""
""fullscreenenter"",""1"",""2204""
","
","","","1685.5","","","11","8041","4066","z","elianto","#3366ff99"," "," ","1","+10","[2536.5]","1","2","","","8041","59","4","1","win","go","0"
"pit-trial","184","1327848","0.0-64.0","battery-v0.2","","""event"",""trial"",""time""
""fullscreenenter"",""1"",""2204""
","
","
","""event"",""trial"",""time""
""fullscreenenter"",""1"",""2204""
","
","","","-1","","","11","8041","4066","m","elianto","#f73b6a7A"," ","-1","0","-10","[]","0","2","","","8041","60","0","3","lose","go","0"
"pit-trial","185","1332014","0.0-65.0","battery-v0.2","","""event"",""trial"",""time""
""fullscreenenter"",""1"",""2204""
","
","
","""event"",""trial"",""time""
""fullscreenenter"",""1"",""2204""
","
","","","1314.7000000476837","","","11","8041","4066","r","elianto","#3366ff99","-1"," ","0","0","[2165.2000000476837]","1","2","","","8041","61","1","2","win","no-go","0"
"pit-trial","186","1335909","0.0-66.0","battery-v0.2","","""event"",""trial"",""time""
""fullscreenenter"",""1"",""2204""
","
","
","""event"",""trial"",""time""
""fullscreenenter"",""1"",""2204""
","
","","","1041.7000000476837","","","11","8041","4066","y","elianto","#f73b6a7A"," "," ","1","0","[1892.2999999523163]","1","2","","","8041","62","2","3","lose","go","0"
"pit-trial","187","1340692","0.0-67.0","battery-v0.2","","""event"",""trial"",""time""
""fullscreenenter"",""1"",""2204""
","
","
","""event"",""trial"",""time""
""fullscreenenter"",""1"",""2204""
","
","","","1931.1999998092651","","","11","8041","4066","z","elianto","#3366ff99"," "," ","1","+10","[2782.199999809265]","1","2","","","8041","63","4","1","win","go","0"
"pit-trial","188","1345544","0.0-68.0","battery-v0.2","","""event"",""trial"",""time""
""fullscreenenter"",""1"",""2204""
","
","
","""event"",""trial"",""time""
""fullscreenenter"",""1"",""2204""
","
","","","-1","","","11","8041","4066","h","elianto","#f73b6a7A","-1","-1","1","0","[2860.9000000953674]","1","2","","","8041","64","3","4","lose","no-go","0"
"pit-trial","189","1350396","0.0-69.0","battery-v0.2","","""event"",""trial"",""time""
""fullscreenenter"",""1"",""2204""
","
","
","""event"",""trial"",""time""
""fullscreenenter"",""1"",""2204""
","
","","","-1","","","11","8041","4066","r","elianto","#3366ff99","-1","-1","1","+10","[]","0","2","","","8041","65","1","2","win","no-go","0"
"pit-trial","190","1353743","0.0-70.0","battery-v0.2","","""event"",""trial"",""time""
""fullscreenenter"",""1"",""2204""
","
","
","""event"",""trial"",""time""
""fullscreenenter"",""1"",""2204""
","
","","","494.2000000476837","","","11","8041","4066","h","elianto","#f73b6a7A","-1"," ","0","-10","[1345.5]","1","2","","","8041","66","3","4","lose","no-go","0"
"pit-trial","191","1358596","0.0-71.0","battery-v0.2","","""event"",""trial"",""time""
""fullscreenenter"",""1"",""2204""
","
","
","""event"",""trial"",""time""
""fullscreenenter"",""1"",""2204""
","
","","","-1","","","11","8041","4066","z","elianto","#3366ff99"," ","-1","0","0","[3897.5]","1","2","","","8041","67","4","1","win","go","0"
"pit-trial","192","1361868","0.0-72.0","battery-v0.2","","""event"",""trial"",""time""
""fullscreenenter"",""1"",""2204""
","
","
","""event"",""trial"",""time""
""fullscreenenter"",""1"",""2204""
","
","","","419","","","11","8041","4066","c","elianto","#3366ff99","-1"," ","0","0","[1270.5]","1","2","","","8041","68","5","2","win","no-go","0"
"pit-trial","193","1366173","0.0-73.0","battery-v0.2","","""event"",""trial"",""time""
""fullscreenenter"",""1"",""2204""
","
","
","""event"",""trial"",""time""
""fullscreenenter"",""1"",""2204""
","
","","","1452.4000000953674","","","11","8041","4066","y","elianto","#f73b6a7A"," "," ","1","-10","[2303.4000000953674]","1","2","","","8041","69","2","3","lose","go","1"
"pit-trial","194","1369729","0.0-74.0","battery-v0.2","","""event"",""trial"",""time""
""fullscreenenter"",""1"",""2204""
","
","
","""event"",""trial"",""time""
""fullscreenenter"",""1"",""2204""
","
","","","703.2000000476837","","","11","8041","4066","c","elianto","#3366ff99","-1"," ","0","0","[1553.7000000476837]","1","2","","","8041","70","5","2","win","no-go","0"
"pit-trial","195","1372756","0.0-75.0","battery-v0.2","","""event"",""trial"",""time""
""fullscreenenter"",""1"",""2204""
","
","
","""event"",""trial"",""time""
""fullscreenenter"",""1"",""2204""
","
","","","174.29999995231628","","","11","8041","4066","z","elianto","#3366ff99"," "," ","1","+10","[1025.7999999523163]","1","2","","","8041","71","4","1","win","go","0"
"pit-trial","196","1376290","0.0-76.0","battery-v0.2","","""event"",""trial"",""time""
""fullscreenenter"",""1"",""2204""
","
","
","""event"",""trial"",""time""
""fullscreenenter"",""1"",""2204""
","
","","","681.5999999046326","","","11","8041","4066","r","elianto","#3366ff99","-1"," ","0","0","[1532.2000000476837]","1","2","","","8041","72","1","2","win","no-go","0"
"pit-trial","197","1381142","0.0-77.0","battery-v0.2","","""event"",""trial"",""time""
""fullscreenenter"",""1"",""2204""
","
","
","""event"",""trial"",""time""
""fullscreenenter"",""1"",""2204""
","
","","","-1","","","11","8041","4066","h","elianto","#f73b6a7A","-1","-1","1","0","[]","0","2","","","8041","73","3","4","lose","no-go","0"
"pit-trial","198","1384873","0.0-78.0","battery-v0.2","","""event"",""trial"",""time""
""fullscreenenter"",""1"",""2204""
","
","
","""event"",""trial"",""time""
""fullscreenenter"",""1"",""2204""
","
","","","878.7999999523163","","","11","8041","4066","z","elianto","#3366ff99"," "," ","1","+10","[1729.4000000953674]","1","2","","","8041","74","4","1","win","go","0"
"pit-trial","199","1389726","0.0-79.0","battery-v0.2","","""event"",""trial"",""time""
""fullscreenenter"",""1"",""2204""
","
","
","""event"",""trial"",""time""
""fullscreenenter"",""1"",""2204""
","
","","","-1","","","11","8041","4066","c","elianto","#3366ff99","-1","-1","1","+10","[]","0","2","","","8041","75","5","2","win","no-go","0"
"pit-trial","200","1393822","0.0-80.0","battery-v0.2","","""event"",""trial"",""time""
""fullscreenenter"",""1"",""2204""
","
","
","""event"",""trial"",""time""
""fullscreenenter"",""1"",""2204""
","
","","","1244.5","","","11","8041","4066","r","elianto","#3366ff99","-1"," ","0","+10","[2095.0999999046326]","1","2","","","8041","76","1","2","win","no-go","1"
"pit-trial","201","1398685","0.0-81.0","battery-v0.2","","""event"",""trial"",""time""
""fullscreenenter"",""1"",""2204""
","
","
","""event"",""trial"",""time""
""fullscreenenter"",""1"",""2204""
","
","","","-1","","","11","8041","4066","h","elianto","#f73b6a7A","-1","-1","1","0","[]","0","2","","","8041","77","3","4","lose","no-go","0"
"pit-trial","202","1403538","0.0-82.0","battery-v0.2","","""event"",""trial"",""time""
""fullscreenenter"",""1"",""2204""
","
","
","""event"",""trial"",""time""
""fullscreenenter"",""1"",""2204""
","
","","","-1","","","11","8041","4066","z","elianto","#3366ff99"," ","-1","0","0","[]","0","2","","","8041","78","4","1","win","go","0"
"pit-trial","203","1407925","0.0-83.0","battery-v0.2","","""event"",""trial"",""time""
""fullscreenenter"",""1"",""2204""
","
","
","""event"",""trial"",""time""
""fullscreenenter"",""1"",""2204""
","
","","","1535.2000000476837","","","11","8041","4066","z","elianto","#3366ff99"," "," ","1","+10","[2385.4000000953674]","1","2","","","8041","79","4","1","win","go","0"
"pit-trial","204","1412575","0.0-84.0","battery-v0.2","","""event"",""trial"",""time""
""fullscreenenter"",""1"",""2204""
","
","
","""event"",""trial"",""time""
""fullscreenenter"",""1"",""2204""
","
","","","1798.5999999046326","","","11","8041","4066","c","elianto","#3366ff99","-1"," ","0","0","[2649.199999809265]","1","2","","","8041","80","5","2","win","no-go","0"
"pit-trial","205","1417427","0.0-85.0","battery-v0.2","","""event"",""trial"",""time""
""fullscreenenter"",""1"",""2204""
","
","
","""event"",""trial"",""time""
""fullscreenenter"",""1"",""2204""
","
","","","-1","","","11","8041","4066","z","elianto","#3366ff99"," ","-1","0","0","[]","0","2","","","8041","81","4","1","win","go","0"
"pit-trial","206","1422278","0.0-86.0","battery-v0.2","","""event"",""trial"",""time""
""fullscreenenter"",""1"",""2204""
","
","
","""event"",""trial"",""time""
""fullscreenenter"",""1"",""2204""
","
","","","-1","","","11","8041","4066","h","elianto","#f73b6a7A","-1","-1","1","0","[]","0","2","","","8041","82","3","4","lose","no-go","0"
"pit-trial","207","1427132","0.0-87.0","battery-v0.2","","""event"",""trial"",""time""
""fullscreenenter"",""1"",""2204""
","
","
","""event"",""trial"",""time""
""fullscreenenter"",""1"",""2204""
","
","","","-1","","","11","8041","4066","t","elianto","#f73b6a7A","-1","-1","1","-10","[]","0","2","","","8041","83","7","4","lose","no-go","1"
"pit-trial","208","1431984","0.0-88.0","battery-v0.2","","""event"",""trial"",""time""
""fullscreenenter"",""1"",""2204""
","
","
","""event"",""trial"",""time""
""fullscreenenter"",""1"",""2204""
","
","","","-1","","","11","8041","4066","c","elianto","#3366ff99","-1","-1","1","+10","[]","0","2","","","8041","84","5","2","win","no-go","0"
"pit-trial","209","1436836","0.0-89.0","battery-v0.2","","""event"",""trial"",""time""
""fullscreenenter"",""1"",""2204""
","
","
","""event"",""trial"",""time""
""fullscreenenter"",""1"",""2204""
","
","","","-1","","","11","8041","4066","t","elianto","#f73b6a7A","-1","-1","1","0","[]","0","2","","","8041","85","7","4","lose","no-go","0"
"pit-trial","210","1441689","0.0-90.0","battery-v0.2","","""event"",""trial"",""time""
""fullscreenenter"",""1"",""2204""
","
","
","""event"",""trial"",""time""
""fullscreenenter"",""1"",""2204""
","
","","","-1","","","11","8041","4066","c","elianto","#3366ff99","-1","-1","1","0","[]","0","2","","","8041","86","5","2","win","no-go","1"
"pit-trial","211","1445651","0.0-91.0","battery-v0.2","","""event"",""trial"",""time""
""fullscreenenter"",""1"",""2204""
","
","
","""event"",""trial"",""time""
""fullscreenenter"",""1"",""2204""
","
","","","1110.2000000476837","","","11","8041","4066","z","elianto","#3366ff99"," "," ","1","+10","[1960.8999998569489]","1","2","","","8041","87","4","1","win","go","0"
"pit-trial","212","1450502","0.0-92.0","battery-v0.2","","""event"",""trial"",""time""
""fullscreenenter"",""1"",""2204""
","
","
","""event"",""trial"",""time""
""fullscreenenter"",""1"",""2204""
","
","","","-1","","","11","8041","4066","b","elianto","#f73b6a7A"," ","-1","0","-10","[]","0","2","","","8041","88","6","3","lose","go","0"
"pit-trial","213","1455354","0.0-93.0","battery-v0.2","","""event"",""trial"",""time""
""fullscreenenter"",""1"",""2204""
","
","
","""event"",""trial"",""time""
""fullscreenenter"",""1"",""2204""
","
","","","-1","","","11","8041","4066","b","elianto","#f73b6a7A"," ","-1","0","-10","[]","0","2","","","8041","89","6","3","lose","go","0"
"pit-trial","214","1460208","0.0-94.0","battery-v0.2","","""event"",""trial"",""time""
""fullscreenenter"",""1"",""2204""
","
","
","""event"",""trial"",""time""
""fullscreenenter"",""1"",""2204""
","
","","","-1","","","11","8041","4066","t","elianto","#f73b6a7A","-1","-1","1","-10","[]","0","2","","","8041","90","7","4","lose","no-go","1"
"pit-trial","215","1465059","0.0-95.0","battery-v0.2","","""event"",""trial"",""time""
""fullscreenenter"",""1"",""2204""
","
","
","""event"",""trial"",""time""
""fullscreenenter"",""1"",""2204""
","
","","","-1","","","11","8041","4066","c","elianto","#3366ff99","-1","-1","1","+10","[]","0","2","","","8041","91","5","2","win","no-go","0"
"pit-trial","216","1469616","0.0-96.0","battery-v0.2","","""event"",""trial"",""time""
""fullscreenenter"",""1"",""2204""
","
","
","""event"",""trial"",""time""
""fullscreenenter"",""1"",""2204""
","
","","","1703.3000001907349","","","11","8041","4066","z","elianto","#3366ff99"," "," ","1","+10","[2555.5]","1","2","","","8041","92","4","1","win","go","0"
"pit-trial","217","1474195","0.0-97.0","battery-v0.2","","""event"",""trial"",""time""
""fullscreenenter"",""1"",""2204""
","
","
","""event"",""trial"",""time""
""fullscreenenter"",""1"",""2204""
","
","","","1726.9000000953674","","","11","8041","4066","f","elianto","#3366ff99"," "," ","1","0","[2577.5]","1","2","","","8041","93","8","1","win","go","1"
"pit-trial","218","1479048","0.0-98.0","battery-v0.2","","""event"",""trial"",""time""
""fullscreenenter"",""1"",""2204""
","
","
","""event"",""trial"",""time""
""fullscreenenter"",""1"",""2204""
","
","","","-1","","","11","8041","4066","b","elianto","#f73b6a7A"," ","-1","0","0","[]","0","2","","","8041","94","6","3","lose","go","1"
"pit-trial","219","1483900","0.0-99.0","battery-v0.2","","""event"",""trial"",""time""
""fullscreenenter"",""1"",""2204""
","
","
","""event"",""trial"",""time""
""fullscreenenter"",""1"",""2204""
","
","","","-1","","","11","8041","4066","c","elianto","#3366ff99","-1","-1","1","+10","[]","0","2","","","8041","95","5","2","win","no-go","0"
"pit-trial","220","1488752","0.0-100.0","battery-v0.2","","""event"",""trial"",""time""
""fullscreenenter"",""1"",""2204""
","
","
","""event"",""trial"",""time""
""fullscreenenter"",""1"",""2204""
","
","","","-1","","","11","8041","4066","t","elianto","#f73b6a7A","-1","-1","1","0","[]","0","2","","","8041","96","7","4","lose","no-go","0"
"pit-trial","221","1493603","0.0-101.0","battery-v0.2","","""event"",""trial"",""time""
""fullscreenenter"",""1"",""2204""
","
","
","""event"",""trial"",""time""
""fullscreenenter"",""1"",""2204""
","
","","","-1","","","11","8041","4066","t","elianto","#f73b6a7A","-1","-1","1","0","[]","0","2","","","8041","97","7","4","lose","no-go","0"
"pit-trial","222","1498456","0.0-102.0","battery-v0.2","","""event"",""trial"",""time""
""fullscreenenter"",""1"",""2204""
","
","
","""event"",""trial"",""time""
""fullscreenenter"",""1"",""2204""
","
","","","-1","","","11","8041","4066","b","elianto","#f73b6a7A"," ","-1","0","-10","[]","0","2","","","8041","98","6","3","lose","go","0"
"pit-trial","223","1503309","0.0-103.0","battery-v0.2","","""event"",""trial"",""time""
""fullscreenenter"",""1"",""2204""
","
","
","""event"",""trial"",""time""
""fullscreenenter"",""1"",""2204""
","
","","","-1","","","11","8041","4066","c","elianto","#3366ff99","-1","-1","1","+10","[]","0","2","","","8041","99","5","2","win","no-go","0"
"pit-trial","224","1508161","0.0-104.0","battery-v0.2","","""event"",""trial"",""time""
""fullscreenenter"",""1"",""2204""
","
","
","""event"",""trial"",""time""
""fullscreenenter"",""1"",""2204""
","
","","","-1","","","11","8041","4066","f","elianto","#3366ff99"," ","-1","0","0","[]","0","2","","","8041","100","8","1","win","go","0"
"pit-trial","225","1513013","0.0-105.0","battery-v0.2","","""event"",""trial"",""time""
""fullscreenenter"",""1"",""2204""
","
","
","""event"",""trial"",""time""
""fullscreenenter"",""1"",""2204""
","
","","","-1","","","11","8041","4066","c","elianto","#3366ff99","-1","-1","1","0","[]","0","2","","","8041","101","5","2","win","no-go","1"
"pit-trial","226","1517865","0.0-106.0","battery-v0.2","","""event"",""trial"",""time""
""fullscreenenter"",""1"",""2204""
","
","
","""event"",""trial"",""time""
""fullscreenenter"",""1"",""2204""
","
","","","-1","","","11","8041","4066","t","elianto","#f73b6a7A","-1","-1","1","0","[]","0","2","","","8041","102","7","4","lose","no-go","0"
"pit-trial","227","1522718","0.0-107.0","battery-v0.2","","""event"",""trial"",""time""
""fullscreenenter"",""1"",""2204""
","
","
","""event"",""trial"",""time""
""fullscreenenter"",""1"",""2204""
","
","","","-1","","","11","8041","4066","f","elianto","#3366ff99"," ","-1","0","0","[]","0","2","","","8041","103","8","1","win","go","0"
"pit-trial","228","1527570","0.0-108.0","battery-v0.2","","""event"",""trial"",""time""
""fullscreenenter"",""1"",""2204""
","
","
","""event"",""trial"",""time""
""fullscreenenter"",""1"",""2204""
","
","","","-1","","","11","8041","4066","n","elianto","#3366ff99"," ","-1","0","0","[]","0","2","","","8041","104","9","1","win","go","0"
"pit-trial","229","1532423","0.0-109.0","battery-v0.2","","""event"",""trial"",""time""
""fullscreenenter"",""1"",""2204""
","
","
","""event"",""trial"",""time""
""fullscreenenter"",""1"",""2204""
","
","","","-1","","","11","8041","4066","f","elianto","#3366ff99"," ","-1","0","0","[]","0","2","","","8041","105","8","1","win","go","0"
"pit-trial","230","1537274","0.0-110.0","battery-v0.2","","""event"",""trial"",""time""
""fullscreenenter"",""1"",""2204""
","
","
","""event"",""trial"",""time""
""fullscreenenter"",""1"",""2204""
","
","","","-1","","","11","8041","4066","z","elianto","#3366ff99"," ","-1","0","0","[]","0","2","","","8041","106","4","1","win","go","0"
"pit-trial","231","1542126","0.0-111.0","battery-v0.2","","""event"",""trial"",""time""
""fullscreenenter"",""1"",""2204""
","
","
","""event"",""trial"",""time""
""fullscreenenter"",""1"",""2204""
","
","","","-1","","","11","8041","4066","b","elianto","#f73b6a7A"," ","-1","0","0","[]","0","2","","","8041","107","6","3","lose","go","1"
"pit-trial","232","1546979","0.0-112.0","battery-v0.2","","""event"",""trial"",""time""
""fullscreenenter"",""1"",""2204""
","
","
","""event"",""trial"",""time""
""fullscreenenter"",""1"",""2204""
","
","","","-1","","","11","8041","4066","n","elianto","#3366ff99"," ","-1","0","0","[]","0","2","","","8041","108","9","1","win","go","0"
"pit-trial","233","1551831","0.0-113.0","battery-v0.2","","""event"",""trial"",""time""
""fullscreenenter"",""1"",""2204""
","
","
","""event"",""trial"",""time""
""fullscreenenter"",""1"",""2204""
","
","","","-1","","","11","8041","4066","n","elianto","#3366ff99"," ","-1","0","0","[]","0","2","","","8041","109","9","1","win","go","0"
"pit-trial","234","1556683","0.0-114.0","battery-v0.2","","""event"",""trial"",""time""
""fullscreenenter"",""1"",""2204""
","
","
","""event"",""trial"",""time""
""fullscreenenter"",""1"",""2204""
","
","","","-1","","","11","8041","4066","b","elianto","#f73b6a7A"," ","-1","0","-10","[]","0","2","","","8041","110","6","3","lose","go","0"
"pit-trial","235","1561535","0.0-115.0","battery-v0.2","","""event"",""trial"",""time""
""fullscreenenter"",""1"",""2204""
","
","
","""event"",""trial"",""time""
""fullscreenenter"",""1"",""2204""
","
","","","-1","","","11","8041","4066","c","elianto","#3366ff99","-1","-1","1","+10","[]","0","2","","","8041","111","5","2","win","no-go","0"
"pit-trial","236","1566388","0.0-116.0","battery-v0.2","","""event"",""trial"",""time""
""fullscreenenter"",""1"",""2204""
","
","
","""event"",""trial"",""time""
""fullscreenenter"",""1"",""2204""
","
","","","-1","","","11","8041","4066","f","elianto","#3366ff99"," ","-1","0","0","[]","0","2","","","8041","112","8","1","win","go","0"
"pit-trial","237","1571239","0.0-117.0","battery-v0.2","","""event"",""trial"",""time""
""fullscreenenter"",""1"",""2204""
","
","
","""event"",""trial"",""time""
""fullscreenenter"",""1"",""2204""
","
","","","-1","","","11","8041","4066","f","elianto","#3366ff99"," ","-1","0","0","[]","0","2","","","8041","113","8","1","win","go","0"
"pit-trial","238","1575408","0.0-118.0","battery-v0.2","","""event"",""trial"",""time""
""fullscreenenter"",""1"",""2204""
","
","
","""event"",""trial"",""time""
""fullscreenenter"",""1"",""2204""
","
","","","1315","","","11","8041","4066","c","elianto","#3366ff99","-1"," ","0","0","[2167.2000000476837]","1","2","","","8041","114","5","2","win","no-go","0"
"pit-trial","239","1578970","0.0-119.0","battery-v0.2","","""event"",""trial"",""time""
""fullscreenenter"",""1"",""2204""
","
","
","""event"",""trial"",""time""
""fullscreenenter"",""1"",""2204""
","
","","","710","","","11","8041","4066","b","elianto","#f73b6a7A"," "," ","1","0","[1560.5999999046326]","1","2","","","8041","115","6","3","lose","go","0"
"pit-trial","240","1583564","0.0-120.0","battery-v0.2","","""event"",""trial"",""time""
""fullscreenenter"",""1"",""2204""
","
","
","""event"",""trial"",""time""
""fullscreenenter"",""1"",""2204""
","
","","","1741.0999999046326","","","11","8041","4066","n","elianto","#3366ff99"," "," ","1","+10","[2592.0999999046326]","1","2","","","8041","116","9","1","win","go","0"
"pit-trial","241","1588416","0.0-121.0","battery-v0.2","","""event"",""trial"",""time""
""fullscreenenter"",""1"",""2204""
","
","
","""event"",""trial"",""time""
""fullscreenenter"",""1"",""2204""
","
","","","-1","","","11","8041","4066","n","elianto","#3366ff99"," ","-1","0","0","[4635]","1","2","","","8041","117","9","1","win","go","0"
"pit-trial","242","1593269","0.0-122.0","battery-v0.2","","""event"",""trial"",""time""
""fullscreenenter"",""1"",""2204""
","
","
","""event"",""trial"",""time""
""fullscreenenter"",""1"",""2204""
","
","","","-1","","","11","8041","4066","b","elianto","#f73b6a7A"," ","-1","0","0","[]","0","2","","","8041","118","6","3","lose","go","1"
"pit-trial","243","1598121","0.0-123.0","battery-v0.2","","""event"",""trial"",""time""
""fullscreenenter"",""1"",""2204""
","
","
","""event"",""trial"",""time""
""fullscreenenter"",""1"",""2204""
","
","","","-1","","","11","8041","4066","c","elianto","#3366ff99","-1","-1","1","+10","[]","0","2","","","8041","119","5","2","win","no-go","0"
"pit-trial","244","1602974","0.0-124.0","battery-v0.2","","""event"",""trial"",""time""
""fullscreenenter"",""1"",""2204""
","
","
","""event"",""trial"",""time""
""fullscreenenter"",""1"",""2204""
","
","","","-1","","","11","8041","4066","f","elianto","#3366ff99"," ","-1","0","0","[]","0","2","","","8041","120","8","1","win","go","0"
"pit-trial","245","1607825","0.0-125.0","battery-v0.2","","""event"",""trial"",""time""
""fullscreenenter"",""1"",""2204""
","
","
","""event"",""trial"",""time""
""fullscreenenter"",""1"",""2204""
","
","","","-1","","","11","8041","4066","b","elianto","#f73b6a7A"," ","-1","0","-10","[]","0","2","","","8041","121","6","3","lose","go","0"
"pit-trial","246","1612486","0.0-126.0","battery-v0.2","","""event"",""trial"",""time""
""fullscreenenter"",""1"",""2204""
","
","
","""event"",""trial"",""time""
""fullscreenenter"",""1"",""2204""
","
","","","1809.0999999046326","","","11","8041","4066","f","elianto","#3366ff99"," "," ","1","+10","[2659.5999999046326]","1","2","","","8041","122","8","1","win","go","0"
"pit-trial","247","1617339","0.0-127.0","battery-v0.2","","""event"",""trial"",""time""
""fullscreenenter"",""1"",""2204""
","
","
","""event"",""trial"",""time""
""fullscreenenter"",""1"",""2204""
","
","","","-1","","","11","8041","4066","t","elianto","#f73b6a7A","-1","-1","1","-10","[]","0","2","","","8041","123","7","4","lose","no-go","1"
"pit-trial","248","1621914","0.0-128.0","battery-v0.2","","""event"",""trial"",""time""
""fullscreenenter"",""1"",""2204""
","
","
","""event"",""trial"",""time""
""fullscreenenter"",""1"",""2204""
","
","","","1722.3999998569489","","","11","8041","4066","n","elianto","#3366ff99"," "," ","1","+10","[2573.2000000476837]","1","2","","","8041","124","9","1","win","go","0"
"pit-trial","249","1626625","0.0-129.0","battery-v0.2","","""event"",""trial"",""time""
""fullscreenenter"",""1"",""2204""
","
","
","""event"",""trial"",""time""
""fullscreenenter"",""1"",""2204""
","
","","","1860.5","","","11","8041","4066","b","elianto","#f73b6a7A"," "," ","1","0","[2710.7999999523163]","1","2","","","8041","125","6","3","lose","go","0"
"pit-trial","250","1631359","0.0-130.0","battery-v0.2","","""event"",""trial"",""time""
""fullscreenenter"",""1"",""2204""
","
","
","""event"",""trial"",""time""
""fullscreenenter"",""1"",""2204""
","
","","","1882.2000000476837","","","11","8041","4066","t","elianto","#f73b6a7A","-1"," ","0","-10","[2732.600000143051]","1","2","","","8041","126","7","4","lose","no-go","0"
"pit-trial","251","1635903","0.0-131.0","battery-v0.2","","""event"",""trial"",""time""
""fullscreenenter"",""1"",""2204""
","
","
","""event"",""trial"",""time""
""fullscreenenter"",""1"",""2204""
","
","","","1692.5","","","11","8041","4066","n","elianto","#3366ff99"," "," ","1","+10","[2542.5]","1","2","","","8041","127","9","1","win","go","0"
"pit-trial","252","1640756","0.0-132.0","battery-v0.2","","""event"",""trial"",""time""
""fullscreenenter"",""1"",""2204""
","
","
","""event"",""trial"",""time""
""fullscreenenter"",""1"",""2204""
","
","","","-1","","","11","8041","4066","f","elianto","#3366ff99"," ","-1","0","0","[2946.4000000953674]","1","2","","","8041","128","8","1","win","go","0"
"pit-trial","253","1645609","0.0-133.0","battery-v0.2","","""event"",""trial"",""time""
""fullscreenenter"",""1"",""2204""
","
","
","""event"",""trial"",""time""
""fullscreenenter"",""1"",""2204""
","
","","","-1","","","11","8041","4066","t","elianto","#f73b6a7A","-1","-1","1","-10","[]","0","2","","","8041","129","7","4","lose","no-go","1"
"pit-trial","254","1650461","0.0-134.0","battery-v0.2","","""event"",""trial"",""time""
""fullscreenenter"",""1"",""2204""
","
","
","""event"",""trial"",""time""
""fullscreenenter"",""1"",""2204""
","
","","","-1","","","11","8041","4066","b","elianto","#f73b6a7A"," ","-1","0","0","[]","0","2","","","8041","130","6","3","lose","go","1"
"pit-trial","255","1654067","0.0-135.0","battery-v0.2","","""event"",""trial"",""time""
""fullscreenenter"",""1"",""2204""
","
","
","""event"",""trial"",""time""
""fullscreenenter"",""1"",""2204""
","
","","","755","","","11","8041","4066","f","elianto","#3366ff99"," "," ","1","+10","[1605.8999998569489]","1","2","","","8041","131","8","1","win","go","0"
"pit-trial","256","1658187","0.0-136.0","battery-v0.2","","""event"",""trial"",""time""
""fullscreenenter"",""1"",""2204""
","
","
","""event"",""trial"",""time""
""fullscreenenter"",""1"",""2204""
","
","","","1267.7000000476837","","","11","8041","4066","n","elianto","#3366ff99"," "," ","1","+10","[2118.5]","1","2","","","8041","132","9","1","win","go","0"
"pit-trial","257","1663039","0.0-137.0","battery-v0.2","","""event"",""trial"",""time""
""fullscreenenter"",""1"",""2204""
","
","
","""event"",""trial"",""time""
""fullscreenenter"",""1"",""2204""
","
","","","-1","","","11","8041","4066","b","elianto","#f73b6a7A"," ","-1","0","-10","[]","0","2","","","8041","133","6","3","lose","go","0"
"pit-trial","258","1667130","0.0-138.0","battery-v0.2","","""event"",""trial"",""time""
""fullscreenenter"",""1"",""2204""
","
","
","""event"",""trial"",""time""
""fullscreenenter"",""1"",""2204""
","
","","","1238.5999999046326","","","11","8041","4066","t","elianto","#f73b6a7A","-1"," ","0","-10","[2088.699999809265]","1","2","","","8041","134","7","4","lose","no-go","0"
"pit-trial","259","1670955","0.0-139.0","battery-v0.2","","""event"",""trial"",""time""
""fullscreenenter"",""1"",""2204""
","
","
","""event"",""trial"",""time""
""fullscreenenter"",""1"",""2204""
","
","","","972.9000000953674","","","11","8041","4066","n","elianto","#3366ff99"," "," ","1","0","[1823.1000001430511]","1","2","","","8041","135","9","1","win","go","1"
"pit-trial","260","1675421","0.0-140.0","battery-v0.2","","""event"",""trial"",""time""
""fullscreenenter"",""1"",""2204""
","
","
","""event"",""trial"",""time""
""fullscreenenter"",""1"",""2204""
","
","","","1614.7000000476837","","","11","8041","4066","f","elianto","#3366ff99"," "," ","1","+10","[2464.800000190735]","1","2","","","8041","136","8","1","win","go","0"
"pit-trial","261","1679833","0.0-141.0","battery-v0.2","","""event"",""trial"",""time""
""fullscreenenter"",""1"",""2204""
","
","
","""event"",""trial"",""time""
""fullscreenenter"",""1"",""2204""
","
","","","1560","","","11","8041","4066","n","elianto","#3366ff99"," "," ","1","+10","[2410.100000143051]","1","2","","","8041","137","9","1","win","go","0"
"pit-trial","262","1684686","0.0-142.0","battery-v0.2","","""event"",""trial"",""time""
""fullscreenenter"",""1"",""2204""
","
","
","""event"",""trial"",""time""
""fullscreenenter"",""1"",""2204""
","
","","","-1","","","11","8041","4066","t","elianto","#f73b6a7A","-1","-1","1","0","[]","0","2","","","8041","138","7","4","lose","no-go","0"
"pit-trial","263","1689279","0.0-143.0","battery-v0.2","","""event"",""trial"",""time""
""fullscreenenter"",""1"",""2204""
","
","
","""event"",""trial"",""time""
""fullscreenenter"",""1"",""2204""
","
","","","1741.1999998092651","","","11","8041","4066","f","elianto","#3366ff99"," "," ","1","+10","[2592.199999809265]","1","2","","","8041","139","8","1","win","go","0"
"pit-trial","264","1694131","0.0-144.0","battery-v0.2","","""event"",""trial"",""time""
""fullscreenenter"",""1"",""2204""
","
","
","""event"",""trial"",""time""
""fullscreenenter"",""1"",""2204""
","
","","","-1","","","11","8041","4066","b","elianto","#f73b6a7A"," ","-1","0","-10","[]","0","2","","","8041","140","6","3","lose","go","0"
"pit-instructions","265","1709066","0.0-145.0","battery-v0.2","","""event"",""trial"",""time""
""fullscreenenter"",""1"",""2204""
","
","
","""event"",""trial"",""time""
""fullscreenenter"",""1"",""2204""
","
","","[{""page_index"":0,""viewing_time"":6005.5},{""page_index"":1,""viewing_time"":8928.200000047684}]","14933.799999952316","","","","","","","","","","","","","","","","","","","","","","","",""
"pit-trial","266","1713236","0.0-146.0","battery-v0.2","","""event"",""trial"",""time""
""fullscreenenter"",""1"",""2204""
","
","
","""event"",""trial"",""time""
""fullscreenenter"",""1"",""2204""
","
","","","1302.7999999523163","","","11","8041","4066","a","elianto","#f73b6a7A","-1"," ","0","0","[2154.7000000476837]","1","3","","","8041","141","2","4","lose","no-go","1"
"pit-trial","267","1717416","0.0-147.0","battery-v0.2","","""event"",""trial"",""time""
""fullscreenenter"",""1"",""2204""
","
","
","""event"",""trial"",""time""
""fullscreenenter"",""1"",""2204""
","
","","","1323.4000000953674","","","11","8041","4066","u","elianto","#f73b6a7A","-1"," ","0","-10","[2174.9000000953674]","1","3","","","8041","142","0","4","lose","no-go","0"
"pit-trial","268","1721896","0.0-148.0","battery-v0.2","","""event"",""trial"",""time""
""fullscreenenter"",""1"",""2204""
","
","
","""event"",""trial"",""time""
""fullscreenenter"",""1"",""2204""
","
","","","1609.6999998092651","","","11","8041","4066","l","elianto","#3366ff99"," "," ","1","0","[2461.5999999046326]","1","3","","","8041","143","1","1","win","go","1"
