"trial_type","trial_index","time_elapsed","internal_node_id","task_version","subject_id","interactions","blur_events","focus_events","fullscreenenter_events","fullscreenexit_events","success","view_history","rt","responses","num_errors","age","subject","participantId","rune","rune_set","hex","correct","choice","accuracy","outcome","keys","total_keys","block","practice","value","sub","trial","stimulus","robot","valence","action","sham"
"pavlovia","0","16","0.0-0.0","battery-v0.2","","""event"",""trial"",""time""
""fullscreenenter"",""1"",""5135""
","
","
","""event"",""trial"",""time""
""fullscreenenter"",""1"",""5135""
","
","","","","","","","","","","","","","","","","","","","","","","","","","","",""
"fullscreen","1","6125","0.0-1.0","battery-v0.2","","""event"",""trial"",""time""
""fullscreenenter"",""1"",""5135""
","
","
","""event"",""trial"",""time""
""fullscreenenter"",""1"",""5135""
","
","true","","","","","","","","","","","","","","","","","","","","","","","","","",""
"pit-instructions","2","12114","0.0-2.0-0.0","battery-v0.2","","""event"",""trial"",""time""
""fullscreenenter"",""1"",""5135""
","
","
","""event"",""trial"",""time""
""fullscreenenter"",""1"",""5135""
","
","","[{""page_index"":0,""viewing_time"":5985.899999976158}]","5986.300000011921","","","","","","","","","","","","","","","","","","","","","","","",""
"pit-comprehension","3","16549","0.0-2.0-1.0-0.0","battery-v0.2","","""event"",""trial"",""time""
""fullscreenenter"",""1"",""5135""
","
","
","""event"",""trial"",""time""
""fullscreenenter"",""1"",""5135""
","
","","","4429","[""shark""]","0","23","11964","5478","","","","","","","","","","","","","","","","","","",""
"pit-instructions","4","21172","0.0-2.0-1.0-1.0","battery-v0.2","","""event"",""trial"",""time""
""fullscreenenter"",""1"",""5135""
","
","
","""event"",""trial"",""time""
""fullscreenenter"",""1"",""5135""
","
","","[{""page_index"":0,""viewing_time"":4613.599999964237}]","4614.099999964237","","","","","","","","","","","","","","","","","","","","","","","",""
"pit-comprehension","5","24387","0.0-2.0-2.0-0.0","battery-v0.2","","""event"",""trial"",""time""
""fullscreenenter"",""1"",""5135""
","
","
","""event"",""trial"",""time""
""fullscreenenter"",""1"",""5135""
","
","","","3209.100000023842","[""tiger""]","0","23","11964","5478","","","","","","","","","","","","","","","","","","",""
"pit-instructions","6","25713","0.0-2.0-2.0-1.0","battery-v0.2","","""event"",""trial"",""time""
""fullscreenenter"",""1"",""5135""
","
","
","""event"",""trial"",""time""
""fullscreenenter"",""1"",""5135""
","
","","[{""page_index"":0,""viewing_time"":1320.9000000357628}]","1321.5","","","","","","","","","","","","","","","","","","","","","","","",""
"pit-instructions","7","128048","0.0-2.0-3.0","battery-v0.2","","""event"",""trial"",""time""
""fullscreenenter"",""1"",""5135""
","
","
","""event"",""trial"",""time""
""fullscreenenter"",""1"",""5135""
","
","","[{""page_index"":0,""viewing_time"":9221.899999976158},{""page_index"":1,""viewing_time"":5861.400000035763},{""page_index"":2,""viewing_time"":7683.099999964237},{""page_index"":3,""viewing_time"":6420.400000035763},{""page_index"":4,""viewing_time"":6219.699999988079},{""page_index"":5,""viewing_time"":6329},{""page_index"":6,""viewing_time"":8189.199999988079},{""page_index"":7,""viewing_time"":7090.900000035763},{""page_index"":8,""viewing_time"":6195.799999952316},{""page_index"":9,""viewing_time"":8232},{""page_index"":10,""viewing_time"":8225.600000023842},{""page_index"":11,""viewing_time"":8472.199999988079},{""page_index"":12,""viewing_time"":9185},{""page_index"":13,""viewing_time"":5003.100000023842}]","102329.89999997616","","","","","","","","","","","","","","","","","","","","","","","",""
"pit-trial","8","131692","0.0-2.0-4.0-0.0","battery-v0.2","","""event"",""trial"",""time""
""fullscreenenter"",""1"",""5135""
","
","
","""event"",""trial"",""time""
""fullscreenenter"",""1"",""5135""
","
","","","782","","","23","11964","5478","&#9784;","elianto","#FFFFF080"," "," ","1","&#10004","[1635]","1","0","0","","","","","","","",""
"pit-trial","9","135364","0.0-2.0-4.1-0.1","battery-v0.2","","""event"",""trial"",""time""
""fullscreenenter"",""1"",""5135""
","
","
","""event"",""trial"",""time""
""fullscreenenter"",""1"",""5135""
","
","","","807.3999999761581","","","23","11964","5478","&#9784;","elianto","#FFFFF080"," "," ","1","&#10004","[1659.199999988079]","1","0","0","","","","","","","",""
"pit-trial","10","139099","0.0-2.0-4.2-0.2","battery-v0.2","","""event"",""trial"",""time""
""fullscreenenter"",""1"",""5135""
","
","
","""event"",""trial"",""time""
""fullscreenenter"",""1"",""5135""
","
","","","873.6999999880791","","","23","11964","5478","&#9784;","elianto","#FFFFF080"," "," ","1","&#10004","[1726]","1","0","0","","","","","","","",""
"pit-trial","11","142786","0.0-2.0-4.3-0.3","battery-v0.2","","""event"",""trial"",""time""
""fullscreenenter"",""1"",""5135""
","
","
","""event"",""trial"",""time""
""fullscreenenter"",""1"",""5135""
","
","","","824.9000000357628","","","23","11964","5478","&#9784;","elianto","#FFFFF080"," "," ","1","&#10004","[1677]","1","0","0","","","","","","","",""
"pit-trial","12","146342","0.0-2.0-4.4-0.4","battery-v0.2","","""event"",""trial"",""time""
""fullscreenenter"",""1"",""5135""
","
","
","""event"",""trial"",""time""
""fullscreenenter"",""1"",""5135""
","
","","","692.6999999880791","","","23","11964","5478","&#9784;","elianto","#FFFFF080"," "," ","1","&#10004","[1546.300000011921]","1","0","0","","","","","","","",""
"pit-instructions","13","172413","0.0-2.0-5.0","battery-v0.2","","""event"",""trial"",""time""
""fullscreenenter"",""1"",""5135""
","
","
","""event"",""trial"",""time""
""fullscreenenter"",""1"",""5135""
","
","","[{""page_index"":0,""viewing_time"":6439.699999988079},{""page_index"":1,""viewing_time"":6951.399999976158},{""page_index"":2,""viewing_time"":4972.400000035763},{""page_index"":3,""viewing_time"":7702.099999964237}]","26066","","","","","","","","","","","","","","","","","","","","","","","",""
"pit-trial","14","177271","0.0-2.0-6.0-0.0","battery-v0.2","","""event"",""trial"",""time""
""fullscreenenter"",""1"",""5135""
","
","
","""event"",""trial"",""time""
""fullscreenenter"",""1"",""5135""
","
","","","-1","","","23","11964","5478","&#9854;","elianto","#FFFFF080","-1","-1","1","&#10004","[]","0","0","1","","","","","","","",""
"pit-trial","15","182136","0.0-2.0-6.1-0.1","battery-v0.2","","""event"",""trial"",""time""
""fullscreenenter"",""1"",""5135""
","
","
","""event"",""trial"",""time""
""fullscreenenter"",""1"",""5135""
","
","","","-1","","","23","11964","5478","&#9854;","elianto","#FFFFF080","-1","-1","1","&#10004","[]","0","0","1","","","","","","","",""
"pit-trial","16","186997","0.0-2.0-6.2-0.2","battery-v0.2","","""event"",""trial"",""time""
""fullscreenenter"",""1"",""5135""
","
","
","""event"",""trial"",""time""
""fullscreenenter"",""1"",""5135""
","
","","","-1","","","23","11964","5478","&#9854;","elianto","#FFFFF080","-1","-1","1","&#10004","[]","0","0","1","","","","","","","",""
"pit-trial","17","191856","0.0-2.0-6.3-0.3","battery-v0.2","","""event"",""trial"",""time""
""fullscreenenter"",""1"",""5135""
","
","
","""event"",""trial"",""time""
""fullscreenenter"",""1"",""5135""
","
","","","-1","","","23","11964","5478","&#9854;","elianto","#FFFFF080","-1","-1","1","&#10004","[]","0","0","1","","","","","","","",""
"pit-trial","18","196719","0.0-2.0-6.4-0.4","battery-v0.2","","""event"",""trial"",""time""
""fullscreenenter"",""1"",""5135""
","
","
","""event"",""trial"",""time""
""fullscreenenter"",""1"",""5135""
","
","","","-1","","","23","11964","5478","&#9854;","elianto","#FFFFF080","-1","-1","1","&#10004","[]","0","0","1","","","","","","","",""
"pit-instructions","19","319974","0.0-2.0-7.0","battery-v0.2","","""event"",""trial"",""time""
""fullscreenenter"",""1"",""5135""
","
","
","""event"",""trial"",""time""
""fullscreenenter"",""1"",""5135""
","
","","[{""page_index"":0,""viewing_time"":9713.100000023842},{""page_index"":1,""viewing_time"":8486.799999952316},{""page_index"":2,""viewing_time"":6283.400000035763},{""page_index"":3,""viewing_time"":6196.199999988079},{""page_index"":4,""viewing_time"":6255},{""page_index"":5,""viewing_time"":8314.100000023842},{""page_index"":6,""viewing_time"":4653.599999964237},{""page_index"":7,""viewing_time"":7675.600000023842},{""page_index"":8,""viewing_time"":6349.099999964237},{""page_index"":9,""viewing_time"":6627.300000011921},{""page_index"":10,""viewing_time"":6140.300000011921},{""page_index"":11,""viewing_time"":4195},{""page_index"":12,""viewing_time"":6530.300000011921},{""page_index"":13,""viewing_time"":7491.399999976158},{""page_index"":14,""viewing_time"":7208.300000011921},{""page_index"":15,""viewing_time"":7382.699999988079},{""page_index"":16,""viewing_time"":6224.800000011921},{""page_index"":17,""viewing_time"":7522.800000011921}]","123250.39999997616","","","","","","","","","","","","","","","","","","","","","","","",""
"pit-trial","20","323633","0.0-2.0-8.0-0.0","battery-v0.2","","""event"",""trial"",""time""
""fullscreenenter"",""1"",""5135""
","
","
","""event"",""trial"",""time""
""fullscreenenter"",""1"",""5135""
","
","","","803.1000000238419","","","23","11964","5478","&#9776;","elianto","#3366ff99"," "," ","1","+10","[1654]","1","0","1","","","","","","","",""
"pit-trial","21","327066","0.0-2.0-8.0-1.0","battery-v0.2","","""event"",""trial"",""time""
""fullscreenenter"",""1"",""5135""
","
","
","""event"",""trial"",""time""
""fullscreenenter"",""1"",""5135""
","
","","","573.6999999880791","","","23","11964","5478","&#9776;","elianto","#3366ff99"," "," ","1","+10","[1424.699999988079]","1","0","1","","","","","","","",""
"pit-trial","22","330526","0.0-2.0-8.0-2.0","battery-v0.2","","""event"",""trial"",""time""
""fullscreenenter"",""1"",""5135""
","
","
","""event"",""trial"",""time""
""fullscreenenter"",""1"",""5135""
","
","","","600.1999999880791","","","23","11964","5478","&#9776;","elianto","#3366ff99"," "," ","1","+10","[1452]","1","0","1","","","","","","","",""
"pit-trial","23","333918","0.0-2.0-8.0-3.0","battery-v0.2","","""event"",""trial"",""time""
""fullscreenenter"",""1"",""5135""
","
","
","""event"",""trial"",""time""
""fullscreenenter"",""1"",""5135""
","
","","","531.8000000119209","","","23","11964","5478","&#9776;","elianto","#3366ff99"," "," ","1","0","[1386.5]","1","0","1","","","","","","","",""
"pit-trial","24","337346","0.0-2.0-8.0-4.0","battery-v0.2","","""event"",""trial"",""time""
""fullscreenenter"",""1"",""5135""
","
","
","""event"",""trial"",""time""
""fullscreenenter"",""1"",""5135""
","
","","","567.5999999642372","","","23","11964","5478","&#9776;","elianto","#3366ff99"," "," ","1","+10","[1420.3999999761581]","1","0","1","","","","","","","",""
"pit-trial","25","340784","0.0-2.0-8.1-0.1","battery-v0.2","","""event"",""trial"",""time""
""fullscreenenter"",""1"",""5135""
","
","
","""event"",""trial"",""time""
""fullscreenenter"",""1"",""5135""
","
","","","575","","","23","11964","5478","&#9776;","elianto","#3366ff99"," "," ","1","+10","[1427.9000000357628]","1","0","1","","","","","","","",""
"pit-trial","26","344188","0.0-2.0-8.1-1.1","battery-v0.2","","""event"",""trial"",""time""
""fullscreenenter"",""1"",""5135""
","
","
","""event"",""trial"",""time""
""fullscreenenter"",""1"",""5135""
","
","","","546.5999999642372","","","23","11964","5478","&#9776;","elianto","#3366ff99"," "," ","1","+10","[1397.5]","1","0","1","","","","","","","",""
"pit-trial","27","347659","0.0-2.0-8.1-2.1","battery-v0.2","","""event"",""trial"",""time""
""fullscreenenter"",""1"",""5135""
","
","
","""event"",""trial"",""time""
""fullscreenenter"",""1"",""5135""
","
","","","615.8000000119209","","","23","11964","5478","&#9776;","elianto","#3366ff99"," "," ","1","+10","[1467.3999999761581]","1","0","1","","","","","","","",""
"pit-trial","28","351034","0.0-2.0-8.1-3.1","battery-v0.2","","""event"",""trial"",""time""
""fullscreenenter"",""1"",""5135""
","
","
","""event"",""trial"",""time""
""fullscreenenter"",""1"",""5135""
","
","","","519.1999999880791","","","23","11964","5478","&#9776;","elianto","#3366ff99"," "," ","1","0","[1370.300000011921]","1","0","1","","","","","","","",""
"pit-trial","29","354514","0.0-2.0-8.1-4.1","battery-v0.2","","""event"",""trial"",""time""
""fullscreenenter"",""1"",""5135""
","
","
","""event"",""trial"",""time""
""fullscreenenter"",""1"",""5135""
","
","","","618.1000000238419","","","23","11964","5478","&#9776;","elianto","#3366ff99"," "," ","1","+10","[1470.5]","1","0","1","","","","","","","",""
"pit-trial","30","357864","0.0-2.0-8.2-0.2","battery-v0.2","","""event"",""trial"",""time""
""fullscreenenter"",""1"",""5135""
","
","
","""event"",""trial"",""time""
""fullscreenenter"",""1"",""5135""
","
","","","489.10000002384186","","","23","11964","5478","&#9776;","elianto","#3366ff99"," "," ","1","+10","[1339.8999999761581]","1","0","1","","","","","","","",""
"pit-trial","31","361284","0.0-2.0-8.2-1.2","battery-v0.2","","""event"",""trial"",""time""
""fullscreenenter"",""1"",""5135""
","
","
","""event"",""trial"",""time""
""fullscreenenter"",""1"",""5135""
","
","","","558.4000000357628","","","23","11964","5478","&#9776;","elianto","#3366ff99"," "," ","1","+10","[1410.699999988079]","1","0","1","","","","","","","",""
"pit-trial","32","364696","0.0-2.0-8.2-2.2","battery-v0.2","","""event"",""trial"",""time""
""fullscreenenter"",""1"",""5135""
","
","
","""event"",""trial"",""time""
""fullscreenenter"",""1"",""5135""
","
","","","549.8999999761581","","","23","11964","5478","&#9776;","elianto","#3366ff99"," "," ","1","+10","[1403.7999999523163]","1","0","1","","","","","","","",""
"pit-trial","33","368098","0.0-2.0-8.2-3.2","battery-v0.2","","""event"",""trial"",""time""
""fullscreenenter"",""1"",""5135""
","
","
","""event"",""trial"",""time""
""fullscreenenter"",""1"",""5135""
","
","","","539.8999999761581","","","23","11964","5478","&#9776;","elianto","#3366ff99"," "," ","1","0","[1392.699999988079]","1","0","1","","","","","","","",""
"pit-trial","34","371514","0.0-2.0-8.2-4.2","battery-v0.2","","""event"",""trial"",""time""
""fullscreenenter"",""1"",""5135""
","
","
","""event"",""trial"",""time""
""fullscreenenter"",""1"",""5135""
","
","","","556","","","23","11964","5478","&#9776;","elianto","#3366ff99"," "," ","1","+10","[1407.5999999642372]","1","0","1","","","","","","","",""
"call-function","35","371518","0.0-2.0-9.0","battery-v0.2","","""event"",""trial"",""time""
""fullscreenenter"",""1"",""5135""
","
","
","""event"",""trial"",""time""
""fullscreenenter"",""1"",""5135""
","
","","","","","","","","","","","","","","","","","","","","","","","","","","",""
"pit-instructions","36","410524","0.0-2.0-10.0","battery-v0.2","","""event"",""trial"",""time""
""fullscreenenter"",""1"",""5135""
","
","
","""event"",""trial"",""time""
""fullscreenenter"",""1"",""5135""
","
","","[{""page_index"":0,""viewing_time"":5714.599999964237},{""page_index"":1,""viewing_time"":7159.700000047684},{""page_index"":2,""viewing_time"":9096.799999952316},{""page_index"":3,""viewing_time"":9418.700000047684},{""page_index"":4,""viewing_time"":7615.5}]","39005.80000001192","","","","","","","","","","","","","","","","","","","","","","","",""
"pit-trial","37","414052","0.0-2.0-11.0-0.0","battery-v0.2","","""event"",""trial"",""time""
""fullscreenenter"",""1"",""5135""
","
","
","""event"",""trial"",""time""
""fullscreenenter"",""1"",""5135""
","
","","","669.5","","","23","11964","5478","&#9761;","elianto","#3366ff99","-1"," ","0","0","[1522]","1","0","2","","","","","","","",""
"pit-trial","38","418915","0.0-2.0-11.0-1.0","battery-v0.2","","""event"",""trial"",""time""
""fullscreenenter"",""1"",""5135""
","
","
","""event"",""trial"",""time""
""fullscreenenter"",""1"",""5135""
","
","","","-1","","","23","11964","5478","&#9761;","elianto","#3366ff99","-1","-1","1","+10","[]","0","0","2","","","","","","","",""
"pit-trial","39","423775","0.0-2.0-11.0-2.0","battery-v0.2","","""event"",""trial"",""time""
""fullscreenenter"",""1"",""5135""
","
","
","""event"",""trial"",""time""
""fullscreenenter"",""1"",""5135""
","
","","","-1","","","23","11964","5478","&#9761;","elianto","#3366ff99","-1","-1","1","+10","[]","0","0","2","","","","","","","",""
"pit-trial","40","428640","0.0-2.0-11.0-3.0","battery-v0.2","","""event"",""trial"",""time""
""fullscreenenter"",""1"",""5135""
","
","
","""event"",""trial"",""time""
""fullscreenenter"",""1"",""5135""
","
","","","-1","","","23","11964","5478","&#9761;","elianto","#3366ff99","-1","-1","1","0","[]","0","0","2","","","","","","","",""
"pit-trial","41","433498","0.0-2.0-11.0-4.0","battery-v0.2","","""event"",""trial"",""time""
""fullscreenenter"",""1"",""5135""
","
","
","""event"",""trial"",""time""
""fullscreenenter"",""1"",""5135""
","
","","","-1","","","23","11964","5478","&#9761;","elianto","#3366ff99","-1","-1","1","+10","[]","0","0","2","","","","","","","",""
"pit-trial","42","438361","0.0-2.0-11.1-0.1","battery-v0.2","","""event"",""trial"",""time""
""fullscreenenter"",""1"",""5135""
","
","
","""event"",""trial"",""time""
""fullscreenenter"",""1"",""5135""
","
","","","-1","","","23","11964","5478","&#9761;","elianto","#3366ff99","-1","-1","1","+10","[]","0","0","2","","","","","","","",""
"pit-trial","43","443226","0.0-2.0-11.1-1.1","battery-v0.2","","""event"",""trial"",""time""
""fullscreenenter"",""1"",""5135""
","
","
","""event"",""trial"",""time""
""fullscreenenter"",""1"",""5135""
","
","","","-1","","","23","11964","5478","&#9761;","elianto","#3366ff99","-1","-1","1","+10","[]","0","0","2","","","","","","","",""
"pit-trial","44","448087","0.0-2.0-11.1-2.1","battery-v0.2","","""event"",""trial"",""time""
""fullscreenenter"",""1"",""5135""
","
","
","""event"",""trial"",""time""
""fullscreenenter"",""1"",""5135""
","
","","","-1","","","23","11964","5478","&#9761;","elianto","#3366ff99","-1","-1","1","+10","[]","0","0","2","","","","","","","",""
"pit-trial","45","452952","0.0-2.0-11.1-3.1","battery-v0.2","","""event"",""trial"",""time""
""fullscreenenter"",""1"",""5135""
","
","
","""event"",""trial"",""time""
""fullscreenenter"",""1"",""5135""
","
","","","-1","","","23","11964","5478","&#9761;","elianto","#3366ff99","-1","-1","1","0","[]","0","0","2","","","","","","","",""
"pit-trial","46","457813","0.0-2.0-11.1-4.1","battery-v0.2","","""event"",""trial"",""time""
""fullscreenenter"",""1"",""5135""
","
","
","""event"",""trial"",""time""
""fullscreenenter"",""1"",""5135""
","
","","","-1","","","23","11964","5478","&#9761;","elianto","#3366ff99","-1","-1","1","+10","[]","0","0","2","","","","","","","",""
"pit-trial","47","462678","0.0-2.0-11.2-0.2","battery-v0.2","","""event"",""trial"",""time""
""fullscreenenter"",""1"",""5135""
","
","
","""event"",""trial"",""time""
""fullscreenenter"",""1"",""5135""
","
","","","-1","","","23","11964","5478","&#9761;","elianto","#3366ff99","-1","-1","1","+10","[]","0","0","2","","","","","","","",""
"pit-trial","48","467540","0.0-2.0-11.2-1.2","battery-v0.2","","""event"",""trial"",""time""
""fullscreenenter"",""1"",""5135""
","
","
","""event"",""trial"",""time""
""fullscreenenter"",""1"",""5135""
","
","","","-1","","","23","11964","5478","&#9761;","elianto","#3366ff99","-1","-1","1","+10","[]","0","0","2","","","","","","","",""
"pit-trial","49","472401","0.0-2.0-11.2-2.2","battery-v0.2","","""event"",""trial"",""time""
""fullscreenenter"",""1"",""5135""
","
","
","""event"",""trial"",""time""
""fullscreenenter"",""1"",""5135""
","
","","","-1","","","23","11964","5478","&#9761;","elianto","#3366ff99","-1","-1","1","+10","[]","0","0","2","","","","","","","",""
"pit-trial","50","477266","0.0-2.0-11.2-3.2","battery-v0.2","","""event"",""trial"",""time""
""fullscreenenter"",""1"",""5135""
","
","
","""event"",""trial"",""time""
""fullscreenenter"",""1"",""5135""
","
","","","-1","","","23","11964","5478","&#9761;","elianto","#3366ff99","-1","-1","1","0","[]","0","0","2","","","","","","","",""
"pit-trial","51","482130","0.0-2.0-11.2-4.2","battery-v0.2","","""event"",""trial"",""time""
""fullscreenenter"",""1"",""5135""
","
","
","""event"",""trial"",""time""
""fullscreenenter"",""1"",""5135""
","
","","","-1","","","23","11964","5478","&#9761;","elianto","#3366ff99","-1","-1","1","+10","[]","0","0","2","","","","","","","",""
"pit-trial","52","486992","0.0-2.0-11.3-0.3","battery-v0.2","","""event"",""trial"",""time""
""fullscreenenter"",""1"",""5135""
","
","
","""event"",""trial"",""time""
""fullscreenenter"",""1"",""5135""
","
","","","-1","","","23","11964","5478","&#9761;","elianto","#3366ff99","-1","-1","1","+10","[]","0","0","2","","","","","","","",""
"pit-trial","53","491854","0.0-2.0-11.3-1.3","battery-v0.2","","""event"",""trial"",""time""
""fullscreenenter"",""1"",""5135""
","
","
","""event"",""trial"",""time""
""fullscreenenter"",""1"",""5135""
","
","","","-1","","","23","11964","5478","&#9761;","elianto","#3366ff99","-1","-1","1","+10","[]","0","0","2","","","","","","","",""
"pit-trial","54","496718","0.0-2.0-11.3-2.3","battery-v0.2","","""event"",""trial"",""time""
""fullscreenenter"",""1"",""5135""
","
","
","""event"",""trial"",""time""
""fullscreenenter"",""1"",""5135""
","
","","","-1","","","23","11964","5478","&#9761;","elianto","#3366ff99","-1","-1","1","+10","[]","0","0","2","","","","","","","",""
"pit-trial","55","501583","0.0-2.0-11.3-3.3","battery-v0.2","","""event"",""trial"",""time""
""fullscreenenter"",""1"",""5135""
","
","
","""event"",""trial"",""time""
""fullscreenenter"",""1"",""5135""
","
","","","-1","","","23","11964","5478","&#9761;","elianto","#3366ff99","-1","-1","1","0","[]","0","0","2","","","","","","","",""
"pit-trial","56","506447","0.0-2.0-11.3-4.3","battery-v0.2","","""event"",""trial"",""time""
""fullscreenenter"",""1"",""5135""
","
","
","""event"",""trial"",""time""
""fullscreenenter"",""1"",""5135""
","
","","","-1","","","23","11964","5478","&#9761;","elianto","#3366ff99","-1","-1","1","+10","[]","0","0","2","","","","","","","",""
"call-function","57","506451","0.0-2.0-12.0","battery-v0.2","","""event"",""trial"",""time""
""fullscreenenter"",""1"",""5135""
","
","
","""event"",""trial"",""time""
""fullscreenenter"",""1"",""5135""
","
","","","","","","","","","","","","","","","","","","","","","","","","","","",""
"pit-instructions","58","542637","0.0-2.0-13.0","battery-v0.2","","""event"",""trial"",""time""
""fullscreenenter"",""1"",""5135""
","
","
","""event"",""trial"",""time""
""fullscreenenter"",""1"",""5135""
","
","","[{""page_index"":0,""viewing_time"":7537.5},{""page_index"":1,""viewing_time"":9058},{""page_index"":2,""viewing_time"":3870.699999988079},{""page_index"":3,""viewing_time"":10334.100000023842},{""page_index"":4,""viewing_time"":5384.099999964237}]","36184.69999998808","","","","","","","","","","","","","","","","","","","","","","","",""
"pit-trial","59","546216","0.0-2.0-14.0-0.0","battery-v0.2","","""event"",""trial"",""time""
""fullscreenenter"",""1"",""5135""
","
","
","""event"",""trial"",""time""
""fullscreenenter"",""1"",""5135""
","
","","","722.3000000119209","","","23","11964","5478","&#9826;","elianto","#f73b6a7A","-1"," ","0","-10","[1574]","1","0","3","","","","","","","",""
"pit-trial","60","551075","0.0-2.0-14.0-1.0","battery-v0.2","","""event"",""trial"",""time""
""fullscreenenter"",""1"",""5135""
","
","
","""event"",""trial"",""time""
""fullscreenenter"",""1"",""5135""
","
","","","-1","","","23","11964","5478","&#9826;","elianto","#f73b6a7A","-1","-1","1","0","[]","0","0","3","","","","","","","",""
"pit-trial","61","555934","0.0-2.0-14.0-2.0","battery-v0.2","","""event"",""trial"",""time""
""fullscreenenter"",""1"",""5135""
","
","
","""event"",""trial"",""time""
""fullscreenenter"",""1"",""5135""
","
","","","-1","","","23","11964","5478","&#9826;","elianto","#f73b6a7A","-1","-1","1","0","[]","0","0","3","","","","","","","",""
"pit-trial","62","560793","0.0-2.0-14.0-3.0","battery-v0.2","","""event"",""trial"",""time""
""fullscreenenter"",""1"",""5135""
","
","
","""event"",""trial"",""time""
""fullscreenenter"",""1"",""5135""
","
","","","-1","","","23","11964","5478","&#9826;","elianto","#f73b6a7A","-1","-1","1","-10","[]","0","0","3","","","","","","","",""
"pit-trial","63","565652","0.0-2.0-14.0-4.0","battery-v0.2","","""event"",""trial"",""time""
""fullscreenenter"",""1"",""5135""
","
","
","""event"",""trial"",""time""
""fullscreenenter"",""1"",""5135""
","
","","","-1","","","23","11964","5478","&#9826;","elianto","#f73b6a7A","-1","-1","1","0","[]","0","0","3","","","","","","","",""
"pit-trial","64","570510","0.0-2.0-14.1-0.1","battery-v0.2","","""event"",""trial"",""time""
""fullscreenenter"",""1"",""5135""
","
","
","""event"",""trial"",""time""
""fullscreenenter"",""1"",""5135""
","
","","","-1","","","23","11964","5478","&#9826;","elianto","#f73b6a7A","-1","-1","1","0","[]","0","0","3","","","","","","","",""
"pit-trial","65","575370","0.0-2.0-14.1-1.1","battery-v0.2","","""event"",""trial"",""time""
""fullscreenenter"",""1"",""5135""
","
","
","""event"",""trial"",""time""
""fullscreenenter"",""1"",""5135""
","
","","","-1","","","23","11964","5478","&#9826;","elianto","#f73b6a7A","-1","-1","1","0","[]","0","0","3","","","","","","","",""
"pit-trial","66","580228","0.0-2.0-14.1-2.1","battery-v0.2","","""event"",""trial"",""time""
""fullscreenenter"",""1"",""5135""
","
","
","""event"",""trial"",""time""
""fullscreenenter"",""1"",""5135""
","
","","","-1","","","23","11964","5478","&#9826;","elianto","#f73b6a7A","-1","-1","1","0","[]","0","0","3","","","","","","","",""
"pit-trial","67","585087","0.0-2.0-14.1-3.1","battery-v0.2","","""event"",""trial"",""time""
""fullscreenenter"",""1"",""5135""
","
","
","""event"",""trial"",""time""
""fullscreenenter"",""1"",""5135""
","
","","","-1","","","23","11964","5478","&#9826;","elianto","#f73b6a7A","-1","-1","1","-10","[]","0","0","3","","","","","","","",""
"pit-trial","68","589946","0.0-2.0-14.1-4.1","battery-v0.2","","""event"",""trial"",""time""
""fullscreenenter"",""1"",""5135""
","
","
","""event"",""trial"",""time""
""fullscreenenter"",""1"",""5135""
","
","","","-1","","","23","11964","5478","&#9826;","elianto","#f73b6a7A","-1","-1","1","0","[]","0","0","3","","","","","","","",""
"pit-trial","69","594804","0.0-2.0-14.2-0.2","battery-v0.2","","""event"",""trial"",""time""
""fullscreenenter"",""1"",""5135""
","
","
","""event"",""trial"",""time""
""fullscreenenter"",""1"",""5135""
","
","","","-1","","","23","11964","5478","&#9826;","elianto","#f73b6a7A","-1","-1","1","0","[]","0","0","3","","","","","","","",""
"pit-trial","70","599665","0.0-2.0-14.2-1.2","battery-v0.2","","""event"",""trial"",""time""
""fullscreenenter"",""1"",""5135""
","
","
","""event"",""trial"",""time""
""fullscreenenter"",""1"",""5135""
","
","","","-1","","","23","11964","5478","&#9826;","elianto","#f73b6a7A","-1","-1","1","0","[]","0","0","3","","","","","","","",""
"pit-trial","71","604529","0.0-2.0-14.2-2.2","battery-v0.2","","""event"",""trial"",""time""
""fullscreenenter"",""1"",""5135""
","
","
","""event"",""trial"",""time""
""fullscreenenter"",""1"",""5135""
","
","","","-1","","","23","11964","5478","&#9826;","elianto","#f73b6a7A","-1","-1","1","0","[]","0","0","3","","","","","","","",""
"pit-trial","72","609385","0.0-2.0-14.2-3.2","battery-v0.2","","""event"",""trial"",""time""
""fullscreenenter"",""1"",""5135""
","
","
","""event"",""trial"",""time""
""fullscreenenter"",""1"",""5135""
","
","","","-1","","","23","11964","5478","&#9826;","elianto","#f73b6a7A","-1","-1","1","-10","[]","0","0","3","","","","","","","",""
"pit-trial","73","614245","0.0-2.0-14.2-4.2","battery-v0.2","","""event"",""trial"",""time""
""fullscreenenter"",""1"",""5135""
","
","
","""event"",""trial"",""time""
""fullscreenenter"",""1"",""5135""
","
","","","-1","","","23","11964","5478","&#9826;","elianto","#f73b6a7A","-1","-1","1","0","[]","0","0","3","","","","","","","",""
"pit-trial","74","619104","0.0-2.0-14.3-0.3","battery-v0.2","","""event"",""trial"",""time""
""fullscreenenter"",""1"",""5135""
","
","
","""event"",""trial"",""time""
""fullscreenenter"",""1"",""5135""
","
","","","-1","","","23","11964","5478","&#9826;","elianto","#f73b6a7A","-1","-1","1","0","[]","0","0","3","","","","","","","",""
"pit-trial","75","623963","0.0-2.0-14.3-1.3","battery-v0.2","","""event"",""trial"",""time""
""fullscreenenter"",""1"",""5135""
","
","
","""event"",""trial"",""time""
""fullscreenenter"",""1"",""5135""
","
","","","-1","","","23","11964","5478","&#9826;","elianto","#f73b6a7A","-1","-1","1","0","[]","0","0","3","","","","","","","",""
"pit-trial","76","628822","0.0-2.0-14.3-2.3","battery-v0.2","","""event"",""trial"",""time""
""fullscreenenter"",""1"",""5135""
","
","
","""event"",""trial"",""time""
""fullscreenenter"",""1"",""5135""
","
","","","-1","","","23","11964","5478","&#9826;","elianto","#f73b6a7A","-1","-1","1","0","[]","0","0","3","","","","","","","",""
"pit-trial","77","633680","0.0-2.0-14.3-3.3","battery-v0.2","","""event"",""trial"",""time""
""fullscreenenter"",""1"",""5135""
","
","
","""event"",""trial"",""time""
""fullscreenenter"",""1"",""5135""
","
","","","-1","","","23","11964","5478","&#9826;","elianto","#f73b6a7A","-1","-1","1","-10","[]","0","0","3","","","","","","","",""
"pit-trial","78","638539","0.0-2.0-14.3-4.3","battery-v0.2","","""event"",""trial"",""time""
""fullscreenenter"",""1"",""5135""
","
","
","""event"",""trial"",""time""
""fullscreenenter"",""1"",""5135""
","
","","","-1","","","23","11964","5478","&#9826;","elianto","#f73b6a7A","-1","-1","1","0","[]","0","0","3","","","","","","","",""
"call-function","79","638543","0.0-2.0-15.0","battery-v0.2","","""event"",""trial"",""time""
""fullscreenenter"",""1"",""5135""
","
","
","""event"",""trial"",""time""
""fullscreenenter"",""1"",""5135""
","
","","","","","","","","","","","","","","","","","","","","","","","","","","",""
"pit-instructions","80","665784","0.0-2.0-16.0","battery-v0.2","","""event"",""trial"",""time""
""fullscreenenter"",""1"",""5135""
","
","
","""event"",""trial"",""time""
""fullscreenenter"",""1"",""5135""
","
","","[{""page_index"":0,""viewing_time"":6832.100000023842},{""page_index"":1,""viewing_time"":8678.300000011921},{""page_index"":2,""viewing_time"":6588.299999952316},{""page_index"":3,""viewing_time"":5141.100000023842}]","27240.5","","","","","","","","","","","","","","","","","","","","","","","",""
"pit-trial","81","669348","0.0-2.0-17.0-0.0","battery-v0.2","","""event"",""trial"",""time""
""fullscreenenter"",""1"",""5135""
","
","
","""event"",""trial"",""time""
""fullscreenenter"",""1"",""5135""
","
","","","701.3000000119209","","","23","11964","5478","&#9789;","elianto","#f73b6a7A"," "," ","1","0","[1554.199999988079]","1","0","4","","","","","","","",""
"pit-trial","82","672718","0.0-2.0-17.0-1.0","battery-v0.2","","""event"",""trial"",""time""
""fullscreenenter"",""1"",""5135""
","
","
","""event"",""trial"",""time""
""fullscreenenter"",""1"",""5135""
","
","","","513.3000000119209","","","23","11964","5478","&#9789;","elianto","#f73b6a7A"," "," ","1","0","[1363.5]","1","0","4","","","","","","","",""
"pit-trial","83","676201","0.0-2.0-17.0-2.0","battery-v0.2","","""event"",""trial"",""time""
""fullscreenenter"",""1"",""5135""
","
","
","""event"",""trial"",""time""
""fullscreenenter"",""1"",""5135""
","
","","","625.7999999523163","","","23","11964","5478","&#9789;","elianto","#f73b6a7A"," "," ","1","0","[1477]","1","0","4","","","","","","","",""
"pit-trial","84","679572","0.0-2.0-17.0-3.0","battery-v0.2","","""event"",""trial"",""time""
""fullscreenenter"",""1"",""5135""
","
","
","""event"",""trial"",""time""
""fullscreenenter"",""1"",""5135""
","
","","","510.7000000476837","","","23","11964","5478","&#9789;","elianto","#f73b6a7A"," "," ","1","-10","[1363]","1","0","4","","","","","","","",""
"pit-trial","85","682900","0.0-2.0-17.0-4.0","battery-v0.2","","""event"",""trial"",""time""
""fullscreenenter"",""1"",""5135""
","
","
","""event"",""trial"",""time""
""fullscreenenter"",""1"",""5135""
","
","","","470.4000000357628","","","23","11964","5478","&#9789;","elianto","#f73b6a7A"," "," ","1","0","[1320.8999999761581]","1","0","4","","","","","","","",""
"pit-trial","86","686284","0.0-2.0-17.1-0.1","battery-v0.2","","""event"",""trial"",""time""
""fullscreenenter"",""1"",""5135""
","
","
","""event"",""trial"",""time""
""fullscreenenter"",""1"",""5135""
","
","","","524.8999999761581","","","23","11964","5478","&#9789;","elianto","#f73b6a7A"," "," ","1","0","[1376.1000000238419]","1","0","4","","","","","","","",""
"pit-trial","87","689565","0.0-2.0-17.1-1.1","battery-v0.2","","""event"",""trial"",""time""
""fullscreenenter"",""1"",""5135""
","
","
","""event"",""trial"",""time""
""fullscreenenter"",""1"",""5135""
","
","","","421","","","23","11964","5478","&#9789;","elianto","#f73b6a7A"," "," ","1","0","[1273.300000011921]","1","0","4","","","","","","","",""
"pit-trial","88","692748","0.0-2.0-17.1-2.1","battery-v0.2","","""event"",""trial"",""time""
""fullscreenenter"",""1"",""5135""
","
","
","""event"",""trial"",""time""
""fullscreenenter"",""1"",""5135""
","
","","","324.39999997615814","","","23","11964","5478","&#9789;","elianto","#f73b6a7A"," "," ","1","0","[1175.5]","1","0","4","","","","","","","",""
"pit-trial","89","696101","0.0-2.0-17.1-3.1","battery-v0.2","","""event"",""trial"",""time""
""fullscreenenter"",""1"",""5135""
","
","
","""event"",""trial"",""time""
""fullscreenenter"",""1"",""5135""
","
","","","496.10000002384186","","","23","11964","5478","&#9789;","elianto","#f73b6a7A"," "," ","1","-10","[1347.300000011921]","1","0","4","","","","","","","",""
"pit-trial","90","699348","0.0-2.0-17.1-4.1","battery-v0.2","","""event"",""trial"",""time""
""fullscreenenter"",""1"",""5135""
","
","
","""event"",""trial"",""time""
""fullscreenenter"",""1"",""5135""
","
","","","385.0999999642372","","","23","11964","5478","&#9789;","elianto","#f73b6a7A"," "," ","1","0","[1239.4000000357628]","1","0","4","","","","","","","",""
"pit-trial","91","702868","0.0-2.0-17.2-0.2","battery-v0.2","","""event"",""trial"",""time""
""fullscreenenter"",""1"",""5135""
","
","
","""event"",""trial"",""time""
""fullscreenenter"",""1"",""5135""
","
","","","664.3000000119209","","","23","11964","5478","&#9789;","elianto","#f73b6a7A"," "," ","1","0","[1514.8999999761581]","1","0","4","","","","","","","",""
"pit-trial","92","706281","0.0-2.0-17.2-1.2","battery-v0.2","","""event"",""trial"",""time""
""fullscreenenter"",""1"",""5135""
","
","
","""event"",""trial"",""time""
""fullscreenenter"",""1"",""5135""
","
","","","547.8000000119209","","","23","11964","5478","&#9789;","elianto","#f73b6a7A"," "," ","1","0","[1403]","1","0","4","","","","","","","",""
"pit-trial","93","709665","0.0-2.0-17.2-2.2","battery-v0.2","","""event"",""trial"",""time""
""fullscreenenter"",""1"",""5135""
","
","
","""event"",""trial"",""time""
""fullscreenenter"",""1"",""5135""
","
","","","525.6999999880791","","","23","11964","5478","&#9789;","elianto","#f73b6a7A"," "," ","1","0","[1377.6000000238419]","1","0","4","","","","","","","",""
"pit-trial","94","713056","0.0-2.0-17.2-3.2","battery-v0.2","","""event"",""trial"",""time""
""fullscreenenter"",""1"",""5135""
","
","
","""event"",""trial"",""time""
""fullscreenenter"",""1"",""5135""
","
","","","527.6999999880791","","","23","11964","5478","&#9789;","elianto","#f73b6a7A"," "," ","1","-10","[1381.2999999523163]","1","0","4","","","","","","","",""
"pit-trial","95","716399","0.0-2.0-17.2-4.2","battery-v0.2","","""event"",""trial"",""time""
""fullscreenenter"",""1"",""5135""
","
","
","""event"",""trial"",""time""
""fullscreenenter"",""1"",""5135""
","
","","","487.30000001192093","","","23","11964","5478","&#9789;","elianto","#f73b6a7A"," "," ","1","0","[1338.300000011921]","1","0","4","","","","","","","",""
"pit-trial","96","719762","0.0-2.0-17.3-0.3","battery-v0.2","","""event"",""trial"",""time""
""fullscreenenter"",""1"",""5135""
","
","
","""event"",""trial"",""time""
""fullscreenenter"",""1"",""5135""
","
","","","503","","","23","11964","5478","&#9789;","elianto","#f73b6a7A"," "," ","1","0","[1353.1000000238419]","1","0","4","","","","","","","",""
"pit-trial","97","723098","0.0-2.0-17.3-1.3","battery-v0.2","","""event"",""trial"",""time""
""fullscreenenter"",""1"",""5135""
","
","
","""event"",""trial"",""time""
""fullscreenenter"",""1"",""5135""
","
","","","480.10000002384186","","","23","11964","5478","&#9789;","elianto","#f73b6a7A"," "," ","1","0","[1331.1000000238419]","1","0","4","","","","","","","",""
"pit-trial","98","726674","0.0-2.0-17.3-2.3","battery-v0.2","","""event"",""trial"",""time""
""fullscreenenter"",""1"",""5135""
","
","
","""event"",""trial"",""time""
""fullscreenenter"",""1"",""5135""
","
","","","716.3000000119209","","","23","11964","5478","&#9789;","elianto","#f73b6a7A"," "," ","1","0","[1568.300000011921]","1","0","4","","","","","","","",""
"pit-trial","99","730035","0.0-2.0-17.3-3.3","battery-v0.2","","""event"",""trial"",""time""
""fullscreenenter"",""1"",""5135""
","
","
","""event"",""trial"",""time""
""fullscreenenter"",""1"",""5135""
","
","","","502.60000002384186","","","23","11964","5478","&#9789;","elianto","#f73b6a7A"," "," ","1","-10","[1354.7000000476837]","1","0","4","","","","","","","",""
"pit-trial","100","733401","0.0-2.0-17.3-4.3","battery-v0.2","","""event"",""trial"",""time""
""fullscreenenter"",""1"",""5135""
","
","
","""event"",""trial"",""time""
""fullscreenenter"",""1"",""5135""
","
","","","509.7999999523163","","","23","11964","5478","&#9789;","elianto","#f73b6a7A"," "," ","1","0","[1360]","1","0","4","","","","","","","",""
"call-function","101","733405","0.0-2.0-18.0","battery-v0.2","","""event"",""trial"",""time""
""fullscreenenter"",""1"",""5135""
","
","
","""event"",""trial"",""time""
""fullscreenenter"",""1"",""5135""
","
","","","","","","","","","","","","","","","","","","","","","","","","","","",""
"pit-instructions","102","823016","0.0-2.0-19.0","battery-v0.2","","""event"",""trial"",""time""
""fullscreenenter"",""1"",""5135""
","
","
","""event"",""trial"",""time""
""fullscreenenter"",""1"",""5135""
","
","","[{""page_index"":0,""viewing_time"":6791.099999964237},{""page_index"":1,""viewing_time"":8861.300000011921},{""page_index"":2,""viewing_time"":13793.199999988079},{""page_index"":3,""viewing_time"":17864.900000035763},{""page_index"":4,""viewing_time"":13035.099999964237},{""page_index"":5,""viewing_time"":10274.200000047684},{""page_index"":6,""viewing_time"":8540.099999964237},{""page_index"":7,""viewing_time"":6502.900000035763},{""page_index"":8,""viewing_time"":3947.899999976158}]","89611.19999998808","","","","","","","","","","","","","","","","","","","","","","","",""
"pit-comprehension","103","828151","0.0-2.0-20.0-0.0","battery-v0.2","","""event"",""trial"",""time""
""fullscreenenter"",""1"",""5135""
","
","
","""event"",""trial"",""time""
""fullscreenenter"",""1"",""5135""
","
","","","5128.399999976158","[""SPACE""]","0","23","11964","5478","","","","","","","","","","","","","","","","","","",""
"pit-instructions","104","831557","0.0-2.0-20.0-1.0","battery-v0.2","","""event"",""trial"",""time""
""fullscreenenter"",""1"",""5135""
","
","
","""event"",""trial"",""time""
""fullscreenenter"",""1"",""5135""
","
","","[{""page_index"":0,""viewing_time"":3371.5}]","3371.899999976158","","","","","","","","","","","","","","","","","","","","","","","",""
"pit-comprehension","105","838679","0.0-2.0-21.0-0.0","battery-v0.2","","""event"",""trial"",""time""
""fullscreenenter"",""1"",""5135""
","
","
","""event"",""trial"",""time""
""fullscreenenter"",""1"",""5135""
","
","","","7117.800000011921","[""10""]","0","23","11964","5478","","","","","","","","","","","","","","","","","","",""
"pit-instructions","106","840828","0.0-2.0-21.0-1.0","battery-v0.2","","""event"",""trial"",""time""
""fullscreenenter"",""1"",""5135""
","
","
","""event"",""trial"",""time""
""fullscreenenter"",""1"",""5135""
","
","","[{""page_index"":0,""viewing_time"":2114.699999988079}]","2115.199999988079","","","","","","","","","","","","","","","","","","","","","","","",""
"pit-comprehension","107","848302","0.0-2.0-22.0-0.0","battery-v0.2","","""event"",""trial"",""time""
""fullscreenenter"",""1"",""5135""
","
","
","""event"",""trial"",""time""
""fullscreenenter"",""1"",""5135""
","
","","","7467.5","[""0""]","0","23","11964","5478","","","","","","","","","","","","","","","","","","",""
"pit-instructions","108","850448","0.0-2.0-22.0-1.0","battery-v0.2","","""event"",""trial"",""time""
""fullscreenenter"",""1"",""5135""
","
","
","""event"",""trial"",""time""
""fullscreenenter"",""1"",""5135""
","
","","[{""page_index"":0,""viewing_time"":2109.599999964237}]","2110.099999964237","","","","","","","","","","","","","","","","","","","","","","","",""
"pit-comprehension","109","859517","0.0-2.0-23.0-0.0","battery-v0.2","","""event"",""trial"",""time""
""fullscreenenter"",""1"",""5135""
","
","
","""event"",""trial"",""time""
""fullscreenenter"",""1"",""5135""
","
","","","9064","[""True""]","0","23","11964","5478","","","","","","","","","","","","","","","","","","",""
"pit-instructions","110","861215","0.0-2.0-23.0-1.0","battery-v0.2","","""event"",""trial"",""time""
""fullscreenenter"",""1"",""5135""
","
","
","""event"",""trial"",""time""
""fullscreenenter"",""1"",""5135""
","
","","[{""page_index"":0,""viewing_time"":1673.0999999642372}]","1673.3999999761581","","","","","","","","","","","","","","","","","","","","","","","",""
"pit-comprehension","111","869127","0.0-2.0-24.0-0.0","battery-v0.2","","""event"",""trial"",""time""
""fullscreenenter"",""1"",""5135""
","
","
","""event"",""trial"",""time""
""fullscreenenter"",""1"",""5135""
","
","","","7906.399999976158","[""True""]","0","23","11964","5478","","","","","","","","","","","","","","","","","","",""
"pit-instructions","112","871028","0.0-2.0-24.0-1.0","battery-v0.2","","""event"",""trial"",""time""
""fullscreenenter"",""1"",""5135""
","
","
","""event"",""trial"",""time""
""fullscreenenter"",""1"",""5135""
","
","","[{""page_index"":0,""viewing_time"":1866.699999988079}]","1867.0999999642372","","","","","","","","","","","","","","","","","","","","","","","",""
"pit-comprehension","113","877989","0.0-2.0-25.0-0.0","battery-v0.2","","""event"",""trial"",""time""
""fullscreenenter"",""1"",""5135""
","
","
","""event"",""trial"",""time""
""fullscreenenter"",""1"",""5135""
","
","","","6955.800000011921","[""True""]","0","23","11964","5478","","","","","","","","","","","","","","","","","","",""
"pit-instructions","114","880207","0.0-2.0-25.0-1.0","battery-v0.2","","""event"",""trial"",""time""
""fullscreenenter"",""1"",""5135""
","
","
","""event"",""trial"",""time""
""fullscreenenter"",""1"",""5135""
","
","","[{""page_index"":0,""viewing_time"":2182.400000035763}]","2182.699999988079","","","","","","","","","","","","","","","","","","","","","","","",""
"pit-comprehension","115","885135","0.0-2.0-26.0-0.0","battery-v0.2","","""event"",""trial"",""time""
""fullscreenenter"",""1"",""5135""
","
","
","""event"",""trial"",""time""
""fullscreenenter"",""1"",""5135""
","
","","","4923.599999964237","[""False""]","0","23","11964","5478","","","","","","","","","","","","","","","","","","",""
"pit-instructions","116","886918","0.0-2.0-26.0-1.0","battery-v0.2","","""event"",""trial"",""time""
""fullscreenenter"",""1"",""5135""
","
","
","""event"",""trial"",""time""
""fullscreenenter"",""1"",""5135""
","
","","[{""page_index"":0,""viewing_time"":1750.6000000238419}]","1750.699999988079","","","","","","","","","","","","","","","","","","","","","","","",""
"pit-instructions","117","905740","0.0-3.0","battery-v0.2","","""event"",""trial"",""time""
""fullscreenenter"",""1"",""5135""
","
","
","""event"",""trial"",""time""
""fullscreenenter"",""1"",""5135""
","
","","[{""page_index"":0,""viewing_time"":3886},{""page_index"":1,""viewing_time"":7550.599999964237},{""page_index"":2,""viewing_time"":7382.900000035763}]","18819.899999976158","","","","","","","","","","","","","","","","","","","","","","","",""
"pit-trial","118","909235","0.0-4.0","battery-v0.2","","""event"",""trial"",""time""
""fullscreenenter"",""1"",""5135""
","
","
","""event"",""trial"",""time""
""fullscreenenter"",""1"",""5135""
","
","","","630","","","23","11964","5478","&#9733;","elianto","#3366ff99","-1"," ","0","0","[1482.0999999642372]","1","1","","","11964","1","2","2","win","no-go","0"
"pit-trial","119","914096","0.0-5.0","battery-v0.2","","""event"",""trial"",""time""
""fullscreenenter"",""1"",""5135""
","
","
","""event"",""trial"",""time""
""fullscreenenter"",""1"",""5135""
","
","","","-1","","","23","11964","5478","&#9752;","elianto","#f73b6a7A"," ","-1","0","0","[]","0","1","","","11964","2","3","3","lose","go","1"
"pit-trial","120","918960","0.0-6.0","battery-v0.2","","""event"",""trial"",""time""
""fullscreenenter"",""1"",""5135""
","
","
","""event"",""trial"",""time""
""fullscreenenter"",""1"",""5135""
","
","","","-1","","","23","11964","5478","&#9728;","elianto","#f73b6a7A","-1","-1","1","0","[]","0","1","","","11964","3","0","4","lose","no-go","0"
"pit-trial","121","922763","0.0-7.0","battery-v0.2","","""event"",""trial"",""time""
""fullscreenenter"",""1"",""5135""
","
","
","""event"",""trial"",""time""
""fullscreenenter"",""1"",""5135""
","
","","","946.1000000238419","","","23","11964","5478","&#9730;","elianto","#3366ff99"," "," ","1","+10","[1796.8999999761581]","1","1","","","11964","4","1","1","win","go","0"
"pit-trial","122","927626","0.0-8.0","battery-v0.2","","""event"",""trial"",""time""
""fullscreenenter"",""1"",""5135""
","
","
","""event"",""trial"",""time""
""fullscreenenter"",""1"",""5135""
","
","","","-1","","","23","11964","5478","&#9728;","elianto","#f73b6a7A","-1","-1","1","-10","[]","0","1","","","11964","5","0","4","lose","no-go","1"
"pit-trial","123","931358","0.0-9.0","battery-v0.2","","""event"",""trial"",""time""
""fullscreenenter"",""1"",""5135""
","
","
","""event"",""trial"",""time""
""fullscreenenter"",""1"",""5135""
","
","","","869.0999999642372","","","23","11964","5478","&#9733;","elianto","#3366ff99","-1"," ","0","+10","[1722.3999999761581]","1","1","","","11964","6","2","2","win","no-go","1"
"pit-trial","124","936216","0.0-10.0","battery-v0.2","","""event"",""trial"",""time""
""fullscreenenter"",""1"",""5135""
","
","
","""event"",""trial"",""time""
""fullscreenenter"",""1"",""5135""
","
","","","-1","","","23","11964","5478","&#9752;","elianto","#f73b6a7A"," ","-1","0","-10","[]","0","1","","","11964","7","3","3","lose","go","0"
"pit-trial","125","939824","0.0-11.0","battery-v0.2","","""event"",""trial"",""time""
""fullscreenenter"",""1"",""5135""
","
","
","""event"",""trial"",""time""
""fullscreenenter"",""1"",""5135""
","
","","","747.1999999880791","","","23","11964","5478","&#9730;","elianto","#3366ff99"," "," ","1","+10","[1601.8999999761581]","1","1","","","11964","8","1","1","win","go","0"
"pit-trial","126","944684","0.0-12.0","battery-v0.2","","""event"",""trial"",""time""
""fullscreenenter"",""1"",""5135""
","
","
","""event"",""trial"",""time""
""fullscreenenter"",""1"",""5135""
","
","","","-1","","","23","11964","5478","&#9728;","elianto","#f73b6a7A","-1","-1","1","0","[]","0","1","","","11964","9","0","4","lose","no-go","0"
"pit-trial","127","948274","0.0-13.0","battery-v0.2","","""event"",""trial"",""time""
""fullscreenenter"",""1"",""5135""
","
","
","""event"",""trial"",""time""
""fullscreenenter"",""1"",""5135""
","
","","","732","","","23","11964","5478","&#9730;","elianto","#3366ff99"," "," ","1","+10","[1583.699999988079]","1","1","","","11964","10","1","1","win","go","0"
"pit-trial","128","953138","0.0-14.0","battery-v0.2","","""event"",""trial"",""time""
""fullscreenenter"",""1"",""5135""
","
","
","""event"",""trial"",""time""
""fullscreenenter"",""1"",""5135""
","
","","","-1","","","23","11964","5478","&#9752;","elianto","#f73b6a7A"," ","-1","0","-10","[]","0","1","","","11964","11","3","3","lose","go","0"
"pit-trial","129","956896","0.0-15.0","battery-v0.2","","""event"",""trial"",""time""
""fullscreenenter"",""1"",""5135""
","
","
","""event"",""trial"",""time""
""fullscreenenter"",""1"",""5135""
","
","","","900.8999999761581","","","23","11964","5478","&#9733;","elianto","#3366ff99","-1"," ","0","+10","[1752.199999988079]","1","1","","","11964","12","2","2","win","no-go","1"
"pit-trial","130","961279","0.0-16.0","battery-v0.2","","""event"",""trial"",""time""
""fullscreenenter"",""1"",""5135""
","
","
","""event"",""trial"",""time""
""fullscreenenter"",""1"",""5135""
","
","","","1522.9000000357628","","","23","11964","5478","&#9752;","elianto","#f73b6a7A"," "," ","1","0","[2375.100000023842]","1","1","","","11964","13","3","3","lose","go","0"
"pit-trial","131","966143","0.0-17.0","battery-v0.2","","""event"",""trial"",""time""
""fullscreenenter"",""1"",""5135""
","
","
","""event"",""trial"",""time""
""fullscreenenter"",""1"",""5135""
","
","","","-1","","","23","11964","5478","&#9728;","elianto","#f73b6a7A","-1","-1","1","0","[]","0","1","","","11964","14","0","4","lose","no-go","0"
"pit-trial","132","969678","0.0-18.0","battery-v0.2","","""event"",""trial"",""time""
""fullscreenenter"",""1"",""5135""
","
","
","""event"",""trial"",""time""
""fullscreenenter"",""1"",""5135""
","
","","","677.0999999642372","","","23","11964","5478","&#9733;","elianto","#3366ff99","-1"," ","0","0","[1529.0999999642372]","1","1","","","11964","15","2","2","win","no-go","0"
"pit-trial","133","973318","0.0-19.0","battery-v0.2","","""event"",""trial"",""time""
""fullscreenenter"",""1"",""5135""
","
","
","""event"",""trial"",""time""
""fullscreenenter"",""1"",""5135""
","
","","","781.4000000357628","","","23","11964","5478","&#9730;","elianto","#3366ff99"," "," ","1","+10","[1632]","1","1","","","11964","16","1","1","win","go","0"
"pit-trial","134","976986","0.0-20.0","battery-v0.2","","""event"",""trial"",""time""
""fullscreenenter"",""1"",""5135""
","
","
","""event"",""trial"",""time""
""fullscreenenter"",""1"",""5135""
","
","","","810.6999999880791","","","23","11964","5478","&#9730;","elianto","#3366ff99"," "," ","1","0","[1661.1000000238419]","1","1","","","11964","17","1","1","win","go","1"
"pit-trial","135","981850","0.0-21.0","battery-v0.2","","""event"",""trial"",""time""
""fullscreenenter"",""1"",""5135""
","
","
","""event"",""trial"",""time""
""fullscreenenter"",""1"",""5135""
","
","","","-1","","","23","11964","5478","&#9752;","elianto","#f73b6a7A"," ","-1","0","-10","[]","0","1","","","11964","18","3","3","lose","go","0"
"pit-trial","136","985490","0.0-22.0","battery-v0.2","","""event"",""trial"",""time""
""fullscreenenter"",""1"",""5135""
","
","
","""event"",""trial"",""time""
""fullscreenenter"",""1"",""5135""
","
","","","780.3999999761581","","","23","11964","5478","&#9733;","elianto","#3366ff99","-1"," ","0","+10","[1630.9000000357628]","1","1","","","11964","19","2","2","win","no-go","1"
"pit-trial","137","990353","0.0-23.0","battery-v0.2","","""event"",""trial"",""time""
""fullscreenenter"",""1"",""5135""
","
","
","""event"",""trial"",""time""
""fullscreenenter"",""1"",""5135""
","
","","","-1","","","23","11964","5478","&#9728;","elianto","#f73b6a7A","-1","-1","1","0","[]","0","1","","","11964","20","0","4","lose","no-go","0"
"pit-instructions","138","1003035","0.0-24.0","battery-v0.2","","""event"",""trial"",""time""
""fullscreenenter"",""1"",""5135""
","
","
","""event"",""trial"",""time""
""fullscreenenter"",""1"",""5135""
","
","","[{""page_index"":0,""viewing_time"":5700.199999988079},{""page_index"":1,""viewing_time"":6977.100000023842}]","12677.699999988079","","","","","","","","","","","","","","","","","","","","","","","",""
"pit-trial","139","1006607","0.0-25.0","battery-v0.2","","""event"",""trial"",""time""
""fullscreenenter"",""1"",""5135""
","
","
","""event"",""trial"",""time""
""fullscreenenter"",""1"",""5135""
","
","","","710.5999999642372","","","23","11964","5478","l","elianto","#3366ff99","-1"," ","0","0","[1561]","1","2","","","11964","21","1","2","win","no-go","0"
"pit-trial","140","1010246","0.0-26.0","battery-v0.2","","""event"",""trial"",""time""
""fullscreenenter"",""1"",""5135""
","
","
","""event"",""trial"",""time""
""fullscreenenter"",""1"",""5135""
","
","","","774.6000000238419","","","23","11964","5478","u","elianto","#f73b6a7A"," "," ","1","0","[1629]","1","2","","","11964","22","0","3","lose","go","0"
"pit-trial","141","1014769","0.0-27.0","battery-v0.2","","""event"",""trial"",""time""
""fullscreenenter"",""1"",""5135""
","
","
","""event"",""trial"",""time""
""fullscreenenter"",""1"",""5135""
","
","","","1660","","","23","11964","5478","a","elianto","#f73b6a7A"," "," ","1","0","[2515.900000035763]","1","2","","","11964","23","2","3","lose","go","0"
"pit-trial","142","1018986","0.0-28.0","battery-v0.2","","""event"",""trial"",""time""
""fullscreenenter"",""1"",""5135""
","
","
","""event"",""trial"",""time""
""fullscreenenter"",""1"",""5135""
","
","","","1356.199999988079","","","23","11964","5478","g","elianto","#f73b6a7A","-1"," ","0","-10","[2207.800000011921]","1","2","","","11964","24","3","4","lose","no-go","0"
"pit-trial","143","1023845","0.0-29.0","battery-v0.2","","""event"",""trial"",""time""
""fullscreenenter"",""1"",""5135""
","
","
","""event"",""trial"",""time""
""fullscreenenter"",""1"",""5135""
","
","","","-1","","","23","11964","5478","g","elianto","#f73b6a7A","-1","-1","1","-10","[]","0","2","","","11964","25","3","4","lose","no-go","1"
"pit-trial","144","1027495","0.0-30.0","battery-v0.2","","""event"",""trial"",""time""
""fullscreenenter"",""1"",""5135""
","
","
","""event"",""trial"",""time""
""fullscreenenter"",""1"",""5135""
","
","","","792.3000000119209","","","23","11964","5478","a","elianto","#f73b6a7A"," "," ","1","0","[1644.300000011921]","1","2","","","11964","26","2","3","lose","go","0"
"pit-trial","145","1031186","0.0-31.0","battery-v0.2","","""event"",""trial"",""time""
""fullscreenenter"",""1"",""5135""
","
","
","""event"",""trial"",""time""
""fullscreenenter"",""1"",""5135""
","
","","","829.1999999880791","","","23","11964","5478","l","elianto","#3366ff99","-1"," ","0","0","[1681.6000000238419]","1","2","","","11964","27","1","2","win","no-go","0"
"pit-trial","146","1035964","0.0-32.0","battery-v0.2","","""event"",""trial"",""time""
""fullscreenenter"",""1"",""5135""
","
","
","""event"",""trial"",""time""
""fullscreenenter"",""1"",""5135""
","
","","","1921.4000000357628","","","23","11964","5478","u","elianto","#f73b6a7A"," "," ","1","0","[2771.800000011921]","1","2","","","11964","28","0","3","lose","go","0"
"pit-trial","147","1040823","0.0-33.0","battery-v0.2","","""event"",""trial"",""time""
""fullscreenenter"",""1"",""5135""
","
","
","""event"",""trial"",""time""
""fullscreenenter"",""1"",""5135""
","
","","","-1","","","23","11964","5478","g","elianto","#f73b6a7A","-1","-1","1","0","[]","0","2","","","11964","29","3","4","lose","no-go","0"
"pit-trial","148","1044686","0.0-34.0","battery-v0.2","","""event"",""trial"",""time""
""fullscreenenter"",""1"",""5135""
","
","
","""event"",""trial"",""time""
""fullscreenenter"",""1"",""5135""
","
","","","1002.1000000238419","","","23","11964","5478","a","elianto","#f73b6a7A"," "," ","1","0","[1855]","1","2","","","11964","30","2","3","lose","go","0"
"pit-trial","149","1048709","0.0-35.0","battery-v0.2","","""event"",""trial"",""time""
""fullscreenenter"",""1"",""5135""
","
","
","""event"",""trial"",""time""
""fullscreenenter"",""1"",""5135""
","
","","","1167","","","23","11964","5478","u","elianto","#f73b6a7A"," "," ","1","0","[2018.300000011921]","1","2","","","11964","31","0","3","lose","go","0"
"pit-trial","150","1053570","0.0-36.0","battery-v0.2","","""event"",""trial"",""time""
""fullscreenenter"",""1"",""5135""
","
","
","""event"",""trial"",""time""
""fullscreenenter"",""1"",""5135""
","
","","","-1","","","23","11964","5478","l","elianto","#3366ff99","-1","-1","1","+10","[]","0","2","","","11964","32","1","2","win","no-go","0"
"pit-trial","151","1058433","0.0-37.0","battery-v0.2","","""event"",""trial"",""time""
""fullscreenenter"",""1"",""5135""
","
","
","""event"",""trial"",""time""
""fullscreenenter"",""1"",""5135""
","
","","","-1","","","23","11964","5478","g","elianto","#f73b6a7A","-1","-1","1","0","[]","0","2","","","11964","33","3","4","lose","no-go","0"
"pit-trial","152","1062062","0.0-38.0","battery-v0.2","","""event"",""trial"",""time""
""fullscreenenter"",""1"",""5135""
","
","
","""event"",""trial"",""time""
""fullscreenenter"",""1"",""5135""
","
","","","768.6000000238419","","","23","11964","5478","a","elianto","#f73b6a7A"," "," ","1","0","[1623.5]","1","2","","","11964","34","2","3","lose","go","0"
"pit-trial","153","1066919","0.0-39.0","battery-v0.2","","""event"",""trial"",""time""
""fullscreenenter"",""1"",""5135""
","
","
","""event"",""trial"",""time""
""fullscreenenter"",""1"",""5135""
","
","","","-1","","","23","11964","5478","l","elianto","#3366ff99","-1","-1","1","+10","[]","0","2","","","11964","35","1","2","win","no-go","0"
"pit-trial","154","1070827","0.0-40.0","battery-v0.2","","""event"",""trial"",""time""
""fullscreenenter"",""1"",""5135""
","
","
","""event"",""trial"",""time""
""fullscreenenter"",""1"",""5135""
","
","","","1046.8999999761581","","","23","11964","5478","u","elianto","#f73b6a7A"," "," ","1","0","[1900.8999999761581]","1","2","","","11964","36","0","3","lose","go","0"
"pit-trial","155","1075686","0.0-41.0","battery-v0.2","","""event"",""trial"",""time""
""fullscreenenter"",""1"",""5135""
","
","
","""event"",""trial"",""time""
""fullscreenenter"",""1"",""5135""
","
","","","-1","","","23","11964","5478","l","elianto","#3366ff99","-1","-1","1","+10","[]","0","2","","","11964","37","1","2","win","no-go","0"
"pit-trial","156","1079238","0.0-42.0","battery-v0.2","","""event"",""trial"",""time""
""fullscreenenter"",""1"",""5135""
","
","
","""event"",""trial"",""time""
""fullscreenenter"",""1"",""5135""
","
","","","692.4000000357628","","","23","11964","5478","u","elianto","#f73b6a7A"," "," ","1","0","[1543.6000000238419]","1","2","","","11964","38","0","3","lose","go","0"
"pit-trial","157","1084098","0.0-43.0","battery-v0.2","","""event"",""trial"",""time""
""fullscreenenter"",""1"",""5135""
","
","
","""event"",""trial"",""time""
""fullscreenenter"",""1"",""5135""
","
","","","-1","","","23","11964","5478","g","elianto","#f73b6a7A","-1","-1","1","0","[]","0","2","","","11964","39","3","4","lose","no-go","0"
"pit-trial","158","1087621","0.0-44.0","battery-v0.2","","""event"",""trial"",""time""
""fullscreenenter"",""1"",""5135""
","
","
","""event"",""trial"",""time""
""fullscreenenter"",""1"",""5135""
","
","","","664.1999999880791","","","23","11964","5478","a","elianto","#f73b6a7A"," "," ","1","0","[1514.699999988079]","1","2","","","11964","40","2","3","lose","go","0"
"pit-trial","159","1092481","0.0-45.0","battery-v0.2","","""event"",""trial"",""time""
""fullscreenenter"",""1"",""5135""
","
","
","""event"",""trial"",""time""
""fullscreenenter"",""1"",""5135""
","
","","","-1","","","23","11964","5478","l","elianto","#3366ff99","-1","-1","1","+10","[]","0","2","","","11964","41","1","2","win","no-go","0"
"pit-trial","160","1097344","0.0-46.0","battery-v0.2","","""event"",""trial"",""time""
""fullscreenenter"",""1"",""5135""
","
","
","""event"",""trial"",""time""
""fullscreenenter"",""1"",""5135""
","
","","","-1","","","23","11964","5478","g","elianto","#f73b6a7A","-1","-1","1","0","[]","0","2","","","11964","42","3","4","lose","no-go","0"
"pit-trial","161","1100878","0.0-47.0","battery-v0.2","","""event"",""trial"",""time""
""fullscreenenter"",""1"",""5135""
","
","
","""event"",""trial"",""time""
""fullscreenenter"",""1"",""5135""
","
","","","678.6000000238419","","","23","11964","5478","a","elianto","#f73b6a7A"," "," ","1","0","[1528.9000000357628]","1","2","","","11964","43","2","3","lose","go","0"
"pit-trial","162","1104548","0.0-48.0","battery-v0.2","","""event"",""trial"",""time""
""fullscreenenter"",""1"",""5135""
","
","
","""event"",""trial"",""time""
""fullscreenenter"",""1"",""5135""
","
","","","809.5999999642372","","","23","11964","5478","u","elianto","#f73b6a7A"," "," ","1","0","[1660.800000011921]","1","2","","","11964","44","0","3","lose","go","0"
"pit-trial","163","1109408","0.0-49.0","battery-v0.2","","""event"",""trial"",""time""
""fullscreenenter"",""1"",""5135""
","
","
","""event"",""trial"",""time""
""fullscreenenter"",""1"",""5135""
","
","","","-1","","","23","11964","5478","g","elianto","#f73b6a7A","-1","-1","1","0","[]","0","2","","","11964","45","3","4","lose","no-go","0"
"pit-trial","164","1113066","0.0-50.0","battery-v0.2","","""event"",""trial"",""time""
""fullscreenenter"",""1"",""5135""
","
","
","""event"",""trial"",""time""
""fullscreenenter"",""1"",""5135""
","
","","","794.6999999880791","","","23","11964","5478","u","elianto","#f73b6a7A"," "," ","1","0","[1647.699999988079]","1","2","","","11964","46","0","3","lose","go","0"
"pit-trial","165","1117930","0.0-51.0","battery-v0.2","","""event"",""trial"",""time""
""fullscreenenter"",""1"",""5135""
","
","
","""event"",""trial"",""time""
""fullscreenenter"",""1"",""5135""
","
","","","-1","","","23","11964","5478","l","elianto","#3366ff99","-1","-1","1","+10","[]","0","2","","","11964","47","1","2","win","no-go","0"
"pit-trial","166","1121587","0.0-52.0","battery-v0.2","","""event"",""trial"",""time""
""fullscreenenter"",""1"",""5135""
","
","
","""event"",""trial"",""time""
""fullscreenenter"",""1"",""5135""
","
","","","797","","","23","11964","5478","a","elianto","#f73b6a7A"," "," ","1","0","[1647.3999999761581]","1","2","","","11964","48","2","3","lose","go","0"
"pit-trial","167","1126451","0.0-53.0","battery-v0.2","","""event"",""trial"",""time""
""fullscreenenter"",""1"",""5135""
","
","
","""event"",""trial"",""time""
""fullscreenenter"",""1"",""5135""
","
","","","-1","","","23","11964","5478","l","elianto","#3366ff99","-1","-1","1","0","[]","0","2","","","11964","49","1","2","win","no-go","1"
"pit-trial","168","1131313","0.0-54.0","battery-v0.2","","""event"",""trial"",""time""
""fullscreenenter"",""1"",""5135""
","
","
","""event"",""trial"",""time""
""fullscreenenter"",""1"",""5135""
","
","","","-1","","","23","11964","5478","g","elianto","#f73b6a7A","-1","-1","1","0","[]","0","2","","","11964","50","3","4","lose","no-go","0"
"pit-trial","169","1134862","0.0-55.0","battery-v0.2","","""event"",""trial"",""time""
""fullscreenenter"",""1"",""5135""
","
","
","""event"",""trial"",""time""
""fullscreenenter"",""1"",""5135""
","
","","","691.6999999880791","","","23","11964","5478","a","elianto","#f73b6a7A"," "," ","1","0","[1542]","1","2","","","11964","51","2","3","lose","go","0"
"pit-trial","170","1138369","0.0-56.0","battery-v0.2","","""event"",""trial"",""time""
""fullscreenenter"",""1"",""5135""
","
","
","""event"",""trial"",""time""
""fullscreenenter"",""1"",""5135""
","
","","","648.7000000476837","","","23","11964","5478","u","elianto","#f73b6a7A"," "," ","1","0","[1501.1000000238419]","1","2","","","11964","52","0","3","lose","go","0"
"pit-trial","171","1142154","0.0-57.0","battery-v0.2","","""event"",""trial"",""time""
""fullscreenenter"",""1"",""5135""
","
","
","""event"",""trial"",""time""
""fullscreenenter"",""1"",""5135""
","
","","","921.4000000357628","","","23","11964","5478","u","elianto","#f73b6a7A"," "," ","1","-10","[1775.5999999642372]","1","2","","","11964","53","0","3","lose","go","1"
"pit-trial","172","1147013","0.0-58.0","battery-v0.2","","""event"",""trial"",""time""
""fullscreenenter"",""1"",""5135""
","
","
","""event"",""trial"",""time""
""fullscreenenter"",""1"",""5135""
","
","","","-1","","","23","11964","5478","g","elianto","#f73b6a7A","-1","-1","1","0","[]","0","2","","","11964","54","3","4","lose","no-go","0"
"pit-trial","173","1151872","0.0-59.0","battery-v0.2","","""event"",""trial"",""time""
""fullscreenenter"",""1"",""5135""
","
","
","""event"",""trial"",""time""
""fullscreenenter"",""1"",""5135""
","
","","","-1","","","23","11964","5478","l","elianto","#3366ff99","-1","-1","1","0","[]","0","2","","","11964","55","1","2","win","no-go","1"
"pit-trial","174","1155498","0.0-60.0","battery-v0.2","","""event"",""trial"",""time""
""fullscreenenter"",""1"",""5135""
","
","
","""event"",""trial"",""time""
""fullscreenenter"",""1"",""5135""
","
","","","765.8999999761581","","","23","11964","5478","a","elianto","#f73b6a7A"," "," ","1","-10","[1619]","1","2","","","11964","56","2","3","lose","go","1"
"pit-trial","175","1159120","0.0-61.0","battery-v0.2","","""event"",""trial"",""time""
""fullscreenenter"",""1"",""5135""
","
","
","""event"",""trial"",""time""
""fullscreenenter"",""1"",""5135""
","
","","","761.7000000476837","","","23","11964","5478","u","elianto","#f73b6a7A"," "," ","1","-10","[1612.699999988079]","1","2","","","11964","57","0","3","lose","go","1"
"pit-trial","176","1163183","0.0-62.0","battery-v0.2","","""event"",""trial"",""time""
""fullscreenenter"",""1"",""5135""
","
","
","""event"",""trial"",""time""
""fullscreenenter"",""1"",""5135""
","
","","","1202.699999988079","","","23","11964","5478","p","elianto","#3366ff99"," "," ","1","0","[2053.699999988079]","1","2","","","11964","58","4","1","win","go","1"
"pit-trial","177","1168044","0.0-63.0","battery-v0.2","","""event"",""trial"",""time""
""fullscreenenter"",""1"",""5135""
","
","
","""event"",""trial"",""time""
""fullscreenenter"",""1"",""5135""
","
","","","-1","","","23","11964","5478","g","elianto","#f73b6a7A","-1","-1","1","0","[]","0","2","","","11964","59","3","4","lose","no-go","0"
"pit-trial","178","1171655","0.0-64.0","battery-v0.2","","""event"",""trial"",""time""
""fullscreenenter"",""1"",""5135""
","
","
","""event"",""trial"",""time""
""fullscreenenter"",""1"",""5135""
","
","","","749.5","","","23","11964","5478","a","elianto","#f73b6a7A"," "," ","1","-10","[1602.699999988079]","1","2","","","11964","60","2","3","lose","go","1"
"pit-trial","179","1176514","0.0-65.0","battery-v0.2","","""event"",""trial"",""time""
""fullscreenenter"",""1"",""5135""
","
","
","""event"",""trial"",""time""
""fullscreenenter"",""1"",""5135""
","
","","","-1","","","23","11964","5478","l","elianto","#3366ff99","-1","-1","1","+10","[]","0","2","","","11964","61","1","2","win","no-go","0"
"pit-trial","180","1181372","0.0-66.0","battery-v0.2","","""event"",""trial"",""time""
""fullscreenenter"",""1"",""5135""
","
","
","""event"",""trial"",""time""
""fullscreenenter"",""1"",""5135""
","
","","","-1","","","23","11964","5478","g","elianto","#f73b6a7A","-1","-1","1","0","[]","0","2","","","11964","62","3","4","lose","no-go","0"
"pit-trial","181","1184946","0.0-67.0","battery-v0.2","","""event"",""trial"",""time""
""fullscreenenter"",""1"",""5135""
","
","
","""event"",""trial"",""time""
""fullscreenenter"",""1"",""5135""
","
","","","710.8000000119209","","","23","11964","5478","p","elianto","#3366ff99"," "," ","1","+10","[1565.5999999642372]","1","2","","","11964","63","4","1","win","go","0"
"pit-trial","182","1188592","0.0-68.0","battery-v0.2","","""event"",""trial"",""time""
""fullscreenenter"",""1"",""5135""
","
","
","""event"",""trial"",""time""
""fullscreenenter"",""1"",""5135""
","
","","","785.8999999761581","","","23","11964","5478","a","elianto","#f73b6a7A"," "," ","1","-10","[1636.699999988079]","1","2","","","11964","64","2","3","lose","go","1"
"pit-trial","183","1192266","0.0-69.0","battery-v0.2","","""event"",""trial"",""time""
""fullscreenenter"",""1"",""5135""
","
","
","""event"",""trial"",""time""
""fullscreenenter"",""1"",""5135""
","
","","","814.9000000357628","","","23","11964","5478","s","elianto","#3366ff99","-1"," ","0","+10","[1666.300000011921]","1","2","","","11964","65","5","2","win","no-go","1"
"pit-trial","184","1197127","0.0-70.0","battery-v0.2","","""event"",""trial"",""time""
""fullscreenenter"",""1"",""5135""
","
","
","""event"",""trial"",""time""
""fullscreenenter"",""1"",""5135""
","
","","","-1","","","23","11964","5478","l","elianto","#3366ff99","-1","-1","1","+10","[]","0","2","","","11964","66","1","2","win","no-go","0"
"pit-trial","185","1201989","0.0-71.0","battery-v0.2","","""event"",""trial"",""time""
""fullscreenenter"",""1"",""5135""
","
","
","""event"",""trial"",""time""
""fullscreenenter"",""1"",""5135""
","
","","","-1","","","23","11964","5478","g","elianto","#f73b6a7A","-1","-1","1","0","[]","0","2","","","11964","67","3","4","lose","no-go","0"
"pit-trial","186","1205527","0.0-72.0","battery-v0.2","","""event"",""trial"",""time""
""fullscreenenter"",""1"",""5135""
","
","
","""event"",""trial"",""time""
""fullscreenenter"",""1"",""5135""
","
","","","676.6000000238419","","","23","11964","5478","p","elianto","#3366ff99"," "," ","1","+10","[1529.1000000238419]","1","2","","","11964","68","4","1","win","go","0"
"pit-trial","187","1209124","0.0-73.0","battery-v0.2","","""event"",""trial"",""time""
""fullscreenenter"",""1"",""5135""
","
","
","""event"",""trial"",""time""
""fullscreenenter"",""1"",""5135""
","
","","","735.3000000119209","","","23","11964","5478","p","elianto","#3366ff99"," "," ","1","+10","[1587.6000000238419]","1","2","","","11964","69","4","1","win","go","0"
"pit-trial","188","1212789","0.0-74.0","battery-v0.2","","""event"",""trial"",""time""
""fullscreenenter"",""1"",""5135""
","
","
","""event"",""trial"",""time""
""fullscreenenter"",""1"",""5135""
","
","","","808.5999999642372","","","23","11964","5478","a","elianto","#f73b6a7A"," "," ","1","0","[1659.5]","1","2","","","11964","70","2","3","lose","go","0"
"pit-trial","189","1216394","0.0-75.0","battery-v0.2","","""event"",""trial"",""time""
""fullscreenenter"",""1"",""5135""
","
","
","""event"",""trial"",""time""
""fullscreenenter"",""1"",""5135""
","
","","","740.0999999642372","","","23","11964","5478","s","elianto","#3366ff99","-1"," ","0","+10","[1595.0999999642372]","1","2","","","11964","71","5","2","win","no-go","1"
"pit-trial","190","1221252","0.0-76.0","battery-v0.2","","""event"",""trial"",""time""
""fullscreenenter"",""1"",""5135""
","
","
","""event"",""trial"",""time""
""fullscreenenter"",""1"",""5135""
","
","","","-1","","","23","11964","5478","l","elianto","#3366ff99","-1","-1","1","+10","[]","0","2","","","11964","72","1","2","win","no-go","0"
"pit-trial","191","1226115","0.0-77.0","battery-v0.2","","""event"",""trial"",""time""
""fullscreenenter"",""1"",""5135""
","
","
","""event"",""trial"",""time""
""fullscreenenter"",""1"",""5135""
","
","","","-1","","","23","11964","5478","g","elianto","#f73b6a7A","-1","-1","1","0","[]","0","2","","","11964","73","3","4","lose","no-go","0"
"pit-trial","192","1229741","0.0-78.0","battery-v0.2","","""event"",""trial"",""time""
""fullscreenenter"",""1"",""5135""
","
","
","""event"",""trial"",""time""
""fullscreenenter"",""1"",""5135""
","
","","","762.5","","","23","11964","5478","p","elianto","#3366ff99"," "," ","1","+10","[1617.5]","1","2","","","11964","74","4","1","win","go","0"
"pit-trial","193","1233280","0.0-79.0","battery-v0.2","","""event"",""trial"",""time""
""fullscreenenter"",""1"",""5135""
","
","
","""event"",""trial"",""time""
""fullscreenenter"",""1"",""5135""
","
","","","680.0999999642372","","","23","11964","5478","s","elianto","#3366ff99","-1"," ","0","0","[1530]","1","2","","","11964","75","5","2","win","no-go","0"
"pit-trial","194","1238144","0.0-80.0","battery-v0.2","","""event"",""trial"",""time""
""fullscreenenter"",""1"",""5135""
","
","
","""event"",""trial"",""time""
""fullscreenenter"",""1"",""5135""
","
","","","-1","","","23","11964","5478","l","elianto","#3366ff99","-1","-1","1","+10","[]","0","2","","","11964","76","1","2","win","no-go","0"
"pit-trial","195","1243006","0.0-81.0","battery-v0.2","","""event"",""trial"",""time""
""fullscreenenter"",""1"",""5135""
","
","
","""event"",""trial"",""time""
""fullscreenenter"",""1"",""5135""
","
","","","-1","","","23","11964","5478","s","elianto","#3366ff99","-1","-1","1","0","[]","0","2","","","11964","77","5","2","win","no-go","1"
"pit-trial","196","1246554","0.0-82.0","battery-v0.2","","""event"",""trial"",""time""
""fullscreenenter"",""1"",""5135""
","
","
","""event"",""trial"",""time""
""fullscreenenter"",""1"",""5135""
","
","","","688.1999999880791","","","23","11964","5478","p","elianto","#3366ff99"," "," ","1","+10","[1539.199999988079]","1","2","","","11964","78","4","1","win","go","0"
"pit-trial","197","1251415","0.0-83.0","battery-v0.2","","""event"",""trial"",""time""
""fullscreenenter"",""1"",""5135""
","
","
","""event"",""trial"",""time""
""fullscreenenter"",""1"",""5135""
","
","","","-1","","","23","11964","5478","g","elianto","#f73b6a7A","-1","-1","1","0","[]","0","2","","","11964","79","3","4","lose","no-go","0"
"pit-trial","198","1255366","0.0-84.0","battery-v0.2","","""event"",""trial"",""time""
""fullscreenenter"",""1"",""5135""
","
","
","""event"",""trial"",""time""
""fullscreenenter"",""1"",""5135""
","
","","","1090.699999988079","","","23","11964","5478","p","elianto","#3366ff99"," "," ","1","+10","[1941.699999988079]","1","2","","","11964","80","4","1","win","go","0"
"pit-trial","199","1259002","0.0-85.0","battery-v0.2","","""event"",""trial"",""time""
""fullscreenenter"",""1"",""5135""
","
","
","""event"",""trial"",""time""
""fullscreenenter"",""1"",""5135""
","
","","","775.8000000119209","","","23","11964","5478","p","elianto","#3366ff99"," "," ","1","+10","[1626.699999988079]","1","2","","","11964","81","4","1","win","go","0"
"pit-trial","200","1263319","0.0-86.0","battery-v0.2","","""event"",""trial"",""time""
""fullscreenenter"",""1"",""5135""
","
","
","""event"",""trial"",""time""
""fullscreenenter"",""1"",""5135""
","
","","","1455.5999999642372","","","23","11964","5478","e","elianto","#f73b6a7A","-1"," ","0","-10","[2308]","1","2","","","11964","82","7","4","lose","no-go","0"
"pit-trial","201","1268182","0.0-87.0","battery-v0.2","","""event"",""trial"",""time""
""fullscreenenter"",""1"",""5135""
","
","
","""event"",""trial"",""time""
""fullscreenenter"",""1"",""5135""
","
","","","-1","","","23","11964","5478","g","elianto","#f73b6a7A","-1","-1","1","-10","[]","0","2","","","11964","83","3","4","lose","no-go","1"
"pit-trial","202","1272249","0.0-88.0","battery-v0.2","","""event"",""trial"",""time""
""fullscreenenter"",""1"",""5135""
","
","
","""event"",""trial"",""time""
""fullscreenenter"",""1"",""5135""
","
","","","1205.5","","","23","11964","5478","s","elianto","#3366ff99","-1"," ","0","0","[2058.900000035763]","1","2","","","11964","84","5","2","win","no-go","0"
"pit-trial","203","1277110","0.0-89.0","battery-v0.2","","""event"",""trial"",""time""
""fullscreenenter"",""1"",""5135""
","
","
","""event"",""trial"",""time""
""fullscreenenter"",""1"",""5135""
","
","","","-1","","","23","11964","5478","s","elianto","#3366ff99","-1","-1","1","+10","[]","0","2","","","11964","85","5","2","win","no-go","0"
"pit-trial","204","1281217","0.0-90.0","battery-v0.2","","""event"",""trial"",""time""
""fullscreenenter"",""1"",""5135""
","
","
","""event"",""trial"",""time""
""fullscreenenter"",""1"",""5135""
","
","","","1248.699999988079","","","23","11964","5478","w","elianto","#f73b6a7A"," "," ","1","0","[2099.899999976158]","1","2","","","11964","86","6","3","lose","go","0"
"pit-trial","205","1286082","0.0-91.0","battery-v0.2","","""event"",""trial"",""time""
""fullscreenenter"",""1"",""5135""
","
","
","""event"",""trial"",""time""
""fullscreenenter"",""1"",""5135""
","
","","","-1","","","23","11964","5478","e","elianto","#f73b6a7A","-1","-1","1","0","[]","0","2","","","11964","87","7","4","lose","no-go","0"
"pit-trial","206","1289643","0.0-92.0","battery-v0.2","","""event"",""trial"",""time""
""fullscreenenter"",""1"",""5135""
","
","
","""event"",""trial"",""time""
""fullscreenenter"",""1"",""5135""
","
","","","704.1999999880791","","","23","11964","5478","p","elianto","#3366ff99"," "," ","1","+10","[1554.9000000357628]","1","2","","","11964","88","4","1","win","go","0"
"pit-trial","207","1293263","0.0-93.0","battery-v0.2","","""event"",""trial"",""time""
""fullscreenenter"",""1"",""5135""
","
","
","""event"",""trial"",""time""
""fullscreenenter"",""1"",""5135""
","
","","","762.0999999642372","","","23","11964","5478","p","elianto","#3366ff99"," "," ","1","+10","[1612.5]","1","2","","","11964","89","4","1","win","go","0"
"pit-trial","208","1297313","0.0-94.0","battery-v0.2","","""event"",""trial"",""time""
""fullscreenenter"",""1"",""5135""
","
","
","""event"",""trial"",""time""
""fullscreenenter"",""1"",""5135""
","
","","","1187.699999988079","","","23","11964","5478","w","elianto","#f73b6a7A"," "," ","1","0","[2040.699999988079]","1","2","","","11964","90","6","3","lose","go","0"
"pit-trial","209","1302176","0.0-95.0","battery-v0.2","","""event"",""trial"",""time""
""fullscreenenter"",""1"",""5135""
","
","
","""event"",""trial"",""time""
""fullscreenenter"",""1"",""5135""
","
","","","-1","","","23","11964","5478","e","elianto","#f73b6a7A","-1","-1","1","0","[]","0","2","","","11964","91","7","4","lose","no-go","0"
"pit-trial","210","1307037","0.0-96.0","battery-v0.2","","""event"",""trial"",""time""
""fullscreenenter"",""1"",""5135""
","
","
","""event"",""trial"",""time""
""fullscreenenter"",""1"",""5135""
","
","","","-1","","","23","11964","5478","s","elianto","#3366ff99","-1","-1","1","0","[]","0","2","","","11964","92","5","2","win","no-go","1"
"pit-trial","211","1311896","0.0-97.0","battery-v0.2","","""event"",""trial"",""time""
""fullscreenenter"",""1"",""5135""
","
","
","""event"",""trial"",""time""
""fullscreenenter"",""1"",""5135""
","
","","","-1","","","23","11964","5478","e","elianto","#f73b6a7A","-1","-1","1","0","[]","0","2","","","11964","93","7","4","lose","no-go","0"
"pit-trial","212","1316755","0.0-98.0","battery-v0.2","","""event"",""trial"",""time""
""fullscreenenter"",""1"",""5135""
","
","
","""event"",""trial"",""time""
""fullscreenenter"",""1"",""5135""
","
","","","-1","","","23","11964","5478","s","elianto","#3366ff99","-1","-1","1","+10","[]","0","2","","","11964","94","5","2","win","no-go","0"
"pit-trial","213","1320732","0.0-99.0","battery-v0.2","","""event"",""trial"",""time""
""fullscreenenter"",""1"",""5135""
","
","
","""event"",""trial"",""time""
""fullscreenenter"",""1"",""5135""
","
","","","1114.5999999642372","","","23","11964","5478","d","elianto","#3366ff99"," "," ","1","0","[1967.699999988079]","1","2","","","11964","95","8","1","win","go","1"
"pit-trial","214","1324424","0.0-100.0","battery-v0.2","","""event"",""trial"",""time""
""fullscreenenter"",""1"",""5135""
","
","
","""event"",""trial"",""time""
""fullscreenenter"",""1"",""5135""
","
","","","837","","","23","11964","5478","w","elianto","#f73b6a7A"," "," ","1","0","[1687.1000000238419]","1","2","","","11964","96","6","3","lose","go","0"
"pit-trial","215","1328114","0.0-101.0","battery-v0.2","","""event"",""trial"",""time""
""fullscreenenter"",""1"",""5135""
","
","
","""event"",""trial"",""time""
""fullscreenenter"",""1"",""5135""
","
","","","828.8999999761581","","","23","11964","5478","w","elianto","#f73b6a7A"," "," ","1","0","[1680.2999999523163]","1","2","","","11964","97","6","3","lose","go","0"
"pit-trial","216","1332976","0.0-102.0","battery-v0.2","","""event"",""trial"",""time""
""fullscreenenter"",""1"",""5135""
","
","
","""event"",""trial"",""time""
""fullscreenenter"",""1"",""5135""
","
","","","-1","","","23","11964","5478","s","elianto","#3366ff99","-1","-1","1","+10","[]","0","2","","","11964","98","5","2","win","no-go","0"
"pit-trial","217","1337839","0.0-103.0","battery-v0.2","","""event"",""trial"",""time""
""fullscreenenter"",""1"",""5135""
","
","
","""event"",""trial"",""time""
""fullscreenenter"",""1"",""5135""
","
","","","-1","","","23","11964","5478","e","elianto","#f73b6a7A","-1","-1","1","0","[]","0","2","","","11964","99","7","4","lose","no-go","0"
"pit-trial","218","1341396","0.0-104.0","battery-v0.2","","""event"",""trial"",""time""
""fullscreenenter"",""1"",""5135""
","
","
","""event"",""trial"",""time""
""fullscreenenter"",""1"",""5135""
","
","","","697.3999999761581","","","23","11964","5478","d","elianto","#3366ff99"," "," ","1","+10","[1549.0999999642372]","1","2","","","11964","100","8","1","win","go","0"
"pit-trial","219","1345215","0.0-105.0","battery-v0.2","","""event"",""trial"",""time""
""fullscreenenter"",""1"",""5135""
","
","
","""event"",""trial"",""time""
""fullscreenenter"",""1"",""5135""
","
","","","959.0999999642372","","","23","11964","5478","j","elianto","#3366ff99"," "," ","1","+10","[1811.2999999523163]","1","2","","","11964","101","9","1","win","go","0"
"pit-trial","220","1348954","0.0-106.0","battery-v0.2","","""event"",""trial"",""time""
""fullscreenenter"",""1"",""5135""
","
","
","""event"",""trial"",""time""
""fullscreenenter"",""1"",""5135""
","
","","","882.1000000238419","","","23","11964","5478","d","elianto","#3366ff99"," "," ","1","0","[1732.1000000238419]","1","2","","","11964","102","8","1","win","go","1"
"pit-trial","221","1353814","0.0-107.0","battery-v0.2","","""event"",""trial"",""time""
""fullscreenenter"",""1"",""5135""
","
","
","""event"",""trial"",""time""
""fullscreenenter"",""1"",""5135""
","
","","","-1","","","23","11964","5478","e","elianto","#f73b6a7A","-1","-1","1","0","[]","0","2","","","11964","103","7","4","lose","no-go","0"
"pit-trial","222","1358677","0.0-108.0","battery-v0.2","","""event"",""trial"",""time""
""fullscreenenter"",""1"",""5135""
","
","
","""event"",""trial"",""time""
""fullscreenenter"",""1"",""5135""
","
","","","-1","","","23","11964","5478","s","elianto","#3366ff99","-1","-1","1","+10","[]","0","2","","","11964","104","5","2","win","no-go","0"
"pit-trial","223","1362496","0.0-109.0","battery-v0.2","","""event"",""trial"",""time""
""fullscreenenter"",""1"",""5135""
","
","
","""event"",""trial"",""time""
""fullscreenenter"",""1"",""5135""
","
","","","956.7000000476837","","","23","11964","5478","p","elianto","#3366ff99"," "," ","1","+10","[1809]","1","2","","","11964","105","4","1","win","go","0"
"pit-trial","224","1366397","0.0-110.0","battery-v0.2","","""event"",""trial"",""time""
""fullscreenenter"",""1"",""5135""
","
","
","""event"",""trial"",""time""
""fullscreenenter"",""1"",""5135""
","
","","","1042","","","23","11964","5478","w","elianto","#f73b6a7A"," "," ","1","-10","[1892.6000000238419]","1","2","","","11964","106","6","3","lose","go","1"
"pit-trial","225","1371256","0.0-111.0","battery-v0.2","","""event"",""trial"",""time""
""fullscreenenter"",""1"",""5135""
","
","
","""event"",""trial"",""time""
""fullscreenenter"",""1"",""5135""
","
","","","-1","","","23","11964","5478","d","elianto","#3366ff99"," ","-1","0","0","[]","0","2","","","11964","107","8","1","win","go","0"
"pit-trial","226","1374950","0.0-112.0","battery-v0.2","","""event"",""trial"",""time""
""fullscreenenter"",""1"",""5135""
","
","
","""event"",""trial"",""time""
""fullscreenenter"",""1"",""5135""
","
","","","836.3000000119209","","","23","11964","5478","j","elianto","#3366ff99"," "," ","1","+10","[1687.300000011921]","1","2","","","11964","108","9","1","win","go","0"
"pit-trial","227","1379814","0.0-113.0","battery-v0.2","","""event"",""trial"",""time""
""fullscreenenter"",""1"",""5135""
","
","
","""event"",""trial"",""time""
""fullscreenenter"",""1"",""5135""
","
","","","-1","","","23","11964","5478","s","elianto","#3366ff99","-1","-1","1","0","[]","0","2","","","11964","109","5","2","win","no-go","1"
"pit-trial","228","1383506","0.0-114.0","battery-v0.2","","""event"",""trial"",""time""
""fullscreenenter"",""1"",""5135""
","
","
","""event"",""trial"",""time""
""fullscreenenter"",""1"",""5135""
","
","","","828.7000000476837","","","23","11964","5478","j","elianto","#3366ff99"," "," ","1","+10","[1682.8999999761581]","1","2","","","11964","110","9","1","win","go","0"
"pit-trial","229","1387370","0.0-115.0","battery-v0.2","","""event"",""trial"",""time""
""fullscreenenter"",""1"",""5135""
","
","
","""event"",""trial"",""time""
""fullscreenenter"",""1"",""5135""
","
","","","1004.4000000357628","","","23","11964","5478","w","elianto","#f73b6a7A"," "," ","1","0","[1856]","1","2","","","11964","111","6","3","lose","go","0"
"pit-trial","230","1392231","0.0-116.0","battery-v0.2","","""event"",""trial"",""time""
""fullscreenenter"",""1"",""5135""
","
","
","""event"",""trial"",""time""
""fullscreenenter"",""1"",""5135""
","
","","","-1","","","23","11964","5478","d","elianto","#3366ff99"," ","-1","0","0","[]","0","2","","","11964","112","8","1","win","go","0"
"pit-trial","231","1395749","0.0-117.0","battery-v0.2","","""event"",""trial"",""time""
""fullscreenenter"",""1"",""5135""
","
","
","""event"",""trial"",""time""
""fullscreenenter"",""1"",""5135""
","
","","","656.3999999761581","","","23","11964","5478","j","elianto","#3366ff99"," "," ","1","+10","[1508.5]","1","2","","","11964","113","9","1","win","go","0"
"pit-trial","232","1399450","0.0-118.0","battery-v0.2","","""event"",""trial"",""time""
""fullscreenenter"",""1"",""5135""
","
","
","""event"",""trial"",""time""
""fullscreenenter"",""1"",""5135""
","
","","","841.5","","","23","11964","5478","w","elianto","#f73b6a7A"," "," ","1","0","[1692.6000000238419]","1","2","","","11964","114","6","3","lose","go","0"
"pit-trial","233","1404311","0.0-119.0","battery-v0.2","","""event"",""trial"",""time""
""fullscreenenter"",""1"",""5135""
","
","
","""event"",""trial"",""time""
""fullscreenenter"",""1"",""5135""
","
","","","-1","","","23","11964","5478","s","elianto","#3366ff99","-1","-1","1","+10","[]","0","2","","","11964","115","5","2","win","no-go","0"
"pit-trial","234","1408340","0.0-120.0","battery-v0.2","","""event"",""trial"",""time""
""fullscreenenter"",""1"",""5135""
","
","
","""event"",""trial"",""time""
""fullscreenenter"",""1"",""5135""
","
","","","1166","","","23","11964","5478","d","elianto","#3366ff99"," "," ","1","+10","[2021.1000000238419]","1","2","","","11964","116","8","1","win","go","0"
"pit-trial","235","1413198","0.0-121.0","battery-v0.2","","""event"",""trial"",""time""
""fullscreenenter"",""1"",""5135""
","
","
","""event"",""trial"",""time""
""fullscreenenter"",""1"",""5135""
","
","","","-1","","","23","11964","5478","s","elianto","#3366ff99","-1","-1","1","+10","[]","0","2","","","11964","117","5","2","win","no-go","0"
"pit-trial","236","1416865","0.0-122.0","battery-v0.2","","""event"",""trial"",""time""
""fullscreenenter"",""1"",""5135""
","
","
","""event"",""trial"",""time""
""fullscreenenter"",""1"",""5135""
","
","","","807.4000000357628","","","23","11964","5478","j","elianto","#3366ff99"," "," ","1","0","[1658.300000011921]","1","2","","","11964","118","9","1","win","go","1"
"pit-trial","237","1420807","0.0-123.0","battery-v0.2","","""event"",""trial"",""time""
""fullscreenenter"",""1"",""5135""
","
","
","""event"",""trial"",""time""
""fullscreenenter"",""1"",""5135""
","
","","","1082.6000000238419","","","23","11964","5478","d","elianto","#3366ff99"," "," ","1","+10","[1933.2000000476837]","1","2","","","11964","119","8","1","win","go","0"
"pit-trial","238","1424478","0.0-124.0","battery-v0.2","","""event"",""trial"",""time""
""fullscreenenter"",""1"",""5135""
","
","
","""event"",""trial"",""time""
""fullscreenenter"",""1"",""5135""
","
","","","811.0999999642372","","","23","11964","5478","w","elianto","#f73b6a7A"," "," ","1","0","[1662]","1","2","","","11964","120","6","3","lose","go","0"
"pit-trial","239","1428371","0.0-125.0","battery-v0.2","","""event"",""trial"",""time""
""fullscreenenter"",""1"",""5135""
","
","
","""event"",""trial"",""time""
""fullscreenenter"",""1"",""5135""
","
","","","1033.5","","","23","11964","5478","d","elianto","#3366ff99"," "," ","1","0","[1884.300000011921]","1","2","","","11964","121","8","1","win","go","1"
"pit-trial","240","1432006","0.0-126.0","battery-v0.2","","""event"",""trial"",""time""
""fullscreenenter"",""1"",""5135""
","
","
","""event"",""trial"",""time""
""fullscreenenter"",""1"",""5135""
","
","","","775.2000000476837","","","23","11964","5478","w","elianto","#f73b6a7A"," "," ","1","0","[1625.5]","1","2","","","11964","122","6","3","lose","go","0"
"pit-trial","241","1436871","0.0-127.0","battery-v0.2","","""event"",""trial"",""time""
""fullscreenenter"",""1"",""5135""
","
","
","""event"",""trial"",""time""
""fullscreenenter"",""1"",""5135""
","
","","","-1","","","23","11964","5478","e","elianto","#f73b6a7A","-1","-1","1","0","[]","0","2","","","11964","123","7","4","lose","no-go","0"
"pit-trial","242","1440544","0.0-128.0","battery-v0.2","","""event"",""trial"",""time""
""fullscreenenter"",""1"",""5135""
","
","
","""event"",""trial"",""time""
""fullscreenenter"",""1"",""5135""
","
","","","812.3999999761581","","","23","11964","5478","j","elianto","#3366ff99"," "," ","1","0","[1665.199999988079]","1","2","","","11964","124","9","1","win","go","1"
"pit-trial","243","1445402","0.0-129.0","battery-v0.2","","""event"",""trial"",""time""
""fullscreenenter"",""1"",""5135""
","
","
","""event"",""trial"",""time""
""fullscreenenter"",""1"",""5135""
","
","","","-1","","","23","11964","5478","e","elianto","#f73b6a7A","-1","-1","1","0","[]","0","2","","","11964","125","7","4","lose","no-go","0"
"pit-trial","244","1448987","0.0-130.0","battery-v0.2","","""event"",""trial"",""time""
""fullscreenenter"",""1"",""5135""
","
","
","""event"",""trial"",""time""
""fullscreenenter"",""1"",""5135""
","
","","","725.0999999642372","","","23","11964","5478","j","elianto","#3366ff99"," "," ","1","+10","[1578.5]","1","2","","","11964","126","9","1","win","go","0"
"pit-trial","245","1452474","0.0-131.0","battery-v0.2","","""event"",""trial"",""time""
""fullscreenenter"",""1"",""5135""
","
","
","""event"",""trial"",""time""
""fullscreenenter"",""1"",""5135""
","
","","","632.7000000476837","","","23","11964","5478","d","elianto","#3366ff99"," "," ","1","0","[1484.4000000357628]","1","2","","","11964","127","8","1","win","go","1"
"pit-trial","246","1456153","0.0-132.0","battery-v0.2","","""event"",""trial"",""time""
""fullscreenenter"",""1"",""5135""
","
","
","""event"",""trial"",""time""
""fullscreenenter"",""1"",""5135""
","
","","","821.5","","","23","11964","5478","w","elianto","#f73b6a7A"," "," ","1","0","[1672.5]","1","2","","","11964","128","6","3","lose","go","0"
"pit-trial","247","1459782","0.0-133.0","battery-v0.2","","""event"",""trial"",""time""
""fullscreenenter"",""1"",""5135""
","
","
","""event"",""trial"",""time""
""fullscreenenter"",""1"",""5135""
","
","","","768.5","","","23","11964","5478","j","elianto","#3366ff99"," "," ","1","+10","[1623.5999999642372]","1","2","","","11964","129","9","1","win","go","0"
"pit-trial","248","1463340","0.0-134.0","battery-v0.2","","""event"",""trial"",""time""
""fullscreenenter"",""1"",""5135""
","
","
","""event"",""trial"",""time""
""fullscreenenter"",""1"",""5135""
","
","","","694.3999999761581","","","23","11964","5478","w","elianto","#f73b6a7A"," "," ","1","0","[1549.300000011921]","1","2","","","11964","130","6","3","lose","go","0"
"pit-trial","249","1468201","0.0-135.0","battery-v0.2","","""event"",""trial"",""time""
""fullscreenenter"",""1"",""5135""
","
","
","""event"",""trial"",""time""
""fullscreenenter"",""1"",""5135""
","
","","","-1","","","23","11964","5478","d","elianto","#3366ff99"," ","-1","0","0","[]","0","2","","","11964","131","8","1","win","go","0"
"pit-trial","250","1473065","0.0-136.0","battery-v0.2","","""event"",""trial"",""time""
""fullscreenenter"",""1"",""5135""
","
","
","""event"",""trial"",""time""
""fullscreenenter"",""1"",""5135""
","
","","","-1","","","23","11964","5478","e","elianto","#f73b6a7A","-1","-1","1","0","[]","0","2","","","11964","132","7","4","lose","no-go","0"
"pit-trial","251","1476745","0.0-137.0","battery-v0.2","","""event"",""trial"",""time""
""fullscreenenter"",""1"",""5135""
","
","
","""event"",""trial"",""time""
""fullscreenenter"",""1"",""5135""
","
","","","820","","","23","11964","5478","j","elianto","#3366ff99"," "," ","1","+10","[1671.800000011921]","1","2","","","11964","133","9","1","win","go","0"
"pit-trial","252","1481604","0.0-138.0","battery-v0.2","","""event"",""trial"",""time""
""fullscreenenter"",""1"",""5135""
","
","
","""event"",""trial"",""time""
""fullscreenenter"",""1"",""5135""
","
","","","-1","","","23","11964","5478","d","elianto","#3366ff99"," ","-1","0","+10","[]","0","2","","","11964","134","8","1","win","go","1"
"pit-trial","253","1486468","0.0-139.0","battery-v0.2","","""event"",""trial"",""time""
""fullscreenenter"",""1"",""5135""
","
","
","""event"",""trial"",""time""
""fullscreenenter"",""1"",""5135""
","
","","","-1","","","23","11964","5478","e","elianto","#f73b6a7A","-1","-1","1","0","[]","0","2","","","11964","135","7","4","lose","no-go","0"
"pit-trial","254","1490241","0.0-140.0","battery-v0.2","","""event"",""trial"",""time""
""fullscreenenter"",""1"",""5135""
","
","
","""event"",""trial"",""time""
""fullscreenenter"",""1"",""5135""
","
","","","910.2999999523163","","","23","11964","5478","w","elianto","#f73b6a7A"," "," ","1","0","[1765.0999999642372]","1","2","","","11964","136","6","3","lose","go","0"
"pit-trial","255","1493885","0.0-141.0","battery-v0.2","","""event"",""trial"",""time""
""fullscreenenter"",""1"",""5135""
","
","
","""event"",""trial"",""time""
""fullscreenenter"",""1"",""5135""
","
","","","782.3999999761581","","","23","11964","5478","w","elianto","#f73b6a7A"," "," ","1","-10","[1634.300000011921]","1","2","","","11964","137","6","3","lose","go","1"
"pit-trial","256","1498745","0.0-142.0","battery-v0.2","","""event"",""trial"",""time""
""fullscreenenter"",""1"",""5135""
","
","
","""event"",""trial"",""time""
""fullscreenenter"",""1"",""5135""
","
","","","-1","","","23","11964","5478","d","elianto","#3366ff99"," ","-1","0","0","[]","0","2","","","11964","138","8","1","win","go","0"
"pit-trial","257","1503605","0.0-143.0","battery-v0.2","","""event"",""trial"",""time""
""fullscreenenter"",""1"",""5135""
","
","
","""event"",""trial"",""time""
""fullscreenenter"",""1"",""5135""
","
","","","-1","","","23","11964","5478","e","elianto","#f73b6a7A","-1","-1","1","0","[]","0","2","","","11964","139","7","4","lose","no-go","0"
"pit-trial","258","1507141","0.0-144.0","battery-v0.2","","""event"",""trial"",""time""
""fullscreenenter"",""1"",""5135""
","
","
","""event"",""trial"",""time""
""fullscreenenter"",""1"",""5135""
","
","","","675.8000000119209","","","23","11964","5478","j","elianto","#3366ff99"," "," ","1","+10","[1527.3999999761581]","1","2","","","11964","140","9","1","win","go","0"
"pit-instructions","259","1553950","0.0-145.0","battery-v0.2","","""event"",""trial"",""time""
""fullscreenenter"",""1"",""5135""
","
","
","""event"",""trial"",""time""
""fullscreenenter"",""1"",""5135""
","
","","[{""page_index"":0,""viewing_time"":37258.59999996424},{""page_index"":1,""viewing_time"":9545.800000011921}]","46805","","","","","","","","","","","","","","","","","","","","","","","",""
"pit-trial","260","1557628","0.0-146.0","battery-v0.2","","""event"",""trial"",""time""
""fullscreenenter"",""1"",""5135""
","
","
","""event"",""trial"",""time""
""fullscreenenter"",""1"",""5135""
","
","","","816.3999999761581","","","23","11964","5478","n","elianto","#f73b6a7A","-1"," ","0","-10","[1668.0999999642372]","1","3","","","11964","141","0","4","lose","no-go","0"
"pit-trial","261","1561429","0.0-147.0","battery-v0.2","","""event"",""trial"",""time""
""fullscreenenter"",""1"",""5135""
","
","
","""event"",""trial"",""time""
""fullscreenenter"",""1"",""5135""
","
","","","938.1999999880791","","","23","11964","5478","f","elianto","#3366ff99"," "," ","1","+10","[1789.3999999761581]","1","3","","","11964","142","1","1","win","go","0"
"pit-trial","262","1565501","0.0-148.0","battery-v0.2","","""event"",""trial"",""time""
""fullscreenenter"",""1"",""5135""
","
","
","""event"",""trial"",""time""
""fullscreenenter"",""1"",""5135""
","
","","","1214.800000011921","","","23","11964","5478","t","elianto","#f73b6a7A","-1"," ","0","-10","[2066.099999964237]","1","3","","","11964","143","2","4","lose","no-go","0"
"pit-trial","263","1569668","0.0-149.0","battery-v0.2","","""event"",""trial"",""time""
""fullscreenenter"",""1"",""5135""
","
","
","""event"",""trial"",""time""
""fullscreenenter"",""1"",""5135""
","
","","","1304.6000000238419","","","23","11964","5478","b","elianto","#f73b6a7A"," "," ","1","0","[2158]","1","3","","","11964","144","3","3","lose","go","0"
"pit-trial","264","1574528","0.0-150.0","battery-v0.2","","""event"",""trial"",""time""
""fullscreenenter"",""1"",""5135""
","
","
","""event"",""trial"",""time""
""fullscreenenter"",""1"",""5135""
","
","","","-1","","","23","11964","5478","t","elianto","#f73b6a7A","-1","-1","1","0","[]","0","3","","","11964","145","2","4","lose","no-go","0"
"pit-trial","265","1578112","0.0-151.0","battery-v0.2","","""event"",""trial"",""time""
""fullscreenenter"",""1"",""5135""
","
","
","""event"",""trial"",""time""
""fullscreenenter"",""1"",""5135""
","
","","","727.8000000119209","","","23","11964","5478","b","elianto","#f73b6a7A"," "," ","1","0","[1579.199999988079]","1","3","","","11964","146","3","3","lose","go","0"
"pit-trial","266","1581609","0.0-152.0","battery-v0.2","","""event"",""trial"",""time""
""fullscreenenter"",""1"",""5135""
","
","
","""event"",""trial"",""time""
""fullscreenenter"",""1"",""5135""
","
","","","636.1999999880791","","","23","11964","5478","f","elianto","#3366ff99"," "," ","1","+10","[1486.7000000476837]","1","3","","","11964","147","1","1","win","go","0"
"pit-trial","267","1586468","0.0-153.0","battery-v0.2","","""event"",""trial"",""time""
