"trial_type","trial_index","time_elapsed","internal_node_id","task_version","subject_id","interactions","blur_events","focus_events","fullscreenenter_events","fullscreenexit_events","success","view_history","rt","responses","num_errors","age","subject","participantId","rune","rune_set","hex","correct","choice","accuracy","outcome","keys","total_keys","block","practice","value","sub","trial","stimulus","robot","valence","action","sham"
"pavlovia","0","7","0.0-0.0","battery-v0.2","","""event"",""trial"",""time""
""fullscreenenter"",""1"",""1865""
","
","
","""event"",""trial"",""time""
""fullscreenenter"",""1"",""1865""
","
","","","","","","","","","","","","","","","","","","","","","","","","","","",""
"fullscreen","1","2861","0.0-1.0","battery-v0.2","","""event"",""trial"",""time""
""fullscreenenter"",""1"",""1865""
","
","
","""event"",""trial"",""time""
""fullscreenenter"",""1"",""1865""
","
","true","","","","","","","","","","","","","","","","","","","","","","","","","",""
"pit-instructions","2","6852","0.0-2.0-0.0","battery-v0.2","","""event"",""trial"",""time""
""fullscreenenter"",""1"",""1865""
","
","
","""event"",""trial"",""time""
""fullscreenenter"",""1"",""1865""
","
","","[{""page_index"":0,""viewing_time"":3984}]","3984.600000023842","","","","","","","","","","","","","","","","","","","","","","","",""
"pit-comprehension","3","9565","0.0-2.0-1.0-0.0","battery-v0.2","","""event"",""trial"",""time""
""fullscreenenter"",""1"",""1865""
","
","
","""event"",""trial"",""time""
""fullscreenenter"",""1"",""1865""
","
","","","2707.599999964237","[""shark""]","0","22","4922","314","","","","","","","","","","","","","","","","","","",""
"pit-instructions","4","10973","0.0-2.0-1.0-1.0","battery-v0.2","","""event"",""trial"",""time""
""fullscreenenter"",""1"",""1865""
","
","
","""event"",""trial"",""time""
""fullscreenenter"",""1"",""1865""
","
","","[{""page_index"":0,""viewing_time"":1400.199999988079}]","1400.5","","","","","","","","","","","","","","","","","","","","","","","",""
"pit-comprehension","5","13967","0.0-2.0-2.0-0.0","battery-v0.2","","""event"",""trial"",""time""
""fullscreenenter"",""1"",""1865""
","
","
","""event"",""trial"",""time""
""fullscreenenter"",""1"",""1865""
","
","","","2987.399999976158","[""tiger""]","0","22","4922","314","","","","","","","","","","","","","","","","","","",""
"pit-instructions","6","15519","0.0-2.0-2.0-1.0","battery-v0.2","","""event"",""trial"",""time""
""fullscreenenter"",""1"",""1865""
","
","
","""event"",""trial"",""time""
""fullscreenenter"",""1"",""1865""
","
","","[{""page_index"":0,""viewing_time"":1546.4000000357628}]","1547.2000000476837","","","","","","","","","","","","","","","","","","","","","","","",""
"pit-instructions","7","108951","0.0-2.0-3.0","battery-v0.2","","""event"",""trial"",""time""
""fullscreenenter"",""1"",""1865""
","
","
","""event"",""trial"",""time""
""fullscreenenter"",""1"",""1865""
","
","","[{""page_index"":0,""viewing_time"":8842},{""page_index"":1,""viewing_time"":6171.399999976158},{""page_index"":2,""viewing_time"":6008.400000035763},{""page_index"":3,""viewing_time"":5178.899999976158},{""page_index"":4,""viewing_time"":5610.800000011921},{""page_index"":5,""viewing_time"":5896.199999988079},{""page_index"":6,""viewing_time"":7046.399999976158},{""page_index"":7,""viewing_time"":6617.5},{""page_index"":8,""viewing_time"":6029.400000035763},{""page_index"":9,""viewing_time"":9157.699999988079},{""page_index"":10,""viewing_time"":7350.300000011921},{""page_index"":11,""viewing_time"":7678.800000011921},{""page_index"":12,""viewing_time"":6303.099999964237},{""page_index"":13,""viewing_time"":5533.699999988079}]","93425.89999997616","","","","","","","","","","","","","","","","","","","","","","","",""
"pit-trial","8","112343","0.0-2.0-4.0-0.0","battery-v0.2","","""event"",""trial"",""time""
""fullscreenenter"",""1"",""1865""
","
","
","""event"",""trial"",""time""
""fullscreenenter"",""1"",""1865""
","
","","","534.3000000119209","","","22","4922","314","&#9784;","elianto","#FFFFF080"," "," ","1","&#10004","[1384.5]","1","0","0","","","","","","","",""
"pit-trial","9","116034","0.0-2.0-4.1-0.1","battery-v0.2","","""event"",""trial"",""time""
""fullscreenenter"",""1"",""1865""
","
","
","""event"",""trial"",""time""
""fullscreenenter"",""1"",""1865""
","
","","","833.5","","","22","4922","314","&#9784;","elianto","#FFFFF080"," "," ","1","&#10004","[1683.5]","1","0","0","","","","","","","",""
"pit-trial","10","119168","0.0-2.0-4.2-0.2","battery-v0.2","","""event"",""trial"",""time""
""fullscreenenter"",""1"",""1865""
","
","
","""event"",""trial"",""time""
""fullscreenenter"",""1"",""1865""
","
","","","271.60000002384186","","","22","4922","314","&#9784;","elianto","#FFFFF080"," "," ","1","&#10004","[1121.8999999761581]","1","0","0","","","","","","","",""
"pit-trial","11","122384","0.0-2.0-4.3-0.3","battery-v0.2","","""event"",""trial"",""time""
""fullscreenenter"",""1"",""1865""
","
","
","""event"",""trial"",""time""
""fullscreenenter"",""1"",""1865""
","
","","","356.89999997615814","","","22","4922","314","&#9784;","elianto","#FFFFF080"," "," ","1","&#10004","[1207.699999988079]","1","0","0","","","","","","","",""
"pit-trial","12","125532","0.0-2.0-4.4-0.4","battery-v0.2","","""event"",""trial"",""time""
""fullscreenenter"",""1"",""1865""
","
","
","""event"",""trial"",""time""
""fullscreenenter"",""1"",""1865""
","
","","","289.69999998807907","","","22","4922","314","&#9784;","elianto","#FFFFF080"," "," ","1","&#10004","[1140.300000011921,2275.5]","2","0","0","","","","","","","",""
"pit-instructions","13","146178","0.0-2.0-5.0","battery-v0.2","","""event"",""trial"",""time""
""fullscreenenter"",""1"",""1865""
","
","
","""event"",""trial"",""time""
""fullscreenenter"",""1"",""1865""
","
","","[{""page_index"":0,""viewing_time"":5650.900000035763},{""page_index"":1,""viewing_time"":5349.5},{""page_index"":2,""viewing_time"":4600.099999964237},{""page_index"":3,""viewing_time"":5037.199999988079}]","20638.400000035763","","","","","","","","","","","","","","","","","","","","","","","",""
"pit-trial","14","151041","0.0-2.0-6.0-0.0","battery-v0.2","","""event"",""trial"",""time""
""fullscreenenter"",""1"",""1865""
","
","
","""event"",""trial"",""time""
""fullscreenenter"",""1"",""1865""
","
","","","-1","","","22","4922","314","&#9854;","elianto","#FFFFF080","-1","-1","1","&#10004","[]","0","0","1","","","","","","","",""
"pit-trial","15","155904","0.0-2.0-6.1-0.1","battery-v0.2","","""event"",""trial"",""time""
""fullscreenenter"",""1"",""1865""
","
","
","""event"",""trial"",""time""
""fullscreenenter"",""1"",""1865""
","
","","","-1","","","22","4922","314","&#9854;","elianto","#FFFFF080","-1","-1","1","&#10004","[]","0","0","1","","","","","","","",""
"pit-trial","16","160765","0.0-2.0-6.2-0.2","battery-v0.2","","""event"",""trial"",""time""
""fullscreenenter"",""1"",""1865""
","
","
","""event"",""trial"",""time""
""fullscreenenter"",""1"",""1865""
","
","","","-1","","","22","4922","314","&#9854;","elianto","#FFFFF080","-1","-1","1","&#10004","[]","0","0","1","","","","","","","",""
"pit-trial","17","165629","0.0-2.0-6.3-0.3","battery-v0.2","","""event"",""trial"",""time""
""fullscreenenter"",""1"",""1865""
","
","
","""event"",""trial"",""time""
""fullscreenenter"",""1"",""1865""
","
","","","-1","","","22","4922","314","&#9854;","elianto","#FFFFF080","-1","-1","1","&#10004","[]","0","0","1","","","","","","","",""
"pit-trial","18","170491","0.0-2.0-6.4-0.4","battery-v0.2","","""event"",""trial"",""time""
""fullscreenenter"",""1"",""1865""
","
","
","""event"",""trial"",""time""
""fullscreenenter"",""1"",""1865""
","
","","","-1","","","22","4922","314","&#9854;","elianto","#FFFFF080","-1","-1","1","&#10004","[]","0","0","1","","","","","","","",""
"pit-instructions","19","287158","0.0-2.0-7.0","battery-v0.2","","""event"",""trial"",""time""
""fullscreenenter"",""1"",""1865""
","
","
","""event"",""trial"",""time""
""fullscreenenter"",""1"",""1865""
","
","","[{""page_index"":0,""viewing_time"":5958.300000011921},{""page_index"":1,""viewing_time"":6605.800000011921},{""page_index"":2,""viewing_time"":5749.699999988079},{""page_index"":3,""viewing_time"":7334.899999976158},{""page_index"":4,""viewing_time"":5316.5},{""page_index"":5,""viewing_time"":5279.200000047684},{""page_index"":6,""viewing_time"":5044.599999964237},{""page_index"":7,""viewing_time"":7810.800000011921},{""page_index"":8,""viewing_time"":6735.899999976158},{""page_index"":9,""viewing_time"":5814.800000011921},{""page_index"":10,""viewing_time"":6328.600000023842},{""page_index"":11,""viewing_time"":4582.399999976158},{""page_index"":12,""viewing_time"":6862.5},{""page_index"":13,""viewing_time"":7799.5},{""page_index"":14,""viewing_time"":8859.300000011921},{""page_index"":15,""viewing_time"":6608.100000023842},{""page_index"":16,""viewing_time"":6565.699999988079},{""page_index"":17,""viewing_time"":7400.199999988079}]","116657.69999998808","","","","","","","","","","","","","","","","","","","","","","","",""
"pit-trial","20","290883","0.0-2.0-8.0-0.0","battery-v0.2","","""event"",""trial"",""time""
""fullscreenenter"",""1"",""1865""
","
","
","""event"",""trial"",""time""
""fullscreenenter"",""1"",""1865""
","
","","","863.8999999761581","","","22","4922","314","&#9776;","elianto","#3366ff99"," "," ","1","+10","[1713.9000000357628]","1","0","1","","","","","","","",""
"pit-trial","21","294467","0.0-2.0-8.0-1.0","battery-v0.2","","""event"",""trial"",""time""
""fullscreenenter"",""1"",""1865""
","
","
","""event"",""trial"",""time""
""fullscreenenter"",""1"",""1865""
","
","","","721.8000000119209","","","22","4922","314","&#9776;","elianto","#3366ff99"," "," ","1","+10","[1571.8999999761581]","1","0","1","","","","","","","",""
"pit-trial","22","298037","0.0-2.0-8.0-2.0","battery-v0.2","","""event"",""trial"",""time""
""fullscreenenter"",""1"",""1865""
","
","
","""event"",""trial"",""time""
""fullscreenenter"",""1"",""1865""
","
","","","706.6000000238419","","","22","4922","314","&#9776;","elianto","#3366ff99"," "," ","1","+10","[1557.300000011921]","1","0","1","","","","","","","",""
"pit-trial","23","301755","0.0-2.0-8.0-3.0","battery-v0.2","","""event"",""trial"",""time""
""fullscreenenter"",""1"",""1865""
","
","
","""event"",""trial"",""time""
""fullscreenenter"",""1"",""1865""
","
","","","855.5","","","22","4922","314","&#9776;","elianto","#3366ff99"," "," ","1","0","[1706.2999999523163]","1","0","1","","","","","","","",""
"pit-trial","24","305197","0.0-2.0-8.0-4.0","battery-v0.2","","""event"",""trial"",""time""
""fullscreenenter"",""1"",""1865""
","
","
","""event"",""trial"",""time""
""fullscreenenter"",""1"",""1865""
","
","","","579.6000000238419","","","22","4922","314","&#9776;","elianto","#3366ff99"," "," ","1","+10","[1429.800000011921]","1","0","1","","","","","","","",""
"pit-trial","25","308638","0.0-2.0-8.1-0.1","battery-v0.2","","""event"",""trial"",""time""
""fullscreenenter"",""1"",""1865""
","
","
","""event"",""trial"",""time""
""fullscreenenter"",""1"",""1865""
","
","","","578.6999999880791","","","22","4922","314","&#9776;","elianto","#3366ff99"," "," ","1","+10","[1428.7000000476837]","1","0","1","","","","","","","",""
"pit-trial","26","312002","0.0-2.0-8.1-1.1","battery-v0.2","","""event"",""trial"",""time""
""fullscreenenter"",""1"",""1865""
","
","
","""event"",""trial"",""time""
""fullscreenenter"",""1"",""1865""
","
","","","501.89999997615814","","","22","4922","314","&#9776;","elianto","#3366ff99"," "," ","1","+10","[1352.4000000357628]","1","0","1","","","","","","","",""
"pit-trial","27","315229","0.0-2.0-8.1-2.1","battery-v0.2","","""event"",""trial"",""time""
""fullscreenenter"",""1"",""1865""
","
","
","""event"",""trial"",""time""
""fullscreenenter"",""1"",""1865""
","
","","","365.9000000357628","","","22","4922","314","&#9776;","elianto","#3366ff99"," "," ","1","+10","[1216.800000011921]","1","0","1","","","","","","","",""
"pit-trial","28","318498","0.0-2.0-8.1-3.1","battery-v0.2","","""event"",""trial"",""time""
""fullscreenenter"",""1"",""1865""
","
","
","""event"",""trial"",""time""
""fullscreenenter"",""1"",""1865""
","
","","","409.10000002384186","","","22","4922","314","&#9776;","elianto","#3366ff99"," "," ","1","0","[1259.300000011921]","1","0","1","","","","","","","",""
"pit-trial","29","321714","0.0-2.0-8.1-4.1","battery-v0.2","","""event"",""trial"",""time""
""fullscreenenter"",""1"",""1865""
","
","
","""event"",""trial"",""time""
""fullscreenenter"",""1"",""1865""
","
","","","355.10000002384186","","","22","4922","314","&#9776;","elianto","#3366ff99"," "," ","1","+10","[1205.3999999761581]","1","0","1","","","","","","","",""
"pit-trial","30","325090","0.0-2.0-8.2-0.2","battery-v0.2","","""event"",""trial"",""time""
""fullscreenenter"",""1"",""1865""
","
","
","""event"",""trial"",""time""
""fullscreenenter"",""1"",""1865""
","
","","","513.8999999761581","","","22","4922","314","&#9776;","elianto","#3366ff99"," "," ","1","+10","[1364]","1","0","1","","","","","","","",""
"pit-trial","31","328530","0.0-2.0-8.2-1.2","battery-v0.2","","""event"",""trial"",""time""
""fullscreenenter"",""1"",""1865""
","
","
","""event"",""trial"",""time""
""fullscreenenter"",""1"",""1865""
","
","","","576.6000000238419","","","22","4922","314","&#9776;","elianto","#3366ff99"," "," ","1","+10","[1427.1000000238419]","1","0","1","","","","","","","",""
"pit-trial","32","331955","0.0-2.0-8.2-2.2","battery-v0.2","","""event"",""trial"",""time""
""fullscreenenter"",""1"",""1865""
","
","
","""event"",""trial"",""time""
""fullscreenenter"",""1"",""1865""
","
","","","562.1999999880791","","","22","4922","314","&#9776;","elianto","#3366ff99"," "," ","1","+10","[1414.300000011921]","1","0","1","","","","","","","",""
"pit-trial","33","335213","0.0-2.0-8.2-3.2","battery-v0.2","","""event"",""trial"",""time""
""fullscreenenter"",""1"",""1865""
","
","
","""event"",""trial"",""time""
""fullscreenenter"",""1"",""1865""
","
","","","394.80000001192093","","","22","4922","314","&#9776;","elianto","#3366ff99"," "," ","1","0","[1245.5999999642372]","1","0","1","","","","","","","",""
"pit-trial","34","338440","0.0-2.0-8.2-4.2","battery-v0.2","","""event"",""trial"",""time""
""fullscreenenter"",""1"",""1865""
","
","
","""event"",""trial"",""time""
""fullscreenenter"",""1"",""1865""
","
","","","361.2000000476837","","","22","4922","314","&#9776;","elianto","#3366ff99"," "," ","1","+10","[1213.6000000238419]","1","0","1","","","","","","","",""
"call-function","35","338447","0.0-2.0-9.0","battery-v0.2","","""event"",""trial"",""time""
""fullscreenenter"",""1"",""1865""
","
","
","""event"",""trial"",""time""
""fullscreenenter"",""1"",""1865""
","
","","","","","","","","","","","","","","","","","","","","","","","","","","",""
"pit-instructions","36","377658","0.0-2.0-10.0","battery-v0.2","","""event"",""trial"",""time""
""fullscreenenter"",""1"",""1865""
","
","
","""event"",""trial"",""time""
""fullscreenenter"",""1"",""1865""
","
","","[{""page_index"":0,""viewing_time"":5785.699999988079},{""page_index"":1,""viewing_time"":7122.899999976158},{""page_index"":2,""viewing_time"":9092.400000035763},{""page_index"":3,""viewing_time"":8808.300000011921},{""page_index"":4,""viewing_time"":8399.699999988079}]","39210","","","","","","","","","","","","","","","","","","","","","","","",""
"pit-trial","37","381316","0.0-2.0-11.0-0.0","battery-v0.2","","""event"",""trial"",""time""
""fullscreenenter"",""1"",""1865""
","
","
","""event"",""trial"",""time""
""fullscreenenter"",""1"",""1865""
","
","","","798.0999999642372","","","22","4922","314","&#9761;","elianto","#3366ff99","-1"," ","0","0","[1648.1000000238419]","1","0","2","","","","","","","",""
"pit-trial","38","386178","0.0-2.0-11.0-1.0","battery-v0.2","","""event"",""trial"",""time""
""fullscreenenter"",""1"",""1865""
","
","
","""event"",""trial"",""time""
""fullscreenenter"",""1"",""1865""
","
","","","-1","","","22","4922","314","&#9761;","elianto","#3366ff99","-1","-1","1","+10","[]","0","0","2","","","","","","","",""
"pit-trial","39","389806","0.0-2.0-11.0-2.0","battery-v0.2","","""event"",""trial"",""time""
""fullscreenenter"",""1"",""1865""
","
","
","""event"",""trial"",""time""
""fullscreenenter"",""1"",""1865""
","
","","","766.0999999642372","","","22","4922","314","&#9761;","elianto","#3366ff99","-1"," ","0","0","[1616.6000000238419]","1","0","2","","","","","","","",""
"pit-trial","40","393236","0.0-2.0-11.0-3.0","battery-v0.2","","""event"",""trial"",""time""
""fullscreenenter"",""1"",""1865""
","
","
","""event"",""trial"",""time""
""fullscreenenter"",""1"",""1865""
","
","","","567.3000000119209","","","22","4922","314","&#9761;","elianto","#3366ff99","-1"," ","0","+10","[1417.6000000238419]","1","0","2","","","","","","","",""
"pit-trial","41","396858","0.0-2.0-11.0-4.0","battery-v0.2","","""event"",""trial"",""time""
""fullscreenenter"",""1"",""1865""
","
","
","""event"",""trial"",""time""
""fullscreenenter"",""1"",""1865""
","
","","","759.6999999880791","","","22","4922","314","&#9761;","elianto","#3366ff99","-1"," ","0","0","[1610]","1","0","2","","","","","","","",""
"pit-trial","42","400246","0.0-2.0-11.1-0.1","battery-v0.2","","""event"",""trial"",""time""
""fullscreenenter"",""1"",""1865""
","
","
","""event"",""trial"",""time""
""fullscreenenter"",""1"",""1865""
","
","","","524.7999999523163","","","22","4922","314","&#9761;","elianto","#3366ff99","-1"," ","0","0","[1375.0999999642372]","1","0","2","","","","","","","",""
"pit-trial","43","403956","0.0-2.0-11.1-1.1","battery-v0.2","","""event"",""trial"",""time""
""fullscreenenter"",""1"",""1865""
","
","
","""event"",""trial"",""time""
""fullscreenenter"",""1"",""1865""
","
","","","848.1999999880791","","","22","4922","314","&#9761;","elianto","#3366ff99","-1"," ","0","0","[1698.9000000357628]","1","0","2","","","","","","","",""
"pit-trial","44","407317","0.0-2.0-11.1-2.1","battery-v0.2","","""event"",""trial"",""time""
""fullscreenenter"",""1"",""1865""
","
","
","""event"",""trial"",""time""
""fullscreenenter"",""1"",""1865""
","
","","","505","","","22","4922","314","&#9761;","elianto","#3366ff99","-1"," ","0","0","[1355.199999988079]","1","0","2","","","","","","","",""
"pit-trial","45","412187","0.0-2.0-11.1-3.1","battery-v0.2","","""event"",""trial"",""time""
""fullscreenenter"",""1"",""1865""
","
","
","""event"",""trial"",""time""
""fullscreenenter"",""1"",""1865""
","
","","","-1","","","22","4922","314","&#9761;","elianto","#3366ff99","-1","-1","1","0","[]","0","0","2","","","","","","","",""
"pit-trial","46","417051","0.0-2.0-11.1-4.1","battery-v0.2","","""event"",""trial"",""time""
""fullscreenenter"",""1"",""1865""
","
","
","""event"",""trial"",""time""
""fullscreenenter"",""1"",""1865""
","
","","","-1","","","22","4922","314","&#9761;","elianto","#3366ff99","-1","-1","1","+10","[]","0","0","2","","","","","","","",""
"pit-trial","47","421915","0.0-2.0-11.2-0.2","battery-v0.2","","""event"",""trial"",""time""
""fullscreenenter"",""1"",""1865""
","
","
","""event"",""trial"",""time""
""fullscreenenter"",""1"",""1865""
","
","","","-1","","","22","4922","314","&#9761;","elianto","#3366ff99","-1","-1","1","+10","[]","0","0","2","","","","","","","",""
"pit-trial","48","425168","0.0-2.0-11.2-1.2","battery-v0.2","","""event"",""trial"",""time""
""fullscreenenter"",""1"",""1865""
","
","
","""event"",""trial"",""time""
""fullscreenenter"",""1"",""1865""
","
","","","392.80000001192093","","","22","4922","314","&#9761;","elianto","#3366ff99","-1"," ","0","0","[1242.8999999761581]","1","0","2","","","","","","","",""
"pit-trial","49","428231","0.0-2.0-11.2-2.2","battery-v0.2","","""event"",""trial"",""time""
""fullscreenenter"",""1"",""1865""
","
","
","""event"",""trial"",""time""
""fullscreenenter"",""1"",""1865""
","
","","","203.0999999642372","","","22","4922","314","&#9761;","elianto","#3366ff99","-1"," ","0","0","[1053.2000000476837]","1","0","2","","","","","","","",""
"pit-trial","50","431541","0.0-2.0-11.2-3.2","battery-v0.2","","""event"",""trial"",""time""
""fullscreenenter"",""1"",""1865""
","
","
","""event"",""trial"",""time""
""fullscreenenter"",""1"",""1865""
","
","","","446.19999998807907","","","22","4922","314","&#9761;","elianto","#3366ff99","-1"," ","0","+10","[1297.5]","1","0","2","","","","","","","",""
"pit-trial","51","435205","0.0-2.0-11.2-4.2","battery-v0.2","","""event"",""trial"",""time""
""fullscreenenter"",""1"",""1865""
","
","
","""event"",""trial"",""time""
""fullscreenenter"",""1"",""1865""
","
","","","800.3000000119209","","","22","4922","314","&#9761;","elianto","#3366ff99","-1"," ","0","0","[1651.1000000238419]","1","0","2","","","","","","","",""
"pit-trial","52","438837","0.0-2.0-11.3-0.3","battery-v0.2","","""event"",""trial"",""time""
""fullscreenenter"",""1"",""1865""
","
","
","""event"",""trial"",""time""
""fullscreenenter"",""1"",""1865""
","
","","","772.1000000238419","","","22","4922","314","&#9761;","elianto","#3366ff99","-1"," ","0","0","[1622.0999999642372]","1","0","2","","","","","","","",""
"pit-trial","53","442107","0.0-2.0-11.3-1.3","battery-v0.2","","""event"",""trial"",""time""
""fullscreenenter"",""1"",""1865""
","
","
","""event"",""trial"",""time""
""fullscreenenter"",""1"",""1865""
","
","","","407.5","","","22","4922","314","&#9761;","elianto","#3366ff99","-1"," ","0","0","[1257.800000011921]","1","0","2","","","","","","","",""
"pit-trial","54","445824","0.0-2.0-11.3-2.3","battery-v0.2","","""event"",""trial"",""time""
""fullscreenenter"",""1"",""1865""
","
","
","""event"",""trial"",""time""
""fullscreenenter"",""1"",""1865""
","
","","","856.3000000119209","","","22","4922","314","&#9761;","elianto","#3366ff99","-1"," ","0","0","[1706.800000011921]","1","0","2","","","","","","","",""
"pit-trial","55","449499","0.0-2.0-11.3-3.3","battery-v0.2","","""event"",""trial"",""time""
""fullscreenenter"",""1"",""1865""
","
","
","""event"",""trial"",""time""
""fullscreenenter"",""1"",""1865""
","
","","","812.3000000119209","","","22","4922","314","&#9761;","elianto","#3366ff99","-1"," ","0","+10","[1663]","1","0","2","","","","","","","",""
"pit-trial","56","452795","0.0-2.0-11.3-4.3","battery-v0.2","","""event"",""trial"",""time""
""fullscreenenter"",""1"",""1865""
","
","
","""event"",""trial"",""time""
""fullscreenenter"",""1"",""1865""
","
","","","434.7000000476837","","","22","4922","314","&#9761;","elianto","#3366ff99","-1"," ","0","0","[1284.8999999761581]","1","0","2","","","","","","","",""
"call-function","57","452802","0.0-2.0-12.0","battery-v0.2","","""event"",""trial"",""time""
""fullscreenenter"",""1"",""1865""
","
","
","""event"",""trial"",""time""
""fullscreenenter"",""1"",""1865""
","
","","","","","","","","","","","","","","","","","","","","","","","","","","",""
"pit-instructions","58","484540","0.0-2.0-13.0","battery-v0.2","","""event"",""trial"",""time""
""fullscreenenter"",""1"",""1865""
","
","
","""event"",""trial"",""time""
""fullscreenenter"",""1"",""1865""
","
","","[{""page_index"":0,""viewing_time"":5083.900000035763},{""page_index"":1,""viewing_time"":6715.299999952316},{""page_index"":2,""viewing_time"":4678.200000047684},{""page_index"":3,""viewing_time"":10162.599999964237},{""page_index"":4,""viewing_time"":5095.900000035763}]","31737","","","","","","","","","","","","","","","","","","","","","","","",""
"pit-trial","59","488523","0.0-2.0-14.0-0.0","battery-v0.2","","""event"",""trial"",""time""
""fullscreenenter"",""1"",""1865""
","
","
","""event"",""trial"",""time""
""fullscreenenter"",""1"",""1865""
","
","","","1123.6000000238419","","","22","4922","314","&#9826;","elianto","#f73b6a7A","-1"," ","0","-10","[1974.300000011921]","1","0","3","","","","","","","",""
"pit-trial","60","493384","0.0-2.0-14.0-1.0","battery-v0.2","","""event"",""trial"",""time""
""fullscreenenter"",""1"",""1865""
","
","
","""event"",""trial"",""time""
""fullscreenenter"",""1"",""1865""
","
","","","-1","","","22","4922","314","&#9826;","elianto","#f73b6a7A","-1","-1","1","0","[]","0","0","3","","","","","","","",""
"pit-trial","61","498245","0.0-2.0-14.0-2.0","battery-v0.2","","""event"",""trial"",""time""
""fullscreenenter"",""1"",""1865""
","
","
","""event"",""trial"",""time""
""fullscreenenter"",""1"",""1865""
","
","","","-1","","","22","4922","314","&#9826;","elianto","#f73b6a7A","-1","-1","1","0","[]","0","0","3","","","","","","","",""
"pit-trial","62","503111","0.0-2.0-14.0-3.0","battery-v0.2","","""event"",""trial"",""time""
""fullscreenenter"",""1"",""1865""
","
","
","""event"",""trial"",""time""
""fullscreenenter"",""1"",""1865""
","
","","","-1","","","22","4922","314","&#9826;","elianto","#f73b6a7A","-1","-1","1","-10","[]","0","0","3","","","","","","","",""
"pit-trial","63","507974","0.0-2.0-14.0-4.0","battery-v0.2","","""event"",""trial"",""time""
""fullscreenenter"",""1"",""1865""
","
","
","""event"",""trial"",""time""
""fullscreenenter"",""1"",""1865""
","
","","","-1","","","22","4922","314","&#9826;","elianto","#f73b6a7A","-1","-1","1","0","[]","0","0","3","","","","","","","",""
"pit-trial","64","512835","0.0-2.0-14.1-0.1","battery-v0.2","","""event"",""trial"",""time""
""fullscreenenter"",""1"",""1865""
","
","
","""event"",""trial"",""time""
""fullscreenenter"",""1"",""1865""
","
","","","-1","","","22","4922","314","&#9826;","elianto","#f73b6a7A","-1","-1","1","0","[]","0","0","3","","","","","","","",""
"pit-trial","65","517689","0.0-2.0-14.1-1.1","battery-v0.2","","""event"",""trial"",""time""
""fullscreenenter"",""1"",""1865""
","
","
","""event"",""trial"",""time""
""fullscreenenter"",""1"",""1865""
","
","","","-1","","","22","4922","314","&#9826;","elianto","#f73b6a7A","-1","-1","1","0","[]","0","0","3","","","","","","","",""
"pit-trial","66","522548","0.0-2.0-14.1-2.1","battery-v0.2","","""event"",""trial"",""time""
""fullscreenenter"",""1"",""1865""
","
","
","""event"",""trial"",""time""
""fullscreenenter"",""1"",""1865""
","
","","","-1","","","22","4922","314","&#9826;","elianto","#f73b6a7A","-1","-1","1","0","[]","0","0","3","","","","","","","",""
"pit-trial","67","527412","0.0-2.0-14.1-3.1","battery-v0.2","","""event"",""trial"",""time""
""fullscreenenter"",""1"",""1865""
","
","
","""event"",""trial"",""time""
""fullscreenenter"",""1"",""1865""
","
","","","-1","","","22","4922","314","&#9826;","elianto","#f73b6a7A","-1","-1","1","-10","[]","0","0","3","","","","","","","",""
"pit-trial","68","532281","0.0-2.0-14.1-4.1","battery-v0.2","","""event"",""trial"",""time""
""fullscreenenter"",""1"",""1865""
","
","
","""event"",""trial"",""time""
""fullscreenenter"",""1"",""1865""
","
","","","-1","","","22","4922","314","&#9826;","elianto","#f73b6a7A","-1","-1","1","0","[]","0","0","3","","","","","","","",""
"pit-trial","69","537145","0.0-2.0-14.2-0.2","battery-v0.2","","""event"",""trial"",""time""
""fullscreenenter"",""1"",""1865""
","
","
","""event"",""trial"",""time""
""fullscreenenter"",""1"",""1865""
","
","","","-1","","","22","4922","314","&#9826;","elianto","#f73b6a7A","-1","-1","1","0","[]","0","0","3","","","","","","","",""
"pit-trial","70","542004","0.0-2.0-14.2-1.2","battery-v0.2","","""event"",""trial"",""time""
""fullscreenenter"",""1"",""1865""
","
","
","""event"",""trial"",""time""
""fullscreenenter"",""1"",""1865""
","
","","","-1","","","22","4922","314","&#9826;","elianto","#f73b6a7A","-1","-1","1","0","[]","0","0","3","","","","","","","",""
"pit-trial","71","546873","0.0-2.0-14.2-2.2","battery-v0.2","","""event"",""trial"",""time""
""fullscreenenter"",""1"",""1865""
","
","
","""event"",""trial"",""time""
""fullscreenenter"",""1"",""1865""
","
","","","-1","","","22","4922","314","&#9826;","elianto","#f73b6a7A","-1","-1","1","0","[]","0","0","3","","","","","","","",""
"pit-trial","72","551737","0.0-2.0-14.2-3.2","battery-v0.2","","""event"",""trial"",""time""
""fullscreenenter"",""1"",""1865""
","
","
","""event"",""trial"",""time""
""fullscreenenter"",""1"",""1865""
","
","","","-1","","","22","4922","314","&#9826;","elianto","#f73b6a7A","-1","-1","1","-10","[]","0","0","3","","","","","","","",""
"pit-trial","73","556606","0.0-2.0-14.2-4.2","battery-v0.2","","""event"",""trial"",""time""
""fullscreenenter"",""1"",""1865""
","
","
","""event"",""trial"",""time""
""fullscreenenter"",""1"",""1865""
","
","","","-1","","","22","4922","314","&#9826;","elianto","#f73b6a7A","-1","-1","1","0","[]","0","0","3","","","","","","","",""
"pit-trial","74","561470","0.0-2.0-14.3-0.3","battery-v0.2","","""event"",""trial"",""time""
""fullscreenenter"",""1"",""1865""
","
","
","""event"",""trial"",""time""
""fullscreenenter"",""1"",""1865""
","
","","","-1","","","22","4922","314","&#9826;","elianto","#f73b6a7A","-1","-1","1","0","[]","0","0","3","","","","","","","",""
"pit-trial","75","566334","0.0-2.0-14.3-1.3","battery-v0.2","","""event"",""trial"",""time""
""fullscreenenter"",""1"",""1865""
","
","
","""event"",""trial"",""time""
""fullscreenenter"",""1"",""1865""
","
","","","-1","","","22","4922","314","&#9826;","elianto","#f73b6a7A","-1","-1","1","0","[]","0","0","3","","","","","","","",""
"pit-trial","76","571197","0.0-2.0-14.3-2.3","battery-v0.2","","""event"",""trial"",""time""
""fullscreenenter"",""1"",""1865""
","
","
","""event"",""trial"",""time""
""fullscreenenter"",""1"",""1865""
","
","","","-1","","","22","4922","314","&#9826;","elianto","#f73b6a7A","-1","-1","1","0","[]","0","0","3","","","","","","","",""
"pit-trial","77","576062","0.0-2.0-14.3-3.3","battery-v0.2","","""event"",""trial"",""time""
""fullscreenenter"",""1"",""1865""
","
","
","""event"",""trial"",""time""
""fullscreenenter"",""1"",""1865""
","
","","","-1","","","22","4922","314","&#9826;","elianto","#f73b6a7A","-1","-1","1","-10","[]","0","0","3","","","","","","","",""
"pit-trial","78","580926","0.0-2.0-14.3-4.3","battery-v0.2","","""event"",""trial"",""time""
""fullscreenenter"",""1"",""1865""
","
","
","""event"",""trial"",""time""
""fullscreenenter"",""1"",""1865""
","
","","","-1","","","22","4922","314","&#9826;","elianto","#f73b6a7A","-1","-1","1","0","[]","0","0","3","","","","","","","",""
"call-function","79","580934","0.0-2.0-15.0","battery-v0.2","","""event"",""trial"",""time""
""fullscreenenter"",""1"",""1865""
","
","
","""event"",""trial"",""time""
""fullscreenenter"",""1"",""1865""
","
","","","","","","","","","","","","","","","","","","","","","","","","","","",""
"pit-instructions","80","606108","0.0-2.0-16.0","battery-v0.2","","""event"",""trial"",""time""
""fullscreenenter"",""1"",""1865""
","
","
","""event"",""trial"",""time""
""fullscreenenter"",""1"",""1865""
","
","","[{""page_index"":0,""viewing_time"":6612.800000011921},{""page_index"":1,""viewing_time"":9416.699999988079},{""page_index"":2,""viewing_time"":4223.100000023842},{""page_index"":3,""viewing_time"":4919.299999952316}]","25172.80000001192","","","","","","","","","","","","","","","","","","","","","","","",""
"pit-trial","81","609868","0.0-2.0-17.0-0.0","battery-v0.2","","""event"",""trial"",""time""
""fullscreenenter"",""1"",""1865""
","
","
","""event"",""trial"",""time""
""fullscreenenter"",""1"",""1865""
","
","","","898.3000000119209","","","22","4922","314","&#9789;","elianto","#f73b6a7A"," "," ","1","0","[1748.8999999761581]","1","0","4","","","","","","","",""
"pit-trial","82","614734","0.0-2.0-17.0-1.0","battery-v0.2","","""event"",""trial"",""time""
""fullscreenenter"",""1"",""1865""
","
","
","""event"",""trial"",""time""
""fullscreenenter"",""1"",""1865""
","
","","","-1","","","22","4922","314","&#9789;","elianto","#f73b6a7A"," ","-1","0","-10","[]","0","0","4","","","","","","","",""
"pit-trial","83","619593","0.0-2.0-17.0-2.0","battery-v0.2","","""event"",""trial"",""time""
""fullscreenenter"",""1"",""1865""
","
","
","""event"",""trial"",""time""
""fullscreenenter"",""1"",""1865""
","
","","","-1","","","22","4922","314","&#9789;","elianto","#f73b6a7A"," ","-1","0","-10","[]","0","0","4","","","","","","","",""
"pit-trial","84","624453","0.0-2.0-17.0-3.0","battery-v0.2","","""event"",""trial"",""time""
""fullscreenenter"",""1"",""1865""
","
","
","""event"",""trial"",""time""
""fullscreenenter"",""1"",""1865""
","
","","","-1","","","22","4922","314","&#9789;","elianto","#f73b6a7A"," ","-1","0","0","[]","0","0","4","","","","","","","",""
"pit-trial","85","629312","0.0-2.0-17.0-4.0","battery-v0.2","","""event"",""trial"",""time""
""fullscreenenter"",""1"",""1865""
","
","
","""event"",""trial"",""time""
""fullscreenenter"",""1"",""1865""
","
","","","-1","","","22","4922","314","&#9789;","elianto","#f73b6a7A"," ","-1","0","-10","[]","0","0","4","","","","","","","",""
"pit-trial","86","634180","0.0-2.0-17.1-0.1","battery-v0.2","","""event"",""trial"",""time""
""fullscreenenter"",""1"",""1865""
","
","
","""event"",""trial"",""time""
""fullscreenenter"",""1"",""1865""
","
","","","-1","","","22","4922","314","&#9789;","elianto","#f73b6a7A"," ","-1","0","-10","[]","0","0","4","","","","","","","",""
"pit-trial","87","639047","0.0-2.0-17.1-1.1","battery-v0.2","","""event"",""trial"",""time""
""fullscreenenter"",""1"",""1865""
","
","
","""event"",""trial"",""time""
""fullscreenenter"",""1"",""1865""
","
","","","-1","","","22","4922","314","&#9789;","elianto","#f73b6a7A"," ","-1","0","-10","[]","0","0","4","","","","","","","",""
"pit-trial","88","643910","0.0-2.0-17.1-2.1","battery-v0.2","","""event"",""trial"",""time""
""fullscreenenter"",""1"",""1865""
","
","
","""event"",""trial"",""time""
""fullscreenenter"",""1"",""1865""
","
","","","-1","","","22","4922","314","&#9789;","elianto","#f73b6a7A"," ","-1","0","-10","[]","0","0","4","","","","","","","",""
"pit-trial","89","648769","0.0-2.0-17.1-3.1","battery-v0.2","","""event"",""trial"",""time""
""fullscreenenter"",""1"",""1865""
","
","
","""event"",""trial"",""time""
""fullscreenenter"",""1"",""1865""
","
","","","-1","","","22","4922","314","&#9789;","elianto","#f73b6a7A"," ","-1","0","0","[]","0","0","4","","","","","","","",""
"pit-trial","90","653634","0.0-2.0-17.1-4.1","battery-v0.2","","""event"",""trial"",""time""
""fullscreenenter"",""1"",""1865""
","
","
","""event"",""trial"",""time""
""fullscreenenter"",""1"",""1865""
","
","","","-1","","","22","4922","314","&#9789;","elianto","#f73b6a7A"," ","-1","0","-10","[]","0","0","4","","","","","","","",""
"pit-trial","91","658497","0.0-2.0-17.2-0.2","battery-v0.2","","""event"",""trial"",""time""
""fullscreenenter"",""1"",""1865""
","
","
","""event"",""trial"",""time""
""fullscreenenter"",""1"",""1865""
","
","","","-1","","","22","4922","314","&#9789;","elianto","#f73b6a7A"," ","-1","0","-10","[]","0","0","4","","","","","","","",""
"pit-trial","92","663361","0.0-2.0-17.2-1.2","battery-v0.2","","""event"",""trial"",""time""
""fullscreenenter"",""1"",""1865""
","
","
","""event"",""trial"",""time""
""fullscreenenter"",""1"",""1865""
","
","","","-1","","","22","4922","314","&#9789;","elianto","#f73b6a7A"," ","-1","0","-10","[]","0","0","4","","","","","","","",""
"pit-trial","93","668225","0.0-2.0-17.2-2.2","battery-v0.2","","""event"",""trial"",""time""
""fullscreenenter"",""1"",""1865""
","
","
","""event"",""trial"",""time""
""fullscreenenter"",""1"",""1865""
","
","","","-1","","","22","4922","314","&#9789;","elianto","#f73b6a7A"," ","-1","0","-10","[]","0","0","4","","","","","","","",""
"pit-trial","94","673091","0.0-2.0-17.2-3.2","battery-v0.2","","""event"",""trial"",""time""
""fullscreenenter"",""1"",""1865""
","
","
","""event"",""trial"",""time""
""fullscreenenter"",""1"",""1865""
","
","","","-1","","","22","4922","314","&#9789;","elianto","#f73b6a7A"," ","-1","0","0","[]","0","0","4","","","","","","","",""
"pit-trial","95","677959","0.0-2.0-17.2-4.2","battery-v0.2","","""event"",""trial"",""time""
""fullscreenenter"",""1"",""1865""
","
","
","""event"",""trial"",""time""
""fullscreenenter"",""1"",""1865""
","
","","","-1","","","22","4922","314","&#9789;","elianto","#f73b6a7A"," ","-1","0","-10","[]","0","0","4","","","","","","","",""
"pit-trial","96","682823","0.0-2.0-17.3-0.3","battery-v0.2","","""event"",""trial"",""time""
""fullscreenenter"",""1"",""1865""
","
","
","""event"",""trial"",""time""
""fullscreenenter"",""1"",""1865""
","
","","","-1","","","22","4922","314","&#9789;","elianto","#f73b6a7A"," ","-1","0","-10","[]","0","0","4","","","","","","","",""
"pit-trial","97","687687","0.0-2.0-17.3-1.3","battery-v0.2","","""event"",""trial"",""time""
""fullscreenenter"",""1"",""1865""
","
","
","""event"",""trial"",""time""
""fullscreenenter"",""1"",""1865""
","
","","","-1","","","22","4922","314","&#9789;","elianto","#f73b6a7A"," ","-1","0","-10","[]","0","0","4","","","","","","","",""
"pit-trial","98","692550","0.0-2.0-17.3-2.3","battery-v0.2","","""event"",""trial"",""time""
""fullscreenenter"",""1"",""1865""
","
","
","""event"",""trial"",""time""
""fullscreenenter"",""1"",""1865""
","
","","","-1","","","22","4922","314","&#9789;","elianto","#f73b6a7A"," ","-1","0","-10","[]","0","0","4","","","","","","","",""
"pit-trial","99","697414","0.0-2.0-17.3-3.3","battery-v0.2","","""event"",""trial"",""time""
""fullscreenenter"",""1"",""1865""
","
","
","""event"",""trial"",""time""
""fullscreenenter"",""1"",""1865""
","
","","","-1","","","22","4922","314","&#9789;","elianto","#f73b6a7A"," ","-1","0","0","[]","0","0","4","","","","","","","",""
"pit-trial","100","702279","0.0-2.0-17.3-4.3","battery-v0.2","","""event"",""trial"",""time""
""fullscreenenter"",""1"",""1865""
","
","
","""event"",""trial"",""time""
""fullscreenenter"",""1"",""1865""
","
","","","-1","","","22","4922","314","&#9789;","elianto","#f73b6a7A"," ","-1","0","-10","[]","0","0","4","","","","","","","",""
"call-function","101","702286","0.0-2.0-18.0","battery-v0.2","","""event"",""trial"",""time""
""fullscreenenter"",""1"",""1865""
","
","
","""event"",""trial"",""time""
""fullscreenenter"",""1"",""1865""
","
","","","","","","","","","","","","","","","","","","","","","","","","","","",""
"pit-instructions","102","775399","0.0-2.0-19.0","battery-v0.2","","""event"",""trial"",""time""
""fullscreenenter"",""1"",""1865""
","
","
","""event"",""trial"",""time""
""fullscreenenter"",""1"",""1865""
","
","","[{""page_index"":0,""viewing_time"":8918.700000047684},{""page_index"":1,""viewing_time"":6315.799999952316},{""page_index"":2,""viewing_time"":14933.900000035763},{""page_index"":3,""viewing_time"":7299.699999988079},{""page_index"":4,""viewing_time"":8309},{""page_index"":5,""viewing_time"":8575.800000011921},{""page_index"":6,""viewing_time"":8977.899999976158},{""page_index"":7,""viewing_time"":5887.900000035763},{""page_index"":8,""viewing_time"":3891.699999988079}]","73111.30000001192","","","","","","","","","","","","","","","","","","","","","","","",""
"pit-comprehension","103","780454","0.0-2.0-20.0-0.0","battery-v0.2","","""event"",""trial"",""time""
""fullscreenenter"",""1"",""1865""
","
","
","""event"",""trial"",""time""
""fullscreenenter"",""1"",""1865""
","
","","","5048.200000047684","[""SPACE""]","0","22","4922","314","","","","","","","","","","","","","","","","","","",""
"pit-instructions","104","783015","0.0-2.0-20.0-1.0","battery-v0.2","","""event"",""trial"",""time""
""fullscreenenter"",""1"",""1865""
","
","
","""event"",""trial"",""time""
""fullscreenenter"",""1"",""1865""
","
","","[{""page_index"":0,""viewing_time"":2536}]","2536.7000000476837","","","","","","","","","","","","","","","","","","","","","","","",""
"pit-comprehension","105","790342","0.0-2.0-21.0-0.0","battery-v0.2","","""event"",""trial"",""time""
""fullscreenenter"",""1"",""1865""
","
","
","""event"",""trial"",""time""
""fullscreenenter"",""1"",""1865""
","
","","","7320","[""10""]","0","22","4922","314","","","","","","","","","","","","","","","","","","",""
"pit-instructions","106","791975","0.0-2.0-21.0-1.0","battery-v0.2","","""event"",""trial"",""time""
""fullscreenenter"",""1"",""1865""
","
","
","""event"",""trial"",""time""
""fullscreenenter"",""1"",""1865""
","
","","[{""page_index"":0,""viewing_time"":1607.699999988079}]","1608.6000000238419","","","","","","","","","","","","","","","","","","","","","","","",""
"pit-comprehension","107","802183","0.0-2.0-22.0-0.0","battery-v0.2","","""event"",""trial"",""time""
""fullscreenenter"",""1"",""1865""
","
","
","""event"",""trial"",""time""
""fullscreenenter"",""1"",""1865""
","
","","","10201.899999976158","[""0""]","0","22","4922","314","","","","","","","","","","","","","","","","","","",""
"pit-instructions","108","805482","0.0-2.0-22.0-1.0","battery-v0.2","","""event"",""trial"",""time""
""fullscreenenter"",""1"",""1865""
","
","
","""event"",""trial"",""time""
""fullscreenenter"",""1"",""1865""
","
","","[{""page_index"":0,""viewing_time"":3272.600000023842}]","3273.5","","","","","","","","","","","","","","","","","","","","","","","",""
"pit-comprehension","109","817375","0.0-2.0-23.0-0.0","battery-v0.2","","""event"",""trial"",""time""
""fullscreenenter"",""1"",""1865""
","
","
","""event"",""trial"",""time""
""fullscreenenter"",""1"",""1865""
","
","","","11886.5","[""True""]","0","22","4922","314","","","","","","","","","","","","","","","","","","",""
"pit-instructions","110","819165","0.0-2.0-23.0-1.0","battery-v0.2","","""event"",""trial"",""time""
""fullscreenenter"",""1"",""1865""
","
","
","""event"",""trial"",""time""
""fullscreenenter"",""1"",""1865""
","
","","[{""page_index"":0,""viewing_time"":1761.800000011921}]","1762.5","","","","","","","","","","","","","","","","","","","","","","","",""
"pit-comprehension","111","829468","0.0-2.0-24.0-0.0","battery-v0.2","","""event"",""trial"",""time""
""fullscreenenter"",""1"",""1865""
","
","
","""event"",""trial"",""time""
""fullscreenenter"",""1"",""1865""
","
","","","10296.900000035763","[""False""]","1","22","4922","314","","","","","","","","","","","","","","","","","","",""
"pit-instructions","112","831373","0.0-2.0-24.0-1.0","battery-v0.2","","""event"",""trial"",""time""
""fullscreenenter"",""1"",""1865""
","
","
","""event"",""trial"",""time""
""fullscreenenter"",""1"",""1865""
","
","","[{""page_index"":0,""viewing_time"":1880}]","1880.7000000476837","","","","","","","","","","","","","","","","","","","","","","","",""
"pit-instructions","113","832631","0.0-2.0-24.0-2.0-0.0","battery-v0.2","","""event"",""trial"",""time""
""fullscreenenter"",""1"",""1865""
","
","
","""event"",""trial"",""time""
""fullscreenenter"",""1"",""1865""
","
","","[{""page_index"":0,""viewing_time"":1252.5}]","1253.4000000357628","","","","","","","","","","","","","","","","","","","","","","","",""
"pit-comprehension","114","840167","0.0-2.0-24.1-0.1","battery-v0.2","","""event"",""trial"",""time""
""fullscreenenter"",""1"",""1865""
","
","
","""event"",""trial"",""time""
""fullscreenenter"",""1"",""1865""
","
","","","7529.399999976158","[""True""]","0","22","4922","314","","","","","","","","","","","","","","","","","","",""
"pit-instructions","115","843740","0.0-2.0-24.1-1.1","battery-v0.2","","""event"",""trial"",""time""
""fullscreenenter"",""1"",""1865""
","
","
","""event"",""trial"",""time""
""fullscreenenter"",""1"",""1865""
","
","","[{""page_index"":0,""viewing_time"":3548.599999964237}]","3549.199999988079","","","","","","","","","","","","","","","","","","","","","","","",""
"pit-comprehension","116","850349","0.0-2.0-25.0-0.0","battery-v0.2","","""event"",""trial"",""time""
""fullscreenenter"",""1"",""1865""
","
","
","""event"",""trial"",""time""
""fullscreenenter"",""1"",""1865""
","
","","","6602.899999976158","[""True""]","0","22","4922","314","","","","","","","","","","","","","","","","","","",""
"pit-instructions","117","852258","0.0-2.0-25.0-1.0","battery-v0.2","","""event"",""trial"",""time""
""fullscreenenter"",""1"",""1865""
","
","
","""event"",""trial"",""time""
""fullscreenenter"",""1"",""1865""
","
","","[{""page_index"":0,""viewing_time"":1881.300000011921}]","1883.7000000476837","","","","","","","","","","","","","","","","","","","","","","","",""
"pit-comprehension","118","858683","0.0-2.0-26.0-0.0","battery-v0.2","","""event"",""trial"",""time""
""fullscreenenter"",""1"",""1865""
","
","
","""event"",""trial"",""time""
""fullscreenenter"",""1"",""1865""
","
","","","6418.099999964237","[""False""]","0","22","4922","314","","","","","","","","","","","","","","","","","","",""
"pit-instructions","119","860532","0.0-2.0-26.0-1.0","battery-v0.2","","""event"",""trial"",""time""
""fullscreenenter"",""1"",""1865""
","
","
","""event"",""trial"",""time""
""fullscreenenter"",""1"",""1865""
","
","","[{""page_index"":0,""viewing_time"":1821.9000000357628}]","1823","","","","","","","","","","","","","","","","","","","","","","","",""
"pit-instructions","120","878265","0.0-3.0","battery-v0.2","","""event"",""trial"",""time""
""fullscreenenter"",""1"",""1865""
","
","
","""event"",""trial"",""time""
""fullscreenenter"",""1"",""1865""
","
","","[{""page_index"":0,""viewing_time"":4102.5},{""page_index"":1,""viewing_time"":5816.300000011921},{""page_index"":2,""viewing_time"":7809.399999976158}]","17728.69999998808","","","","","","","","","","","","","","","","","","","","","","","",""
"pit-trial","121","882498","0.0-4.0","battery-v0.2","","""event"",""trial"",""time""
""fullscreenenter"",""1"",""1865""
","
","
","""event"",""trial"",""time""
""fullscreenenter"",""1"",""1865""
","
","","","1370.8999999761581","","","22","4922","314","&#9728;","elianto","#f73b6a7A","-1"," ","0","-10","[2221.300000011921]","1","1","","","4922","1","0","4","lose","no-go","0"
"pit-trial","122","886074","0.0-5.0","battery-v0.2","","""event"",""trial"",""time""
""fullscreenenter"",""1"",""1865""
","
","
","""event"",""trial"",""time""
""fullscreenenter"",""1"",""1865""
","
","","","716.6000000238419","","","22","4922","314","&#9730;","elianto","#3366ff99"," "," ","1","+10","[1566.8999999761581]","1","1","","","4922","2","1","1","win","go","0"
"pit-trial","123","890624","0.0-6.0","battery-v0.2","","""event"",""trial"",""time""
""fullscreenenter"",""1"",""1865""
","
","
","""event"",""trial"",""time""
""fullscreenenter"",""1"",""1865""
","
","","","1690.199999988079","","","22","4922","314","&#9752;","elianto","#f73b6a7A"," "," ","1","0","[2540.5]","1","1","","","4922","3","3","3","lose","go","0"
"pit-trial","124","894358","0.0-7.0","battery-v0.2","","""event"",""trial"",""time""
""fullscreenenter"",""1"",""1865""
","
","
","""event"",""trial"",""time""
""fullscreenenter"",""1"",""1865""
","
","","","871","","","22","4922","314","&#9733;","elianto","#3366ff99","-1"," ","0","0","[1721.1000000238419]","1","1","","","4922","4","2","2","win","no-go","0"
"pit-trial","125","898455","0.0-8.0","battery-v0.2","","""event"",""trial"",""time""
""fullscreenenter"",""1"",""1865""
","
","
","""event"",""trial"",""time""
""fullscreenenter"",""1"",""1865""
","
","","","1238.9000000357628","","","22","4922","314","&#9752;","elianto","#f73b6a7A"," "," ","1","0","[2089.400000035763]","1","1","","","4922","5","3","3","lose","go","0"
"pit-trial","126","902069","0.0-9.0","battery-v0.2","","""event"",""trial"",""time""
""fullscreenenter"",""1"",""1865""
","
","
","""event"",""trial"",""time""
""fullscreenenter"",""1"",""1865""
","
","","","749.8000000119209","","","22","4922","314","&#9730;","elianto","#3366ff99"," "," ","1","+10","[1600.199999988079]","1","1","","","4922","6","1","1","win","go","0"
"pit-trial","127","905895","0.0-10.0","battery-v0.2","","""event"",""trial"",""time""
""fullscreenenter"",""1"",""1865""
","
","
","""event"",""trial"",""time""
""fullscreenenter"",""1"",""1865""
","
","","","961.8000000119209","","","22","4922","314","&#9733;","elianto","#3366ff99","-1"," ","0","0","[1812.8999999761581]","1","1","","","4922","7","2","2","win","no-go","0"
"pit-trial","128","910762","0.0-11.0","battery-v0.2","","""event"",""trial"",""time""
""fullscreenenter"",""1"",""1865""
","
","
","""event"",""trial"",""time""
""fullscreenenter"",""1"",""1865""
","
","","","-1","","","22","4922","314","&#9728;","elianto","#f73b6a7A","-1","-1","1","0","[]","0","1","","","4922","8","0","4","lose","no-go","0"
"pit-trial","129","914709","0.0-12.0","battery-v0.2","","""event"",""trial"",""time""
""fullscreenenter"",""1"",""1865""
","
","
","""event"",""trial"",""time""
""fullscreenenter"",""1"",""1865""
","
","","","1081.6000000238419","","","22","4922","314","&#9728;","elianto","#f73b6a7A","-1"," ","0","-10","[1931.699999988079]","1","1","","","4922","9","0","4","lose","no-go","0"
"pit-trial","130","918271","0.0-13.0","battery-v0.2","","""event"",""trial"",""time""
""fullscreenenter"",""1"",""1865""
","
","
","""event"",""trial"",""time""
""fullscreenenter"",""1"",""1865""
","
","","","699.9000000357628","","","22","4922","314","&#9733;","elianto","#3366ff99","-1"," ","0","0","[1550.7000000476837]","1","1","","","4922","10","2","2","win","no-go","0"
"pit-trial","131","922037","0.0-14.0","battery-v0.2","","""event"",""trial"",""time""
""fullscreenenter"",""1"",""1865""
","
","
","""event"",""trial"",""time""
""fullscreenenter"",""1"",""1865""
","
","","","901.0999999642372","","","22","4922","314","&#9752;","elianto","#f73b6a7A"," "," ","1","0","[1751.300000011921]","1","1","","","4922","11","3","3","lose","go","0"
"pit-trial","132","925534","0.0-15.0","battery-v0.2","","""event"",""trial"",""time""
""fullscreenenter"",""1"",""1865""
","
","
","""event"",""trial"",""time""
""fullscreenenter"",""1"",""1865""
","
","","","637.5","","","22","4922","314","&#9730;","elianto","#3366ff99"," "," ","1","+10","[1487.7000000476837]","1","1","","","4922","12","1","1","win","go","0"
"pit-trial","133","929214","0.0-16.0","battery-v0.2","","""event"",""trial"",""time""
""fullscreenenter"",""1"",""1865""
","
","
","""event"",""trial"",""time""
""fullscreenenter"",""1"",""1865""
","
","","","819.3000000119209","","","22","4922","314","&#9733;","elianto","#3366ff99","-1"," ","0","0","[1669.699999988079]","1","1","","","4922","13","2","2","win","no-go","0"
"pit-trial","134","934078","0.0-17.0","battery-v0.2","","""event"",""trial"",""time""
""fullscreenenter"",""1"",""1865""
","
","
","""event"",""trial"",""time""
""fullscreenenter"",""1"",""1865""
","
","","","-1","","","22","4922","314","&#9728;","elianto","#f73b6a7A","-1","-1","1","0","[]","0","1","","","4922","14","0","4","lose","no-go","0"
"pit-trial","135","937492","0.0-18.0","battery-v0.2","","""event"",""trial"",""time""
""fullscreenenter"",""1"",""1865""
","
","
","""event"",""trial"",""time""
""fullscreenenter"",""1"",""1865""
","
","","","554","","","22","4922","314","&#9730;","elianto","#3366ff99"," "," ","1","+10","[1404.5]","1","1","","","4922","15","1","1","win","go","0"
"pit-trial","136","941156","0.0-19.0","battery-v0.2","","""event"",""trial"",""time""
""fullscreenenter"",""1"",""1865""
","
","
","""event"",""trial"",""time""
""fullscreenenter"",""1"",""1865""
","
","","","801.1000000238419","","","22","4922","314","&#9752;","elianto","#f73b6a7A"," "," ","1","0","[1651.300000011921]","1","1","","","4922","16","3","3","lose","go","0"
"pit-trial","137","944639","0.0-20.0","battery-v0.2","","""event"",""trial"",""time""
""fullscreenenter"",""1"",""1865""
","
","
","""event"",""trial"",""time""
""fullscreenenter"",""1"",""1865""
","
","","","620.3000000119209","","","22","4922","314","&#9730;","elianto","#3366ff99"," "," ","1","+10","[1470.7000000476837]","1","1","","","4922","17","1","1","win","go","0"
"pit-trial","138","949503","0.0-21.0","battery-v0.2","","""event"",""trial"",""time""
""fullscreenenter"",""1"",""1865""
","
","
","""event"",""trial"",""time""
""fullscreenenter"",""1"",""1865""
","
","","","-1","","","22","4922","314","&#9733;","elianto","#3366ff99","-1","-1","1","0","[]","0","1","","","4922","18","2","2","win","no-go","1"
"pit-trial","139","953130","0.0-22.0","battery-v0.2","","""event"",""trial"",""time""
""fullscreenenter"",""1"",""1865""
","
","
","""event"",""trial"",""time""
""fullscreenenter"",""1"",""1865""
","
","","","767.3999999761581","","","22","4922","314","&#9752;","elianto","#f73b6a7A"," "," ","1","0","[1617.3999999761581]","1","1","","","4922","19","3","3","lose","go","0"
"pit-trial","140","957994","0.0-23.0","battery-v0.2","","""event"",""trial"",""time""
""fullscreenenter"",""1"",""1865""
","
","
","""event"",""trial"",""time""
""fullscreenenter"",""1"",""1865""
","
","","","-1","","","22","4922","314","&#9728;","elianto","#f73b6a7A","-1","-1","1","0","[]","0","1","","","4922","20","0","4","lose","no-go","0"
"pit-instructions","141","970390","0.0-24.0","battery-v0.2","","""event"",""trial"",""time""
""fullscreenenter"",""1"",""1865""
","
","
","""event"",""trial"",""time""
""fullscreenenter"",""1"",""1865""
","
","","[{""page_index"":0,""viewing_time"":5513.600000023842},{""page_index"":1,""viewing_time"":6874.099999964237}]","12389","","","","","","","","","","","","","","","","","","","","","","","",""
"pit-trial","142","974464","0.0-25.0","battery-v0.2","","""event"",""trial"",""time""
""fullscreenenter"",""1"",""1865""
","
","
","""event"",""trial"",""time""
""fullscreenenter"",""1"",""1865""
","
","","","1213.5999999642372","","","22","4922","314","y","elianto","#f73b6a7A"," "," ","1","0","[2064.399999976158]","1","2","","","4922","21","2","3","lose","go","0"
"pit-trial","143","978530","0.0-26.0","battery-v0.2","","""event"",""trial"",""time""
""fullscreenenter"",""1"",""1865""
","
","
","""event"",""trial"",""time""
""fullscreenenter"",""1"",""1865""
","
","","","1201.8999999761581","","","22","4922","314","m","elianto","#f73b6a7A"," "," ","1","0","[2052.699999988079]","1","2","","","4922","22","0","3","lose","go","0"
"pit-trial","144","982492","0.0-27.0","battery-v0.2","","""event"",""trial"",""time""
""fullscreenenter"",""1"",""1865""
","
","
","""event"",""trial"",""time""
""fullscreenenter"",""1"",""1865""
","
","","","1096.300000011921","","","22","4922","314","h","elianto","#f73b6a7A","-1"," ","0","-10","[1948.199999988079]","1","2","","","4922","23","3","4","lose","no-go","0"
"pit-trial","145","986185","0.0-28.0","battery-v0.2","","""event"",""trial"",""time""
""fullscreenenter"",""1"",""1865""
","
","
","""event"",""trial"",""time""
""fullscreenenter"",""1"",""1865""
","
","","","829.8999999761581","","","22","4922","314","r","elianto","#3366ff99","-1"," ","0","+10","[1680.800000011921]","1","2","","","4922","24","1","2","win","no-go","1"
"pit-trial","146","990210","0.0-29.0","battery-v0.2","","""event"",""trial"",""time""
""fullscreenenter"",""1"",""1865""
","
","
","""event"",""trial"",""time""
""fullscreenenter"",""1"",""1865""
","
","","","1165.3999999761581","","","22","4922","314","m","elianto","#f73b6a7A"," "," ","1","0","[2016]","1","2","","","4922","25","0","3","lose","go","0"
"pit-trial","147","995074","0.0-30.0","battery-v0.2","","""event"",""trial"",""time""
""fullscreenenter"",""1"",""1865""
","
","
","""event"",""trial"",""time""
""fullscreenenter"",""1"",""1865""
","
","","","-1","","","22","4922","314","h","elianto","#f73b6a7A","-1","-1","1","-10","[]","0","2","","","4922","26","3","4","lose","no-go","1"
"pit-trial","148","998931","0.0-31.0","battery-v0.2","","""event"",""trial"",""time""
""fullscreenenter"",""1"",""1865""
","
","
","""event"",""trial"",""time""
""fullscreenenter"",""1"",""1865""
","
","","","993.6999999880791","","","22","4922","314","y","elianto","#f73b6a7A"," "," ","1","0","[1844.699999988079]","1","2","","","4922","27","2","3","lose","go","0"
"pit-trial","149","1002327","0.0-32.0","battery-v0.2","","""event"",""trial"",""time""
""fullscreenenter"",""1"",""1865""
","
","
","""event"",""trial"",""time""
""fullscreenenter"",""1"",""1865""
","
","","","533.6999999880791","","","22","4922","314","r","elianto","#3366ff99","-1"," ","0","0","[1384.6000000238419]","1","2","","","4922","28","1","2","win","no-go","0"
"pit-trial","150","1007191","0.0-33.0","battery-v0.2","","""event"",""trial"",""time""
""fullscreenenter"",""1"",""1865""
","
","
","""event"",""trial"",""time""
""fullscreenenter"",""1"",""1865""
","
","","","-1","","","22","4922","314","y","elianto","#f73b6a7A"," ","-1","0","-10","[]","0","2","","","4922","29","2","3","lose","go","0"
"pit-trial","151","1010700","0.0-34.0","battery-v0.2","","""event"",""trial"",""time""
""fullscreenenter"",""1"",""1865""
","
","
","""event"",""trial"",""time""
""fullscreenenter"",""1"",""1865""
","
","","","647.5","","","22","4922","314","r","elianto","#3366ff99","-1"," ","0","0","[1498.5999999642372]","1","2","","","4922","30","1","2","win","no-go","0"
"pit-trial","152","1014652","0.0-35.0","battery-v0.2","","""event"",""trial"",""time""
""fullscreenenter"",""1"",""1865""
","
","
","""event"",""trial"",""time""
""fullscreenenter"",""1"",""1865""
","
","","","1091","","","22","4922","314","m","elianto","#f73b6a7A"," "," ","1","0","[1941.9000000357628]","1","2","","","4922","31","0","3","lose","go","0"
"pit-trial","153","1019516","0.0-36.0","battery-v0.2","","""event"",""trial"",""time""
""fullscreenenter"",""1"",""1865""
","
","
","""event"",""trial"",""time""
""fullscreenenter"",""1"",""1865""
","
","","","-1","","","22","4922","314","h","elianto","#f73b6a7A","-1","-1","1","0","[]","0","2","","","4922","32","3","4","lose","no-go","0"
"pit-trial","154","1024381","0.0-37.0","battery-v0.2","","""event"",""trial"",""time""
""fullscreenenter"",""1"",""1865""
","
","
","""event"",""trial"",""time""
""fullscreenenter"",""1"",""1865""
","
","","","-1","","","22","4922","314","h","elianto","#f73b6a7A","-1","-1","1","0","[]","0","2","","","4922","33","3","4","lose","no-go","0"
"pit-trial","155","1029250","0.0-38.0","battery-v0.2","","""event"",""trial"",""time""
""fullscreenenter"",""1"",""1865""
","
","
","""event"",""trial"",""time""
""fullscreenenter"",""1"",""1865""
","
","","","-1","","","22","4922","314","y","elianto","#f73b6a7A"," ","-1","0","-10","[]","0","2","","","4922","34","2","3","lose","go","0"
"pit-trial","156","1032679","0.0-39.0","battery-v0.2","","""event"",""trial"",""time""
""fullscreenenter"",""1"",""1865""
","
","
","""event"",""trial"",""time""
""fullscreenenter"",""1"",""1865""
","
","","","565.5","","","22","4922","314","r","elianto","#3366ff99","-1"," ","0","0","[1416.1000000238419]","1","2","","","4922","35","1","2","win","no-go","0"
"pit-trial","157","1037543","0.0-40.0","battery-v0.2","","""event"",""trial"",""time""
""fullscreenenter"",""1"",""1865""
","
","
","""event"",""trial"",""time""
""fullscreenenter"",""1"",""1865""
","
","","","-1","","","22","4922","314","m","elianto","#f73b6a7A"," ","-1","0","-10","[]","0","2","","","4922","36","0","3","lose","go","0"
"pit-trial","158","1042413","0.0-41.0","battery-v0.2","","""event"",""trial"",""time""
""fullscreenenter"",""1"",""1865""
","
","
","""event"",""trial"",""time""
""fullscreenenter"",""1"",""1865""
","
","","","-1","","","22","4922","314","m","elianto","#f73b6a7A"," ","-1","0","0","[]","0","2","","","4922","37","0","3","lose","go","1"
"pit-trial","159","1047277","0.0-42.0","battery-v0.2","","""event"",""trial"",""time""
""fullscreenenter"",""1"",""1865""
","
","
","""event"",""trial"",""time""
""fullscreenenter"",""1"",""1865""
","
","","","-1","","","22","4922","314","y","elianto","#f73b6a7A"," ","-1","0","-10","[]","0","2","","","4922","38","2","3","lose","go","0"
"pit-trial","160","1050737","0.0-43.0","battery-v0.2","","""event"",""trial"",""time""
""fullscreenenter"",""1"",""1865""
","
","
","""event"",""trial"",""time""
""fullscreenenter"",""1"",""1865""
","
","","","597.8000000119209","","","22","4922","314","r","elianto","#3366ff99","-1"," ","0","0","[1448]","1","2","","","4922","39","1","2","win","no-go","0"
"pit-trial","161","1055601","0.0-44.0","battery-v0.2","","""event"",""trial"",""time""
""fullscreenenter"",""1"",""1865""
","
","
","""event"",""trial"",""time""
""fullscreenenter"",""1"",""1865""
","
","","","-1","","","22","4922","314","h","elianto","#f73b6a7A","-1","-1","1","0","[]","0","2","","","4922","40","3","4","lose","no-go","0"
"pit-trial","162","1059094","0.0-45.0","battery-v0.2","","""event"",""trial"",""time""
""fullscreenenter"",""1"",""1865""
","
","
","""event"",""trial"",""time""
""fullscreenenter"",""1"",""1865""
","
","","","629.6999999880791","","","22","4922","314","r","elianto","#3366ff99","-1"," ","0","0","[1480.699999988079]","1","2","","","4922","41","1","2","win","no-go","0"
"pit-trial","163","1063958","0.0-46.0","battery-v0.2","","""event"",""trial"",""time""
""fullscreenenter"",""1"",""1865""
","
","
","""event"",""trial"",""time""
""fullscreenenter"",""1"",""1865""
","
","","","-1","","","22","4922","314","h","elianto","#f73b6a7A","-1","-1","1","0","[]","0","2","","","4922","42","3","4","lose","no-go","0"
"pit-trial","164","1068823","0.0-47.0","battery-v0.2","","""event"",""trial"",""time""
""fullscreenenter"",""1"",""1865""
","
","
","""event"",""trial"",""time""
""fullscreenenter"",""1"",""1865""
","
","","","-1","","","22","4922","314","y","elianto","#f73b6a7A"," ","-1","0","-10","[]","0","2","","","4922","43","2","3","lose","go","0"
"pit-trial","165","1073687","0.0-48.0","battery-v0.2","","""event"",""trial"",""time""
""fullscreenenter"",""1"",""1865""
","
","
","""event"",""trial"",""time""
""fullscreenenter"",""1"",""1865""
","
","","","-1","","","22","4922","314","m","elianto","#f73b6a7A"," ","-1","0","-10","[]","0","2","","","4922","44","0","3","lose","go","0"
"pit-trial","166","1078556","0.0-49.0","battery-v0.2","","""event"",""trial"",""time""
""fullscreenenter"",""1"",""1865""
","
","
","""event"",""trial"",""time""
""fullscreenenter"",""1"",""1865""
","
","","","-1","","","22","4922","314","m","elianto","#f73b6a7A"," ","-1","0","0","[]","0","2","","","4922","45","0","3","lose","go","1"
"pit-trial","167","1083426","0.0-50.0","battery-v0.2","","""event"",""trial"",""time""
""fullscreenenter"",""1"",""1865""
","
","
","""event"",""trial"",""time""
""fullscreenenter"",""1"",""1865""
","
","","","-1","","","22","4922","314","y","elianto","#f73b6a7A"," ","-1","0","-10","[]","0","2","","","4922","46","2","3","lose","go","0"
"pit-trial","168","1086969","0.0-51.0","battery-v0.2","","""event"",""trial"",""time""
""fullscreenenter"",""1"",""1865""
","
","
","""event"",""trial"",""time""
""fullscreenenter"",""1"",""1865""
","
","","","681.1999999880791","","","22","4922","314","r","elianto","#3366ff99","-1"," ","0","+10","[1532.5]","1","2","","","4922","47","1","2","win","no-go","1"
"pit-trial","169","1091837","0.0-52.0","battery-v0.2","","""event"",""trial"",""time""
""fullscreenenter"",""1"",""1865""
","
","
","""event"",""trial"",""time""
""fullscreenenter"",""1"",""1865""
","
","","","-1","","","22","4922","314","h","elianto","#f73b6a7A","-1","-1","1","0","[]","0","2","","","4922","48","3","4","lose","no-go","0"
"pit-trial","170","1096706","0.0-53.0","battery-v0.2","","""event"",""trial"",""time""
""fullscreenenter"",""1"",""1865""
","
","
","""event"",""trial"",""time""
""fullscreenenter"",""1"",""1865""
","
","","","-1","","","22","4922","314","h","elianto","#f73b6a7A","-1","-1","1","-10","[]","0","2","","","4922","49","3","4","lose","no-go","1"
"pit-trial","171","1100072","0.0-54.0","battery-v0.2","","""event"",""trial"",""time""
""fullscreenenter"",""1"",""1865""
","
","
","""event"",""trial"",""time""
""fullscreenenter"",""1"",""1865""
","
","","","501.30000001192093","","","22","4922","314","r","elianto","#3366ff99","-1"," ","0","0","[1351.699999988079]","1","2","","","4922","50","1","2","win","no-go","0"
"pit-trial","172","1104941","0.0-55.0","battery-v0.2","","""event"",""trial"",""time""
""fullscreenenter"",""1"",""1865""
","
","
","""event"",""trial"",""time""
""fullscreenenter"",""1"",""1865""
","
","","","-1","","","22","4922","314","m","elianto","#f73b6a7A"," ","-1","0","-10","[]","0","2","","","4922","51","0","3","lose","go","0"
"pit-trial","173","1109810","0.0-56.0","battery-v0.2","","""event"",""trial"",""time""
""fullscreenenter"",""1"",""1865""
","
","
","""event"",""trial"",""time""
""fullscreenenter"",""1"",""1865""
","
","","","-1","","","22","4922","314","y","elianto","#f73b6a7A"," ","-1","0","0","[]","0","2","","","4922","52","2","3","lose","go","1"
"pit-trial","174","1114678","0.0-57.0","battery-v0.2","","""event"",""trial"",""time""
""fullscreenenter"",""1"",""1865""
","
","
","""event"",""trial"",""time""
""fullscreenenter"",""1"",""1865""
","
","","","-1","","","22","4922","314","m","elianto","#f73b6a7A"," ","-1","0","0","[]","0","2","","","4922","53","0","3","lose","go","1"
"pit-trial","175","1119542","0.0-58.0","battery-v0.2","","""event"",""trial"",""time""
""fullscreenenter"",""1"",""1865""
","
","
","""event"",""trial"",""time""
""fullscreenenter"",""1"",""1865""
","
","","","-1","","","22","4922","314","h","elianto","#f73b6a7A","-1","-1","1","0","[]","0","2","","","4922","54","3","4","lose","no-go","0"
"pit-trial","176","1124407","0.0-59.0","battery-v0.2","","""event"",""trial"",""time""
""fullscreenenter"",""1"",""1865""
","
","
","""event"",""trial"",""time""
""fullscreenenter"",""1"",""1865""
","
","","","-1","","","22","4922","314","y","elianto","#f73b6a7A"," ","-1","0","-10","[]","0","2","","","4922","55","2","3","lose","go","0"
"pit-trial","177","1127761","0.0-60.0","battery-v0.2","","""event"",""trial"",""time""
""fullscreenenter"",""1"",""1865""
","
","
","""event"",""trial"",""time""
""fullscreenenter"",""1"",""1865""
","
","","","490.7000000476837","","","22","4922","314","r","elianto","#3366ff99","-1"," ","0","+10","[1342.1000000238419]","1","2","","","4922","56","1","2","win","no-go","1"
"pit-trial","178","1131292","0.0-61.0","battery-v0.2","","""event"",""trial"",""time""
""fullscreenenter"",""1"",""1865""
","
","
","""event"",""trial"",""time""
""fullscreenenter"",""1"",""1865""
","
","","","667.8999999761581","","","22","4922","314","z","elianto","#3366ff99"," "," ","1","+10","[1517.9000000357628]","1","2","","","4922","57","4","1","win","go","0"
"pit-trial","179","1136156","0.0-62.0","battery-v0.2","","""event"",""trial"",""time""
""fullscreenenter"",""1"",""1865""
","
","
","""event"",""trial"",""time""
""fullscreenenter"",""1"",""1865""
","
","","","-1","","","22","4922","314","h","elianto","#f73b6a7A","-1","-1","1","0","[]","0","2","","","4922","58","3","4","lose","no-go","0"
"pit-trial","180","1141019","0.0-63.0","battery-v0.2","","""event"",""trial"",""time""
""fullscreenenter"",""1"",""1865""
","
","
","""event"",""trial"",""time""
""fullscreenenter"",""1"",""1865""
","
","","","-1","","","22","4922","314","m","elianto","#f73b6a7A"," ","-1","0","-10","[]","0","2","","","4922","59","0","3","lose","go","0"
"pit-trial","181","1145884","0.0-64.0","battery-v0.2","","""event"",""trial"",""time""
""fullscreenenter"",""1"",""1865""
","
","
","""event"",""trial"",""time""
""fullscreenenter"",""1"",""1865""
","
","","","-1","","","22","4922","314","y","elianto","#f73b6a7A"," ","-1","0","0","[]","0","2","","","4922","60","2","3","lose","go","1"
"pit-trial","182","1149340","0.0-65.0","battery-v0.2","","""event"",""trial"",""time""
""fullscreenenter"",""1"",""1865""
","
","
","""event"",""trial"",""time""
""fullscreenenter"",""1"",""1865""
","
","","","593.2000000476837","","","22","4922","314","z","elianto","#3366ff99"," "," ","1","+10","[1444]","1","2","","","4922","61","4","1","win","go","0"
"pit-trial","183","1152786","0.0-66.0","battery-v0.2","","""event"",""trial"",""time""
""fullscreenenter"",""1"",""1865""
","
","
","""event"",""trial"",""time""
""fullscreenenter"",""1"",""1865""
","
","","","579.5999999642372","","","22","4922","314","r","elianto","#3366ff99","-1"," ","0","+10","[1430.9000000357628]","1","2","","","4922","62","1","2","win","no-go","1"
"pit-trial","184","1157654","0.0-67.0","battery-v0.2","","""event"",""trial"",""time""
""fullscreenenter"",""1"",""1865""
","
","
","""event"",""trial"",""time""
""fullscreenenter"",""1"",""1865""
","
","","","-1","","","22","4922","314","h","elianto","#f73b6a7A","-1","-1","1","0","[]","0","2","","","4922","63","3","4","lose","no-go","0"
"pit-trial","185","1162520","0.0-68.0","battery-v0.2","","""event"",""trial"",""time""
""fullscreenenter"",""1"",""1865""
","
","
","""event"",""trial"",""time""
""fullscreenenter"",""1"",""1865""
","
","","","-1","","","22","4922","314","y","elianto","#f73b6a7A"," ","-1","0","-10","[]","0","2","","","4922","64","2","3","lose","go","0"
"pit-trial","186","1167389","0.0-69.0","battery-v0.2","","""event"",""trial"",""time""
""fullscreenenter"",""1"",""1865""
","
","
","""event"",""trial"",""time""
""fullscreenenter"",""1"",""1865""
","
","","","-1","","","22","4922","314","h","elianto","#f73b6a7A","-1","-1","1","-10","[]","0","2","","","4922","65","3","4","lose","no-go","1"
"pit-trial","187","1170815","0.0-70.0","battery-v0.2","","""event"",""trial"",""time""
""fullscreenenter"",""1"",""1865""
","
","
","""event"",""trial"",""time""
""fullscreenenter"",""1"",""1865""
","
","","","564.1999999880791","","","22","4922","314","c","elianto","#3366ff99","-1"," ","0","0","[1414.4000000357628]","1","2","","","4922","66","5","2","win","no-go","0"
"pit-trial","188","1174209","0.0-71.0","battery-v0.2","","""event"",""trial"",""time""
""fullscreenenter"",""1"",""1865""
","
","
","""event"",""trial"",""time""
""fullscreenenter"",""1"",""1865""
","
","","","529.6999999880791","","","22","4922","314","r","elianto","#3366ff99","-1"," ","0","+10","[1381.1000000238419]","1","2","","","4922","67","1","2","win","no-go","1"
"pit-trial","189","1177633","0.0-72.0","battery-v0.2","","""event"",""trial"",""time""
""fullscreenenter"",""1"",""1865""
","
","
","""event"",""trial"",""time""
""fullscreenenter"",""1"",""1865""
","
","","","563.7999999523163","","","22","4922","314","z","elianto","#3366ff99"," "," ","1","+10","[1414]","1","2","","","4922","68","4","1","win","go","0"
"pit-trial","190","1182497","0.0-73.0","battery-v0.2","","""event"",""trial"",""time""
""fullscreenenter"",""1"",""1865""
","
","
","""event"",""trial"",""time""
""fullscreenenter"",""1"",""1865""
","
","","","-1","","","22","4922","314","y","elianto","#f73b6a7A"," ","-1","0","-10","[]","0","2","","","4922","69","2","3","lose","go","0"
"pit-trial","191","1185879","0.0-74.0","battery-v0.2","","""event"",""trial"",""time""
""fullscreenenter"",""1"",""1865""
","
","
","""event"",""trial"",""time""
""fullscreenenter"",""1"",""1865""
","
","","","517","","","22","4922","314","c","elianto","#3366ff99","-1"," ","0","0","[1367.3999999761581]","1","2","","","4922","70","5","2","win","no-go","0"
"pit-trial","192","1189271","0.0-75.0","battery-v0.2","","""event"",""trial"",""time""
""fullscreenenter"",""1"",""1865""
","
","
","""event"",""trial"",""time""
""fullscreenenter"",""1"",""1865""
","
","","","528.0999999642372","","","22","4922","314","r","elianto","#3366ff99","-1"," ","0","+10","[1378.300000011921]","1","2","","","4922","71","1","2","win","no-go","1"
"pit-trial","193","1192663","0.0-76.0","battery-v0.2","","""event"",""trial"",""time""
""fullscreenenter"",""1"",""1865""
","
","
","""event"",""trial"",""time""
""fullscreenenter"",""1"",""1865""
","
","","","530.6999999880791","","","22","4922","314","z","elianto","#3366ff99"," "," ","1","+10","[1381.6000000238419]","1","2","","","4922","72","4","1","win","go","0"
"pit-trial","194","1197527","0.0-77.0","battery-v0.2","","""event"",""trial"",""time""
""fullscreenenter"",""1"",""1865""
","
","
","""event"",""trial"",""time""
""fullscreenenter"",""1"",""1865""
","
","","","-1","","","22","4922","314","h","elianto","#f73b6a7A","-1","-1","1","0","[]","0","2","","","4922","73","3","4","lose","no-go","0"
"pit-trial","195","1201005","0.0-78.0","battery-v0.2","","""event"",""trial"",""time""
""fullscreenenter"",""1"",""1865""
","
","
","""event"",""trial"",""time""
""fullscreenenter"",""1"",""1865""
","
","","","618.1000000238419","","","22","4922","314","z","elianto","#3366ff99"," "," ","1","+10","[1468.300000011921]","1","2","","","4922","74","4","1","win","go","0"
"pit-trial","196","1204455","0.0-79.0","battery-v0.2","","""event"",""trial"",""time""
""fullscreenenter"",""1"",""1865""
","
","
","""event"",""trial"",""time""
""fullscreenenter"",""1"",""1865""
","
","","","590.4000000357628","","","22","4922","314","r","elianto","#3366ff99","-1"," ","0","0","[1440.5]","1","2","","","4922","75","1","2","win","no-go","0"
"pit-trial","197","1207869","0.0-80.0","battery-v0.2","","""event"",""trial"",""time""
""fullscreenenter"",""1"",""1865""
","
","
","""event"",""trial"",""time""
""fullscreenenter"",""1"",""1865""
","
","","","549.8000000119209","","","22","4922","314","c","elianto","#3366ff99","-1"," ","0","+10","[1399.800000011921]","1","2","","","4922","76","5","2","win","no-go","1"
"pit-trial","198","1211223","0.0-81.0","battery-v0.2","","""event"",""trial"",""time""
""fullscreenenter"",""1"",""1865""
","
","
","""event"",""trial"",""time""
""fullscreenenter"",""1"",""1865""
","
","","","492.5","","","22","4922","314","c","elianto","#3366ff99","-1"," ","0","0","[1342.9000000357628]","1","2","","","4922","77","5","2","win","no-go","0"
"pit-trial","199","1214578","0.0-82.0","battery-v0.2","","""event"",""trial"",""time""
""fullscreenenter"",""1"",""1865""
","
","
","""event"",""trial"",""time""
""fullscreenenter"",""1"",""1865""
","
","","","492.0999999642372","","","22","4922","314","z","elianto","#3366ff99"," "," ","1","+10","[1342.6000000238419]","1","2","","","4922","78","4","1","win","go","0"
"pit-trial","200","1218065","0.0-83.0","battery-v0.2","","""event"",""trial"",""time""
""fullscreenenter"",""1"",""1865""
","
","
","""event"",""trial"",""time""
""fullscreenenter"",""1"",""1865""
","
","","","621.8000000119209","","","22","4922","314","z","elianto","#3366ff99"," "," ","1","+10","[1471.8999999761581]","1","2","","","4922","79","4","1","win","go","0"
"pit-trial","201","1222930","0.0-84.0","battery-v0.2","","""event"",""trial"",""time""
""fullscreenenter"",""1"",""1865""
","
","
","""event"",""trial"",""time""
""fullscreenenter"",""1"",""1865""
","
","","","-1","","","22","4922","314","h","elianto","#f73b6a7A","-1","-1","1","0","[]","0","2","","","4922","80","3","4","lose","no-go","0"
"pit-trial","202","1226449","0.0-85.0","battery-v0.2","","""event"",""trial"",""time""
""fullscreenenter"",""1"",""1865""
","
","
","""event"",""trial"",""time""
""fullscreenenter"",""1"",""1865""
","
","","","657","","","22","4922","314","z","elianto","#3366ff99"," "," ","1","+10","[1507.7000000476837]","1","2","","","4922","81","4","1","win","go","0"
"pit-trial","203","1231316","0.0-86.0","battery-v0.2","","""event"",""trial"",""time""
""fullscreenenter"",""1"",""1865""
","
","
","""event"",""trial"",""time""
""fullscreenenter"",""1"",""1865""
","
","","","-1","","","22","4922","314","h","elianto","#f73b6a7A","-1","-1","1","0","[]","0","2","","","4922","82","3","4","lose","no-go","0"
"pit-trial","204","1234801","0.0-87.0","battery-v0.2","","""event"",""trial"",""time""
""fullscreenenter"",""1"",""1865""
","
","
","""event"",""trial"",""time""
""fullscreenenter"",""1"",""1865""
","
","","","620.5","","","22","4922","314","c","elianto","#3366ff99","-1"," ","0","0","[1470.9000000357628]","1","2","","","4922","83","5","2","win","no-go","0"
"pit-trial","205","1239665","0.0-88.0","battery-v0.2","","""event"",""trial"",""time""
""fullscreenenter"",""1"",""1865""
","
","
","""event"",""trial"",""time""
""fullscreenenter"",""1"",""1865""
","
","","","-1","","","22","4922","314","t","elianto","#f73b6a7A","-1","-1","1","0","[]","0","2","","","4922","84","7","4","lose","no-go","0"
"pit-trial","206","1243394","0.0-89.0","battery-v0.2","","""event"",""trial"",""time""
""fullscreenenter"",""1"",""1865""
","
","
","""event"",""trial"",""time""
""fullscreenenter"",""1"",""1865""
","
","","","864","","","22","4922","314","z","elianto","#3366ff99"," "," ","1","+10","[1714.4000000357628]","1","2","","","4922","85","4","1","win","go","0"
"pit-trial","207","1248263","0.0-90.0","battery-v0.2","","""event"",""trial"",""time""
""fullscreenenter"",""1"",""1865""
","
","
","""event"",""trial"",""time""
""fullscreenenter"",""1"",""1865""
","
","","","-1","","","22","4922","314","t","elianto","#f73b6a7A","-1","-1","1","0","[]","0","2","","","4922","86","7","4","lose","no-go","0"
"pit-trial","208","1251820","0.0-91.0","battery-v0.2","","""event"",""trial"",""time""
""fullscreenenter"",""1"",""1865""
","
","
","""event"",""trial"",""time""
""fullscreenenter"",""1"",""1865""
","
","","","695.6999999880791","","","22","4922","314","c","elianto","#3366ff99","-1"," ","0","0","[1545.699999988079]","1","2","","","4922","87","5","2","win","no-go","0"
"pit-trial","209","1256684","0.0-92.0","battery-v0.2","","""event"",""trial"",""time""
""fullscreenenter"",""1"",""1865""
","
","
","""event"",""trial"",""time""
""fullscreenenter"",""1"",""1865""
","
","","","-1","","","22","4922","314","b","elianto","#f73b6a7A"," ","-1","0","-10","[]","0","2","","","4922","88","6","3","lose","go","0"
"pit-trial","210","1260204","0.0-93.0","battery-v0.2","","""event"",""trial"",""time""
""fullscreenenter"",""1"",""1865""
","
","
","""event"",""trial"",""time""
""fullscreenenter"",""1"",""1865""
","
","","","654.5","","","22","4922","314","c","elianto","#3366ff99","-1"," ","0","0","[1504.6000000238419]","1","2","","","4922","89","5","2","win","no-go","0"
"pit-trial","211","1265069","0.0-94.0","battery-v0.2","","""event"",""trial"",""time""
""fullscreenenter"",""1"",""1865""
","
","
","""event"",""trial"",""time""
""fullscreenenter"",""1"",""1865""
","
","","","-1","","","22","4922","314","b","elianto","#f73b6a7A"," ","-1","0","-10","[]","0","2","","","4922","90","6","3","lose","go","0"
"pit-trial","212","1268482","0.0-95.0","battery-v0.2","","""event"",""trial"",""time""
""fullscreenenter"",""1"",""1865""
","
","
","""event"",""trial"",""time""
""fullscreenenter"",""1"",""1865""
","
","","","550.6000000238419","","","22","4922","314","z","elianto","#3366ff99"," "," ","1","+10","[1401.5]","1","2","","","4922","91","4","1","win","go","0"
"pit-trial","213","1273346","0.0-96.0","battery-v0.2","","""event"",""trial"",""time""
""fullscreenenter"",""1"",""1865""
","
","
","""event"",""trial"",""time""
""fullscreenenter"",""1"",""1865""
","
","","","-1","","","22","4922","314","t","elianto","#f73b6a7A","-1","-1","1","-10","[]","0","2","","","4922","92","7","4","lose","no-go","1"
"pit-trial","214","1276941","0.0-97.0","battery-v0.2","","""event"",""trial"",""time""
""fullscreenenter"",""1"",""1865""
","
","
","""event"",""trial"",""time""
""fullscreenenter"",""1"",""1865""
","
","","","732.7000000476837","","","22","4922","314","f","elianto","#3366ff99"," "," ","1","+10","[1582.6000000238419]","1","2","","","4922","93","8","1","win","go","0"
"pit-trial","215","1281810","0.0-98.0","battery-v0.2","","""event"",""trial"",""time""
""fullscreenenter"",""1"",""1865""
","
","
","""event"",""trial"",""time""
""fullscreenenter"",""1"",""1865""
","
","","","-1","","","22","4922","314","t","elianto","#f73b6a7A","-1","-1","1","0","[]","0","2","","","4922","94","7","4","lose","no-go","0"
"pit-trial","216","1285260","0.0-99.0","battery-v0.2","","""event"",""trial"",""time""
""fullscreenenter"",""1"",""1865""
","
","
","""event"",""trial"",""time""
""fullscreenenter"",""1"",""1865""
","
","","","588.0999999642372","","","22","4922","314","c","elianto","#3366ff99","-1"," ","0","0","[1438.6000000238419]","1","2","","","4922","95","5","2","win","no-go","0"
"pit-trial","217","1290124","0.0-100.0","battery-v0.2","","""event"",""trial"",""time""
""fullscreenenter"",""1"",""1865""
","
","
","""event"",""trial"",""time""
""fullscreenenter"",""1"",""1865""
","
","","","-1","","","22","4922","314","b","elianto","#f73b6a7A"," ","-1","0","-10","[]","0","2","","","4922","96","6","3","lose","go","0"
"pit-trial","218","1293521","0.0-101.0","battery-v0.2","","""event"",""trial"",""time""
""fullscreenenter"",""1"",""1865""
","
","
","""event"",""trial"",""time""
""fullscreenenter"",""1"",""1865""
","
","","","533","","","22","4922","314","c","elianto","#3366ff99","-1"," ","0","0","[1384.1000000238419]","1","2","","","4922","97","5","2","win","no-go","0"
"pit-trial","219","1298385","0.0-102.0","battery-v0.2","","""event"",""trial"",""time""
""fullscreenenter"",""1"",""1865""
","
","
","""event"",""trial"",""time""
""fullscreenenter"",""1"",""1865""
","
","","","-1","","","22","4922","314","b","elianto","#f73b6a7A"," ","-1","0","-10","[]","0","2","","","4922","98","6","3","lose","go","0"
"pit-trial","220","1301820","0.0-103.0","battery-v0.2","","""event"",""trial"",""time""
""fullscreenenter"",""1"",""1865""
","
","
","""event"",""trial"",""time""
""fullscreenenter"",""1"",""1865""
","
","","","572.5","","","22","4922","314","f","elianto","#3366ff99"," "," ","1","0","[1422.5]","1","2","","","4922","99","8","1","win","go","1"
"pit-trial","221","1306684","0.0-104.0","battery-v0.2","","""event"",""trial"",""time""
""fullscreenenter"",""1"",""1865""
","
","
","""event"",""trial"",""time""
""fullscreenenter"",""1"",""1865""
","
","","","-1","","","22","4922","314","t","elianto","#f73b6a7A","-1","-1","1","-10","[]","0","2","","","4922","100","7","4","lose","no-go","1"
"pit-trial","222","1310183","0.0-105.0","battery-v0.2","","""event"",""trial"",""time""
""fullscreenenter"",""1"",""1865""
","
","
","""event"",""trial"",""time""
""fullscreenenter"",""1"",""1865""
","
","","","635.5","","","22","4922","314","c","elianto","#3366ff99","-1"," ","0","0","[1486]","1","2","","","4922","101","5","2","win","no-go","0"
"pit-trial","223","1313639","0.0-106.0","battery-v0.2","","""event"",""trial"",""time""
""fullscreenenter"",""1"",""1865""
","
","
","""event"",""trial"",""time""
""fullscreenenter"",""1"",""1865""
","
","","","591.6000000238419","","","22","4922","314","f","elianto","#3366ff99"," "," ","1","0","[1441.3999999761581]","1","2","","","4922","102","8","1","win","go","1"
"pit-trial","224","1318503","0.0-107.0","battery-v0.2","","""event"",""trial"",""time""
""fullscreenenter"",""1"",""1865""
","
","
","""event"",""trial"",""time""
""fullscreenenter"",""1"",""1865""
","
","","","-1","","","22","4922","314","t","elianto","#f73b6a7A","-1","-1","1","0","[]","0","2","","","4922","103","7","4","lose","no-go","0"
"pit-trial","225","1322439","0.0-108.0","battery-v0.2","","""event"",""trial"",""time""
""fullscreenenter"",""1"",""1865""
","
","
","""event"",""trial"",""time""
""fullscreenenter"",""1"",""1865""
","
","","","1074.8999999761581","","","22","4922","314","n","elianto","#3366ff99"," "," ","1","+10","[1925.3999999761581]","1","2","","","4922","104","9","1","win","go","0"
"pit-trial","226","1326087","0.0-109.0","battery-v0.2","","""event"",""trial"",""time""
""fullscreenenter"",""1"",""1865""
","
","
","""event"",""trial"",""time""
""fullscreenenter"",""1"",""1865""
","
","","","784.1999999880791","","","22","4922","314","f","elianto","#3366ff99"," "," ","1","+10","[1634.800000011921]","1","2","","","4922","105","8","1","win","go","0"
"pit-trial","227","1329842","0.0-110.0","battery-v0.2","","""event"",""trial"",""time""
""fullscreenenter"",""1"",""1865""
","
","
","""event"",""trial"",""time""
""fullscreenenter"",""1"",""1865""
","
","","","892.8999999761581","","","22","4922","314","n","elianto","#3366ff99"," "," ","1","0","[1743.5]","1","2","","","4922","106","9","1","win","go","1"
"pit-trial","228","1334712","0.0-111.0","battery-v0.2","","""event"",""trial"",""time""
""fullscreenenter"",""1"",""1865""
","
","
","""event"",""trial"",""time""
""fullscreenenter"",""1"",""1865""
","
","","","-1","","","22","4922","314","b","elianto","#f73b6a7A"," ","-1","0","-10","[]","0","2","","","4922","107","6","3","lose","go","0"
"pit-trial","229","1338290","0.0-112.0","battery-v0.2","","""event"",""trial"",""time""
""fullscreenenter"",""1"",""1865""
","
","
","""event"",""trial"",""time""
""fullscreenenter"",""1"",""1865""
","
","","","716.4000000357628","","","22","4922","314","z","elianto","#3366ff99"," "," ","1","0","[1566.3999999761581]","1","2","","","4922","108","4","1","win","go","1"
"pit-trial","230","1341804","0.0-113.0","battery-v0.2","","""event"",""trial"",""time""
""fullscreenenter"",""1"",""1865""
","
","
","""event"",""trial"",""time""
""fullscreenenter"",""1"",""1865""
","
","","","653.3999999761581","","","22","4922","314","n","elianto","#3366ff99"," "," ","1","+10","[1503.699999988079]","1","2","","","4922","109","9","1","win","go","0"
"pit-trial","231","1346668","0.0-114.0","battery-v0.2","","""event"",""trial"",""time""
""fullscreenenter"",""1"",""1865""
","
","
","""event"",""trial"",""time""
""fullscreenenter"",""1"",""1865""
","
","","","-1","","","22","4922","314","b","elianto","#f73b6a7A"," ","-1","0","-10","[]","0","2","","","4922","110","6","3","lose","go","0"
"pit-trial","232","1350236","0.0-115.0","battery-v0.2","","""event"",""trial"",""time""
""fullscreenenter"",""1"",""1865""
","
","
","""event"",""trial"",""time""
""fullscreenenter"",""1"",""1865""
","
","","","708.5999999642372","","","22","4922","314","c","elianto","#3366ff99","-1"," ","0","0","[1558.8999999761581]","1","2","","","4922","111","5","2","win","no-go","0"
"pit-trial","233","1353788","0.0-116.0","battery-v0.2","","""event"",""trial"",""time""
""fullscreenenter"",""1"",""1865""
","
","
","""event"",""trial"",""time""
""fullscreenenter"",""1"",""1865""
","
","","","691.8999999761581","","","22","4922","314","f","elianto","#3366ff99"," "," ","1","+10","[1542.1000000238419]","1","2","","","4922","112","8","1","win","go","0"
"pit-trial","234","1357372","0.0-117.0","battery-v0.2","","""event"",""trial"",""time""
""fullscreenenter"",""1"",""1865""
","
","
","""event"",""trial"",""time""
""fullscreenenter"",""1"",""1865""
","
","","","719.3999999761581","","","22","4922","314","n","elianto","#3366ff99"," "," ","1","0","[1569.699999988079]","1","2","","","4922","113","9","1","win","go","1"
"pit-trial","235","1362236","0.0-118.0","battery-v0.2","","""event"",""trial"",""time""
""fullscreenenter"",""1"",""1865""
","
","
","""event"",""trial"",""time""
""fullscreenenter"",""1"",""1865""
","
","","","-1","","","22","4922","314","b","elianto","#f73b6a7A"," ","-1","0","-10","[]","0","2","","","4922","114","6","3","lose","go","0"
"pit-trial","236","1365751","0.0-119.0","battery-v0.2","","""event"",""trial"",""time""
""fullscreenenter"",""1"",""1865""
","
","
","""event"",""trial"",""time""
""fullscreenenter"",""1"",""1865""
","
","","","653.6000000238419","","","22","4922","314","f","elianto","#3366ff99"," "," ","1","+10","[1503.5]","1","2","","","4922","115","8","1","win","go","0"
"pit-trial","237","1369223","0.0-120.0","battery-v0.2","","""event"",""trial"",""time""
""fullscreenenter"",""1"",""1865""
","
","
","""event"",""trial"",""time""
""fullscreenenter"",""1"",""1865""
","
","","","612","","","22","4922","314","c","elianto","#3366ff99","-1"," ","0","0","[1462.1000000238419]","1","2","","","4922","116","5","2","win","no-go","0"
"pit-trial","238","1372625","0.0-121.0","battery-v0.2","","""event"",""trial"",""time""
""fullscreenenter"",""1"",""1865""
","
","
","""event"",""trial"",""time""
""fullscreenenter"",""1"",""1865""
","
","","","539.3000000119209","","","22","4922","314","n","elianto","#3366ff99"," "," ","1","+10","[1389.800000011921]","1","2","","","4922","117","9","1","win","go","0"
"pit-trial","239","1376034","0.0-122.0","battery-v0.2","","""event"",""trial"",""time""
""fullscreenenter"",""1"",""1865""
","
","
","""event"",""trial"",""time""
""fullscreenenter"",""1"",""1865""
","
","","","547.1000000238419","","","22","4922","314","f","elianto","#3366ff99"," "," ","1","+10","[1397.8999999761581]","1","2","","","4922","118","8","1","win","go","0"
"pit-trial","240","1380898","0.0-123.0","battery-v0.2","","""event"",""trial"",""time""
""fullscreenenter"",""1"",""1865""
","
","
","""event"",""trial"",""time""
""fullscreenenter"",""1"",""1865""
","
","","","-1","","","22","4922","314","b","elianto","#f73b6a7A"," ","-1","0","-10","[]","0","2","","","4922","119","6","3","lose","go","0"
"pit-trial","241","1384397","0.0-124.0","battery-v0.2","","""event"",""trial"",""time""
""fullscreenenter"",""1"",""1865""
","
","
","""event"",""trial"",""time""
""fullscreenenter"",""1"",""1865""
","
","","","635.8999999761581","","","22","4922","314","c","elianto","#3366ff99","-1"," ","0","0","[1486]","1","2","","","4922","120","5","2","win","no-go","0"
"pit-trial","242","1389266","0.0-125.0","battery-v0.2","","""event"",""trial"",""time""
""fullscreenenter"",""1"",""1865""
","
","
","""event"",""trial"",""time""
""fullscreenenter"",""1"",""1865""
","
","","","-1","","","22","4922","314","t","elianto","#f73b6a7A","-1","-1","1","0","[]","0","2","","","4922","121","7","4","lose","no-go","0"
"pit-trial","243","1392706","0.0-126.0","battery-v0.2","","""event"",""trial"",""time""
""fullscreenenter"",""1"",""1865""
","
","
","""event"",""trial"",""time""
""fullscreenenter"",""1"",""1865""
","
","","","575","","","22","4922","314","n","elianto","#3366ff99"," "," ","1","+10","[1425.5]","1","2","","","4922","122","9","1","win","go","0"
"pit-trial","244","1397569","0.0-127.0","battery-v0.2","","""event"",""trial"",""time""
""fullscreenenter"",""1"",""1865""
","
","
","""event"",""trial"",""time""
""fullscreenenter"",""1"",""1865""
","
","","","-1","","","22","4922","314","b","elianto","#f73b6a7A"," ","-1","0","-10","[]","0","2","","","4922","123","6","3","lose","go","0"
"pit-trial","245","1401004","0.0-128.0","battery-v0.2","","""event"",""trial"",""time""
""fullscreenenter"",""1"",""1865""
","
","
","""event"",""trial"",""time""
""fullscreenenter"",""1"",""1865""
","
","","","573","","","22","4922","314","f","elianto","#3366ff99"," "," ","1","0","[1424.1000000238419]","1","2","","","4922","124","8","1","win","go","1"
"pit-trial","246","1404481","0.0-129.0","battery-v0.2","","""event"",""trial"",""time""
""fullscreenenter"",""1"",""1865""
","
","
","""event"",""trial"",""time""
""fullscreenenter"",""1"",""1865""
","
","","","614.3000000119209","","","22","4922","314","f","elianto","#3366ff99"," "," ","1","+10","[1464.300000011921]","1","2","","","4922","125","8","1","win","go","0"
"pit-trial","247","1407873","0.0-130.0","battery-v0.2","","""event"",""trial"",""time""
""fullscreenenter"",""1"",""1865""
","
","
","""event"",""trial"",""time""
""fullscreenenter"",""1"",""1865""
","
","","","531.1999999880791","","","22","4922","314","n","elianto","#3366ff99"," "," ","1","+10","[1381.5]","1","2","","","4922","126","9","1","win","go","0"
"pit-trial","248","1412743","0.0-131.0","battery-v0.2","","""event"",""trial"",""time""
""fullscreenenter"",""1"",""1865""
","
","
","""event"",""trial"",""time""
""fullscreenenter"",""1"",""1865""
","
","","","-1","","","22","4922","314","t","elianto","#f73b6a7A","-1","-1","1","0","[]","0","2","","","4922","127","7","4","lose","no-go","0"
"pit-trial","249","1417607","0.0-132.0","battery-v0.2","","""event"",""trial"",""time""
""fullscreenenter"",""1"",""1865""
","
","
","""event"",""trial"",""time""
""fullscreenenter"",""1"",""1865""
","
","","","-1","","","22","4922","314","b","elianto","#f73b6a7A"," ","-1","0","0","[]","0","2","","","4922","128","6","3","lose","go","1"
"pit-trial","250","1422470","0.0-133.0","battery-v0.2","","""event"",""trial"",""time""
""fullscreenenter"",""1"",""1865""
","
","
","""event"",""trial"",""time""
""fullscreenenter"",""1"",""1865""
","
","","","-1","","","22","4922","314","b","elianto","#f73b6a7A"," ","-1","0","-10","[]","0","2","","","4922","129","6","3","lose","go","0"
"pit-trial","251","1425834","0.0-134.0","battery-v0.2","","""event"",""trial"",""time""
""fullscreenenter"",""1"",""1865""
","
","
","""event"",""trial"",""time""
""fullscreenenter"",""1"",""1865""
","
","","","505.30000001192093","","","22","4922","314","n","elianto","#3366ff99"," "," ","1","+10","[1357]","1","2","","","4922","130","9","1","win","go","0"
"pit-trial","252","1429292","0.0-135.0","battery-v0.2","","""event"",""trial"",""time""
""fullscreenenter"",""1"",""1865""
","
","
","""event"",""trial"",""time""
""fullscreenenter"",""1"",""1865""
","
","","","598.1999999880791","","","22","4922","314","f","elianto","#3366ff99"," "," ","1","+10","[1448.5]","1","2","","","4922","131","8","1","win","go","0"
"pit-trial","253","1434158","0.0-136.0","battery-v0.2","","""event"",""trial"",""time""
""fullscreenenter"",""1"",""1865""
","
","
","""event"",""trial"",""time""
""fullscreenenter"",""1"",""1865""
","
","","","-1","","","22","4922","314","t","elianto","#f73b6a7A","-1","-1","1","0","[]","0","2","","","4922","132","7","4","lose","no-go","0"
"pit-trial","254","1437574","0.0-137.0","battery-v0.2","","""event"",""trial"",""time""
""fullscreenenter"",""1"",""1865""
","
","
","""event"",""trial"",""time""
""fullscreenenter"",""1"",""1865""
","
","","","554.8000000119209","","","22","4922","314","f","elianto","#3366ff99"," "," ","1","+10","[1405.800000011921]","1","2","","","4922","133","8","1","win","go","0"
"pit-trial","255","1440970","0.0-138.0","battery-v0.2","","""event"",""trial"",""time""
""fullscreenenter"",""1"",""1865""
","
","
","""event"",""trial"",""time""
""fullscreenenter"",""1"",""1865""
","
","","","533","","","22","4922","314","n","elianto","#3366ff99"," "," ","1","+10","[1384]","1","2","","","4922","134","9","1","win","go","0"
"pit-trial","256","1445833","0.0-139.0","battery-v0.2","","""event"",""trial"",""time""
""fullscreenenter"",""1"",""1865""
","
","
","""event"",""trial"",""time""
""fullscreenenter"",""1"",""1865""
","
","","","-1","","","22","4922","314","b","elianto","#f73b6a7A"," ","-1","0","-10","[]","0","2","","","4922","135","6","3","lose","go","0"
"pit-trial","257","1450701","0.0-140.0","battery-v0.2","","""event"",""trial"",""time""
""fullscreenenter"",""1"",""1865""
","
","
","""event"",""trial"",""time""
""fullscreenenter"",""1"",""1865""
","
","","","-1","","","22","4922","314","t","elianto","#f73b6a7A","-1","-1","1","0","[]","0","2","","","4922","136","7","4","lose","no-go","0"
"pit-trial","258","1455563","0.0-141.0","battery-v0.2","","""event"",""trial"",""time""
""fullscreenenter"",""1"",""1865""
","
","
","""event"",""trial"",""time""
""fullscreenenter"",""1"",""1865""
","
","","","-1","","","22","4922","314","t","elianto","#f73b6a7A","-1","-1","1","0","[]","0","2","","","4922","137","7","4","lose","no-go","0"
"pit-trial","259","1460426","0.0-142.0","battery-v0.2","","""event"",""trial"",""time""
""fullscreenenter"",""1"",""1865""
","
","
","""event"",""trial"",""time""
""fullscreenenter"",""1"",""1865""
","
","","","-1","","","22","4922","314","b","elianto","#f73b6a7A"," ","-1","0","-10","[]","0","2","","","4922","138","6","3","lose","go","0"
"pit-trial","260","1463892","0.0-143.0","battery-v0.2","","""event"",""trial"",""time""
""fullscreenenter"",""1"",""1865""
","
","
","""event"",""trial"",""time""
""fullscreenenter"",""1"",""1865""
","
","","","604.2000000476837","","","22","4922","314","n","elianto","#3366ff99"," "," ","1","+10","[1454.5]","1","2","","","4922","139","9","1","win","go","0"
"pit-trial","261","1467370","0.0-144.0","battery-v0.2","","""event"",""trial"",""time""
""fullscreenenter"",""1"",""1865""
","
","
","""event"",""trial"",""time""
""fullscreenenter"",""1"",""1865""
","
","","","615.8000000119209","","","22","4922","314","f","elianto","#3366ff99"," "," ","1","+10","[1466]","1","2","","","4922","140","8","1","win","go","0"
"pit-instructions","262","1486393","0.0-145.0","battery-v0.2","","""event"",""trial"",""time""
""fullscreenenter"",""1"",""1865""
","
","
","""event"",""trial"",""time""
""fullscreenenter"",""1"",""1865""
","
","","[{""page_index"":0,""viewing_time"":8633.5},{""page_index"":1,""viewing_time"":10382.600000023842}]","19017","","","","","","","","","","","","","","","","","","","","","","","",""
"pit-trial","263","1490282","0.0-146.0","battery-v0.2","","""event"",""trial"",""time""
""fullscreenenter"",""1"",""1865""
","
","
","""event"",""trial"",""time""
""fullscreenenter"",""1"",""1865""
","
","","","1023.0999999642372","","","22","4922","314","e","elianto","#f73b6a7A","-1"," ","0","-10","[1873.9000000357628]","1","3","","","4922","141","2","4","lose","no-go","0"
"pit-trial","264","1495145","0.0-147.0","battery-v0.2","","""event"",""trial"",""time""
""fullscreenenter"",""1"",""1865""
","
","
","""event"",""trial"",""time""
""fullscreenenter"",""1"",""1865""
","
","","","-1","","","22","4922","314","j","elianto","#f73b6a7A","-1","-1","1","0","[]","0","3","","","4922","142","0","4","lose","no-go","0"
"pit-trial","265","1498742","0.0-148.0","battery-v0.2","","""event"",""trial"",""time""
""fullscreenenter"",""1"",""1865""
","
","
","""event"",""trial"",""time""
""fullscreenenter"",""1"",""1865""
","
","","","733.5999999642372","","","22","4922","314","d","elianto","#3366ff99"," "," ","1","+10","[1584.1000000238419]","1","3","","","4922","143","1","1","win","go","0"
"pit-trial","266","1503608","0.0-149.0","battery-v0.2","","""event"",""trial"",""time""
""fullscreenenter"",""1"",""1865""
","
","
","""event"",""trial"",""time""
""fullscreenenter"",""1"",""1865""
","
","","","-1","","","22","4922","314","w","elianto","#f73b6a7A"," ","-1","0","-10","[]","0","3","","","4922","144","3","3","lose","go","0"
"pit-trial","267","1508472","0.0-150.0","battery-v0.2","","""event"",""trial"",""time""
""fullscreenenter"",""1"",""1865""
","
","
","""event"",""trial"",""time""
""fullscreenenter"",""1"",""1865""
","
","","","-1","","","22","4922","314","e","elianto","#f73b6a7A","-1","-1","1","0","[]","0","3","","","4922","145","2","4","lose","no-go","0"
"pit-trial","268","1513339","0.0-151.0","battery-v0.2","","""event"",""trial"",""time""
""fullscreenenter"",""1"",""1865""
","
","
","""event"",""trial"",""time""
""fullscreenenter"",""1"",""1865""
","
","","","-1","","","22","4922","314","j","elianto","#f73b6a7A","-1","-1","1","0","[]","0","3","","","4922","146","0","4","lose","no-go","0"
"pit-trial","269","1516872","0.0-152.0","battery-v0.2","","""event"",""trial"",""time""
""fullscreenenter"",""1"",""1865""
","
","
